#time,accel_x,accel_y,accel_z
1107.462100,7031.956449,-6217.729913,2068.457845
1107.462431,7105.977043,-6513.812290,995.924147
1107.462761,7105.977043,-6513.812290,995.924147
1107.463092,6883.915261,-6735.874072,995.924147
1107.463422,7105.977043,-6439.791695,1072.533697
1107.463753,6661.853478,-6587.832884,995.924147
1107.464083,6957.935855,-6661.853478,1072.533697
1107.464413,6883.915261,-6439.791695,1225.752797
1107.464744,6883.915261,-6365.771101,1072.533697
1107.465074,7031.956449,-5847.626942,919.314598
1107.465405,7105.977043,-6439.791695,1072.533697
1107.465735,6883.915261,-6513.812290,1072.533697
1107.466066,6883.915261,-6809.894666,919.314598
1107.466396,7105.977043,-6439.791695,919.314598
1107.466727,6809.894666,-6513.812290,1608.800546
1107.467057,6809.894666,-6735.874072,1072.533697
1107.467388,6809.894666,-6735.874072,842.705048
1107.467718,6957.935855,-6587.832884,1225.752797
1107.468049,6809.894666,-6957.935855,1302.362347
1107.468379,6883.915261,-6291.750507,995.924147
1107.468710,6735.874072,-6439.791695,1225.752797
1107.469040,6957.935855,-6365.771101,995.924147
1107.469371,6957.935855,-6513.812290,1149.143247
1107.469701,7031.956449,-6217.729913,1072.533697
1107.470032,6513.812290,-6143.709319,919.314598
1107.470362,6957.935855,-6587.832884,919.314598
1107.470692,6809.894666,-6735.874072,919.314598
1107.471023,7105.977043,-6809.894666,1685.410096
1107.471353,7105.977043,-6513.812290,842.705048
1107.471684,6957.935855,-6883.915261,766.095498
1107.472014,6957.935855,-6513.812290,842.705048
1107.472345,7105.977043,-6809.894666,842.705048
1107.472675,7254.018232,-6661.853478,919.314598
1107.473006,6809.894666,-6439.791695,919.314598
1107.473336,6883.915261,-6365.771101,1072.533697
1107.473667,7105.977043,-6661.853478,842.705048
1107.473997,7105.977043,-7031.956449,1455.581446
1107.474328,7624.121203,-7105.977043,766.095498
1107.474658,6957.935855,-7031.956449,995.924147
1107.474989,6957.935855,-6439.791695,842.705048
1107.475319,6957.935855,-6957.935855,612.876398
1107.475650,7328.038826,-6291.750507,995.924147
1107.475980,7179.997637,-6661.853478,995.924147
1107.476311,7031.956449,-6291.750507,919.314598
1107.476641,7031.956449,-6439.791695,842.705048
1107.476971,7031.956449,-6439.791695,995.924147
1107.477302,7105.977043,-6587.832884,1532.190996
1107.477632,6957.935855,-6513.812290,995.924147
1107.477963,6883.915261,-6587.832884,919.314598
1107.478293,6957.935855,-6809.894666,1225.752797
1107.478624,7105.977043,-6143.709319,1455.581446
1107.478954,7179.997637,-6217.729913,689.485948
1107.479285,7105.977043,-6439.791695,1149.143247
1107.479615,7105.977043,-6587.832884,1072.533697
1107.479946,7105.977043,-6513.812290,1072.533697
1107.480276,6587.832884,-6439.791695,1072.533697
1107.480607,6957.935855,-6513.812290,1225.752797
1107.480937,7105.977043,-6513.812290,1532.190996
1107.481268,6957.935855,-6661.853478,1072.533697
1107.481598,6735.874072,-6809.894666,1072.533697
1107.481929,7031.956449,-6587.832884,1455.581446
1107.482259,6735.874072,-6661.853478,1149.143247
1107.482590,6883.915261,-6513.812290,1225.752797
1107.482920,6883.915261,-6513.812290,995.924147
1107.483250,7179.997637,-6883.915261,1378.971896
1107.483581,7031.956449,-7031.956449,689.485948
1107.483911,6883.915261,-6439.791695,1149.143247
1107.484242,6883.915261,-6809.894666,1225.752797
1107.484572,6809.894666,-6365.771101,1532.190996
1107.484903,6513.812290,-5847.626942,842.705048
1107.485233,6957.935855,-6513.812290,995.924147
1107.485564,6735.874072,-6809.894666,1149.143247
1107.485894,6957.935855,-6735.874072,995.924147
1107.486225,6957.935855,-6735.874072,1149.143247
1107.486555,7328.038826,-6735.874072,995.924147
1107.486886,7105.977043,-6809.894666,842.705048
1107.487216,7105.977043,-6735.874072,995.924147
1107.487547,6809.894666,-6439.791695,1149.143247
1107.487877,7698.141797,-6735.874072,842.705048
1107.488208,7105.977043,-6513.812290,919.314598
1107.488538,6957.935855,-6735.874072,536.266849
1107.488869,6957.935855,-6513.812290,919.314598
1107.489199,6957.935855,-6661.853478,689.485948
1107.489529,7179.997637,-6439.791695,689.485948
1107.489860,7105.977043,-6735.874072,1072.533697
1107.490190,7328.038826,-6661.853478,1455.581446
1107.490521,7105.977043,-6883.915261,995.924147
1107.490851,7328.038826,-6513.812290,766.095498
1107.491182,7254.018232,-6661.853478,1072.533697
1107.491512,7105.977043,-6513.812290,919.314598
1107.491843,6957.935855,-6587.832884,842.705048
1107.492173,7105.977043,-6439.791695,1149.143247
1107.492504,7328.038826,-6365.771101,766.095498
1107.492834,7105.977043,-6587.832884,919.314598
1107.493165,7031.956449,-6661.853478,842.705048
1107.493495,6809.894666,-6735.874072,919.314598
1107.493826,6883.915261,-7105.977043,1225.752797
1107.494156,7031.956449,-6883.915261,1225.752797
1107.494487,7031.956449,-6587.832884,1072.533697
1107.494817,6735.874072,-6661.853478,995.924147
1107.495148,7105.977043,-6439.791695,1149.143247
1107.495478,7105.977043,-6439.791695,1532.190996
1107.495808,6957.935855,-6587.832884,995.924147
1107.496139,6809.894666,-6365.771101,919.314598
1107.496469,6883.915261,-6217.729913,1072.533697
1107.496800,6587.832884,-6513.812290,842.705048
1107.497130,7031.956449,-6291.750507,689.485948
1107.497461,6883.915261,-6365.771101,1072.533697
1107.497791,7031.956449,-6365.771101,1149.143247
1107.498122,7031.956449,-6291.750507,1225.752797
1107.498452,7179.997637,-6957.935855,1532.190996
1107.498783,6957.935855,-6735.874072,1149.143247
1107.499113,6883.915261,-6587.832884,995.924147
1107.499444,6809.894666,-6513.812290,995.924147
1107.499774,6735.874072,-6587.832884,1149.143247
1107.500105,6957.935855,-6365.771101,1072.533697
1107.500435,6957.935855,-6661.853478,1149.143247
1107.500766,6809.894666,-6513.812290,919.314598
1107.501096,6957.935855,-6883.915261,1072.533697
1107.501427,6883.915261,-6439.791695,1302.362347
1107.501757,7031.956449,-6883.915261,612.876398
1107.502088,6957.935855,-6809.894666,1072.533697
1107.502418,6957.935855,-6883.915261,1072.533697
1107.502748,6957.935855,-6587.832884,919.314598
1107.503079,6957.935855,-6217.729913,842.705048
1107.503409,6883.915261,-6735.874072,1149.143247
1107.503740,7105.977043,-6661.853478,1225.752797
1107.504070,7031.956449,-6587.832884,842.705048
1107.504401,7105.977043,-6661.853478,1072.533697
1107.504731,6809.894666,-6291.750507,1072.533697
1107.505062,6957.935855,-6661.853478,995.924147
1107.505392,7031.956449,-6587.832884,1225.752797
1107.505723,7031.956449,-6513.812290,1072.533697
1107.506053,7031.956449,-6069.688724,689.485948
1107.506384,7105.977043,-6513.812290,1149.143247
1107.506714,7031.956449,-6439.791695,919.314598
1107.507045,7105.977043,-6587.832884,766.095498
1107.507375,7031.956449,-6291.750507,995.924147
1107.507706,7254.018232,-5699.585753,1762.019645
1107.508036,7105.977043,-6513.812290,1072.533697
1107.508367,7105.977043,-6291.750507,919.314598
1107.508697,7105.977043,-6439.791695,842.705048
1107.509027,7254.018232,-6735.874072,1532.190996
1107.509358,7031.956449,-6661.853478,1072.533697
1107.509688,7031.956449,-6809.894666,842.705048
1107.510019,6587.832884,-6735.874072,1072.533697
1107.510349,7105.977043,-6809.894666,1149.143247
1107.510680,7105.977043,-6291.750507,1532.190996
1107.511010,7031.956449,-6587.832884,1149.143247
1107.511341,7105.977043,-6661.853478,1149.143247
1107.511671,7105.977043,-7031.956449,1072.533697
1107.512002,6883.915261,-6809.894666,1455.581446
1107.512332,6957.935855,-6513.812290,995.924147
1107.512663,7105.977043,-6217.729913,1149.143247
1107.512993,7105.977043,-6661.853478,1149.143247
1107.513324,6883.915261,-6513.812290,995.924147
1107.513654,6809.894666,-6513.812290,1225.752797
1107.513985,6809.894666,-6661.853478,1072.533697
1107.514315,6661.853478,-6587.832884,1072.533697
1107.514646,6809.894666,-6809.894666,1225.752797
1107.514976,6957.935855,-6809.894666,1225.752797
1107.515306,6661.853478,-6513.812290,1532.190996
1107.515637,6809.894666,-6439.791695,1149.143247
1107.515967,6883.915261,-6587.832884,919.314598
1107.516298,6957.935855,-6587.832884,995.924147
1107.516628,6957.935855,-6883.915261,1225.752797
1107.516959,7179.997637,-6587.832884,1302.362347
1107.517289,7105.977043,-6587.832884,1072.533697
1107.517620,6735.874072,-6587.832884,995.924147
1107.517950,6735.874072,-6587.832884,766.095498
1107.518281,7031.956449,-6439.791695,383.047749
1107.518611,6735.874072,-7031.956449,1225.752797
1107.518942,7105.977043,-6661.853478,1072.533697
1107.519272,6957.935855,-6439.791695,1072.533697
1107.519603,7105.977043,-6587.832884,766.095498
1107.519933,6809.894666,-6513.812290,689.485948
1107.520264,7105.977043,-6365.771101,1149.143247
1107.520594,7105.977043,-6661.853478,842.705048
1107.520925,7105.977043,-6513.812290,1072.533697
1107.521255,7550.100608,-6809.894666,1149.143247
1107.521585,7031.956449,-6661.853478,1149.143247
1107.521916,7105.977043,-6513.812290,842.705048
1107.522246,6957.935855,-6587.832884,919.314598
1107.522577,6957.935855,-6735.874072,689.485948
1107.522907,7105.977043,-6513.812290,766.095498
1107.523238,7105.977043,-6661.853478,1149.143247
1107.523568,7105.977043,-6587.832884,1149.143247
1107.523899,6883.915261,-6587.832884,995.924147
1107.524229,6809.894666,-6365.771101,1149.143247
1107.524560,7105.977043,-6365.771101,1072.533697
1107.524890,7031.956449,-6439.791695,766.095498
1107.525221,7179.997637,-6513.812290,919.314598
1107.525551,6957.935855,-6661.853478,995.924147
1107.525882,6735.874072,-5921.647536,1072.533697
1107.526212,6587.832884,-6587.832884,1302.362347
1107.526543,6957.935855,-6735.874072,1455.581446
1107.526873,6883.915261,-6661.853478,995.924147
1107.527204,7105.977043,-6513.812290,1378.971896
1107.527534,6735.874072,-6735.874072,1149.143247
1107.527864,6883.915261,-6439.791695,995.924147
1107.528195,6809.894666,-6809.894666,1072.533697
1107.528525,6957.935855,-6439.791695,1149.143247
1107.528854,6883.915261,-6439.791695,1378.971896
1107.529184,6735.874072,-6439.791695,766.095498
1107.529513,6735.874072,-6587.832884,995.924147
1107.529843,6809.894666,-6587.832884,842.705048
1107.530172,6883.915261,-6809.894666,919.314598
1107.530502,7031.956449,-6217.729913,1532.190996
1107.530832,6883.915261,-6735.874072,1072.533697
1107.531161,6809.894666,-6883.915261,1149.143247
1107.531491,6809.894666,-6587.832884,995.924147
1107.531820,6957.935855,-6735.874072,1302.362347
1107.532150,6883.915261,-7031.956449,1149.143247
1107.532479,6957.935855,-6661.853478,995.924147
1107.532809,6809.894666,-6587.832884,919.314598
1107.533139,6883.915261,-6809.894666,919.314598
1107.533468,7328.038826,-6513.812290,1532.190996
1107.533798,7105.977043,-6735.874072,995.924147
1107.534127,6957.935855,-6735.874072,919.314598
1107.534457,6735.874072,-6513.812290,919.314598
1107.534787,6661.853478,-6957.935855,1149.143247
1107.535116,7105.977043,-6513.812290,1149.143247
1107.535446,7105.977043,-6513.812290,995.924147
1107.535775,7105.977043,-6291.750507,995.924147
1107.536105,7105.977043,-6587.832884,919.314598
1107.536434,7328.038826,-6735.874072,1225.752797
1107.536764,7031.956449,-6661.853478,1302.362347
1107.537094,7031.956449,-6439.791695,689.485948
1107.537423,7031.956449,-6439.791695,995.924147
1107.537753,7031.956449,-6439.791695,995.924147
1107.538082,7402.059420,-6291.750507,1072.533697
1107.538412,7105.977043,-6513.812290,919.314598
1107.538741,7105.977043,-6217.729913,459.657299
1107.539071,7105.977043,-6513.812290,995.924147
1107.539401,6883.915261,-6513.812290,1225.752797
1107.539730,7254.018232,-6217.729913,1378.971896
1107.540060,7328.038826,-6365.771101,1302.362347
1107.540389,7105.977043,-6217.729913,919.314598
1107.540719,7105.977043,-6587.832884,1072.533697
1107.541049,7179.997637,-6513.812290,689.485948
1107.541378,7031.956449,-6809.894666,1072.533697
1107.541708,6809.894666,-6661.853478,1149.143247
1107.542037,6957.935855,-6587.832884,1149.143247
1107.542367,6957.935855,-6587.832884,919.314598
1107.542696,7179.997637,-6809.894666,842.705048
1107.543026,6809.894666,-6587.832884,1149.143247
1107.543356,7105.977043,-6291.750507,1149.143247
1107.543685,7031.956449,-6513.812290,1149.143247
1107.544015,6513.812290,-6217.729913,1532.190996
1107.544344,6809.894666,-6513.812290,1302.362347
1107.544674,7105.977043,-6809.894666,1225.752797
1107.545004,6809.894666,-6957.935855,1378.971896
1107.545333,6735.874072,-6957.935855,1149.143247
1107.545663,7105.977043,-6809.894666,1378.971896
1107.545992,6513.812290,-6735.874072,612.876398
1107.546322,6809.894666,-6661.853478,995.924147
1107.546651,7105.977043,-6809.894666,1149.143247
1107.546981,6809.894666,-6217.729913,1455.581446
1107.547311,6957.935855,-6513.812290,1302.362347
1107.547640,6883.915261,-6809.894666,1149.143247
1107.547970,6957.935855,-6661.853478,1149.143247
1107.548299,6957.935855,-7105.977043,1072.533697
1107.548629,7105.977043,-6587.832884,1378.971896
1107.548958,6883.915261,-6661.853478,919.314598
1107.549288,6883.915261,-6883.915261,766.095498
1107.549618,6883.915261,-6513.812290,1072.533697
1107.549947,7105.977043,-5995.668130,1225.752797
1107.550277,6883.915261,-6587.832884,842.705048
1107.550606,6957.935855,-6365.771101,1455.581446
1107.550936,6957.935855,-6513.812290,1225.752797
1107.551266,7031.956449,-6439.791695,1072.533697
1107.551595,6957.935855,-6217.729913,1685.410096
1107.551925,7179.997637,-6735.874072,842.705048
1107.552254,7105.977043,-6661.853478,1072.533697
1107.552584,7105.977043,-6809.894666,995.924147
1107.552913,7105.977043,-6809.894666,1072.533697
1107.553243,7105.977043,-6217.729913,1455.581446
1107.553573,7254.018232,-6069.688724,919.314598
1107.553902,6957.935855,-6513.812290,1072.533697
1107.554232,7105.977043,-6587.832884,766.095498
1107.554561,7402.059420,-6587.832884,842.705048
1107.554891,7254.018232,-6365.771101,1072.533697
1107.555220,7105.977043,-6513.812290,919.314598
1107.555550,7105.977043,-6587.832884,1072.533697
1107.555880,7179.997637,-6809.894666,1072.533697
1107.556209,7031.956449,-6513.812290,1302.362347
1107.556539,7031.956449,-6587.832884,842.705048
1107.556868,6809.894666,-6513.812290,995.924147
1107.557198,6957.935855,-6587.832884,995.924147
1107.557528,7105.977043,-6587.832884,995.924147
1107.557857,7328.038826,-6809.894666,1072.533697
1107.558187,6883.915261,-6513.812290,1072.533697
1107.558516,6883.915261,-6439.791695,1225.752797
1107.558846,6883.915261,-6365.771101,919.314598
1107.559175,6735.874072,-5921.647536,1072.533697
1107.559505,6957.935855,-7031.956449,995.924147
1107.559835,6883.915261,-6883.915261,1149.143247
1107.560164,6957.935855,-6661.853478,612.876398
1107.560494,6883.915261,-6661.853478,842.705048
1107.560823,7105.977043,-6735.874072,1378.971896
1107.561153,6883.915261,-6513.812290,919.314598
1107.561483,6809.894666,-7031.956449,1225.752797
1107.561812,6735.874072,-6439.791695,1149.143247
1107.562142,6809.894666,-6291.750507,536.266849
1107.562471,6735.874072,-6957.935855,1072.533697
1107.562801,6957.935855,-6661.853478,919.314598
1107.563130,7031.956449,-6587.832884,1225.752797
1107.563460,6661.853478,-6365.771101,842.705048
1107.563790,6809.894666,-6439.791695,1378.971896
1107.564119,7105.977043,-6735.874072,995.924147
1107.564449,6957.935855,-6809.894666,1149.143247
1107.564778,6735.874072,-7031.956449,1149.143247
1107.565108,7031.956449,-6587.832884,1072.533697
1107.565437,6809.894666,-6143.709319,919.314598
1107.565767,7031.956449,-6735.874072,842.705048
1107.566097,7105.977043,-6587.832884,1378.971896
1107.566426,7105.977043,-6513.812290,1072.533697
1107.566756,7550.100608,-6217.729913,1762.019645
1107.567085,7031.956449,-6217.729913,842.705048
1107.567415,6957.935855,-6439.791695,1149.143247
1107.567745,7105.977043,-6439.791695,1149.143247
1107.568074,7179.997637,-6365.771101,1149.143247
1107.568404,7624.121203,-6587.832884,919.314598
1107.568733,7031.956449,-6291.750507,536.266849
1107.569063,7105.977043,-6513.812290,842.705048
1107.569392,7031.956449,-6735.874072,1072.533697
1107.569722,7105.977043,-6513.812290,919.314598
1107.570052,6809.894666,-6439.791695,1225.752797
1107.570381,7105.977043,-6365.771101,1455.581446
1107.570711,7031.956449,-6587.832884,1455.581446
1107.571040,7328.038826,-6217.729913,1072.533697
1107.571370,7179.997637,-5995.668130,766.095498
1107.571699,6957.935855,-6365.771101,919.314598
1107.572029,7105.977043,-6439.791695,842.705048
1107.572359,7105.977043,-6661.853478,995.924147
1107.572688,7402.059420,-6069.688724,536.266849
1107.573018,6809.894666,-6217.729913,1149.143247
1107.573347,6735.874072,-6291.750507,1149.143247
1107.573677,6883.915261,-6735.874072,995.924147
1107.574007,7179.997637,-6735.874072,1455.581446
1107.574336,7179.997637,-6809.894666,919.314598
1107.574666,6809.894666,-6735.874072,766.095498
1107.574995,6735.874072,-6883.915261,1225.752797
1107.575325,6513.812290,-6587.832884,766.095498
1107.575654,6735.874072,-6735.874072,995.924147
1107.575984,7179.997637,-6809.894666,919.314598
1107.576314,6957.935855,-6587.832884,919.314598
1107.576643,6957.935855,-6439.791695,1149.143247
1107.576973,6957.935855,-6809.894666,1149.143247
1107.577302,7105.977043,-6439.791695,1225.752797
1107.577632,6587.832884,-6439.791695,1149.143247
1107.577961,6809.894666,-6661.853478,1225.752797
1107.578291,7105.977043,-5773.606348,919.314598
1107.578621,7328.038826,-5625.565159,1072.533697
1107.578950,8068.244768,-5551.544565,1608.800546
1107.579280,8216.285956,-5773.606348,1302.362347
1107.579609,8364.327145,-5995.668130,1378.971896
1107.579939,7328.038826,-6143.709319,612.876398
1107.580269,6439.791695,-7179.997637,0.000000
1107.580598,5699.585753,-7402.059420,76.609550
1107.580928,6439.791695,-6735.874072,612.876398
1107.581257,7476.080014,-6883.915261,1072.533697
1107.581587,8142.265362,-6291.750507,1762.019645
1107.581916,8216.285956,-5625.565159,2068.457845
1107.582246,8216.285956,-4071.132681,1455.581446
1107.582576,8068.244768,-4441.235652,1072.533697
1107.582905,7994.224174,-4737.318029,1072.533697
1107.583235,8438.347739,-4145.153275,1149.143247
1107.583564,9104.533087,-4515.256246,1225.752797
1107.583894,8512.368333,-4737.318029,842.705048
1107.584224,7698.141797,-5181.441594,842.705048
1107.584553,7920.203579,-5107.421000,612.876398
1107.584883,8586.388927,-5477.523971,1072.533697
1107.585212,8438.347739,-6809.894666,1225.752797
1107.585542,8142.265362,-5699.585753,995.924147
1107.585871,7476.080014,-6439.791695,229.828649
1107.586201,7105.977043,-6217.729913,459.657299
1107.586531,7179.997637,-5107.421000,153.219100
1107.586860,7328.038826,-6365.771101,536.266849
1107.587190,7994.224174,-4959.379811,1072.533697
1107.587519,8290.306550,-5329.482782,995.924147
1107.587849,8734.430116,-3701.029710,1225.752797
1107.588178,8438.347739,-4515.256246,1608.800546
1107.588508,9030.512492,-4441.235652,1149.143247
1107.588838,8808.450710,-3849.070898,612.876398
1107.589167,8364.327145,-4737.318029,1149.143247
1107.589497,8882.471304,-5107.421000,919.314598
1107.589826,8734.430116,-5477.523971,1532.190996
1107.590156,8660.409521,-6069.688724,1532.190996
1107.590486,8364.327145,-6069.688724,1072.533697
1107.590815,7698.141797,-6587.832884,1302.362347
1107.591145,7031.956449,-6365.771101,612.876398
1107.591474,6587.832884,-7105.977043,766.095498
1107.591804,6587.832884,-7105.977043,1225.752797
1107.592133,6735.874072,-6513.812290,919.314598
1107.592463,6587.832884,-5921.647536,689.485948
1107.592793,7105.977043,-5921.647536,1532.190996
1107.593122,7698.141797,-5921.647536,1455.581446
1107.593452,8438.347739,-5107.421000,1532.190996
1107.593781,8142.265362,-5329.482782,1149.143247
1107.594111,8586.388927,-5329.482782,1455.581446
1107.594440,7920.203579,-6069.688724,1378.971896
1107.594770,7920.203579,-6217.729913,1378.971896
1107.595100,7179.997637,-6217.729913,842.705048
1107.595429,7179.997637,-5773.606348,842.705048
1107.595759,7031.956449,-6883.915261,459.657299
1107.596088,6809.894666,-6661.853478,1072.533697
1107.596418,6661.853478,-6587.832884,612.876398
1107.596748,6513.812290,-5995.668130,612.876398
1107.597077,6069.688724,-6365.771101,1225.752797
1107.597407,6661.853478,-6883.915261,919.314598
1107.597736,6809.894666,-6513.812290,995.924147
1107.598066,6883.915261,-6217.729913,612.876398
1107.598395,7031.956449,-6661.853478,459.657299
1107.598725,7698.141797,-6809.894666,1762.019645
1107.599055,8068.244768,-6883.915261,1762.019645
1107.599384,7624.121203,-6809.894666,1608.800546
1107.599714,7179.997637,-6661.853478,1149.143247
1107.600043,6957.935855,-6291.750507,842.705048
1107.600373,6957.935855,-6513.812290,1225.752797
1107.600703,7105.977043,-5921.647536,1302.362347
1107.601032,7179.997637,-5921.647536,1455.581446
1107.601362,7105.977043,-5773.606348,1378.971896
1107.601691,6957.935855,-6217.729913,1225.752797
1107.602021,6735.874072,-6069.688724,995.924147
1107.602350,6513.812290,-6291.750507,689.485948
1107.602680,6439.791695,-6809.894666,919.314598
1107.603010,7031.956449,-6439.791695,1378.971896
1107.603339,7031.956449,-7550.100608,1302.362347
1107.603669,6957.935855,-7328.038826,1149.143247
1107.603998,6587.832884,-7254.018232,689.485948
1107.604328,6735.874072,-7031.956449,766.095498
1107.604657,6809.894666,-7105.977043,1072.533697
1107.604987,6809.894666,-7105.977043,689.485948
1107.605317,6513.812290,-6217.729913,689.485948
1107.605646,6809.894666,-6069.688724,612.876398
1107.605976,7105.977043,-6291.750507,306.438199
1107.606305,7105.977043,-6735.874072,1302.362347
1107.606635,6957.935855,-6661.853478,995.924147
1107.606965,6069.688724,-5773.606348,306.438199
1107.607294,6587.832884,-5921.647536,612.876398
1107.607624,7328.038826,-6439.791695,689.485948
1107.607953,7994.224174,-7031.956449,1838.629195
1107.608283,7550.100608,-6661.853478,1532.190996
1107.608612,6513.812290,-6439.791695,919.314598
1107.608942,6587.832884,-6513.812290,842.705048
1107.609272,6957.935855,-7402.059420,1762.019645
1107.609601,7254.018232,-7105.977043,1455.581446
1107.609931,7105.977043,-5921.647536,1455.581446
1107.610260,7031.956449,-5773.606348,995.924147
1107.610590,7179.997637,-6365.771101,1532.190996
1107.610919,7179.997637,-6291.750507,1378.971896
1107.611249,6883.915261,-6587.832884,995.924147
1107.611579,6587.832884,-6069.688724,919.314598
1107.611908,6661.853478,-6143.709319,919.314598
1107.612238,7105.977043,-6661.853478,766.095498
1107.612567,7179.997637,-7031.956449,1302.362347
1107.612897,7476.080014,-7031.956449,1149.143247
1107.613227,6735.874072,-6809.894666,689.485948
1107.613556,6291.750507,-6439.791695,1378.971896
1107.613886,6661.853478,-7105.977043,919.314598
1107.614215,6883.915261,-6587.832884,1149.143247
1107.614545,7328.038826,-5921.647536,1302.362347
1107.614874,7550.100608,-5329.482782,1455.581446
1107.615204,8216.285956,-5329.482782,1302.362347
1107.615534,7402.059420,-5625.565159,995.924147
1107.615863,6957.935855,-5773.606348,306.438199
1107.616193,6661.853478,-5773.606348,536.266849
1107.616522,7105.977043,-6883.915261,1072.533697
1107.616852,7550.100608,-7402.059420,1149.143247
1107.617182,6883.915261,-7254.018232,689.485948
1107.617511,6735.874072,-7105.977043,842.705048
1107.617841,6735.874072,-7179.997637,1072.533697
1107.618170,7105.977043,-7254.018232,1838.629195
1107.618500,7105.977043,-7179.997637,1838.629195
1107.618829,7476.080014,-6513.812290,1685.410096
1107.619159,6809.894666,-5773.606348,1225.752797
1107.619489,6587.832884,-6291.750507,1608.800546
1107.619818,6661.853478,-5995.668130,1608.800546
1107.620148,6809.894666,-6217.729913,1225.752797
1107.620477,6809.894666,-5847.626942,1072.533697
1107.620807,6291.750507,-6143.709319,689.485948
1107.621136,7105.977043,-7105.977043,1302.362347
1107.621466,6809.894666,-7254.018232,842.705048
1107.621796,6513.812290,-7402.059420,919.314598
1107.622125,6439.791695,-7328.038826,842.705048
1107.622455,6069.688724,-7328.038826,612.876398
1107.622784,6143.709319,-7402.059420,1838.629195
1107.623114,6365.771101,-6957.935855,995.924147
1107.623444,7031.956449,-6809.894666,1149.143247
1107.623773,6809.894666,-6661.853478,1225.752797
1107.624103,6735.874072,-6069.688724,536.266849
1107.624432,6661.853478,-6439.791695,459.657299
1107.624762,6809.894666,-6217.729913,0.000000
1107.625091,7105.977043,-6587.832884,689.485948
1107.625421,7476.080014,-7105.977043,1149.143247
1107.625751,7624.121203,-6735.874072,1149.143247
1107.626080,7031.956449,-7254.018232,1072.533697
1107.626410,6883.915261,-7698.141797,995.924147
1107.626739,6883.915261,-7105.977043,919.314598
1107.627069,7031.956449,-7105.977043,1225.752797
1107.627398,7698.141797,-6365.771101,1378.971896
1107.627728,7031.956449,-6587.832884,1455.581446
1107.628058,7105.977043,-5921.647536,1532.190996
1107.628387,7105.977043,-5847.626942,1532.190996
1107.628717,7328.038826,-5551.544565,1378.971896
1107.629046,7624.121203,-5995.668130,919.314598
1107.629376,7179.997637,-5773.606348,1455.581446
1107.629706,7254.018232,-5773.606348,842.705048
1107.630035,7254.018232,-6513.812290,1532.190996
1107.630365,7105.977043,-5847.626942,842.705048
1107.630694,6809.894666,-6291.750507,842.705048
1107.631024,6883.915261,-6365.771101,536.266849
1107.631353,7179.997637,-6661.853478,842.705048
1107.631683,7031.956449,-5995.668130,612.876398
1107.632013,7920.203579,-5699.585753,1072.533697
1107.632342,7624.121203,-5995.668130,842.705048
1107.632672,7105.977043,-5847.626942,536.266849
1107.633001,6957.935855,-6069.688724,383.047749
1107.633331,6883.915261,-5699.585753,1225.752797
1107.633660,6957.935855,-6365.771101,689.485948
1107.633990,7328.038826,-6439.791695,995.924147
1107.634319,7402.059420,-6661.853478,842.705048
1107.634648,7476.080014,-6957.935855,1072.533697
1107.634978,7476.080014,-6513.812290,842.705048
1107.635307,7179.997637,-7254.018232,995.924147
1107.635636,7105.977043,-7698.141797,842.705048
1107.635965,6957.935855,-7550.100608,1302.362347
1107.636295,6809.894666,-7328.038826,1532.190996
1107.636624,6439.791695,-6883.915261,919.314598
1107.636953,6143.709319,-6513.812290,1149.143247
1107.637282,6809.894666,-5995.668130,1378.971896
1107.637612,7476.080014,-6143.709319,1915.238745
1107.637941,7624.121203,-5033.400406,1838.629195
1107.638270,7772.162391,-5107.421000,1685.410096
1107.638599,6809.894666,-5477.523971,1455.581446
1107.638929,6809.894666,-6143.709319,1302.362347
1107.639258,6735.874072,-6883.915261,1455.581446
1107.639587,6883.915261,-7254.018232,1455.581446
1107.639916,5995.668130,-7328.038826,766.095498
1107.640246,5477.523971,-7624.121203,612.876398
1107.640575,5773.606348,-7624.121203,459.657299
1107.640904,6365.771101,-7402.059420,766.095498
1107.641233,6365.771101,-7105.977043,689.485948
1107.641563,6143.709319,-6365.771101,306.438199
1107.641892,6143.709319,-6439.791695,536.266849
1107.642221,6439.791695,-5921.647536,459.657299
1107.642550,7179.997637,-6069.688724,995.924147
1107.642880,7179.997637,-6217.729913,1225.752797
1107.643209,7550.100608,-6587.832884,1225.752797
1107.643538,7476.080014,-6217.729913,919.314598
1107.643867,7402.059420,-6291.750507,842.705048
1107.644197,7105.977043,-7254.018232,995.924147
1107.644526,7254.018232,-7846.182985,1378.971896
1107.644855,7328.038826,-7328.038826,1378.971896
1107.645184,6809.894666,-6883.915261,766.095498
1107.645514,6365.771101,-6587.832884,1072.533697
1107.645843,6661.853478,-6883.915261,1072.533697
1107.646172,7105.977043,-6883.915261,1072.533697
1107.646501,7179.997637,-6365.771101,1225.752797
1107.646831,6957.935855,-5847.626942,1149.143247
1107.647160,6957.935855,-5551.544565,1072.533697
1107.647489,7105.977043,-6143.709319,1149.143247
1107.647818,7031.956449,-6661.853478,1072.533697
1107.648148,6957.935855,-6587.832884,1072.533697
1107.648477,7105.977043,-6291.750507,536.266849
1107.648806,7179.997637,-6365.771101,1149.143247
1107.649135,7254.018232,-7031.956449,919.314598
1107.649465,7179.997637,-7031.956449,1072.533697
1107.649794,7031.956449,-6217.729913,919.314598
1107.650123,6957.935855,-6069.688724,1072.533697
1107.650452,7031.956449,-6069.688724,689.485948
1107.650782,7179.997637,-5477.523971,919.314598
1107.651111,7254.018232,-5329.482782,766.095498
1107.651440,7772.162391,-5699.585753,612.876398
1107.651769,7105.977043,-5699.585753,612.876398
1107.652099,7105.977043,-6069.688724,689.485948
1107.652428,7254.018232,-5921.647536,229.828649
1107.652757,7105.977043,-6513.812290,153.219100
1107.653086,7476.080014,-6661.853478,383.047749
1107.653416,7328.038826,-7476.080014,995.924147
1107.653745,7476.080014,-7698.141797,1072.533697
1107.654074,7550.100608,-7031.956449,1149.143247
1107.654403,6661.853478,-7179.997637,1532.190996
1107.654733,7031.956449,-6957.935855,1225.752797
1107.655062,6809.894666,-7179.997637,995.924147
1107.655391,6809.894666,-6809.894666,1149.143247
1107.655720,6957.935855,-6513.812290,1455.581446
1107.656050,7105.977043,-5625.565159,842.705048
1107.656379,7105.977043,-6365.771101,1378.971896
1107.656708,6735.874072,-6365.771101,1455.581446
1107.657037,6735.874072,-6069.688724,1302.362347
1107.657367,6735.874072,-6809.894666,1378.971896
1107.657696,6587.832884,-7105.977043,1378.971896
1107.658025,6735.874072,-7031.956449,842.705048
1107.658354,6587.832884,-7105.977043,1149.143247
1107.658684,6513.812290,-7254.018232,842.705048
1107.659013,6513.812290,-7105.977043,1072.533697
1107.659342,6291.750507,-7624.121203,1149.143247
1107.659671,6587.832884,-6513.812290,1225.752797
1107.660001,6439.791695,-5995.668130,1149.143247
1107.660330,6587.832884,-6069.688724,995.924147
1107.660659,6661.853478,-6217.729913,1762.019645
1107.660988,6809.894666,-6587.832884,919.314598
1107.661318,6513.812290,-5921.647536,536.266849
1107.661647,6661.853478,-6365.771101,612.876398
1107.661976,7105.977043,-7402.059420,995.924147
1107.662305,7179.997637,-7179.997637,1378.971896
1107.662635,6883.915261,-7772.162391,1149.143247
1107.662964,6883.915261,-7179.997637,919.314598
1107.663293,6883.915261,-7031.956449,612.876398
1107.663622,7105.977043,-6957.935855,995.924147
1107.663952,7031.956449,-7105.977043,1455.581446
1107.664281,7031.956449,-6365.771101,1378.971896
1107.664610,7105.977043,-5551.544565,1455.581446
1107.664939,7550.100608,-5699.585753,1915.238745
1107.665269,7772.162391,-6069.688724,1302.362347
1107.665598,7328.038826,-5773.606348,1072.533697
1107.665927,7105.977043,-5403.503377,1072.533697
1107.666256,7031.956449,-5995.668130,1072.533697
1107.666586,7328.038826,-6143.709319,1532.190996
1107.666915,7105.977043,-6661.853478,995.924147
1107.667244,6957.935855,-6291.750507,842.705048
1107.667573,6957.935855,-6883.915261,842.705048
1107.667903,6957.935855,-6883.915261,842.705048
1107.668232,6883.915261,-6217.729913,1072.533697
1107.668561,7179.997637,-6069.688724,689.485948
1107.668890,6957.935855,-5773.606348,919.314598
1107.669220,7105.977043,-5699.585753,766.095498
1107.669549,7550.100608,-5921.647536,919.314598
1107.669878,7031.956449,-5107.421000,842.705048
1107.670207,7328.038826,-5773.606348,1072.533697
1107.670537,7846.182985,-6439.791695,1072.533697
1107.670866,7772.162391,-6587.832884,995.924147
1107.671195,7698.141797,-6661.853478,536.266849
1107.671524,7254.018232,-6809.894666,612.876398
1107.671854,7105.977043,-7550.100608,842.705048
1107.672183,6735.874072,-7994.224174,1072.533697
1107.672512,6809.894666,-7624.121203,842.705048
1107.672841,6661.853478,-6957.935855,383.047749
1107.673171,6735.874072,-6513.812290,536.266849
1107.673500,6809.894666,-6291.750507,995.924147
1107.673829,7179.997637,-6513.812290,1378.971896
1107.674159,7624.121203,-5403.503377,1915.238745
1107.674488,7476.080014,-5773.606348,1838.629195
1107.674817,7105.977043,-5329.482782,1685.410096
1107.675146,6957.935855,-5921.647536,1455.581446
1107.675476,7328.038826,-6587.832884,1608.800546
1107.675805,7476.080014,-6809.894666,1991.848295
1107.676134,6957.935855,-6587.832884,1302.362347
1107.676463,6365.771101,-7031.956449,689.485948
1107.676793,5921.647536,-7698.141797,612.876398
1107.677122,6069.688724,-8290.306550,459.657299
1107.677451,5773.606348,-7179.997637,459.657299
1107.677780,5477.523971,-7031.956449,689.485948
1107.678110,6291.750507,-6661.853478,842.705048
1107.678439,6365.771101,-6587.832884,995.924147
1107.678768,6143.709319,-5847.626942,995.924147
1107.679097,6513.812290,-5625.565159,995.924147
1107.679427,7105.977043,-5995.668130,1072.533697
1107.679756,7402.059420,-6365.771101,1225.752797
1107.680085,7550.100608,-6587.832884,1608.800546
1107.680414,6883.915261,-6809.894666,1072.533697
1107.680744,6809.894666,-7476.080014,689.485948
1107.681073,6735.874072,-8216.285956,919.314598
1107.681402,6661.853478,-7920.203579,842.705048
1107.681731,6661.853478,-7994.224174,1302.362347
1107.682061,6291.750507,-7254.018232,1072.533697
1107.682390,6735.874072,-7179.997637,1072.533697
1107.682719,6809.894666,-6661.853478,1072.533697
1107.683048,6957.935855,-6069.688724,1072.533697
1107.683378,7031.956449,-5921.647536,1455.581446
1107.683707,6957.935855,-5773.606348,1225.752797
1107.684036,7105.977043,-5995.668130,1302.362347
1107.684365,7105.977043,-5995.668130,919.314598
1107.684695,7476.080014,-5847.626942,612.876398
1107.685024,8142.265362,-5995.668130,842.705048
1107.685353,7698.141797,-6587.832884,1072.533697
1107.685682,7254.018232,-7105.977043,1225.752797
1107.686012,7254.018232,-6957.935855,995.924147
1107.686341,7179.997637,-6291.750507,306.438199
1107.686670,6957.935855,-6513.812290,1149.143247
1107.686999,7105.977043,-6291.750507,1072.533697
1107.687329,6957.935855,-6143.709319,1072.533697
1107.687658,7031.956449,-5995.668130,766.095498
1107.687987,6809.894666,-6217.729913,536.266849
1107.688316,6217.729913,-5551.544565,383.047749
1107.688646,6957.935855,-5181.441594,0.000000
1107.688975,7179.997637,-5699.585753,612.876398
1107.689304,8512.368333,-5847.626942,1302.362347
1107.689633,8734.430116,-6291.750507,1762.019645
1107.689963,8660.409521,-5773.606348,1532.190996
1107.690292,7994.224174,-5773.606348,995.924147
1107.690621,7328.038826,-6809.894666,995.924147
1107.690950,7328.038826,-6957.935855,1149.143247
1107.691280,7328.038826,-7846.182985,1455.581446
1107.691609,7031.956449,-7179.997637,1225.752797
1107.691938,6143.709319,-6735.874072,612.876398
1107.692267,5921.647536,-6365.771101,766.095498
1107.692597,6217.729913,-6735.874072,842.705048
1107.692926,6217.729913,-6883.915261,842.705048
1107.693255,6365.771101,-6587.832884,1149.143247
1107.693584,6365.771101,-6291.750507,612.876398
1107.693914,6217.729913,-6143.709319,1838.629195
1107.694243,6439.791695,-6735.874072,995.924147
1107.694572,7105.977043,-7031.956449,919.314598
1107.694901,7328.038826,-7105.977043,1149.143247
1107.695231,7328.038826,-6809.894666,1685.410096
1107.695560,6587.832884,-7031.956449,919.314598
1107.695889,6513.812290,-6883.915261,766.095498
1107.696218,6439.791695,-7105.977043,459.657299
1107.696548,6291.750507,-7105.977043,995.924147
1107.696877,6217.729913,-6809.894666,1149.143247
1107.697206,6365.771101,-6069.688724,536.266849
1107.697535,6365.771101,-5699.585753,536.266849
1107.697865,6809.894666,-6365.771101,995.924147
1107.698194,7550.100608,-6735.874072,1455.581446
1107.698523,7328.038826,-6587.832884,1072.533697
1107.698852,6809.894666,-6217.729913,1072.533697
1107.699182,7105.977043,-6365.771101,919.314598
1107.699511,7179.997637,-7105.977043,1225.752797
1107.699840,7031.956449,-6883.915261,2298.286494
1107.700169,7254.018232,-7105.977043,1378.971896
1107.700499,7254.018232,-6735.874072,1225.752797
1107.700828,7476.080014,-6661.853478,1149.143247
1107.701157,6883.915261,-6957.935855,1455.581446
1107.701486,6661.853478,-6513.812290,1378.971896
1107.701816,6217.729913,-6291.750507,1302.362347
1107.702145,6365.771101,-5995.668130,536.266849
1107.702474,6365.771101,-6513.812290,689.485948
1107.702803,7105.977043,-6883.915261,1225.752797
1107.703133,6809.894666,-6957.935855,1149.143247
1107.703462,6883.915261,-6513.812290,536.266849
1107.703791,6957.935855,-5995.668130,536.266849
1107.704120,7402.059420,-6513.812290,1072.533697
1107.704450,7994.224174,-6291.750507,1455.581446
1107.704779,7846.182985,-6217.729913,1455.581446
1107.705108,7328.038826,-5551.544565,766.095498
1107.705437,7328.038826,-5477.523971,1072.533697
1107.705767,7402.059420,-5921.647536,919.314598
1107.706096,7402.059420,-5255.462188,1225.752797
1107.706425,7328.038826,-5773.606348,842.705048
1107.706754,7105.977043,-5625.565159,536.266849
1107.707084,7402.059420,-6365.771101,919.314598
1107.707413,7550.100608,-7105.977043,689.485948
1107.707742,7031.956449,-6365.771101,306.438199
1107.708071,6809.894666,-7254.018232,536.266849
1107.708401,7031.956449,-7994.224174,1149.143247
1107.708730,7105.977043,-7772.162391,1072.533697
1107.709059,6587.832884,-7254.018232,229.828649
1107.709388,6143.709319,-7179.997637,383.047749
1107.709718,6513.812290,-7105.977043,1072.533697
1107.710047,7476.080014,-7105.977043,1685.410096
1107.710376,7698.141797,-6143.709319,2451.505594
1107.710705,7772.162391,-5181.441594,1838.629195
1107.711035,6883.915261,-5329.482782,842.705048
1107.711364,6809.894666,-5773.606348,1685.410096
1107.711693,7105.977043,-6217.729913,1608.800546
1107.712022,6957.935855,-5995.668130,1225.752797
1107.712352,6365.771101,-6587.832884,842.705048
1107.712681,6069.688724,-6957.935855,842.705048
1107.713010,6217.729913,-7624.121203,842.705048
1107.713340,6291.750507,-7698.141797,842.705048
1107.713669,5847.626942,-7254.018232,536.266849
1107.713998,5847.626942,-7105.977043,766.095498
1107.714327,6217.729913,-7179.997637,383.047749
1107.714657,6291.750507,-6809.894666,612.876398
1107.714986,6809.894666,-5995.668130,1149.143247
1107.715315,6735.874072,-6069.688724,766.095498
1107.715644,7105.977043,-5921.647536,1378.971896
1107.715974,7624.121203,-5921.647536,1455.581446
1107.716303,7698.141797,-6217.729913,1072.533697
1107.716632,7105.977043,-6069.688724,1302.362347
1107.716961,6735.874072,-6587.832884,766.095498
1107.717291,6957.935855,-7328.038826,995.924147
1107.717620,7031.956449,-7105.977043,1302.362347
1107.717949,7179.997637,-7698.141797,1072.533697
1107.718278,6365.771101,-6365.771101,919.314598
1107.718608,6069.688724,-7698.141797,1072.533697
1107.718937,6661.853478,-7624.121203,1455.581446
1107.719266,7179.997637,-6217.729913,1378.971896
1107.719595,7846.182985,-5625.565159,919.314598
1107.719925,6735.874072,-5625.565159,842.705048
1107.720254,6661.853478,-6217.729913,1455.581446
1107.720583,6809.894666,-6143.709319,766.095498
1107.720912,7031.956449,-6069.688724,995.924147
1107.721242,7772.162391,-6809.894666,1149.143247
1107.721571,7328.038826,-6661.853478,842.705048
1107.721900,7476.080014,-7105.977043,919.314598
1107.722229,7402.059420,-6957.935855,995.924147
1107.722559,7476.080014,-5995.668130,1225.752797
1107.722888,7179.997637,-6735.874072,919.314598
1107.723217,7105.977043,-6587.832884,919.314598
1107.723546,7031.956449,-6143.709319,1072.533697
1107.723876,7031.956449,-5699.585753,459.657299
1107.724205,7179.997637,-5403.503377,995.924147
1107.724534,7105.977043,-5847.626942,919.314598
1107.724863,7179.997637,-5699.585753,766.095498
1107.725193,7105.977043,-5995.668130,612.876398
1107.725522,7328.038826,-6291.750507,842.705048
1107.725851,7105.977043,-7031.956449,842.705048
1107.726180,7105.977043,-7254.018232,1072.533697
1107.726510,7179.997637,-7179.997637,1072.533697
1107.726839,7550.100608,-6661.853478,1149.143247
1107.727168,7328.038826,-6735.874072,919.314598
1107.727497,7179.997637,-7328.038826,1608.800546
1107.727827,7105.977043,-7476.080014,1302.362347
1107.728156,6661.853478,-6957.935855,1149.143247
1107.728485,6661.853478,-6217.729913,995.924147
1107.728814,6439.791695,-6439.791695,1532.190996
1107.729144,6291.750507,-6513.812290,1532.190996
1107.729473,6957.935855,-5921.647536,1608.800546
1107.729802,7031.956449,-5699.585753,1378.971896
1107.730131,7105.977043,-5477.523971,1225.752797
1107.730461,6957.935855,-6365.771101,1225.752797
1107.730790,6957.935855,-6735.874072,919.314598
1107.731119,6883.915261,-7031.956449,1072.533697
1107.731448,6809.894666,-6957.935855,536.266849
1107.731778,6365.771101,-6957.935855,919.314598
1107.732107,6661.853478,-7179.997637,919.314598
1107.732436,6661.853478,-7179.997637,842.705048
1107.732766,6513.812290,-7402.059420,842.705048
1107.733095,6217.729913,-7031.956449,1455.581446
1107.733424,6365.771101,-6661.853478,1149.143247
1107.733753,6735.874072,-6883.915261,689.485948
1107.734083,6661.853478,-6439.791695,689.485948
1107.734412,7105.977043,-6809.894666,1149.143247
1107.734741,7254.018232,-6809.894666,1072.533697
1107.735070,7402.059420,-6291.750507,995.924147
1107.735400,7254.018232,-6735.874072,842.705048
1107.735729,7254.018232,-6661.853478,1072.533697
1107.736058,7179.997637,-6883.915261,1302.362347
1107.736387,7105.977043,-6587.832884,1149.143247
1107.736717,7105.977043,-6513.812290,995.924147
1107.737046,7105.977043,-6661.853478,1225.752797
1107.737375,7105.977043,-6439.791695,1225.752797
1107.737705,6809.894666,-6661.853478,1378.971896
1107.738034,7254.018232,-6143.709319,1225.752797
1107.738363,6957.935855,-6069.688724,1378.971896
1107.738692,7402.059420,-5921.647536,1532.190996
1107.739022,7254.018232,-6143.709319,1149.143247
1107.739351,7105.977043,-6439.791695,1225.752797
1107.739680,7031.956449,-6217.729913,1149.143247
1107.740009,6735.874072,-6661.853478,995.924147
1107.740339,6735.874072,-6735.874072,1149.143247
1107.740668,7328.038826,-6291.750507,766.095498
1107.740997,7254.018232,-6439.791695,919.314598
1107.741326,7105.977043,-5847.626942,919.314598
1107.741656,6809.894666,-6587.832884,459.657299
1107.741985,6883.915261,-6291.750507,536.266849
1107.742314,7105.977043,-5773.606348,383.047749
1107.742644,6957.935855,-6365.771101,766.095498
1107.742973,7254.018232,-6069.688724,919.314598
1107.743302,6957.935855,-6291.750507,995.924147
1107.743631,7328.038826,-6217.729913,1072.533697
1107.743961,7550.100608,-6587.832884,842.705048
1107.744290,7402.059420,-6809.894666,1225.752797
1107.744619,7328.038826,-7105.977043,1225.752797
1107.744948,6957.935855,-7624.121203,842.705048
1107.745278,6883.915261,-7105.977043,1149.143247
1107.745607,6069.688724,-7328.038826,612.876398
1107.745936,6291.750507,-7328.038826,612.876398
1107.746265,6661.853478,-6883.915261,995.924147
1107.746595,7254.018232,-7105.977043,1608.800546
1107.746924,8142.265362,-6365.771101,1685.410096
1107.747253,7624.121203,-5699.585753,1685.410096
1107.747583,7105.977043,-5255.462188,1685.410096
1107.747912,6735.874072,-5329.482782,1378.971896
1107.748241,7254.018232,-6143.709319,1608.800546
1107.748570,7772.162391,-6439.791695,1838.629195
1107.748900,7105.977043,-6513.812290,1455.581446
1107.749229,6365.771101,-6883.915261,1225.752797
1107.749558,6217.729913,-7328.038826,689.485948
1107.749887,5773.606348,-7624.121203,1072.533697
1107.750217,5625.565159,-7920.203579,842.705048
1107.750546,5699.585753,-7772.162391,459.657299
1107.750875,5625.565159,-7550.100608,383.047749
1107.751204,6217.729913,-6587.832884,383.047749
1107.751534,7105.977043,-6291.750507,459.657299
1107.751863,7105.977043,-6069.688724,842.705048
1107.752192,7550.100608,-6513.812290,1378.971896
1107.752522,7994.224174,-5995.668130,995.924147
1107.752851,7550.100608,-5551.544565,1532.190996
1107.753180,7550.100608,-5921.647536,995.924147
1107.753509,7550.100608,-6661.853478,1149.143247
1107.753839,7402.059420,-7254.018232,1149.143247
1107.754168,7328.038826,-7031.956449,1532.190996
1107.754497,7105.977043,-6809.894666,1225.752797
1107.754826,6143.709319,-6587.832884,766.095498
1107.755156,6661.853478,-7105.977043,689.485948
1107.755485,6735.874072,-7105.977043,1072.533697
1107.755814,6291.750507,-6587.832884,1302.362347
1107.756143,7105.977043,-6587.832884,612.876398
1107.756473,6883.915261,-6365.771101,1225.752797
1107.756802,7105.977043,-7105.977043,1149.143247
1107.757131,6809.894666,-6365.771101,1532.190996
1107.757461,7031.956449,-5625.565159,1149.143247
1107.757790,7105.977043,-5921.647536,842.705048
1107.758119,7402.059420,-5551.544565,919.314598
1107.758448,7179.997637,-6513.812290,1455.581446
1107.758778,7105.977043,-6587.832884,383.047749
1107.759107,6735.874072,-5995.668130,919.314598
1107.759436,7105.977043,-6661.853478,1072.533697
1107.759765,7105.977043,-6069.688724,1072.533697
1107.760095,7254.018232,-5847.626942,919.314598
1107.760424,7476.080014,-6069.688724,689.485948
1107.760753,7550.100608,-5699.585753,919.314598
1107.761082,6957.935855,-5995.668130,536.266849
1107.761412,6735.874072,-5477.523971,536.266849
1107.761741,6883.915261,-5699.585753,76.609550
1107.762070,7031.956449,-6883.915261,306.438199
1107.762399,7105.977043,-7254.018232,919.314598
1107.762729,7105.977043,-7328.038826,1225.752797
1107.763058,7328.038826,-7031.956449,1149.143247
1107.763387,7031.956449,-7179.997637,1532.190996
1107.763717,7031.956449,-7031.956449,766.095498
1107.764046,6883.915261,-7105.977043,919.314598
1107.764375,7105.977043,-7254.018232,1225.752797
1107.764704,7179.997637,-6883.915261,1378.971896
1107.765034,7105.977043,-6069.688724,1608.800546
1107.765363,7105.977043,-5921.647536,1762.019645
1107.765692,6883.915261,-6217.729913,1455.581446
1107.766021,6957.935855,-6069.688724,1378.971896
1107.766351,6735.874072,-5625.565159,1149.143247
1107.766680,6661.853478,-5921.647536,1072.533697
1107.767009,6587.832884,-6587.832884,689.485948
1107.767338,6587.832884,-6439.791695,612.876398
1107.767668,6735.874072,-6809.894666,689.485948
1107.767997,6883.915261,-6809.894666,1072.533697
1107.768326,6883.915261,-7624.121203,689.485948
1107.768656,6735.874072,-7550.100608,919.314598
1107.768985,6809.894666,-6661.853478,536.266849
1107.769314,6661.853478,-7031.956449,766.095498
1107.769643,6809.894666,-6365.771101,842.705048
1107.769973,6439.791695,-7031.956449,612.876398
1107.770302,6587.832884,-6513.812290,459.657299
1107.770631,6587.832884,-5995.668130,536.266849
1107.770960,7105.977043,-6587.832884,1149.143247
1107.771290,7698.141797,-6883.915261,1532.190996
1107.771619,7550.100608,-7031.956449,1455.581446
1107.771948,7105.977043,-6439.791695,1072.533697
1107.772277,7031.956449,-6217.729913,766.095498
1107.772607,7105.977043,-6587.832884,612.876398
1107.772936,7105.977043,-7254.018232,1302.362347
1107.773265,7179.997637,-7031.956449,1608.800546
1107.773595,7328.038826,-6069.688724,1302.362347
1107.773924,7105.977043,-5477.523971,1455.581446
1107.774253,7624.121203,-6365.771101,1378.971896
1107.774582,7031.956449,-6069.688724,1225.752797
1107.774912,7031.956449,-6439.791695,1302.362347
1107.775241,6661.853478,-5625.565159,1149.143247
1107.775570,6957.935855,-5921.647536,1149.143247
1107.775899,6809.894666,-6587.832884,1072.533697
1107.776229,6809.894666,-6587.832884,842.705048
1107.776558,6735.874072,-6883.915261,766.095498
1107.776887,7105.977043,-6365.771101,766.095498
1107.777216,7105.977043,-6217.729913,1149.143247
1107.777546,7105.977043,-7105.977043,1072.533697
1107.777875,7105.977043,-5773.606348,689.485948
1107.778204,6735.874072,-6365.771101,842.705048
1107.778534,7031.956449,-5625.565159,1149.143247
1107.778863,7550.100608,-5921.647536,689.485948
1107.779192,7105.977043,-5699.585753,842.705048
1107.779521,6883.915261,-5847.626942,383.047749
1107.779851,7179.997637,-6291.750507,689.485948
1107.780180,7254.018232,-6143.709319,919.314598
1107.780509,7179.997637,-6957.935855,995.924147
1107.780838,7254.018232,-7105.977043,995.924147
1107.781168,7105.977043,-7179.997637,842.705048
1107.781497,6809.894666,-8142.265362,842.705048
1107.781826,6439.791695,-7550.100608,1149.143247
1107.782155,6513.812290,-7254.018232,842.705048
1107.782485,6661.853478,-6809.894666,766.095498
1107.782814,6957.935855,-6439.791695,1532.190996
1107.783143,8068.244768,-7105.977043,1838.629195
1107.783473,8216.285956,-5551.544565,1915.238745
1107.783802,7031.956449,-5255.462188,1225.752797
1107.784131,6587.832884,-5107.421000,995.924147
1107.784460,7031.956449,-5847.626942,1532.190996
1107.784790,7698.141797,-6957.935855,1838.629195
1107.785119,7402.059420,-6587.832884,1378.971896
1107.785448,6587.832884,-6513.812290,842.705048
1107.785777,6365.771101,-6883.915261,995.924147
1107.786107,6365.771101,-7624.121203,1302.362347
1107.786436,6439.791695,-8216.285956,842.705048
1107.786765,5847.626942,-6957.935855,689.485948
1107.787094,5625.565159,-7179.997637,0.000000
1107.787424,5995.668130,-6587.832884,612.876398
1107.787753,6439.791695,-6439.791695,1149.143247
1107.788082,6809.894666,-6735.874072,842.705048
1107.788412,6957.935855,-6217.729913,1072.533697
1107.788741,7179.997637,-6365.771101,1149.143247
1107.789070,7624.121203,-5699.585753,689.485948
1107.789399,7550.100608,-6735.874072,1455.581446
1107.789729,7402.059420,-6883.915261,995.924147
1107.790058,7179.997637,-6883.915261,919.314598
1107.790387,7105.977043,-7031.956449,1302.362347
1107.790716,7254.018232,-5995.668130,1225.752797
1107.791046,7402.059420,-6661.853478,995.924147
1107.791375,6957.935855,-7105.977043,1149.143247
1107.791704,6883.915261,-6809.894666,1302.362347
1107.792033,6883.915261,-6587.832884,1225.752797
1107.792363,7328.038826,-6217.729913,459.657299
1107.792692,6513.812290,-6069.688724,766.095498
1107.793021,6661.853478,-6661.853478,1149.143247
1107.793351,6513.812290,-6439.791695,995.924147
1107.793680,6883.915261,-6217.729913,1149.143247
1107.794009,7105.977043,-6069.688724,766.095498
1107.794338,7698.141797,-6291.750507,1302.362347
1107.794668,7624.121203,-6217.729913,1302.362347
1107.794997,7105.977043,-6883.915261,1072.533697
1107.795326,6957.935855,-6291.750507,1149.143247
1107.795655,7105.977043,-6587.832884,842.705048
1107.795985,6883.915261,-6735.874072,842.705048
1107.796314,6883.915261,-5995.668130,766.095498
1107.796643,6809.894666,-6439.791695,1149.143247
1107.796972,6587.832884,-6439.791695,153.219100
1107.797302,5995.668130,-6439.791695,0.000000
1107.797631,6143.709319,-5921.647536,0.000000
1107.797960,6587.832884,-6069.688724,459.657299
1107.798290,7179.997637,-5995.668130,1762.019645
1107.798619,8068.244768,-6513.812290,1915.238745
1107.798948,8364.327145,-6513.812290,1532.190996
1107.799277,7772.162391,-5847.626942,1225.752797
1107.799607,7254.018232,-6513.812290,919.314598
1107.799936,7402.059420,-6143.709319,1302.362347
1107.800265,7772.162391,-7105.977043,1991.848295
1107.800594,7402.059420,-7179.997637,1838.629195
1107.800924,6883.915261,-6439.791695,1225.752797
1107.801253,6735.874072,-6735.874072,689.485948
1107.801582,6439.791695,-7105.977043,995.924147
1107.801911,6365.771101,-7254.018232,1302.362347
1107.802241,6365.771101,-6883.915261,1149.143247
1107.802570,6143.709319,-6217.729913,612.876398
1107.802899,6365.771101,-6661.853478,919.314598
1107.803229,6587.832884,-7476.080014,919.314598
1107.803558,6883.915261,-6809.894666,1149.143247
1107.803887,6513.812290,-7105.977043,1149.143247
1107.804216,7105.977043,-6661.853478,1302.362347
1107.804546,6957.935855,-6513.812290,1378.971896
1107.804875,6883.915261,-6735.874072,1149.143247
1107.805204,7254.018232,-6587.832884,1072.533697
1107.805533,7105.977043,-7031.956449,1225.752797
1107.805863,6883.915261,-6439.791695,766.095498
1107.806192,6439.791695,-6439.791695,306.438199
1107.806521,6143.709319,-6661.853478,536.266849
1107.806850,6513.812290,-6513.812290,153.219100
1107.807180,6809.894666,-7179.997637,536.266849
1107.807509,7031.956449,-7328.038826,1378.971896
1107.807838,7031.956449,-6661.853478,1072.533697
1107.808167,7179.997637,-6735.874072,919.314598
1107.808497,6957.935855,-6957.935855,919.314598
1107.808826,6587.832884,-7179.997637,1378.971896
1107.809155,7105.977043,-6587.832884,1149.143247
1107.809485,7550.100608,-6217.729913,1762.019645
1107.809814,7476.080014,-5847.626942,2298.286494
1107.810143,7550.100608,-5921.647536,1685.410096
1107.810472,7105.977043,-5921.647536,1838.629195
1107.810802,7031.956449,-5921.647536,1302.362347
1107.811131,6883.915261,-5921.647536,995.924147
1107.811460,6661.853478,-5921.647536,919.314598
1107.811789,7105.977043,-6217.729913,1149.143247
1107.812119,6957.935855,-6809.894666,1302.362347
1107.812448,6661.853478,-6513.812290,536.266849
1107.812777,6513.812290,-6291.750507,0.000000
1107.813106,6661.853478,-6957.935855,919.314598
1107.813436,7402.059420,-6661.853478,1149.143247
1107.813765,6957.935855,-6809.894666,995.924147
1107.814094,6735.874072,-5773.606348,459.657299
1107.814424,6735.874072,-5995.668130,612.876398
1107.814753,7105.977043,-6587.832884,1072.533697
1107.815082,7550.100608,-5847.626942,1149.143247
1107.815411,7402.059420,-5625.565159,612.876398
1107.815741,7179.997637,-5625.565159,536.266849
1107.816070,7254.018232,-6439.791695,1072.533697
1107.816399,7846.182985,-6513.812290,1762.019645
1107.816728,7698.141797,-6809.894666,1149.143247
1107.817058,7105.977043,-6883.915261,689.485948
1107.817387,6587.832884,-6957.935855,383.047749
1107.817716,6661.853478,-7698.141797,612.876398
1107.818045,6365.771101,-7254.018232,1532.190996
1107.818375,6735.874072,-7402.059420,1072.533697
1107.818704,6883.915261,-7179.997637,995.924147
1107.819033,6809.894666,-6883.915261,1072.533697
1107.819363,7179.997637,-7179.997637,1685.410096
1107.819692,7328.038826,-6143.709319,1455.581446
1107.820021,7402.059420,-5551.544565,1378.971896
1107.820350,7105.977043,-5995.668130,1532.190996
1107.820680,7179.997637,-6143.709319,1532.190996
1107.821009,7476.080014,-6217.729913,1225.752797
1107.821338,7105.977043,-6661.853478,1608.800546
1107.821667,6735.874072,-6439.791695,1225.752797
1107.821997,6513.812290,-6809.894666,1149.143247
1107.822326,6217.729913,-7328.038826,1302.362347
1107.822655,6291.750507,-6957.935855,689.485948
1107.822984,5921.647536,-6587.832884,919.314598
1107.823314,6365.771101,-6217.729913,689.485948
1107.823643,6365.771101,-6513.812290,689.485948
1107.823972,6809.894666,-6735.874072,1149.143247
1107.824302,6587.832884,-6735.874072,689.485948
1107.824631,6661.853478,-6587.832884,766.095498
1107.824960,6957.935855,-6957.935855,919.314598
1107.825289,7328.038826,-7105.977043,1149.143247
1107.825619,7179.997637,-6809.894666,1149.143247
1107.825948,7031.956449,-7031.956449,1225.752797
1107.826277,7179.997637,-7105.977043,1149.143247
1107.826606,7179.997637,-6809.894666,1455.581446
1107.826936,7105.977043,-6661.853478,1302.362347
1107.827265,6587.832884,-6513.812290,919.314598
1107.827594,6513.812290,-6291.750507,1149.143247
1107.827923,6809.894666,-6587.832884,1225.752797
1107.828253,7105.977043,-6365.771101,1378.971896
1107.828582,7254.018232,-5995.668130,1225.752797
1107.828911,7179.997637,-5403.503377,689.485948
1107.829241,7105.977043,-6217.729913,1225.752797
1107.829570,7179.997637,-6883.915261,1455.581446
1107.829899,7031.956449,-6291.750507,1455.581446
1107.830228,6587.832884,-6217.729913,459.657299
1107.830558,6661.853478,-6661.853478,689.485948
1107.830887,7105.977043,-6957.935855,842.705048
1107.831216,7105.977043,-7402.059420,995.924147
1107.831545,7179.997637,-6883.915261,536.266849
1107.831874,7031.956449,-6439.791695,536.266849
1107.832204,7031.956449,-6291.750507,919.314598
1107.832533,7105.977043,-6365.771101,1072.533697
1107.832862,7105.977043,-6217.729913,919.314598
1107.833192,7105.977043,-6069.688724,459.657299
1107.833521,6661.853478,-5847.626942,0.000000
1107.833850,7105.977043,-5773.606348,383.047749
1107.834180,7254.018232,-6143.709319,766.095498
1107.834509,7772.162391,-6217.729913,766.095498
1107.834838,8216.285956,-6365.771101,1225.752797
1107.835168,7772.162391,-7031.956449,1532.190996
1107.835497,7772.162391,-6439.791695,995.924147
1107.835826,7179.997637,-6587.832884,1149.143247
1107.836156,6883.915261,-6809.894666,1149.143247
1107.836485,7105.977043,-7105.977043,1225.752797
1107.836814,7105.977043,-7179.997637,1149.143247
1107.837144,6957.935855,-6883.915261,1302.362347
1107.837473,7105.977043,-6291.750507,995.924147
1107.837802,6957.935855,-5847.626942,1302.362347
1107.838132,6809.894666,-6883.915261,1455.581446
1107.838461,7031.956449,-6587.832884,1455.581446
1107.838790,6809.894666,-6143.709319,1302.362347
1107.839120,6513.812290,-6291.750507,919.314598
1107.839449,6513.812290,-7402.059420,1225.752797
1107.839778,6513.812290,-7031.956449,1225.752797
1107.840108,6809.894666,-7179.997637,1149.143247
1107.840437,7031.956449,-7179.997637,1225.752797
1107.840766,7328.038826,-7402.059420,1072.533697
1107.841096,6587.832884,-6735.874072,1225.752797
1107.841425,6439.791695,-6587.832884,842.705048
1107.841754,6439.791695,-7031.956449,842.705048
1107.842084,7105.977043,-6217.729913,766.095498
1107.842413,6439.791695,-6957.935855,842.705048
1107.842742,6439.791695,-6217.729913,459.657299
1107.843072,6513.812290,-6439.791695,459.657299
1107.843401,6809.894666,-6883.915261,459.657299
1107.843730,7254.018232,-7105.977043,1608.800546
1107.844060,7179.997637,-7254.018232,1149.143247
1107.844389,7328.038826,-6809.894666,1378.971896
1107.844718,7105.977043,-6735.874072,1149.143247
1107.845048,6809.894666,-6661.853478,1072.533697
1107.845377,6957.935855,-6587.832884,995.924147
1107.845706,7328.038826,-6735.874072,1378.971896
1107.846036,7550.100608,-6513.812290,1378.971896
1107.846365,7254.018232,-6143.709319,1455.581446
1107.846694,7328.038826,-5773.606348,1225.752797
1107.847024,6883.915261,-5921.647536,1225.752797
1107.847353,7031.956449,-6143.709319,1072.533697
1107.847682,6587.832884,-5773.606348,766.095498
1107.848011,6587.832884,-6365.771101,919.314598
1107.848341,6735.874072,-7105.977043,689.485948
1107.848670,6883.915261,-6883.915261,919.314598
1107.848999,6735.874072,-6809.894666,536.266849
1107.849329,7105.977043,-7031.956449,1072.533697
1107.849658,7105.977043,-6735.874072,1225.752797
1107.849987,7328.038826,-6957.935855,1149.143247
1107.850317,7105.977043,-6587.832884,766.095498
1107.850646,6513.812290,-5921.647536,459.657299
1107.850975,7105.977043,-6365.771101,1072.533697
1107.851305,7698.141797,-5995.668130,1302.362347
1107.851634,7402.059420,-5625.565159,459.657299
1107.851963,7476.080014,-5403.503377,842.705048
1107.852293,7179.997637,-5995.668130,919.314598
1107.852622,7179.997637,-6143.709319,766.095498
1107.852951,7328.038826,-7031.956449,1302.362347
1107.853281,7550.100608,-6661.853478,689.485948
1107.853610,7105.977043,-6957.935855,689.485948
1107.853939,7105.977043,-7179.997637,1149.143247
1107.854269,7105.977043,-7402.059420,1532.190996
1107.854598,6957.935855,-7254.018232,995.924147
1107.854927,6291.750507,-7476.080014,919.314598
1107.855257,6587.832884,-6735.874072,842.705048
1107.855586,7105.977043,-7031.956449,1762.019645
1107.855915,7698.141797,-6513.812290,2221.676944
1107.856245,7550.100608,-5329.482782,1838.629195
1107.856574,7179.997637,-5181.441594,1302.362347
1107.856903,7179.997637,-5033.400406,1378.971896
1107.857233,6809.894666,-6217.729913,1685.410096
1107.857562,7105.977043,-6661.853478,1838.629195
1107.857891,7105.977043,-6439.791695,1072.533697
1107.858221,6513.812290,-6513.812290,1072.533697
1107.858550,5847.626942,-7105.977043,842.705048
1107.858879,6291.750507,-7920.203579,766.095498
1107.859209,5921.647536,-7328.038826,919.314598
1107.859538,5995.668130,-7105.977043,919.314598
1107.859867,6069.688724,-7105.977043,536.266849
1107.860197,5847.626942,-6661.853478,612.876398
1107.860526,6809.894666,-6883.915261,612.876398
1107.860855,6513.812290,-6513.812290,1072.533697
1107.861185,7105.977043,-6587.832884,1072.533697
1107.861514,7402.059420,-6217.729913,1302.362347
1107.861843,7550.100608,-5995.668130,1685.410096
1107.862173,7402.059420,-6957.935855,1149.143247
1107.862502,7624.121203,-7179.997637,1225.752797
1107.862831,7624.121203,-7105.977043,995.924147
1107.863161,7105.977043,-7254.018232,1149.143247
1107.863490,7031.956449,-6513.812290,536.266849
1107.863819,6957.935855,-6809.894666,919.314598
1107.864149,6735.874072,-7254.018232,1072.533697
1107.864478,6735.874072,-6809.894666,1225.752797
1107.864807,6513.812290,-5995.668130,1302.362347
1107.865137,7105.977043,-6217.729913,995.924147
1107.865466,7031.956449,-5995.668130,1302.362347
1107.865795,7105.977043,-6069.688724,1532.190996
1107.866125,6957.935855,-6217.729913,995.924147
1107.866454,6883.915261,-5625.565159,459.657299
1107.866783,7105.977043,-6217.729913,1149.143247
1107.867113,7402.059420,-6587.832884,995.924147
1107.867442,7550.100608,-7031.956449,1072.533697
1107.867771,7105.977043,-6661.853478,612.876398
1107.868101,7254.018232,-6809.894666,306.438199
1107.868430,6883.915261,-6735.874072,1072.533697
1107.868759,7105.977043,-6217.729913,842.705048
1107.869089,7328.038826,-5699.585753,842.705048
1107.869418,6809.894666,-5551.544565,995.924147
1107.869747,7105.977043,-5847.626942,612.876398
1107.870077,6809.894666,-6291.750507,766.095498
1107.870406,7105.977043,-5995.668130,766.095498
1107.870735,6957.935855,-6143.709319,766.095498
1107.871065,6809.894666,-6513.812290,1378.971896
1107.871394,7105.977043,-6735.874072,995.924147
1107.871723,7402.059420,-7254.018232,1072.533697
1107.872053,7624.121203,-7031.956449,1072.533697
1107.872382,7994.224174,-6957.935855,1455.581446
1107.872711,7179.997637,-7031.956449,689.485948
1107.873041,6809.894666,-7105.977043,1225.752797
1107.873370,7105.977043,-7328.038826,1302.362347
1107.873699,7105.977043,-6587.832884,1455.581446
1107.874029,7254.018232,-7105.977043,995.924147
1107.874358,6587.832884,-6291.750507,1072.533697
1107.874687,6513.812290,-5921.647536,1302.362347
1107.875017,6513.812290,-6809.894666,1455.581446
1107.875346,6957.935855,-7105.977043,1838.629195
1107.875675,6957.935855,-6143.709319,1455.581446
1107.876005,6513.812290,-6291.750507,536.266849
1107.876334,6069.688724,-6439.791695,689.485948
1107.876663,6291.750507,-7328.038826,1072.533697
1107.876993,6809.894666,-6735.874072,766.095498
1107.877322,6883.915261,-6735.874072,919.314598
1107.877651,6513.812290,-7105.977043,766.095498
1107.877981,6661.853478,-6661.853478,842.705048
1107.878310,6513.812290,-7105.977043,689.485948
1107.878639,6365.771101,-7105.977043,842.705048
1107.878969,6365.771101,-6217.729913,459.657299
1107.879298,6291.750507,-6439.791695,766.095498
1107.879627,6291.750507,-6513.812290,766.095498
1107.879957,7105.977043,-6587.832884,919.314598
1107.880286,7105.977043,-6809.894666,919.314598
1107.880615,7031.956449,-6735.874072,919.314598
1107.880945,7179.997637,-6587.832884,1302.362347
1107.881274,7328.038826,-6587.832884,1225.752797
1107.881603,7698.141797,-6439.791695,995.924147
1107.881933,7624.121203,-6365.771101,1378.971896
1107.882262,7402.059420,-6439.791695,1455.581446
1107.882591,7624.121203,-6291.750507,1302.362347
1107.882921,7772.162391,-5921.647536,1762.019645
1107.883250,7402.059420,-6291.750507,1838.629195
1107.883579,6661.853478,-6439.791695,1532.190996
1107.883909,6365.771101,-6291.750507,995.924147
1107.884238,6735.874072,-6439.791695,1072.533697
1107.884567,7476.080014,-6217.729913,842.705048
1107.884897,6587.832884,-6217.729913,1149.143247
1107.885226,6661.853478,-6957.935855,1149.143247
1107.885555,6661.853478,-6957.935855,383.047749
1107.885885,6735.874072,-6661.853478,689.485948
1107.886214,7105.977043,-6069.688724,1149.143247
1107.886543,7624.121203,-6439.791695,995.924147
1107.886872,7624.121203,-7031.956449,995.924147
1107.887202,7254.018232,-5995.668130,1072.533697
1107.887531,7624.121203,-5699.585753,995.924147
1107.887860,7105.977043,-5773.606348,842.705048
1107.888190,7105.977043,-5847.626942,689.485948
1107.888519,6809.894666,-5847.626942,842.705048
1107.888848,6439.791695,-5699.585753,383.047749
1107.889178,7624.121203,-6365.771101,1149.143247
1107.889507,6957.935855,-6513.812290,919.314598
1107.889836,6809.894666,-6957.935855,689.485948
1107.890166,6809.894666,-7550.100608,919.314598
1107.890495,7254.018232,-7624.121203,1149.143247
1107.890824,6661.853478,-7994.224174,612.876398
1107.891154,6291.750507,-7846.182985,536.266849
1107.891483,6513.812290,-7179.997637,459.657299
1107.891812,6883.915261,-7179.997637,1378.971896
1107.892142,7254.018232,-7105.977043,2145.067394
1107.892471,7624.121203,-6143.709319,2145.067394
1107.892800,7402.059420,-5773.606348,842.705048
1107.893130,7105.977043,-5699.585753,1378.971896
1107.893459,7031.956449,-5699.585753,1455.581446
1107.893788,7105.977043,-5847.626942,1378.971896
1107.894118,6957.935855,-5921.647536,1378.971896
1107.894447,6661.853478,-6439.791695,995.924147
1107.894776,6291.750507,-7179.997637,1072.533697
1107.895106,6143.709319,-7328.038826,689.485948
1107.895435,6143.709319,-7179.997637,1149.143247
1107.895764,6365.771101,-7031.956449,766.095498
1107.896094,6513.812290,-7105.977043,383.047749
1107.896423,6143.709319,-7402.059420,306.438199
1107.896752,6661.853478,-6587.832884,229.828649
1107.897082,6291.750507,-6217.729913,153.219100
1107.897411,6809.894666,-6217.729913,612.876398
1107.897740,7179.997637,-7105.977043,995.924147
1107.898070,6883.915261,-6143.709319,1302.362347
1107.898399,6957.935855,-6069.688724,919.314598
1107.898728,7031.956449,-6217.729913,459.657299
1107.899058,7402.059420,-6883.915261,995.924147
1107.899387,7476.080014,-7402.059420,1455.581446
1107.899716,7105.977043,-6291.750507,1838.629195
1107.900046,6957.935855,-6069.688724,919.314598
1107.900375,6809.894666,-6217.729913,1072.533697
1107.900704,7105.977043,-6809.894666,766.095498
1107.901034,7476.080014,-6661.853478,1532.190996
1107.901363,7402.059420,-6143.709319,612.876398
1107.901692,7105.977043,-5699.585753,842.705048
1107.902022,6735.874072,-6217.729913,1225.752797
1107.902351,7031.956449,-6587.832884,1378.971896
1107.902680,6513.812290,-6735.874072,1838.629195
1107.903010,6661.853478,-6143.709319,842.705048
1107.903339,6883.915261,-6365.771101,919.314598
1107.903668,7105.977043,-6661.853478,1072.533697
1107.903998,7624.121203,-7105.977043,1072.533697
1107.904327,7254.018232,-6661.853478,536.266849
1107.904656,7105.977043,-6439.791695,612.876398
1107.904986,6809.894666,-6661.853478,1072.533697
1107.905315,7105.977043,-6439.791695,1072.533697
1107.905644,7105.977043,-5699.585753,1149.143247
1107.905974,7698.141797,-5255.462188,766.095498
1107.906303,6957.935855,-6069.688724,766.095498
1107.906632,7105.977043,-6291.750507,919.314598
1107.906962,6661.853478,-6587.832884,383.047749
1107.907291,6735.874072,-5995.668130,536.266849
1107.907620,6587.832884,-6587.832884,383.047749
1107.907950,6957.935855,-7031.956449,1149.143247
1107.908279,7328.038826,-7846.182985,1608.800546
1107.908608,7920.203579,-7105.977043,1378.971896
1107.908938,7550.100608,-6291.750507,1225.752797
1107.909267,6809.894666,-6513.812290,1378.971896
1107.909596,6809.894666,-6957.935855,1455.581446
1107.909926,7402.059420,-7328.038826,1532.190996
1107.910255,7328.038826,-6217.729913,1762.019645
1107.910584,7105.977043,-6513.812290,1455.581446
1107.910914,6809.894666,-5699.585753,1455.581446
1107.911243,6661.853478,-6069.688724,1149.143247
1107.911572,6587.832884,-6365.771101,1378.971896
1107.911902,6809.894666,-6217.729913,1762.019645
1107.912231,6661.853478,-6439.791695,1225.752797
1107.912560,6069.688724,-6439.791695,229.828649
1107.912890,6365.771101,-6809.894666,919.314598
1107.913219,6735.874072,-7105.977043,766.095498
1107.913548,6809.894666,-6883.915261,689.485948
1107.913878,6661.853478,-7105.977043,995.924147
1107.914207,6809.894666,-6883.915261,995.924147
1107.914536,6513.812290,-6883.915261,689.485948
1107.914866,7105.977043,-7105.977043,459.657299
1107.915195,6809.894666,-6513.812290,689.485948
1107.915524,6587.832884,-6661.853478,689.485948
1107.915854,6809.894666,-6513.812290,766.095498
1107.916183,7105.977043,-6217.729913,536.266849
1107.916512,7476.080014,-6883.915261,919.314598
1107.916842,7105.977043,-6883.915261,1072.533697
1107.917171,7031.956449,-7031.956449,766.095498
1107.917500,6809.894666,-6809.894666,536.266849
1107.917830,6809.894666,-6661.853478,1378.971896
1107.918159,7179.997637,-6809.894666,919.314598
1107.918488,7772.162391,-6439.791695,1455.581446
1107.918818,7402.059420,-6439.791695,1378.971896
1107.919147,7402.059420,-5625.565159,1302.362347
1107.919476,7105.977043,-5551.544565,1072.533697
1107.919806,7105.977043,-5995.668130,1378.971896
1107.920135,7031.956449,-6291.750507,1225.752797
1107.920464,6957.935855,-6439.791695,1149.143247
1107.920794,7179.997637,-5699.585753,842.705048
1107.921123,7105.977043,-6513.812290,1302.362347
1107.921452,6883.915261,-6883.915261,1149.143247
1107.921782,6957.935855,-6735.874072,689.485948
1107.922111,6513.812290,-7031.956449,766.095498
1107.922440,6883.915261,-6513.812290,536.266849
1107.922770,6957.935855,-6809.894666,842.705048
1107.923099,6883.915261,-6587.832884,1149.143247
1107.923428,7105.977043,-5995.668130,612.876398
1107.923758,7105.977043,-6661.853478,1378.971896
1107.924087,7550.100608,-5995.668130,842.705048
1107.924416,7402.059420,-5921.647536,995.924147
1107.924746,7328.038826,-5847.626942,842.705048
1107.925075,7031.956449,-5995.668130,383.047749
1107.925404,7179.997637,-5699.585753,306.438199
1107.925734,7328.038826,-6365.771101,1225.752797
1107.926063,7476.080014,-7105.977043,1225.752797
1107.926392,7254.018232,-7179.997637,995.924147
1107.926721,6513.812290,-7402.059420,1072.533697
1107.927051,6439.791695,-7254.018232,1455.581446
1107.927380,6365.771101,-7624.121203,842.705048
1107.927709,6735.874072,-7402.059420,766.095498
1107.928039,6735.874072,-6809.894666,1072.533697
1107.928368,7105.977043,-6291.750507,1149.143247
1107.928697,7846.182985,-5699.585753,1991.848295
1107.929027,7772.162391,-5995.668130,1685.410096
1107.929356,7402.059420,-5403.503377,2145.067394
1107.929685,7550.100608,-5107.421000,1378.971896
1107.930015,7772.162391,-5847.626942,1685.410096
1107.930344,7105.977043,-6143.709319,1608.800546
1107.930673,6809.894666,-6661.853478,995.924147
1107.931003,6513.812290,-6513.812290,766.095498
1107.931332,6217.729913,-7624.121203,1455.581446
1107.931661,5551.544565,-7772.162391,459.657299
1107.931990,6217.729913,-7698.141797,842.705048
1107.932320,6439.791695,-7105.977043,689.485948
1107.932649,6513.812290,-6735.874072,536.266849
1107.932978,6513.812290,-6069.688724,1838.629195
1107.933307,6809.894666,-6291.750507,459.657299
1107.933637,6735.874072,-5921.647536,306.438199
1107.933966,7328.038826,-6661.853478,919.314598
1107.934295,7550.100608,-6365.771101,842.705048
1107.934624,7179.997637,-6365.771101,612.876398
1107.934954,6883.915261,-6513.812290,766.095498
1107.935283,7031.956449,-7031.956449,612.876398
1107.935612,7105.977043,-7476.080014,1532.190996
1107.935941,7402.059420,-7031.956449,1532.190996
1107.936271,7105.977043,-7031.956449,842.705048
1107.936600,6809.894666,-6809.894666,995.924147
1107.936929,6809.894666,-7105.977043,1225.752797
1107.937258,7105.977043,-6513.812290,1532.190996
1107.937588,7254.018232,-5477.523971,1762.019645
1107.937917,7328.038826,-5403.503377,995.924147
1107.938246,6735.874072,-5625.565159,842.705048
1107.938576,6957.935855,-6217.729913,919.314598
1107.938905,6883.915261,-6809.894666,919.314598
1107.939234,7031.956449,-5995.668130,995.924147
1107.939563,6809.894666,-6439.791695,919.314598
1107.939893,6809.894666,-6735.874072,919.314598
1107.940222,6883.915261,-7328.038826,1072.533697
1107.940551,7031.956449,-7624.121203,1378.971896
1107.940880,7105.977043,-6809.894666,766.095498
1107.941210,7031.956449,-6735.874072,919.314598
1107.941539,6735.874072,-6439.791695,995.924147
1107.941868,7105.977043,-6809.894666,1302.362347
1107.942197,7624.121203,-5477.523971,1455.581446
1107.942527,7105.977043,-5107.421000,689.485948
1107.942856,7254.018232,-5329.482782,919.314598
1107.943185,7179.997637,-5329.482782,1072.533697
1107.943514,6957.935855,-5477.523971,383.047749
1107.943844,7105.977043,-6513.812290,229.828649
1107.944173,6957.935855,-6661.853478,612.876398
1107.944502,7105.977043,-7476.080014,995.924147
1107.944831,7476.080014,-7179.997637,1302.362347
1107.945161,7624.121203,-7328.038826,1532.190996
1107.945490,7328.038826,-7624.121203,1608.800546
1107.945819,7105.977043,-6957.935855,1378.971896
1107.946148,6809.894666,-7254.018232,1378.971896
1107.946478,7402.059420,-6661.853478,1149.143247
1107.946807,7105.977043,-5995.668130,1762.019645
1107.947136,7105.977043,-6291.750507,1455.581446
1107.947466,7105.977043,-5773.606348,1608.800546
1107.947795,7031.956449,-6217.729913,1225.752797
1107.948124,7179.997637,-6217.729913,919.314598
1107.948453,6661.853478,-6365.771101,1225.752797
1107.948783,6661.853478,-6513.812290,689.485948
1107.949112,6809.894666,-6365.771101,919.314598
1107.949441,6809.894666,-7402.059420,919.314598
1107.949770,6661.853478,-6883.915261,229.828649
1107.950100,6587.832884,-7105.977043,536.266849
1107.950429,6661.853478,-7846.182985,766.095498
1107.950758,6735.874072,-6735.874072,1072.533697
1107.951087,7105.977043,-6883.915261,919.314598
1107.951417,6735.874072,-6069.688724,689.485948
1107.951746,6587.832884,-6217.729913,766.095498
1107.952075,7105.977043,-6661.853478,919.314598
1107.952404,6735.874072,-6291.750507,536.266849
1107.952734,6735.874072,-6365.771101,1302.362347
1107.953063,6957.935855,-6365.771101,995.924147
1107.953392,7105.977043,-6735.874072,1072.533697
1107.953721,7328.038826,-7550.100608,1072.533697
1107.954051,7402.059420,-6957.935855,1685.410096
1107.954380,7179.997637,-6513.812290,1072.533697
1107.954709,6883.915261,-6439.791695,1225.752797
1107.955038,6957.935855,-6883.915261,1378.971896
1107.955368,7105.977043,-6883.915261,1378.971896
1107.955697,6957.935855,-6069.688724,1532.190996
1107.956026,6883.915261,-6069.688724,1455.581446
1107.956355,6809.894666,-5847.626942,1072.533697
1107.956685,7031.956449,-6143.709319,1378.971896
1107.957014,6957.935855,-6439.791695,1149.143247
1107.957343,7328.038826,-6439.791695,995.924147
1107.957673,6957.935855,-5995.668130,766.095498
1107.958002,6661.853478,-6217.729913,459.657299
1107.958331,6883.915261,-7105.977043,842.705048
1107.958660,6587.832884,-7105.977043,1225.752797
1107.958990,6883.915261,-6957.935855,995.924147
1107.959319,6883.915261,-6217.729913,536.266849
1107.959648,6661.853478,-6217.729913,536.266849
1107.959977,7105.977043,-6661.853478,995.924147
1107.960307,7105.977043,-6439.791695,995.924147
1107.960636,7328.038826,-5477.523971,842.705048
1107.960965,7179.997637,-5255.462188,689.485948
1107.961294,7105.977043,-5921.647536,919.314598
1107.961624,7105.977043,-5921.647536,842.705048
1107.961953,7550.100608,-6291.750507,995.924147
1107.962282,7328.038826,-6735.874072,842.705048
1107.962611,7402.059420,-6883.915261,1302.362347
1107.962941,7550.100608,-7402.059420,1302.362347
1107.963270,7550.100608,-7105.977043,1225.752797
1107.963599,6957.935855,-7550.100608,842.705048
1107.963928,6513.812290,-7476.080014,919.314598
1107.964258,6661.853478,-7105.977043,995.924147
1107.964587,7031.956449,-7105.977043,1302.362347
1107.964916,6883.915261,-6291.750507,1838.629195
1107.965245,7550.100608,-5995.668130,1838.629195
1107.965575,7476.080014,-5995.668130,1685.410096
1107.965904,7179.997637,-5625.565159,1378.971896
1107.966233,7179.997637,-5699.585753,842.705048
1107.966563,6809.894666,-6217.729913,1149.143247
1107.966892,6957.935855,-6957.935855,1378.971896
1107.967221,6735.874072,-6809.894666,1149.143247
1107.967550,6217.729913,-7179.997637,919.314598
1107.967880,6217.729913,-7550.100608,1302.362347
1107.968209,6069.688724,-7402.059420,689.485948
1107.968538,5921.647536,-7254.018232,689.485948
1107.968867,5995.668130,-7031.956449,536.266849
1107.969197,6439.791695,-6735.874072,612.876398
1107.969526,6069.688724,-6365.771101,536.266849
1107.969855,6439.791695,-6217.729913,459.657299
1107.970184,6809.894666,-6291.750507,995.924147
1107.970514,7105.977043,-6365.771101,1455.581446
1107.970843,6957.935855,-5921.647536,842.705048
1107.971172,7105.977043,-6217.729913,995.924147
1107.971501,7105.977043,-6587.832884,1149.143247
1107.971831,7402.059420,-7550.100608,1685.410096
1107.972160,7476.080014,-7105.977043,1685.410096
1107.972489,7772.162391,-7105.977043,1608.800546
1107.972818,6587.832884,-6661.853478,536.266849
1107.973148,6587.832884,-6809.894666,1225.752797
1107.973477,7105.977043,-6883.915261,1302.362347
1107.973806,7550.100608,-6587.832884,2068.457845
1107.974135,7105.977043,-5995.668130,995.924147
1107.974465,7179.997637,-5921.647536,919.314598
1107.974794,6809.894666,-6143.709319,842.705048
1107.975123,6661.853478,-6439.791695,1608.800546
1107.975452,6513.812290,-5995.668130,1455.581446
1107.975782,6957.935855,-6661.853478,919.314598
1107.976111,6957.935855,-6735.874072,1302.362347
1107.976440,7254.018232,-6439.791695,995.924147
1107.976770,7328.038826,-6587.832884,1072.533697
1107.977099,7105.977043,-6439.791695,995.924147
1107.977428,6957.935855,-6587.832884,612.876398
1107.977757,7105.977043,-6513.812290,1149.143247
1107.978087,7476.080014,-6217.729913,766.095498
1107.978416,7179.997637,-5847.626942,1072.533697
1107.978745,7105.977043,-5699.585753,842.705048
1107.979074,6809.894666,-5625.565159,306.438199
1107.979404,6957.935855,-5995.668130,612.876398
1107.979733,7031.956449,-6291.750507,842.705048
1107.980062,7179.997637,-6735.874072,306.438199
1107.980391,6883.915261,-6661.853478,459.657299
1107.980721,7105.977043,-7179.997637,689.485948
1107.981050,7402.059420,-7698.141797,1378.971896
1107.981379,7550.100608,-6661.853478,612.876398
1107.981708,7105.977043,-7476.080014,766.095498
1107.982038,6809.894666,-7402.059420,1225.752797
1107.982367,6957.935855,-7328.038826,1149.143247
1107.982696,7254.018232,-7254.018232,1608.800546
1107.983025,7772.162391,-6661.853478,2068.457845
1107.983355,7179.997637,-6291.750507,1225.752797
1107.983684,6809.894666,-5847.626942,1685.410096
1107.984013,6513.812290,-6069.688724,1378.971896
1107.984342,6735.874072,-6513.812290,995.924147
1107.984672,6217.729913,-6069.688724,1225.752797
1107.985001,6439.791695,-6809.894666,842.705048
1107.985330,6513.812290,-6143.709319,842.705048
1107.985660,6513.812290,-7105.977043,919.314598
1107.985989,7179.997637,-7772.162391,842.705048
1107.986318,6587.832884,-6809.894666,689.485948
1107.986647,6439.791695,-7402.059420,766.095498
1107.986977,6365.771101,-6809.894666,842.705048
1107.987306,7031.956449,-6809.894666,919.314598
1107.987635,6217.729913,-7328.038826,995.924147
1107.987964,6513.812290,-6883.915261,536.266849
1107.988294,6291.750507,-6883.915261,919.314598
1107.988623,6513.812290,-5995.668130,689.485948
1107.988952,6439.791695,-5699.585753,1072.533697
1107.989281,7254.018232,-6809.894666,1378.971896
1107.989611,7550.100608,-6587.832884,1532.190996
1107.989940,7772.162391,-6587.832884,1378.971896
1107.990269,7254.018232,-5995.668130,1149.143247
1107.990598,7328.038826,-5699.585753,919.314598
1107.990928,7254.018232,-6291.750507,1149.143247
1107.991257,7550.100608,-6587.832884,1762.019645
1107.991586,7550.100608,-6809.894666,1838.629195
1107.991915,7476.080014,-5847.626942,1608.800546
1107.992245,7105.977043,-6143.709319,1225.752797
1107.992574,6809.894666,-6439.791695,1149.143247
1107.992903,6809.894666,-6365.771101,1302.362347
1107.993232,6587.832884,-6587.832884,995.924147
1107.993562,7105.977043,-6439.791695,306.438199
1107.993891,7031.956449,-6143.709319,995.924147
1107.994220,7105.977043,-6291.750507,766.095498
1107.994550,6957.935855,-6661.853478,842.705048
1107.994879,7105.977043,-6883.915261,1149.143247
1107.995208,6957.935855,-6809.894666,1378.971896
1107.995537,7031.956449,-6365.771101,766.095498
1107.995867,7105.977043,-6365.771101,995.924147
1107.996196,7105.977043,-6439.791695,689.485948
1107.996525,7179.997637,-6513.812290,689.485948
1107.996854,7179.997637,-5847.626942,995.924147
1107.997184,7254.018232,-5403.503377,842.705048
1107.997513,7105.977043,-5773.606348,612.876398
1107.997842,7031.956449,-6291.750507,1072.533697
1107.998171,7402.059420,-7105.977043,1378.971896
1107.998501,7328.038826,-6809.894666,1072.533697
1107.998830,7105.977043,-6735.874072,919.314598
1107.999159,6957.935855,-6661.853478,612.876398
1107.999488,7105.977043,-7698.141797,1225.752797
1107.999818,6883.915261,-7476.080014,1378.971896
1108.000147,7031.956449,-7476.080014,1149.143247
1108.000476,6957.935855,-7031.956449,842.705048
1108.000805,6957.935855,-6661.853478,919.314598
1108.001135,7179.997637,-6735.874072,1838.629195
1108.001464,7476.080014,-6587.832884,2298.286494
1108.001793,7772.162391,-6143.709319,1762.019645
1108.002122,7105.977043,-5477.523971,995.924147
1108.002452,6809.894666,-5699.585753,1149.143247
1108.002781,7105.977043,-5995.668130,1455.581446
1108.003110,7105.977043,-6587.832884,1991.848295
1108.003439,6883.915261,-6735.874072,1302.362347
1108.003769,6217.729913,-6217.729913,536.266849
1108.004098,6069.688724,-7031.956449,306.438199
1108.004427,6365.771101,-7328.038826,766.095498
1108.004757,6513.812290,-7698.141797,1072.533697
1108.005086,6439.791695,-7254.018232,1225.752797
1108.005415,6217.729913,-6587.832884,383.047749
1108.005744,6069.688724,-6513.812290,919.314598
1108.006074,6735.874072,-6809.894666,842.705048
1108.006403,6735.874072,-6957.935855,766.095498
1108.006732,6661.853478,-6735.874072,612.876398
1108.007061,6957.935855,-6217.729913,229.828649
1108.007391,7105.977043,-6143.709319,459.657299
1108.007720,7402.059420,-6365.771101,1149.143247
1108.008049,7328.038826,-6883.915261,1378.971896
1108.008378,7105.977043,-6883.915261,919.314598
1108.008708,7031.956449,-5921.647536,1149.143247
1108.009037,6957.935855,-6587.832884,689.485948
1108.009366,7254.018232,-6735.874072,1455.581446
1108.009695,7402.059420,-6883.915261,1455.581446
1108.010025,6661.853478,-6439.791695,1455.581446
1108.010354,7031.956449,-5921.647536,1149.143247
1108.010683,7105.977043,-6291.750507,689.485948
1108.011012,7328.038826,-6439.791695,1378.971896
1108.011342,6957.935855,-6143.709319,1149.143247
1108.011671,6587.832884,-5921.647536,1378.971896
1108.012000,6365.771101,-6217.729913,842.705048
1108.012329,6809.894666,-6661.853478,919.314598
1108.012659,7105.977043,-6587.832884,1149.143247
1108.012988,7031.956449,-6291.750507,1302.362347
1108.013317,7179.997637,-6439.791695,766.095498
1108.013647,7105.977043,-5921.647536,995.924147
1108.013976,7328.038826,-6439.791695,1149.143247
1108.014305,7624.121203,-6143.709319,766.095498
1108.014634,7698.141797,-5551.544565,1532.190996
1108.014964,7254.018232,-5699.585753,919.314598
1108.015293,6883.915261,-5921.647536,536.266849
1108.015622,6809.894666,-6735.874072,842.705048
1108.015951,6957.935855,-6365.771101,612.876398
1108.016281,7105.977043,-6365.771101,766.095498
1108.016610,7031.956449,-6957.935855,995.924147
1108.016939,6661.853478,-7105.977043,1072.533697
1108.017268,7179.997637,-7402.059420,1072.533697
1108.017598,7105.977043,-7105.977043,1225.752797
1108.017927,7105.977043,-6513.812290,1072.533697
1108.018256,7105.977043,-7105.977043,1149.143247
1108.018585,7254.018232,-7179.997637,1455.581446
1108.018915,7550.100608,-7105.977043,1149.143247
1108.019244,7031.956449,-6069.688724,1149.143247
1108.019573,7105.977043,-6365.771101,1762.019645
1108.019902,7105.977043,-6587.832884,1532.190996
1108.020232,6957.935855,-6217.729913,1149.143247
1108.020561,6735.874072,-6291.750507,919.314598
1108.020890,7476.080014,-6143.709319,1608.800546
1108.021219,6513.812290,-6365.771101,1072.533697
1108.021549,6439.791695,-6661.853478,689.485948
1108.021878,6217.729913,-6661.853478,766.095498
1108.022207,6365.771101,-6809.894666,612.876398
1108.022536,6661.853478,-6883.915261,842.705048
1108.022866,6513.812290,-7402.059420,1302.362347
1108.023195,6439.791695,-7328.038826,842.705048
1108.023524,6291.750507,-6587.832884,536.266849
1108.023854,6809.894666,-6735.874072,306.438199
1108.024183,6809.894666,-6513.812290,842.705048
1108.024512,7031.956449,-6661.853478,612.876398
1108.024841,6809.894666,-5921.647536,536.266849
1108.025171,7179.997637,-6217.729913,459.657299
1108.025500,7031.956449,-6883.915261,689.485948
1108.025829,7254.018232,-7105.977043,1378.971896
1108.026158,6957.935855,-7031.956449,1302.362347
1108.026488,6883.915261,-7031.956449,919.314598
1108.026817,6809.894666,-6661.853478,1225.752797
1108.027146,7031.956449,-6809.894666,1302.362347
1108.027475,7179.997637,-6661.853478,1455.581446
1108.027805,7105.977043,-6883.915261,1302.362347
1108.028134,7402.059420,-5699.585753,1608.800546
1108.028463,7105.977043,-6291.750507,1762.019645
1108.028792,7254.018232,-6217.729913,1455.581446
1108.029122,7328.038826,-6439.791695,1532.190996
1108.029451,7179.997637,-6587.832884,1455.581446
1108.029780,6957.935855,-5847.626942,1915.238745
1108.030109,6809.894666,-6217.729913,842.705048
1108.030439,6809.894666,-6735.874072,1302.362347
1108.030768,6661.853478,-6809.894666,919.314598
1108.031097,6735.874072,-6291.750507,1072.533697
1108.031426,7031.956449,-6365.771101,459.657299
1108.031756,7105.977043,-6587.832884,842.705048
1108.032085,7031.956449,-6735.874072,919.314598
1108.032414,6809.894666,-6291.750507,842.705048
1108.032743,7402.059420,-5921.647536,995.924147
1108.033072,7328.038826,-5625.565159,1225.752797
1108.033401,7550.100608,-5995.668130,995.924147
1108.033731,7105.977043,-5847.626942,919.314598
1108.034060,6957.935855,-5995.668130,842.705048
1108.034389,7105.977043,-6587.832884,995.924147
1108.034718,7328.038826,-6587.832884,919.314598
1108.035047,6957.935855,-7105.977043,842.705048
1108.035376,6957.935855,-7328.038826,766.095498
1108.035705,6809.894666,-7402.059420,766.095498
1108.036034,6957.935855,-7624.121203,1225.752797
1108.036363,6809.894666,-7254.018232,995.924147
1108.036693,6291.750507,-7179.997637,689.485948
1108.037022,6143.709319,-6957.935855,766.095498
1108.037351,6957.935855,-6587.832884,1149.143247
1108.037680,7402.059420,-6291.750507,1915.238745
1108.038009,7920.203579,-6291.750507,1991.848295
1108.038338,7550.100608,-5255.462188,1762.019645
1108.038667,7105.977043,-5329.482782,1608.800546
1108.038996,7105.977043,-6069.688724,1455.581446
1108.039325,7328.038826,-6587.832884,1685.410096
1108.039655,7105.977043,-6661.853478,1685.410096
1108.039984,6513.812290,-6735.874072,689.485948
1108.040313,5847.626942,-7179.997637,536.266849
1108.040642,6439.791695,-7698.141797,842.705048
1108.040971,6069.688724,-7846.182985,919.314598
1108.041300,6217.729913,-7402.059420,306.438199
1108.041629,6291.750507,-6735.874072,689.485948
1108.041958,6957.935855,-6439.791695,842.705048
1108.042287,6661.853478,-6217.729913,995.924147
1108.042616,6883.915261,-6143.709319,306.438199
1108.042946,7105.977043,-5921.647536,536.266849
1108.043275,7476.080014,-5625.565159,995.924147
1108.043604,7772.162391,-5995.668130,1378.971896
1108.043933,7254.018232,-6217.729913,1225.752797
1108.044262,7179.997637,-6957.935855,1072.533697
1108.044591,6735.874072,-7402.059420,919.314598
1108.044920,6957.935855,-7254.018232,1455.581446
1108.045249,6809.894666,-7550.100608,1225.752797
1108.045578,7105.977043,-6735.874072,995.924147
1108.045908,7105.977043,-6883.915261,1225.752797
1108.046237,6809.894666,-6957.935855,1302.362347
1108.046566,7031.956449,-6439.791695,1608.800546
1108.046895,6883.915261,-5921.647536,1762.019645
1108.047224,7105.977043,-5625.565159,1378.971896
1108.047553,7105.977043,-5699.585753,1225.752797
1108.047882,6883.915261,-6587.832884,1378.971896
1108.048211,6809.894666,-5921.647536,1225.752797
1108.048540,7105.977043,-6143.709319,919.314598
1108.048870,7476.080014,-6735.874072,1149.143247
1108.049199,7105.977043,-6809.894666,1149.143247
1108.049528,7402.059420,-6661.853478,842.705048
1108.049857,6957.935855,-6291.750507,919.314598
1108.050186,7031.956449,-6957.935855,459.657299
1108.050515,7105.977043,-6883.915261,995.924147
1108.050844,7402.059420,-6439.791695,383.047749
1108.051173,7179.997637,-5847.626942,995.924147
1108.051502,7105.977043,-5329.482782,536.266849
1108.051832,7254.018232,-6143.709319,766.095498
1108.052161,7105.977043,-5995.668130,766.095498
1108.052490,6957.935855,-5699.585753,842.705048
1108.052819,6809.894666,-5921.647536,995.924147
1108.053148,7105.977043,-6069.688724,383.047749
1108.053477,7105.977043,-7105.977043,919.314598
1108.053806,7624.121203,-7624.121203,1532.190996
1108.054135,7920.203579,-7105.977043,919.314598
1108.054464,6957.935855,-6809.894666,919.314598
1108.054794,6883.915261,-6735.874072,1072.533697
1108.055123,7254.018232,-7105.977043,1225.752797
1108.055452,7402.059420,-7031.956449,1915.238745
1108.055781,7105.977043,-6217.729913,1608.800546
1108.056110,6735.874072,-5921.647536,1225.752797
1108.056439,6957.935855,-6069.688724,1455.581446
1108.056768,6957.935855,-6439.791695,1532.190996
1108.057097,6957.935855,-6513.812290,2068.457845
1108.057426,6513.812290,-6439.791695,842.705048
1108.057756,6069.688724,-7105.977043,766.095498
1108.058085,5995.668130,-7105.977043,612.876398
1108.058414,5921.647536,-7402.059420,306.438199
1108.058743,6439.791695,-8068.244768,1072.533697
1108.059072,6439.791695,-7402.059420,919.314598
1108.059401,6439.791695,-7031.956449,689.485948
1108.059730,6957.935855,-6365.771101,842.705048
1108.060059,7105.977043,-6291.750507,1378.971896
1108.060388,7105.977043,-6291.750507,1149.143247
1108.060717,7031.956449,-5995.668130,1149.143247
1108.061047,6735.874072,-5773.606348,689.485948
1108.061376,6735.874072,-5847.626942,383.047749
1108.061705,6957.935855,-5773.606348,1149.143247
1108.062034,7179.997637,-7105.977043,1149.143247
1108.062363,7328.038826,-7179.997637,995.924147
1108.062692,7031.956449,-7031.956449,842.705048
1108.063021,7179.997637,-7105.977043,766.095498
1108.063350,6661.853478,-7105.977043,919.314598
1108.063679,6809.894666,-7254.018232,1072.533697
1108.064009,6957.935855,-6809.894666,1225.752797
1108.064338,7328.038826,-6291.750507,995.924147
1108.064667,7920.203579,-5995.668130,1072.533697
1108.064996,7476.080014,-5921.647536,1455.581446
1108.065325,7328.038826,-6217.729913,1532.190996
1108.065654,7105.977043,-6143.709319,1225.752797
1108.065983,7328.038826,-5625.565159,995.924147
1108.066312,7031.956449,-6735.874072,1378.971896
1108.066641,7105.977043,-6365.771101,1532.190996
1108.066971,6735.874072,-6291.750507,1225.752797
1108.067300,6957.935855,-5921.647536,842.705048
1108.067629,6809.894666,-6661.853478,1455.581446
1108.067958,6809.894666,-7179.997637,459.657299
1108.068287,6883.915261,-6587.832884,536.266849
1108.068616,7031.956449,-6513.812290,612.876398
1108.068945,6661.853478,-6513.812290,766.095498
1108.069274,6661.853478,-6587.832884,689.485948
1108.069603,6809.894666,-6439.791695,689.485948
1108.069933,6809.894666,-5773.606348,1149.143247
1108.070262,7402.059420,-5847.626942,1149.143247
1108.070591,7550.100608,-6365.771101,995.924147
1108.070920,7476.080014,-6661.853478,612.876398
1108.071249,7105.977043,-6809.894666,919.314598
1108.071578,7031.956449,-6587.832884,612.876398
1108.071907,6957.935855,-6661.853478,1149.143247
1108.072236,6587.832884,-7031.956449,842.705048
1108.072565,6883.915261,-7476.080014,995.924147
1108.072895,6735.874072,-7254.018232,766.095498
1108.073224,6513.812290,-7105.977043,536.266849
1108.073553,6735.874072,-6513.812290,536.266849
1108.073882,6957.935855,-6809.894666,1685.410096
1108.074211,7698.141797,-6587.832884,1838.629195
1108.074540,7550.100608,-5921.647536,1762.019645
1108.074869,7105.977043,-5403.503377,1608.800546
1108.075198,7105.977043,-5995.668130,2068.457845
1108.075527,7105.977043,-6661.853478,1838.629195
1108.075857,7179.997637,-6587.832884,1608.800546
1108.076186,6883.915261,-6587.832884,1225.752797
1108.076515,6513.812290,-6661.853478,1302.362347
1108.076844,6735.874072,-7698.141797,1225.752797
1108.077173,5847.626942,-7402.059420,536.266849
1108.077502,6069.688724,-7105.977043,306.438199
1108.077831,6143.709319,-7179.997637,536.266849
1108.078160,6365.771101,-7402.059420,919.314598
1108.078489,6587.832884,-7031.956449,919.314598
1108.078818,6587.832884,-6069.688724,612.876398
1108.079148,6883.915261,-5921.647536,536.266849
1108.079477,7179.997637,-6217.729913,995.924147
1108.079806,7994.224174,-6069.688724,995.924147
1108.080135,7624.121203,-5921.647536,1532.190996
1108.080464,7846.182985,-5773.606348,1225.752797
1108.080793,7254.018232,-6217.729913,1149.143247
1108.081122,7254.018232,-6809.894666,612.876398
1108.081451,7031.956449,-7105.977043,1302.362347
1108.081780,7105.977043,-6513.812290,1072.533697
1108.082110,6883.915261,-6809.894666,919.314598
1108.082439,7105.977043,-6957.935855,995.924147
1108.082768,7254.018232,-7105.977043,1455.581446
1108.083097,7105.977043,-6513.812290,1302.362347
1108.083426,6883.915261,-5995.668130,995.924147
1108.083755,6809.894666,-6069.688724,689.485948
1108.084084,6883.915261,-6291.750507,1149.143247
1108.084413,6883.915261,-6661.853478,1455.581446
1108.084742,7105.977043,-6439.791695,1149.143247
1108.085072,7031.956449,-6365.771101,1225.752797
1108.085401,7105.977043,-6365.771101,1149.143247
1108.085730,7402.059420,-6661.853478,1225.752797
1108.086059,7328.038826,-6883.915261,842.705048
1108.086388,6587.832884,-6661.853478,612.876398
1108.086717,6587.832884,-6513.812290,1072.533697
1108.087046,6809.894666,-6365.771101,383.047749
1108.087375,7031.956449,-6365.771101,995.924147
1108.087704,7105.977043,-6365.771101,766.095498
1108.088034,7031.956449,-5995.668130,689.485948
1108.088363,6809.894666,-5995.668130,306.438199
1108.088692,7105.977043,-5847.626942,1455.581446
1108.089021,7328.038826,-6365.771101,842.705048
1108.089350,7550.100608,-6069.688724,1149.143247
1108.089679,7698.141797,-6143.709319,1149.143247
1108.090008,7105.977043,-6735.874072,1072.533697
1108.090337,7328.038826,-6957.935855,1072.533697
1108.090666,7105.977043,-6883.915261,689.485948
1108.090996,7031.956449,-7328.038826,1149.143247
1108.091325,7105.977043,-7105.977043,1455.581446
1108.091654,7624.121203,-7254.018232,1532.190996
1108.091983,7105.977043,-6365.771101,919.314598
1108.092312,6809.894666,-6513.812290,842.705048
1108.092641,6513.812290,-6809.894666,1149.143247
1108.092970,7031.956449,-6291.750507,1072.533697
1108.093299,6439.791695,-5995.668130,1455.581446
1108.093628,6439.791695,-6365.771101,1072.533697
1108.093958,6365.771101,-6809.894666,689.485948
1108.094287,6513.812290,-7105.977043,919.314598
1108.094616,6735.874072,-7105.977043,919.314598
1108.094945,7031.956449,-7105.977043,1149.143247
1108.095274,6661.853478,-7105.977043,842.705048
1108.095603,6365.771101,-7105.977043,919.314598
1108.095932,6439.791695,-6809.894666,766.095498
1108.096261,6291.750507,-6883.915261,1302.362347
1108.096590,6365.771101,-7031.956449,612.876398
1108.096920,6513.812290,-6513.812290,919.314598
1108.097249,6661.853478,-6513.812290,459.657299
1108.097578,6809.894666,-6217.729913,612.876398
1108.097907,7105.977043,-5921.647536,995.924147
1108.098236,7254.018232,-6365.771101,1072.533697
1108.098565,7328.038826,-6439.791695,1225.752797
1108.098894,7254.018232,-6661.853478,1378.971896
1108.099223,7031.956449,-6143.709319,1302.362347
1108.099552,7328.038826,-6439.791695,1302.362347
1108.099881,7254.018232,-6883.915261,1225.752797
1108.100211,7031.956449,-6217.729913,1149.143247
1108.100540,7031.956449,-6957.935855,1455.581446
1108.100869,7476.080014,-6513.812290,1302.362347
1108.101198,7328.038826,-6439.791695,1149.143247
1108.101527,7476.080014,-6587.832884,1378.971896
1108.101856,7254.018232,-6217.729913,995.924147
1108.102185,6957.935855,-6809.894666,1302.362347
1108.102514,6883.915261,-6069.688724,919.314598
1108.102843,6439.791695,-6291.750507,766.095498
1108.103173,6735.874072,-6809.894666,1149.143247
1108.103502,6587.832884,-6291.750507,842.705048
1108.103831,6957.935855,-6587.832884,1302.362347
1108.104160,6809.894666,-6439.791695,1225.752797
1108.104489,7105.977043,-6365.771101,842.705048
1108.104818,7031.956449,-6957.935855,842.705048
1108.105147,6809.894666,-5329.482782,383.047749
1108.105476,6957.935855,-6439.791695,766.095498
1108.105805,7105.977043,-6291.750507,1455.581446
1108.106135,7328.038826,-5921.647536,842.705048
1108.106464,7624.121203,-5773.606348,689.485948
1108.106793,7179.997637,-5699.585753,612.876398
1108.107122,7402.059420,-6143.709319,842.705048
1108.107451,7402.059420,-6439.791695,919.314598
1108.107780,7105.977043,-6439.791695,766.095498
1108.108109,6957.935855,-7031.956449,612.876398
1108.108438,6439.791695,-7254.018232,766.095498
1108.108767,6217.729913,-8068.244768,842.705048
1108.109097,6143.709319,-7402.059420,766.095498
1108.109426,6069.688724,-7254.018232,612.876398
1108.109755,6809.894666,-7402.059420,919.314598
1108.110084,7846.182985,-6957.935855,1455.581446
1108.110413,7920.203579,-6513.812290,2221.676944
1108.110742,8364.327145,-5773.606348,1915.238745
1108.111071,7920.203579,-4885.359217,1991.848295
1108.111400,7772.162391,-5033.400406,1838.629195
1108.111729,7105.977043,-5995.668130,1685.410096
1108.112059,7105.977043,-6513.812290,2068.457845
1108.112388,7254.018232,-6439.791695,1532.190996
1108.112717,6513.812290,-6291.750507,842.705048
1108.113046,5995.668130,-6735.874072,459.657299
1108.113375,5847.626942,-7920.203579,536.266849
1108.113704,5995.668130,-7846.182985,459.657299
1108.114033,6143.709319,-7402.059420,0.000000
1108.114362,6143.709319,-7105.977043,229.828649
1108.114691,6439.791695,-7105.977043,459.657299
1108.115021,6735.874072,-6735.874072,536.266849
1108.115350,7105.977043,-7105.977043,1149.143247
1108.115679,7402.059420,-6513.812290,1149.143247
1108.116008,7846.182985,-6291.750507,842.705048
1108.116337,7254.018232,-5773.606348,1149.143247
1108.116666,7105.977043,-6217.729913,1149.143247
1108.116995,7402.059420,-6291.750507,1762.019645
1108.117324,7105.977043,-6809.894666,1378.971896
1108.117653,7105.977043,-7031.956449,1149.143247
1108.117982,6735.874072,-6069.688724,1072.533697
1108.118312,6809.894666,-6587.832884,1072.533697
1108.118641,7105.977043,-7328.038826,1455.581446
1108.118970,6883.915261,-7179.997637,2145.067394
1108.119299,6957.935855,-6143.709319,1455.581446
1108.119628,6661.853478,-5699.585753,612.876398
1108.119957,6957.935855,-6513.812290,1225.752797
1108.120286,7105.977043,-6809.894666,1378.971896
1108.120615,7031.956449,-5625.565159,919.314598
1108.120944,6587.832884,-6069.688724,1072.533697
1108.121274,6957.935855,-6143.709319,1149.143247
1108.121603,7105.977043,-6735.874072,1149.143247
1108.121932,7328.038826,-6883.915261,1225.752797
1108.122261,7402.059420,-6957.935855,1149.143247
1108.122590,6883.915261,-6365.771101,842.705048
1108.122919,6883.915261,-6365.771101,842.705048
1108.123248,7105.977043,-6809.894666,995.924147
1108.123577,7698.141797,-6291.750507,995.924147
1108.123906,7328.038826,-5847.626942,842.705048
1108.124236,6957.935855,-5625.565159,689.485948
1108.124565,6883.915261,-6143.709319,689.485948
1108.124894,7105.977043,-5773.606348,306.438199
1108.125223,7031.956449,-6069.688724,459.657299
1108.125552,6957.935855,-6365.771101,842.705048
1108.125881,6957.935855,-6735.874072,995.924147
1108.126210,7476.080014,-6883.915261,842.705048
1108.126539,7476.080014,-6883.915261,1455.581446
1108.126868,6957.935855,-6513.812290,1149.143247
1108.127198,7031.956449,-7031.956449,1149.143247
1108.127527,7179.997637,-7179.997637,1685.410096
1108.127856,7476.080014,-7105.977043,1378.971896
1108.128185,7179.997637,-6587.832884,1149.143247
1108.128514,6809.894666,-6735.874072,1072.533697
1108.128843,6735.874072,-6883.915261,1838.629195
1108.129172,6883.915261,-6365.771101,1532.190996
1108.129501,6587.832884,-5921.647536,1455.581446
1108.129830,7476.080014,-5847.626942,1302.362347
1108.130160,7031.956449,-5699.585753,1225.752797
1108.130489,6883.915261,-5921.647536,919.314598
1108.130818,6587.832884,-6217.729913,919.314598
1108.131147,6661.853478,-6439.791695,612.876398
1108.131476,6439.791695,-6883.915261,612.876398
1108.131805,6587.832884,-7179.997637,689.485948
1108.132134,6735.874072,-7550.100608,995.924147
1108.132463,6809.894666,-7105.977043,842.705048
1108.132792,6365.771101,-7402.059420,919.314598
1108.133121,5847.626942,-7105.977043,995.924147
1108.133450,6661.853478,-7105.977043,612.876398
1108.133779,6957.935855,-6587.832884,689.485948
1108.134108,6809.894666,-6957.935855,383.047749
1108.134437,6809.894666,-6735.874072,919.314598
1108.134766,6809.894666,-6439.791695,689.485948
1108.135096,7105.977043,-6365.771101,842.705048
1108.135425,7105.977043,-6661.853478,1302.362347
1108.135754,7328.038826,-5773.606348,919.314598
1108.136083,7254.018232,-6217.729913,1149.143247
1108.136412,7328.038826,-5921.647536,1302.362347
1108.136741,7402.059420,-6439.791695,1378.971896
1108.137070,7179.997637,-5773.606348,1685.410096
1108.137399,7254.018232,-6217.729913,1915.238745
1108.137728,7105.977043,-6735.874072,1378.971896
1108.138057,6957.935855,-6587.832884,1302.362347
1108.138386,6809.894666,-6217.729913,1225.752797
1108.138715,6957.935855,-6513.812290,1838.629195
1108.139044,7254.018232,-5921.647536,1225.752797
1108.139373,6513.812290,-6217.729913,842.705048
1108.139702,6439.791695,-5921.647536,306.438199
1108.140031,6809.894666,-6661.853478,383.047749
1108.140360,7105.977043,-7105.977043,1149.143247
1108.140689,7105.977043,-6291.750507,842.705048
1108.141019,7031.956449,-6439.791695,919.314598
1108.141348,6957.935855,-6217.729913,842.705048
1108.141677,7402.059420,-6217.729913,919.314598
1108.142006,7328.038826,-5995.668130,1072.533697
1108.142335,7402.059420,-5847.626942,689.485948
1108.142664,7179.997637,-6143.709319,536.266849
1108.142993,7179.997637,-5921.647536,1072.533697
1108.143322,7328.038826,-5921.647536,153.219100
1108.143651,7105.977043,-6587.832884,919.314598
1108.143980,7105.977043,-6809.894666,995.924147
1108.144309,7105.977043,-6735.874072,919.314598
1108.144638,7179.997637,-6661.853478,1149.143247
1108.144967,6809.894666,-6957.935855,842.705048
1108.145296,7105.977043,-7402.059420,995.924147
1108.145625,6587.832884,-7105.977043,1378.971896
1108.145954,6439.791695,-7105.977043,1072.533697
1108.146283,7105.977043,-7105.977043,689.485948
1108.146613,7328.038826,-6587.832884,1455.581446
1108.146942,7402.059420,-7031.956449,1838.629195
1108.147271,7105.977043,-6291.750507,1532.190996
1108.147600,7179.997637,-6217.729913,1149.143247
1108.147929,6809.894666,-5921.647536,1072.533697
1108.148258,7179.997637,-6291.750507,1378.971896
1108.148587,6883.915261,-6735.874072,1532.190996
1108.148916,6809.894666,-6513.812290,1072.533697
1108.149245,6291.750507,-6365.771101,766.095498
1108.149574,6143.709319,-6883.915261,842.705048
1108.149903,6439.791695,-7624.121203,612.876398
1108.150232,6069.688724,-7254.018232,689.485948
1108.150561,6217.729913,-6957.935855,536.266849
1108.150890,6365.771101,-7254.018232,536.266849
1108.151219,6513.812290,-6957.935855,919.314598
1108.151548,6661.853478,-6883.915261,919.314598
1108.151877,6365.771101,-6143.709319,536.266849
1108.152207,7402.059420,-6069.688724,1302.362347
1108.152536,7328.038826,-5995.668130,1302.362347
1108.152865,7328.038826,-6291.750507,689.485948
1108.153194,7328.038826,-5773.606348,612.876398
1108.153523,7624.121203,-6439.791695,1378.971896
1108.153852,7476.080014,-6587.832884,2221.676944
1108.154181,7550.100608,-6735.874072,1378.971896
1108.154510,6809.894666,-6661.853478,995.924147
1108.154839,6735.874072,-7031.956449,766.095498
1108.155168,6735.874072,-6809.894666,1149.143247
1108.155497,7179.997637,-6587.832884,1149.143247
1108.155826,6883.915261,-6587.832884,1149.143247
1108.156155,7254.018232,-5847.626942,1149.143247
1108.156484,6809.894666,-6291.750507,1072.533697
1108.156813,6439.791695,-6143.709319,1838.629195
1108.157142,7105.977043,-6439.791695,1225.752797
1108.157471,7031.956449,-5995.668130,766.095498
1108.157801,6957.935855,-6143.709319,612.876398
1108.158130,6883.915261,-6439.791695,842.705048
1108.158459,7698.141797,-6291.750507,1149.143247
1108.158788,7402.059420,-7402.059420,842.705048
1108.159117,7031.956449,-5995.668130,612.876398
1108.159446,6735.874072,-6217.729913,383.047749
1108.159775,7254.018232,-6365.771101,919.314598
1108.160104,7624.121203,-6513.812290,1378.971896
1108.160433,7402.059420,-6217.729913,842.705048
1108.160762,6957.935855,-5847.626942,0.000000
1108.161091,6883.915261,-6587.832884,536.266849
1108.161420,7105.977043,-6439.791695,1455.581446
1108.161749,7105.977043,-6365.771101,153.219100
1108.162078,7105.977043,-6809.894666,383.047749
1108.162407,6957.935855,-6513.812290,536.266849
1108.162736,7402.059420,-7402.059420,1225.752797
1108.163065,7772.162391,-6809.894666,1149.143247
1108.163395,7105.977043,-7105.977043,689.485948
1108.163724,6735.874072,-7179.997637,766.095498
1108.164053,6957.935855,-6809.894666,1149.143247
1108.164382,7328.038826,-7105.977043,1838.629195
1108.164711,7402.059420,-6735.874072,1378.971896
1108.165040,7105.977043,-6661.853478,1455.581446
1108.165369,6957.935855,-6217.729913,1149.143247
1108.165698,6661.853478,-6217.729913,1608.800546
1108.166027,6809.894666,-6217.729913,1302.362347
1108.166356,6883.915261,-5847.626942,1149.143247
1108.166685,6661.853478,-5773.606348,1072.533697
1108.167014,6883.915261,-5477.523971,842.705048
1108.167343,6735.874072,-6587.832884,1072.533697
1108.167672,6809.894666,-7402.059420,229.828649
1108.168001,6809.894666,-6883.915261,459.657299
1108.168330,6365.771101,-7550.100608,842.705048
1108.168659,6439.791695,-7179.997637,842.705048
1108.168988,6291.750507,-7105.977043,459.657299
1108.169318,6587.832884,-7402.059420,919.314598
1108.169647,6365.771101,-6661.853478,689.485948
1108.169976,6513.812290,-7031.956449,842.705048
1108.170305,6957.935855,-6513.812290,689.485948
1108.170634,6661.853478,-6217.729913,1225.752797
1108.170963,6957.935855,-6883.915261,1225.752797
1108.171292,6957.935855,-6587.832884,1225.752797
1108.171621,7031.956449,-6513.812290,1072.533697
1108.171950,7402.059420,-6217.729913,919.314598
1108.172279,6883.915261,-6365.771101,842.705048
1108.172608,7402.059420,-6661.853478,1149.143247
1108.172937,7550.100608,-6587.832884,1838.629195
1108.173266,7698.141797,-6735.874072,1608.800546
1108.173595,7772.162391,-6365.771101,1762.019645
1108.173924,7105.977043,-6439.791695,1225.752797
1108.174253,7105.977043,-6513.812290,1378.971896
1108.174582,6587.832884,-6439.791695,1378.971896
1108.174912,5995.668130,-6217.729913,1225.752797
1108.175241,6809.894666,-6143.709319,1149.143247
1108.175570,7105.977043,-6365.771101,995.924147
1108.175899,6957.935855,-5995.668130,1149.143247
1108.176228,6513.812290,-6661.853478,612.876398
1108.176557,6513.812290,-6735.874072,1072.533697
1108.176886,6883.915261,-6365.771101,153.219100
1108.177215,6809.894666,-6661.853478,842.705048
1108.177544,7179.997637,-6587.832884,612.876398
1108.177873,7105.977043,-7031.956449,842.705048
1108.178202,7105.977043,-6587.832884,1302.362347
1108.178531,7105.977043,-5921.647536,1149.143247
1108.178860,7476.080014,-5625.565159,612.876398
1108.179189,7179.997637,-5699.585753,766.095498
1108.179518,7105.977043,-6143.709319,1302.362347
1108.179847,7105.977043,-6365.771101,842.705048
1108.180176,6957.935855,-6069.688724,995.924147
1108.180506,7031.956449,-6217.729913,919.314598
1108.180835,7254.018232,-6661.853478,1378.971896
1108.181164,7328.038826,-7031.956449,919.314598
1108.181493,7254.018232,-7550.100608,1225.752797
1108.181822,6735.874072,-6809.894666,842.705048
1108.182151,6439.791695,-7328.038826,689.485948
1108.182480,6587.832884,-7402.059420,1302.362347
1108.182809,7550.100608,-7402.059420,1225.752797
1108.183138,7402.059420,-6809.894666,1838.629195
1108.183467,7254.018232,-5995.668130,1762.019645
1108.183796,7031.956449,-5921.647536,1378.971896
1108.184125,7254.018232,-5403.503377,1302.362347
1108.184454,7179.997637,-6365.771101,1608.800546
1108.184783,7105.977043,-5995.668130,1915.238745
1108.185112,6513.812290,-6291.750507,1378.971896
1108.185441,6143.709319,-6587.832884,1225.752797
1108.185770,6291.750507,-6587.832884,842.705048
1108.186100,6143.709319,-7772.162391,689.485948
1108.186429,6439.791695,-7624.121203,842.705048
1108.186758,6587.832884,-7476.080014,459.657299
1108.187087,6587.832884,-6957.935855,383.047749
1108.187416,6513.812290,-6735.874072,536.266849
1108.187745,6735.874072,-6809.894666,612.876398
1108.188074,6809.894666,-6365.771101,536.266849
1108.188403,6809.894666,-6661.853478,842.705048
1108.188732,7031.956449,-5921.647536,1608.800546
1108.189061,7402.059420,-5921.647536,1149.143247
1108.189390,7105.977043,-6439.791695,842.705048
1108.189719,7105.977043,-6661.853478,1225.752797
1108.190048,7402.059420,-7402.059420,995.924147
1108.190377,7476.080014,-6883.915261,1378.971896
1108.190706,7179.997637,-6883.915261,1072.533697
1108.191035,7105.977043,-6957.935855,1149.143247
1108.191364,6957.935855,-7105.977043,995.924147
1108.191693,7402.059420,-7105.977043,919.314598
1108.192023,7254.018232,-6291.750507,1302.362347
1108.192352,7105.977043,-5995.668130,1149.143247
1108.192681,7179.997637,-6291.750507,1302.362347
1108.193010,6661.853478,-6365.771101,1149.143247
1108.193339,6513.812290,-6143.709319,459.657299
1108.193668,6957.935855,-5995.668130,689.485948
1108.193997,7031.956449,-6513.812290,919.314598
1108.194326,7031.956449,-6365.771101,1072.533697
1108.194655,7402.059420,-6143.709319,1149.143247
1108.194984,7254.018232,-6439.791695,1149.143247
1108.195313,6957.935855,-6587.832884,766.095498
1108.195642,7105.977043,-6809.894666,689.485948
1108.195971,7328.038826,-6587.832884,1149.143247
1108.196300,7698.141797,-6069.688724,1838.629195
1108.196629,6957.935855,-6587.832884,1072.533697
1108.196958,6365.771101,-6587.832884,229.828649
1108.197287,6217.729913,-6735.874072,229.828649
1108.197617,6365.771101,-5699.585753,229.828649
1108.197946,6513.812290,-5921.647536,536.266849
1108.198275,7328.038826,-5995.668130,919.314598
1108.198604,7772.162391,-6439.791695,1608.800546
1108.198933,8290.306550,-6217.729913,1608.800546
1108.199262,7920.203579,-5699.585753,1685.410096
1108.199591,7328.038826,-5921.647536,995.924147
1108.199920,7328.038826,-6661.853478,1302.362347
1108.200249,7624.121203,-7476.080014,1762.019645
1108.200578,7550.100608,-7179.997637,1455.581446
1108.200907,7105.977043,-6439.791695,1302.362347
1108.201236,6439.791695,-6809.894666,766.095498
1108.201565,6513.812290,-7254.018232,1225.752797
1108.201894,6365.771101,-7105.977043,1378.971896
1108.202223,6439.791695,-6513.812290,1225.752797
1108.202552,5995.668130,-6513.812290,1149.143247
1108.202881,5847.626942,-6365.771101,766.095498
1108.203211,6513.812290,-6883.915261,1225.752797
1108.203540,6735.874072,-6883.915261,1225.752797
1108.203869,6735.874072,-7031.956449,1455.581446
1108.204198,6809.894666,-6217.729913,1072.533697
1108.204527,6957.935855,-6365.771101,919.314598
1108.204856,6587.832884,-6735.874072,1225.752797
1108.205185,6957.935855,-7254.018232,766.095498
1108.205514,6439.791695,-6809.894666,842.705048
1108.205843,6661.853478,-6883.915261,842.705048
1108.206172,6439.791695,-6809.894666,536.266849
1108.206501,6217.729913,-6587.832884,842.705048
1108.206830,6439.791695,-6661.853478,1149.143247
1108.207159,6735.874072,-7476.080014,842.705048
1108.207488,6883.915261,-7105.977043,995.924147
1108.207817,7179.997637,-6661.853478,1302.362347
1108.208146,7105.977043,-6291.750507,766.095498
1108.208475,6513.812290,-5921.647536,766.095498
1108.208805,7328.038826,-6883.915261,842.705048
1108.209134,7254.018232,-6291.750507,1378.971896
1108.209463,7920.203579,-6365.771101,1762.019645
1108.209792,7994.224174,-5403.503377,1378.971896
1108.210121,7550.100608,-6069.688724,1608.800546
1108.210450,7328.038826,-6291.750507,1455.581446
1108.210779,7105.977043,-6513.812290,1608.800546
1108.211108,7105.977043,-5995.668130,1149.143247
1108.211437,6809.894666,-6069.688724,1225.752797
1108.211766,6661.853478,-6587.832884,919.314598
1108.212095,6217.729913,-6439.791695,766.095498
1108.212424,6809.894666,-7105.977043,689.485948
1108.212753,6661.853478,-6513.812290,842.705048
1108.213082,6365.771101,-6809.894666,612.876398
1108.213411,6587.832884,-7031.956449,536.266849
1108.213740,7105.977043,-6587.832884,766.095498
1108.214069,7254.018232,-6587.832884,1072.533697
1108.214399,7624.121203,-6069.688724,995.924147
1108.214728,7105.977043,-5773.606348,612.876398
1108.215057,7402.059420,-5773.606348,1072.533697
1108.215386,7550.100608,-6217.729913,919.314598
1108.215715,7254.018232,-5995.668130,1072.533697
1108.216044,7772.162391,-6809.894666,995.924147
1108.216373,7105.977043,-6661.853478,842.705048
1108.216702,7105.977043,-6883.915261,766.095498
1108.217031,6809.894666,-6735.874072,689.485948
1108.217360,6365.771101,-7031.956449,1225.752797
1108.217689,6587.832884,-7846.182985,1149.143247
1108.218018,6291.750507,-7105.977043,995.924147
1108.218347,6587.832884,-7105.977043,995.924147
1108.218676,6365.771101,-6735.874072,995.924147
1108.219005,7105.977043,-6439.791695,1072.533697
1108.219334,7254.018232,-6735.874072,1608.800546
1108.219663,7698.141797,-5773.606348,1685.410096
1108.219992,7105.977043,-5625.565159,1378.971896
1108.220322,7328.038826,-5551.544565,842.705048
1108.220651,7402.059420,-6439.791695,1608.800546
1108.220980,7772.162391,-6291.750507,1991.848295
1108.221309,7254.018232,-5995.668130,1608.800546
1108.221638,6217.729913,-6365.771101,459.657299
1108.221967,5773.606348,-5995.668130,689.485948
1108.222296,6069.688724,-7698.141797,1149.143247
1108.222625,6217.729913,-7328.038826,919.314598
1108.222954,6217.729913,-7031.956449,842.705048
1108.223283,6069.688724,-7031.956449,383.047749
1108.223612,6069.688724,-6735.874072,459.657299
1108.223941,6365.771101,-7179.997637,612.876398
1108.224270,6365.771101,-6883.915261,842.705048
1108.224599,6883.915261,-6291.750507,536.266849
1108.224928,7254.018232,-6513.812290,1225.752797
1108.225257,7772.162391,-6439.791695,1378.971896
1108.225586,7328.038826,-6809.894666,1149.143247
1108.225916,7179.997637,-6513.812290,842.705048
1108.226245,7105.977043,-6809.894666,1072.533697
1108.226574,7994.224174,-6661.853478,1455.581446
1108.226903,7624.121203,-6513.812290,1532.190996
1108.227232,7105.977043,-6143.709319,995.924147
1108.227561,6661.853478,-6291.750507,1225.752797
1108.227890,6735.874072,-6809.894666,1302.362347
1108.228219,7179.997637,-6661.853478,1149.143247
1108.228548,7105.977043,-6069.688724,1378.971896
1108.228877,7105.977043,-5995.668130,612.876398
1108.229206,6809.894666,-6439.791695,1149.143247
1108.229535,6809.894666,-6809.894666,1455.581446
1108.229864,6587.832884,-6439.791695,919.314598
1108.230193,6957.935855,-6365.771101,536.266849
1108.230522,7031.956449,-6883.915261,766.095498
1108.230851,6883.915261,-6217.729913,383.047749
1108.231180,7328.038826,-6735.874072,842.705048
1108.231510,7254.018232,-6661.853478,995.924147
1108.231839,7254.018232,-6365.771101,689.485948
1108.232168,7105.977043,-6217.729913,1225.752797
1108.232497,7105.977043,-5921.647536,1149.143247
1108.232826,7328.038826,-5921.647536,1149.143247
1108.233155,7105.977043,-5921.647536,842.705048
1108.233484,7105.977043,-5773.606348,689.485948
1108.233813,7105.977043,-6365.771101,919.314598
1108.234142,6957.935855,-5995.668130,612.876398
1108.234471,6661.853478,-6809.894666,459.657299
1108.234800,6291.750507,-6365.771101,383.047749
1108.235129,6735.874072,-6883.915261,536.266849
1108.235459,7328.038826,-8216.285956,1225.752797
1108.235788,7624.121203,-6883.915261,1532.190996
1108.236117,7031.956449,-6809.894666,842.705048
1108.236446,6735.874072,-6513.812290,1072.533697
1108.236775,7031.956449,-7031.956449,1685.410096
1108.237104,7624.121203,-7105.977043,1532.190996
1108.237433,7846.182985,-6291.750507,1762.019645
1108.237762,6957.935855,-6217.729913,1378.971896
1108.238091,6883.915261,-6291.750507,1378.971896
1108.238420,6809.894666,-6735.874072,1762.019645
1108.238749,6957.935855,-6587.832884,1762.019645
1108.239079,6661.853478,-5921.647536,1149.143247
1108.239408,6143.709319,-6365.771101,612.876398
1108.239737,6143.709319,-6661.853478,766.095498
1108.240066,6957.935855,-7624.121203,1302.362347
1108.240395,6809.894666,-7328.038826,1072.533697
1108.240724,6883.915261,-6735.874072,1072.533697
1108.241053,6513.812290,-7254.018232,842.705048
1108.241382,6513.812290,-6587.832884,536.266849
1108.241711,6587.832884,-7105.977043,1072.533697
1108.242040,7031.956449,-7105.977043,1072.533697
1108.242370,6883.915261,-6957.935855,995.924147
1108.242699,6661.853478,-6661.853478,536.266849
1108.243028,6735.874072,-6365.771101,1149.143247
1108.243357,6809.894666,-6587.832884,0.000000
1108.243686,7105.977043,-6957.935855,919.314598
1108.244015,7328.038826,-7031.956449,1149.143247
1108.244344,7624.121203,-7105.977043,1225.752797
1108.244673,7772.162391,-5995.668130,1302.362347
1108.245002,7328.038826,-6217.729913,766.095498
1108.245331,7105.977043,-6439.791695,842.705048
1108.245660,7105.977043,-6735.874072,1455.581446
1108.245990,6809.894666,-6513.812290,1608.800546
1108.246319,7254.018232,-6069.688724,1532.190996
1108.246648,7254.018232,-6069.688724,1455.581446
1108.246977,7179.997637,-6217.729913,1225.752797
1108.247306,6661.853478,-6513.812290,1225.752797
1108.247635,7031.956449,-6809.894666,1762.019645
1108.247964,7031.956449,-5773.606348,995.924147
1108.248293,6661.853478,-6365.771101,689.485948
1108.248622,6809.894666,-6735.874072,842.705048
1108.248951,6957.935855,-6957.935855,995.924147
1108.249281,7179.997637,-7179.997637,689.485948
1108.249610,6587.832884,-6513.812290,842.705048
1108.249939,6809.894666,-6809.894666,689.485948
1108.250268,6809.894666,-6439.791695,1225.752797
1108.250597,6661.853478,-6217.729913,1149.143247
1108.250926,7105.977043,-5995.668130,1149.143247
1108.251255,7105.977043,-5255.462188,919.314598
1108.251584,7402.059420,-5625.565159,919.314598
1108.251913,7772.162391,-5551.544565,1149.143247
1108.252242,7179.997637,-5847.626942,1762.019645
1108.252572,7179.997637,-6143.709319,842.705048
1108.252901,7179.997637,-6439.791695,842.705048
1108.253230,7105.977043,-7105.977043,1149.143247
1108.253559,7328.038826,-7105.977043,1532.190996
1108.253888,6883.915261,-7105.977043,689.485948
1108.254217,5995.668130,-7254.018232,766.095498
1108.254546,6365.771101,-7476.080014,842.705048
1108.254875,6587.832884,-7624.121203,1072.533697
1108.255204,7402.059420,-7105.977043,842.705048
1108.255533,6957.935855,-6587.832884,1455.581446
1108.255862,7328.038826,-6069.688724,1378.971896
1108.256192,7476.080014,-6069.688724,1608.800546
1108.256521,7179.997637,-6365.771101,1762.019645
1108.256850,7105.977043,-5773.606348,1225.752797
1108.257179,6809.894666,-5625.565159,1225.752797
1108.257508,7105.977043,-6439.791695,1532.190996
1108.257837,6883.915261,-6809.894666,1455.581446
1108.258166,7105.977043,-6587.832884,842.705048
1108.258495,6513.812290,-6661.853478,766.095498
1108.258824,5995.668130,-6883.915261,536.266849
1108.259153,6143.709319,-7179.997637,612.876398
1108.259483,6365.771101,-7402.059420,536.266849
1108.259812,6291.750507,-7476.080014,842.705048
1108.260141,6291.750507,-7031.956449,689.485948
1108.260470,6513.812290,-6809.894666,766.095498
1108.260799,6809.894666,-6809.894666,229.828649
1108.261128,6809.894666,-6809.894666,1302.362347
1108.261457,7476.080014,-6439.791695,1302.362347
1108.261786,7698.141797,-6143.709319,1532.190996
1108.262115,7772.162391,-5699.585753,1302.362347
1108.262444,7105.977043,-6513.812290,689.485948
1108.262773,7328.038826,-7179.997637,1072.533697
1108.263103,6957.935855,-6957.935855,1149.143247
1108.263432,7031.956449,-6439.791695,1072.533697
1108.263761,6809.894666,-6439.791695,1149.143247
1108.264090,6735.874072,-6365.771101,1455.581446
1108.264419,7328.038826,-7031.956449,1072.533697
1108.264748,7402.059420,-6957.935855,1378.971896
1108.265077,6883.915261,-6439.791695,1532.190996
1108.265406,6883.915261,-6365.771101,1072.533697
1108.265735,6883.915261,-5921.647536,1608.800546
1108.266064,6513.812290,-6587.832884,995.924147
1108.266394,6587.832884,-6661.853478,1149.143247
1108.266723,7031.956449,-5847.626942,1225.752797
1108.267052,7402.059420,-6143.709319,1072.533697
1108.267381,7105.977043,-6143.709319,1532.190996
1108.267710,6957.935855,-6439.791695,842.705048
1108.268039,7105.977043,-6809.894666,612.876398
1108.268368,6809.894666,-6439.791695,612.876398
1108.268697,6957.935855,-6661.853478,383.047749
1108.269026,7402.059420,-6217.729913,919.314598
1108.269355,7402.059420,-6069.688724,1302.362347
1108.269684,7105.977043,-6513.812290,919.314598
1108.270014,7105.977043,-6069.688724,459.657299
1108.270343,6661.853478,-5773.606348,612.876398
1108.270672,6883.915261,-6365.771101,612.876398
1108.271001,6735.874072,-6957.935855,689.485948
1108.271330,6809.894666,-6587.832884,306.438199
1108.271659,6735.874072,-6957.935855,842.705048
1108.271988,7254.018232,-6439.791695,919.314598
1108.272317,7328.038826,-6735.874072,1225.752797
1108.272646,7624.121203,-7105.977043,1455.581446
1108.272975,7550.100608,-6217.729913,1378.971896
1108.273305,7476.080014,-6809.894666,1455.581446
1108.273634,7402.059420,-6883.915261,1608.800546
1108.273963,6883.915261,-6661.853478,1072.533697
1108.274292,7031.956449,-6957.935855,1455.581446
1108.274621,6809.894666,-6217.729913,1608.800546
1108.274950,7328.038826,-6291.750507,1378.971896
1108.275279,7179.997637,-5847.626942,1532.190996
1108.275608,6957.935855,-5921.647536,1302.362347
1108.275937,6735.874072,-6069.688724,919.314598
1108.276266,6809.894666,-5699.585753,536.266849
