#time,accel_x,accel_y,accel_z
1418.964543,6735.874072,-6661.853478,1072.533697
1418.964873,6957.935855,-6735.874072,1149.143247
1418.965203,6883.915261,-6883.915261,1225.752797
1418.965533,6809.894666,-6735.874072,689.485948
1418.965864,6365.771101,-6587.832884,1072.533697
1418.966194,6587.832884,-6809.894666,689.485948
1418.966524,6513.812290,-7105.977043,612.876398
1418.966854,6291.750507,-6661.853478,1149.143247
1418.967184,7031.956449,-7105.977043,919.314598
1418.967514,7254.018232,-6217.729913,1149.143247
1418.967844,7105.977043,-6365.771101,1149.143247
1418.968174,7328.038826,-6661.853478,919.314598
1418.968504,7105.977043,-6439.791695,842.705048
1418.968834,7105.977043,-6439.791695,612.876398
1418.969164,7105.977043,-6661.853478,536.266849
1418.969495,7179.997637,-6143.709319,995.924147
1418.969825,7105.977043,-6143.709319,1072.533697
1418.970155,7328.038826,-6217.729913,1149.143247
1418.970485,7402.059420,-6217.729913,1149.143247
1418.970815,7105.977043,-6069.688724,995.924147
1418.971145,7105.977043,-6143.709319,995.924147
1418.971475,6735.874072,-6291.750507,766.095498
1418.971805,7328.038826,-6661.853478,1532.190996
1418.972135,7031.956449,-6809.894666,995.924147
1418.972465,7105.977043,-6809.894666,1455.581446
1418.972796,7105.977043,-6513.812290,1072.533697
1418.973126,6809.894666,-7031.956449,995.924147
1418.973456,7254.018232,-7105.977043,1302.362347
1418.973786,6661.853478,-7031.956449,689.485948
1418.974116,6587.832884,-6661.853478,766.095498
1418.974446,6735.874072,-6735.874072,1072.533697
1418.974776,7031.956449,-6365.771101,1378.971896
1418.975106,6883.915261,-6217.729913,1532.190996
1418.975436,7105.977043,-6291.750507,1149.143247
1418.975766,7105.977043,-6661.853478,995.924147
1418.976096,7254.018232,-6439.791695,1149.143247
1418.976427,7105.977043,-6883.915261,1225.752797
1418.976757,7254.018232,-6883.915261,1225.752797
1418.977087,7105.977043,-6217.729913,689.485948
1418.977417,7105.977043,-6587.832884,612.876398
1418.977747,7105.977043,-6513.812290,1072.533697
1418.978077,7476.080014,-6217.729913,1225.752797
1418.978407,7031.956449,-6291.750507,919.314598
1418.978737,6661.853478,-5995.668130,1149.143247
1418.979067,6291.750507,-6143.709319,689.485948
1418.979397,6661.853478,-6217.729913,612.876398
1418.979727,6587.832884,-6735.874072,995.924147
1418.980058,6883.915261,-6809.894666,1149.143247
1418.980388,6809.894666,-6809.894666,689.485948
1418.980718,6661.853478,-6809.894666,1455.581446
1418.981048,6587.832884,-6809.894666,842.705048
1418.981378,6809.894666,-7328.038826,1072.533697
1418.981708,6735.874072,-6957.935855,689.485948
1418.982038,6957.935855,-7105.977043,766.095498
1418.982368,7402.059420,-6809.894666,1455.581446
1418.982698,7105.977043,-6143.709319,1455.581446
1418.983028,7031.956449,-6365.771101,766.095498
1418.983359,7105.977043,-6513.812290,995.924147
1418.983689,6661.853478,-6365.771101,1072.533697
1418.984019,7105.977043,-6143.709319,612.876398
1418.984349,7254.018232,-5995.668130,1302.362347
1418.984679,7328.038826,-6217.729913,1149.143247
1418.985009,7254.018232,-6291.750507,1225.752797
1418.985339,7031.956449,-6587.832884,1455.581446
1418.985669,7698.141797,-6069.688724,919.314598
1418.985999,6957.935855,-6217.729913,919.314598
1418.986329,6217.729913,-6365.771101,995.924147
1418.986659,6735.874072,-6957.935855,919.314598
1418.986990,6883.915261,-6217.729913,1302.362347
1418.987320,6883.915261,-6587.832884,1149.143247
1418.987650,7031.956449,-6365.771101,995.924147
1418.987980,6809.894666,-6513.812290,1149.143247
1418.988310,6587.832884,-6513.812290,1149.143247
1418.988640,6661.853478,-6809.894666,1225.752797
1418.988970,6957.935855,-6883.915261,995.924147
1418.989300,7031.956449,-7105.977043,1072.533697
1418.989630,7328.038826,-7031.956449,919.314598
1418.989960,7328.038826,-5995.668130,842.705048
1418.990291,7105.977043,-7105.977043,919.314598
1418.990621,7328.038826,-6661.853478,1225.752797
1418.990951,7105.977043,-6883.915261,842.705048
1418.991281,7031.956449,-6587.832884,689.485948
1418.991611,7105.977043,-5773.606348,1838.629195
1418.991941,7105.977043,-6143.709319,842.705048
1418.992271,7105.977043,-6143.709319,1225.752797
1418.992601,6883.915261,-6439.791695,1225.752797
1418.992931,7328.038826,-6587.832884,1149.143247
1418.993261,6957.935855,-6513.812290,1072.533697
1418.993591,6809.894666,-6439.791695,919.314598
1418.993922,6957.935855,-6883.915261,842.705048
1418.994252,6735.874072,-7179.997637,766.095498
1418.994582,7031.956449,-6587.832884,766.095498
1418.994912,6587.832884,-7031.956449,1302.362347
1418.995242,6661.853478,-6587.832884,766.095498
1418.995572,6735.874072,-6735.874072,995.924147
1418.995902,6513.812290,-7105.977043,766.095498
1418.996232,6735.874072,-6883.915261,536.266849
1418.996562,6439.791695,-7031.956449,1149.143247
1418.996892,6661.853478,-6809.894666,1149.143247
1418.997222,6957.935855,-6291.750507,1302.362347
1418.997553,7624.121203,-6661.853478,1532.190996
1418.997883,7105.977043,-6365.771101,1149.143247
1418.998213,7031.956449,-6809.894666,1072.533697
1418.998543,7105.977043,-6809.894666,995.924147
1418.998873,7179.997637,-6587.832884,612.876398
1418.999203,7105.977043,-5625.565159,1302.362347
1418.999533,7105.977043,-6069.688724,766.095498
1418.999863,7031.956449,-6809.894666,1225.752797
1419.000193,7179.997637,-6439.791695,1302.362347
1419.000523,7105.977043,-6069.688724,995.924147
1419.000854,7031.956449,-6365.771101,995.924147
1419.001184,6661.853478,-6291.750507,1072.533697
1419.001514,7105.977043,-6883.915261,1072.533697
1419.001844,7105.977043,-6809.894666,1225.752797
1419.002174,6957.935855,-6217.729913,766.095498
1419.002504,6883.915261,-6957.935855,919.314598
1419.002834,7105.977043,-6883.915261,1302.362347
1419.003164,6957.935855,-6957.935855,306.438199
1419.003494,7105.977043,-6883.915261,689.485948
1419.003824,6883.915261,-7105.977043,1072.533697
1419.004154,6883.915261,-6809.894666,536.266849
1419.004485,7105.977043,-6365.771101,1072.533697
1419.004815,7105.977043,-6217.729913,1149.143247
1419.005145,7550.100608,-6365.771101,689.485948
1419.005475,7105.977043,-6587.832884,1302.362347
1419.005805,7105.977043,-6883.915261,919.314598
1419.006135,7105.977043,-6735.874072,1149.143247
1419.006465,7328.038826,-6143.709319,1149.143247
1419.006795,7179.997637,-6439.791695,1072.533697
1419.007125,7179.997637,-6217.729913,1149.143247
1419.007455,7031.956449,-6365.771101,1072.533697
1419.007785,6883.915261,-6513.812290,919.314598
1419.008116,6661.853478,-6069.688724,1225.752797
1419.008446,6587.832884,-5551.544565,536.266849
1419.008776,6365.771101,-6365.771101,842.705048
1419.009106,6809.894666,-6439.791695,1302.362347
1419.009436,6957.935855,-6809.894666,1302.362347
1419.009766,7105.977043,-6735.874072,1378.971896
1419.010096,6735.874072,-6809.894666,1072.533697
1419.010426,6735.874072,-7105.977043,842.705048
1419.010756,6735.874072,-6957.935855,766.095498
1419.011086,6661.853478,-7105.977043,919.314598
1419.011417,7031.956449,-7328.038826,612.876398
1419.011747,7105.977043,-6883.915261,1072.533697
1419.012077,7179.997637,-6069.688724,1378.971896
1419.012407,6883.915261,-6439.791695,842.705048
1419.012737,7105.977043,-6291.750507,1225.752797
1419.013067,6809.894666,-6439.791695,766.095498
1419.013397,7105.977043,-6513.812290,1149.143247
1419.013727,7031.956449,-5847.626942,1149.143247
1419.014057,7105.977043,-6291.750507,766.095498
1419.014387,7105.977043,-6069.688724,689.485948
1419.014717,7105.977043,-6587.832884,1149.143247
1419.015048,7254.018232,-6809.894666,1072.533697
1419.015378,7105.977043,-6513.812290,842.705048
1419.015708,6883.915261,-6217.729913,919.314598
1419.016038,6957.935855,-6291.750507,1378.971896
1419.016368,6735.874072,-7031.956449,1149.143247
1419.016698,7179.997637,-6439.791695,1149.143247
1419.017028,7328.038826,-6587.832884,919.314598
1419.017358,7476.080014,-6883.915261,1149.143247
1419.017688,6957.935855,-6513.812290,919.314598
1419.018018,6735.874072,-6883.915261,766.095498
1419.018348,6587.832884,-6735.874072,995.924147
1419.018679,6809.894666,-6735.874072,766.095498
1419.019009,7624.121203,-6883.915261,459.657299
1419.019339,7476.080014,-6735.874072,1608.800546
1419.019669,7476.080014,-6661.853478,919.314598
1419.019999,7550.100608,-6661.853478,1072.533697
1419.020329,6883.915261,-6291.750507,1302.362347
1419.020659,7105.977043,-6587.832884,612.876398
1419.020989,7031.956449,-6217.729913,842.705048
1419.021319,7179.997637,-6217.729913,1072.533697
1419.021649,7476.080014,-6143.709319,995.924147
1419.021980,6957.935855,-6439.791695,1225.752797
1419.022310,7105.977043,-6365.771101,1072.533697
1419.022640,7105.977043,-6587.832884,1149.143247
1419.022970,6439.791695,-6587.832884,1072.533697
1419.023300,6809.894666,-7105.977043,919.314598
1419.023630,7105.977043,-6883.915261,842.705048
1419.023960,6957.935855,-6735.874072,1455.581446
1419.024290,6883.915261,-6513.812290,1072.533697
1419.024620,6809.894666,-6809.894666,1072.533697
1419.024950,6439.791695,-6587.832884,1991.848295
1419.025280,6513.812290,-6957.935855,383.047749
1419.025611,6291.750507,-6735.874072,1072.533697
1419.025941,6291.750507,-6883.915261,1302.362347
1419.026271,6809.894666,-6809.894666,1149.143247
1419.026601,7105.977043,-6291.750507,995.924147
1419.026931,6957.935855,-6661.853478,919.314598
1419.027261,6883.915261,-6439.791695,919.314598
1419.027591,7031.956449,-6661.853478,1149.143247
1419.027921,6809.894666,-6513.812290,1838.629195
1419.028251,6883.915261,-6439.791695,1225.752797
1419.028580,7105.977043,-6143.709319,306.438199
1419.028910,7179.997637,-6217.729913,612.876398
1419.029240,7105.977043,-6143.709319,1302.362347
1419.029570,7179.997637,-6291.750507,766.095498
1419.029900,6735.874072,-6217.729913,995.924147
1419.030229,6661.853478,-6291.750507,612.876398
1419.030559,6661.853478,-6365.771101,842.705048
1419.030889,6513.812290,-6735.874072,1302.362347
1419.031219,7031.956449,-6513.812290,1225.752797
1419.031549,7105.977043,-6883.915261,1225.752797
1419.031879,7031.956449,-6661.853478,919.314598
1419.032208,6735.874072,-6735.874072,1225.752797
1419.032538,7105.977043,-7179.997637,1149.143247
1419.032868,6957.935855,-6661.853478,842.705048
1419.033198,7105.977043,-6883.915261,1149.143247
1419.033528,7328.038826,-7031.956449,995.924147
1419.033858,7698.141797,-6439.791695,1149.143247
1419.034187,7772.162391,-6809.894666,919.314598
1419.034517,7328.038826,-6439.791695,842.705048
1419.034847,7179.997637,-6291.750507,1225.752797
1419.035177,7105.977043,-6883.915261,766.095498
1419.035507,7179.997637,-6513.812290,1225.752797
1419.035837,7179.997637,-6883.915261,1072.533697
1419.036166,7328.038826,-6365.771101,995.924147
1419.036496,7105.977043,-6069.688724,1072.533697
1419.036826,6883.915261,-6217.729913,842.705048
1419.037156,6735.874072,-5625.565159,1072.533697
1419.037486,7105.977043,-6587.832884,995.924147
1419.037816,6883.915261,-5921.647536,1149.143247
1419.038145,6883.915261,-6365.771101,995.924147
1419.038475,6809.894666,-6587.832884,689.485948
1419.038805,6661.853478,-6291.750507,1378.971896
1419.039135,6587.832884,-6365.771101,1302.362347
1419.039465,6735.874072,-7105.977043,1378.971896
1419.039795,6587.832884,-7031.956449,1072.533697
1419.040124,6587.832884,-7105.977043,842.705048
1419.040454,6661.853478,-6957.935855,766.095498
1419.040784,6587.832884,-6883.915261,1302.362347
1419.041114,7105.977043,-6957.935855,1072.533697
1419.041444,7105.977043,-6143.709319,1455.581446
1419.041773,7031.956449,-5995.668130,842.705048
1419.042103,7105.977043,-6217.729913,1149.143247
1419.042433,6809.894666,-6587.832884,1532.190996
1419.042763,6809.894666,-6513.812290,919.314598
1419.043093,6513.812290,-5995.668130,1225.752797
1419.043423,7031.956449,-6291.750507,842.705048
1419.043752,6957.935855,-6513.812290,842.705048
1419.044082,7105.977043,-6735.874072,1378.971896
1419.044412,7031.956449,-6883.915261,1302.362347
1419.044742,7550.100608,-6809.894666,995.924147
1419.045072,6661.853478,-6365.771101,919.314598
1419.045402,6809.894666,-6661.853478,995.924147
1419.045731,6809.894666,-6587.832884,1072.533697
1419.046061,7105.977043,-6365.771101,1685.410096
1419.046391,7105.977043,-6661.853478,1378.971896
1419.046721,7105.977043,-6587.832884,919.314598
1419.047051,6809.894666,-6439.791695,842.705048
1419.047381,6957.935855,-6957.935855,766.095498
1419.047710,7179.997637,-7105.977043,536.266849
1419.048040,6735.874072,-7031.956449,1072.533697
1419.048370,7105.977043,-6735.874072,536.266849
1419.048700,7254.018232,-6661.853478,1072.533697
1419.049030,7254.018232,-6513.812290,1302.362347
1419.049360,7476.080014,-6069.688724,1302.362347
1419.049689,7254.018232,-6365.771101,995.924147
1419.050019,7031.956449,-6661.853478,766.095498
1419.050349,7179.997637,-6217.729913,1072.533697
1419.050679,7402.059420,-5625.565159,1302.362347
1419.051009,7476.080014,-5921.647536,1149.143247
1419.051339,7328.038826,-5921.647536,1302.362347
1419.051668,7179.997637,-6143.709319,1072.533697
1419.051998,7105.977043,-6661.853478,842.705048
1419.052328,7105.977043,-6513.812290,1149.143247
1419.052658,6587.832884,-6661.853478,1072.533697
1419.052988,6513.812290,-6587.832884,842.705048
1419.053317,6735.874072,-6661.853478,1302.362347
1419.053647,6513.812290,-6439.791695,1608.800546
1419.053977,6809.894666,-6661.853478,995.924147
1419.054307,6439.791695,-6735.874072,1455.581446
1419.054637,6365.771101,-6513.812290,766.095498
1419.054967,6439.791695,-7254.018232,842.705048
1419.055296,6735.874072,-6587.832884,1149.143247
1419.055626,6883.915261,-7105.977043,1149.143247
1419.055956,7031.956449,-6809.894666,919.314598
1419.056286,7031.956449,-6439.791695,1302.362347
1419.056616,7105.977043,-6513.812290,919.314598
1419.056946,6587.832884,-6365.771101,842.705048
1419.057275,6809.894666,-6735.874072,919.314598
1419.057605,6809.894666,-6957.935855,1072.533697
1419.057935,7031.956449,-6143.709319,1225.752797
1419.058265,7328.038826,-6439.791695,995.924147
1419.058595,7328.038826,-6587.832884,1225.752797
1419.058925,7105.977043,-7105.977043,1455.581446
1419.059254,6809.894666,-6365.771101,919.314598
1419.059584,6587.832884,-6513.812290,689.485948
1419.059914,6587.832884,-5847.626942,306.438199
1419.060244,6735.874072,-6587.832884,766.095498
1419.060574,6957.935855,-6883.915261,1302.362347
1419.060904,7105.977043,-6587.832884,689.485948
1419.061233,7031.956449,-6883.915261,1072.533697
1419.061563,6513.812290,-6661.853478,919.314598
1419.061893,6513.812290,-6809.894666,612.876398
1419.062223,6809.894666,-7105.977043,459.657299
1419.062553,6809.894666,-6735.874072,1072.533697
1419.062883,7550.100608,-7179.997637,842.705048
1419.063212,7254.018232,-6735.874072,842.705048
1419.063542,7328.038826,-6291.750507,1225.752797
1419.063872,7105.977043,-6291.750507,919.314598
1419.064202,7328.038826,-6661.853478,1149.143247
1419.064532,7105.977043,-6587.832884,1302.362347
1419.064861,7105.977043,-6513.812290,689.485948
1419.065191,7105.977043,-6291.750507,919.314598
1419.065521,7179.997637,-6365.771101,1149.143247
1419.065851,7254.018232,-5403.503377,1072.533697
1419.066181,7105.977043,-6217.729913,1072.533697
1419.066511,6883.915261,-6439.791695,1302.362347
1419.066840,7105.977043,-6069.688724,1302.362347
1419.067170,6883.915261,-6217.729913,919.314598
1419.067500,6439.791695,-5255.462188,1378.971896
1419.067830,6809.894666,-6439.791695,1149.143247
1419.068160,6957.935855,-6587.832884,1302.362347
1419.068490,6957.935855,-6809.894666,919.314598
1419.068819,6735.874072,-6365.771101,1149.143247
1419.069149,6735.874072,-6883.915261,1149.143247
1419.069479,6735.874072,-7105.977043,995.924147
1419.069809,6439.791695,-6809.894666,459.657299
1419.070139,6439.791695,-7105.977043,1072.533697
1419.070469,6661.853478,-6883.915261,995.924147
1419.070798,7328.038826,-6513.812290,1149.143247
1419.071128,7105.977043,-6735.874072,1302.362347
1419.071458,7179.997637,-6661.853478,1225.752797
1419.071788,7105.977043,-6587.832884,1455.581446
1419.072118,6883.915261,-6661.853478,0.000000
1419.072448,6661.853478,-6513.812290,842.705048
1419.072777,6957.935855,-6217.729913,995.924147
1419.073107,6809.894666,-6809.894666,1149.143247
1419.073437,7179.997637,-6291.750507,1302.362347
1419.073767,7254.018232,-6587.832884,1302.362347
1419.074097,7031.956449,-6809.894666,1302.362347
1419.074427,6735.874072,-6439.791695,842.705048
1419.074756,6439.791695,-6661.853478,1072.533697
1419.075086,6661.853478,-6513.812290,1072.533697
1419.075416,6957.935855,-6883.915261,1302.362347
1419.075746,7031.956449,-6513.812290,1302.362347
1419.076076,6883.915261,-6661.853478,689.485948
1419.076405,7179.997637,-6957.935855,995.924147
1419.076735,6883.915261,-6883.915261,1072.533697
1419.077065,6735.874072,-7031.956449,612.876398
1419.077395,6735.874072,-6735.874072,842.705048
1419.077725,6957.935855,-7031.956449,842.705048
1419.078055,7772.162391,-6513.812290,1455.581446
1419.078384,7698.141797,-5107.421000,1149.143247
1419.078714,8142.265362,-5255.462188,1072.533697
1419.079044,8660.409521,-5033.400406,1149.143247
1419.079374,8142.265362,-5773.606348,1072.533697
1419.079704,7698.141797,-5921.647536,689.485948
1419.080034,6957.935855,-6217.729913,612.876398
1419.080363,6365.771101,-7105.977043,229.828649
1419.080693,6735.874072,-6069.688724,229.828649
1419.081023,7402.059420,-6735.874072,919.314598
1419.081353,8142.265362,-6069.688724,1378.971896
1419.081683,8734.430116,-5699.585753,1685.410096
1419.082013,8364.327145,-4367.215058,1225.752797
1419.082342,7698.141797,-4515.256246,536.266849
1419.082672,7920.203579,-4885.359217,1149.143247
1419.083002,8808.450710,-4367.215058,1455.581446
1419.083332,8956.491898,-4885.359217,1302.362347
1419.083662,8808.450710,-4811.338623,1225.752797
1419.083992,7698.141797,-5033.400406,1532.190996
1419.084321,7772.162391,-5847.626942,306.438199
1419.084651,7846.182985,-4959.379811,0.000000
1419.084981,7772.162391,-6587.832884,536.266849
1419.085311,8364.327145,-6143.709319,842.705048
1419.085641,8290.306550,-5403.503377,76.609550
1419.085971,7624.121203,-5773.606348,306.438199
1419.086300,8290.306550,-5107.421000,1072.533697
1419.086630,8438.347739,-5477.523971,1072.533697
1419.086960,8660.409521,-4293.194464,1762.019645
1419.087290,8438.347739,-4663.297435,1455.581446
1419.087620,9474.636058,-2960.823768,1225.752797
1419.087949,9622.677246,-3627.009116,1378.971896
1419.088279,9770.718434,-3627.009116,1762.019645
1419.088609,10214.842000,-2664.741391,1302.362347
1419.088939,9474.636058,-3182.885551,1455.581446
1419.089269,9622.677246,-3034.844362,842.705048
1419.089599,9326.594869,-4145.153275,1225.752797
1419.089928,9474.636058,-5255.462188,1455.581446
1419.090258,9326.594869,-5033.400406,1455.581446
1419.090588,8364.327145,-5255.462188,1455.581446
1419.090918,7994.224174,-4737.318029,842.705048
1419.091248,7698.141797,-5625.565159,1149.143247
1419.091578,8216.285956,-5329.482782,1378.971896
1419.091907,7920.203579,-4811.338623,1149.143247
1419.092237,8142.265362,-4293.194464,1072.533697
1419.092567,8956.491898,-4441.235652,689.485948
1419.092897,9252.574275,-4589.276840,1302.362347
1419.093227,8734.430116,-4145.153275,1302.362347
1419.093557,8956.491898,-4293.194464,536.266849
1419.093886,9252.574275,-4145.153275,612.876398
1419.094216,9474.636058,-4441.235652,383.047749
1419.094546,9548.656652,-5255.462188,1149.143247
1419.094876,9696.697840,-4219.173869,306.438199
1419.095206,9326.594869,-5255.462188,229.828649
1419.095536,8956.491898,-4737.318029,919.314598
1419.095865,8586.388927,-5625.565159,1149.143247
1419.096195,8512.368333,-5107.421000,1072.533697
1419.096525,8290.306550,-4219.173869,1455.581446
1419.096855,8586.388927,-4737.318029,1685.410096
1419.097185,9326.594869,-4145.153275,1762.019645
1419.097515,9400.615463,-4219.173869,2298.286494
1419.097844,9548.656652,-3256.906145,1762.019645
1419.098174,8882.471304,-3627.009116,1378.971896
1419.098504,8882.471304,-3552.988522,1378.971896
1419.098834,9326.594869,-3849.070898,536.266849
1419.099164,9326.594869,-4293.194464,153.219100
1419.099493,8586.388927,-4071.132681,-153.219100
1419.099823,8882.471304,-4589.276840,0.000000
1419.100153,8734.430116,-6069.688724,76.609550
1419.100483,8808.450710,-5033.400406,76.609550
1419.100813,9326.594869,-6069.688724,306.438199
1419.101143,8956.491898,-6143.709319,1915.238745
1419.101472,9178.553681,-5477.523971,1532.190996
1419.101802,8808.450710,-5773.606348,2145.067394
1419.102132,9178.553681,-4219.173869,2298.286494
1419.102462,9474.636058,-3775.050304,2298.286494
1419.102792,9992.780217,-2146.597232,1838.629195
1419.103122,9622.677246,-2072.576638,1532.190996
1419.103451,10214.842000,-1332.370696,459.657299
1419.103781,10584.944971,-1554.432478,229.828649
1419.104111,10140.821405,-2220.617826,153.219100
1419.104441,9992.780217,-2368.659014,0.000000
1419.104771,9622.677246,-4663.297435,0.000000
1419.105101,9400.615463,-5773.606348,612.876398
1419.105430,8512.368333,-8216.285956,842.705048
1419.105760,7550.100608,-8512.368333,1072.533697
1419.106090,7031.956449,-8660.409521,1225.752797
1419.106420,6291.750507,-8808.450710,536.266849
1419.106750,6069.688724,-7105.977043,1378.971896
1419.107080,6365.771101,-6143.709319,612.876398
1419.107409,7994.224174,-4589.276840,919.314598
1419.107739,9622.677246,-2516.700203,2145.067394
1419.108069,10658.965565,-2368.659014,2068.457845
1419.108399,11177.109724,-222.061783,2298.286494
1419.108729,10658.965565,-592.164754,1378.971896
1419.109059,10658.965565,-518.144159,536.266849
1419.109388,11029.068536,-296.082377,689.485948
1419.109718,12213.398043,-1850.514855,1378.971896
1419.110048,12213.398043,-2368.659014,1225.752797
1419.110378,11325.150913,-4071.132681,1685.410096
1419.110708,9696.697840,-6291.750507,1838.629195
1419.111038,8364.327145,-7179.997637,1532.190996
1419.111367,5773.606348,-7772.162391,1072.533697
1419.111697,4219.173869,-8660.409521,0.000000
1419.112027,3997.112087,-9326.594869,-383.047749
1419.112357,4737.318029,-8142.265362,-536.266849
1419.112687,6069.688724,-7402.059420,0.000000
1419.113016,8068.244768,-6439.791695,1532.190996
1419.113346,9844.739029,-3701.029710,1915.238745
1419.113676,10436.903782,-2368.659014,1302.362347
1419.114006,10140.821405,-1406.391290,1378.971896
1419.114336,10955.047942,-666.185348,1072.533697
1419.114666,11695.253884,-1184.329507,995.924147
1419.114995,12065.356855,-888.247130,1762.019645
1419.115325,12287.418637,-2294.638420,2221.676944
1419.115655,12287.418637,-3108.864956,2757.943793
1419.115985,11547.212695,-5181.441594,2374.896044
1419.116315,9104.533087,-6217.729913,2068.457845
1419.116645,7402.059420,-5403.503377,612.876398
1419.116974,5699.585753,-6513.812290,-459.657299
1419.117304,4441.235652,-7179.997637,0.000000
1419.117634,4885.359217,-7179.997637,0.000000
1419.117964,7105.977043,-5625.565159,-76.609550
1419.118294,9178.553681,-3849.070898,153.219100
1419.118624,10658.965565,-3034.844362,1302.362347
1419.118953,12065.356855,-1628.453072,1762.019645
1419.119283,12435.459826,-1702.473667,1532.190996
1419.119613,10955.047942,-2368.659014,1762.019645
1419.119943,9844.739029,-2886.803174,1149.143247
1419.120273,9770.718434,-3478.967927,919.314598
1419.120603,9622.677246,-6143.709319,1302.362347
1419.120932,8216.285956,-6957.935855,1302.362347
1419.121262,7179.997637,-7846.182985,1149.143247
1419.121592,7105.977043,-8216.285956,1378.971896
1419.121922,7105.977043,-5329.482782,229.828649
1419.122252,7105.977043,-4219.173869,0.000000
1419.122582,7846.182985,-2812.782580,0.000000
1419.122911,9400.615463,-3034.844362,383.047749
1419.123241,10732.986159,-2886.803174,1838.629195
1419.123571,11473.192101,-888.247130,1762.019645
1419.123901,10658.965565,-1110.308913,995.924147
1419.124231,10584.944971,-2072.576638,842.705048
1419.124560,10362.883188,-4367.215058,1149.143247
1419.124890,9992.780217,-6439.791695,1915.238745
1419.125220,9030.512492,-6069.688724,1225.752797
1419.125550,8068.244768,-5551.544565,153.219100
1419.125880,7772.162391,-5329.482782,76.609550
1419.126210,7179.997637,-7105.977043,306.438199
1419.126539,7328.038826,-8586.388927,1838.629195
1419.126869,7105.977043,-7031.956449,995.924147
1419.127199,6513.812290,-6513.812290,0.000000
1419.127529,6291.750507,-5329.482782,0.000000
1419.127859,6883.915261,-5847.626942,766.095498
1419.128189,9252.574275,-5329.482782,1915.238745
1419.128518,9252.574275,-3849.070898,1302.362347
1419.128848,9104.533087,-1628.453072,1072.533697
1419.129178,9918.759623,-740.205942,842.705048
1419.129508,11177.109724,-2368.659014,1302.362347
1419.129837,10436.903782,-3404.947333,1149.143247
1419.130167,9548.656652,-4885.359217,1225.752797
1419.130497,9622.677246,-4737.318029,766.095498
1419.130826,9548.656652,-5107.421000,1838.629195
1419.131156,9474.636058,-6439.791695,2451.505594
1419.131485,9178.553681,-6143.709319,1455.581446
1419.131815,7994.224174,-5625.565159,383.047749
1419.132145,7328.038826,-4959.379811,0.000000
1419.132474,8142.265362,-5181.441594,1225.752797
1419.132804,8808.450710,-5921.647536,1608.800546
1419.133133,7328.038826,-5995.668130,383.047749
1419.133463,5403.503377,-5107.421000,-459.657299
1419.133793,5033.400406,-6143.709319,-229.828649
1419.134122,7031.956449,-8142.265362,1532.190996
1419.134452,8438.347739,-6661.853478,1608.800546
1419.134781,7994.224174,-5699.585753,0.000000
1419.135111,7328.038826,-6661.853478,76.609550
1419.135441,7402.059420,-8364.327145,2298.286494
1419.135770,7846.182985,-9326.594869,1991.848295
1419.136100,6217.729913,-6439.791695,536.266849
1419.136429,5181.441594,-5921.647536,-612.876398
1419.136759,6735.874072,-6365.771101,689.485948
1419.137088,9326.594869,-7031.956449,2451.505594
1419.137418,9474.636058,-5329.482782,2298.286494
1419.137748,8882.471304,-2738.761985,1532.190996
1419.138077,8512.368333,-1924.535449,612.876398
1419.138407,7550.100608,-5699.585753,1762.019645
1419.138736,6957.935855,-6883.915261,1762.019645
1419.139066,6513.812290,-4293.194464,76.609550
1419.139396,7105.977043,-5033.400406,229.828649
1419.139725,8290.306550,-5847.626942,2374.896044
1419.140055,9918.759623,-6735.874072,3447.429741
1419.140384,9844.739029,-5551.544565,2604.724693
1419.140714,7846.182985,-3775.050304,1608.800546
1419.141044,6143.709319,-5033.400406,612.876398
1419.141373,4811.338623,-6735.874072,383.047749
1419.141703,4885.359217,-7105.977043,-306.438199
1419.142032,5921.647536,-7254.018232,459.657299
1419.142362,7254.018232,-6143.709319,612.876398
1419.142691,7624.121203,-7105.977043,1608.800546
1419.143021,8216.285956,-7624.121203,2528.115143
1419.143351,7624.121203,-8808.450710,1685.410096
1419.143680,6735.874072,-8068.244768,383.047749
1419.144010,4885.359217,-8808.450710,383.047749
1419.144339,3552.988522,-8586.388927,0.000000
1419.144669,3997.112087,-8290.306550,153.219100
1419.144999,5403.503377,-8438.347739,1532.190996
1419.145328,7328.038826,-4959.379811,842.705048
1419.145658,7772.162391,-5033.400406,1762.019645
1419.145987,7550.100608,-4663.297435,1991.848295
1419.146317,8068.244768,-4885.359217,1608.800546
1419.146647,7624.121203,-4737.318029,919.314598
1419.146976,6587.832884,-4367.215058,383.047749
1419.147306,6957.935855,-5625.565159,1378.971896
1419.147635,8512.368333,-5033.400406,1838.629195
1419.147965,9992.780217,-5921.647536,1685.410096
1419.148294,9400.615463,-5625.565159,2145.067394
1419.148624,8734.430116,-5181.441594,2145.067394
1419.148954,7476.080014,-7920.203579,766.095498
1419.149283,5477.523971,-6957.935855,229.828649
1419.149613,3775.050304,-7179.997637,0.000000
1419.149942,4589.276840,-7402.059420,153.219100
1419.150272,6143.709319,-8216.285956,1455.581446
1419.150602,6957.935855,-7550.100608,1838.629195
1419.150931,7624.121203,-5995.668130,612.876398
1419.151261,6957.935855,-6217.729913,229.828649
1419.151590,6069.688724,-8586.388927,153.219100
1419.151920,5329.482782,-8586.388927,536.266849
1419.152250,5551.544565,-8142.265362,0.000000
1419.152579,6661.853478,-6735.874072,-229.828649
1419.152909,7105.977043,-7772.162391,1149.143247
1419.153238,7550.100608,-7624.121203,1302.362347
1419.153568,7920.203579,-6069.688724,919.314598
1419.153897,8142.265362,-5995.668130,1532.190996
1419.154227,7328.038826,-6439.791695,1225.752797
1419.154557,6143.709319,-6661.853478,766.095498
1419.154886,5403.503377,-6513.812290,-459.657299
1419.155216,5033.400406,-6883.915261,459.657299
1419.155545,6957.935855,-6957.935855,1378.971896
1419.155875,8586.388927,-5699.585753,2145.067394
1419.156205,9548.656652,-4737.318029,1838.629195
1419.156534,8808.450710,-5107.421000,1685.410096
1419.156864,7994.224174,-5773.606348,1455.581446
1419.157193,7105.977043,-5995.668130,1072.533697
1419.157523,6069.688724,-5329.482782,536.266849
1419.157853,5995.668130,-6217.729913,842.705048
1419.158182,7402.059420,-4737.318029,306.438199
1419.158512,7402.059420,-5551.544565,383.047749
1419.158841,7105.977043,-6661.853478,1685.410096
1419.159171,7476.080014,-5699.585753,1685.410096
1419.159500,8290.306550,-5699.585753,1455.581446
1419.159830,7476.080014,-5773.606348,919.314598
1419.160160,5625.565159,-6439.791695,459.657299
1419.160489,5921.647536,-7105.977043,766.095498
1419.160819,7105.977043,-7846.182985,1149.143247
1419.161148,8364.327145,-6735.874072,2298.286494
1419.161478,8734.430116,-6217.729913,919.314598
1419.161808,7402.059420,-6735.874072,1302.362347
1419.162137,7105.977043,-8068.244768,1072.533697
1419.162467,6291.750507,-8364.327145,995.924147
1419.162796,5699.585753,-5403.503377,-766.095498
1419.163126,4515.256246,-5847.626942,-612.876398
1419.163456,6069.688724,-7105.977043,229.828649
1419.163785,6291.750507,-6809.894666,919.314598
1419.164115,6513.812290,-7550.100608,1149.143247
1419.164444,7328.038826,-6957.935855,2068.457845
1419.164774,7624.121203,-7476.080014,2451.505594
1419.165103,7105.977043,-8068.244768,1455.581446
1419.165433,5847.626942,-6883.915261,383.047749
1419.165763,6217.729913,-7105.977043,995.924147
1419.166092,7624.121203,-8068.244768,1455.581446
1419.166422,8660.409521,-5995.668130,2528.115143
1419.166751,8438.347739,-5255.462188,1685.410096
1419.167081,8142.265362,-3849.070898,383.047749
1419.167411,7402.059420,-4737.318029,919.314598
1419.167740,5995.668130,-6661.853478,1455.581446
1419.168070,5625.565159,-5551.544565,306.438199
1419.168399,6143.709319,-5773.606348,536.266849
1419.168729,7105.977043,-5181.441594,459.657299
1419.169059,7846.182985,-6661.853478,1072.533697
1419.169388,7920.203579,-6587.832884,1915.238745
1419.169718,8290.306550,-7105.977043,1378.971896
1419.170047,7846.182985,-7624.121203,1608.800546
1419.170377,5995.668130,-7698.141797,1072.533697
1419.170707,4589.276840,-7179.997637,153.219100
1419.171036,4811.338623,-7920.203579,383.047749
1419.171366,6217.729913,-8364.327145,1455.581446
1419.171695,7476.080014,-7624.121203,1915.238745
1419.172025,7846.182985,-4737.318029,3217.601092
1419.172354,7624.121203,-4737.318029,536.266849
1419.172684,6291.750507,-5403.503377,306.438199
1419.173014,5329.482782,-5921.647536,-383.047749
1419.173343,5255.462188,-6217.729913,-459.657299
1419.173673,6587.832884,-5773.606348,0.000000
1419.174002,8068.244768,-7550.100608,1838.629195
1419.174332,8734.430116,-7179.997637,1532.190996
1419.174662,7846.182985,-7254.018232,1762.019645
1419.174991,8142.265362,-8290.306550,1455.581446
1419.175321,7846.182985,-7328.038826,1378.971896
1419.175650,7105.977043,-7476.080014,1149.143247
1419.175980,5699.585753,-6587.832884,76.609550
1419.176310,5255.462188,-5995.668130,459.657299
1419.176639,6587.832884,-6883.915261,1149.143247
1419.176969,7994.224174,-6291.750507,1762.019645
1419.177298,8290.306550,-4811.338623,1378.971896
1419.177628,7920.203579,-3404.947333,612.876398
1419.177957,7105.977043,-6143.709319,306.438199
1419.178287,6957.935855,-6513.812290,689.485948
1419.178617,6883.915261,-6439.791695,459.657299
1419.178946,7476.080014,-6291.750507,919.314598
1419.179276,6661.853478,-7179.997637,1608.800546
1419.179605,6513.812290,-7254.018232,1149.143247
1419.179935,6587.832884,-7402.059420,612.876398
1419.180265,6883.915261,-7254.018232,1302.362347
1419.180594,7328.038826,-8068.244768,1608.800546
1419.180924,6957.935855,-7179.997637,919.314598
1419.181253,5699.585753,-6587.832884,459.657299
1419.181583,5181.441594,-6661.853478,0.000000
1419.181913,5921.647536,-7179.997637,1225.752797
1419.182242,6883.915261,-6883.915261,766.095498
1419.182572,7179.997637,-5699.585753,766.095498
1419.182901,7624.121203,-5847.626942,919.314598
1419.183231,8068.244768,-6069.688724,536.266849
1419.183560,7254.018232,-6587.832884,842.705048
1419.183890,6809.894666,-6883.915261,1225.752797
1419.184220,7772.162391,-5329.482782,995.924147
1419.184549,8068.244768,-6217.729913,1532.190996
1419.184879,7846.182985,-6439.791695,1838.629195
1419.185208,7846.182985,-5625.565159,1455.581446
1419.185538,7846.182985,-6809.894666,1915.238745
1419.185868,7550.100608,-7624.121203,1915.238745
1419.186197,6587.832884,-7402.059420,1149.143247
1419.186527,4737.318029,-6957.935855,306.438199
1419.186856,4811.338623,-6513.812290,612.876398
1419.187186,6365.771101,-6365.771101,766.095498
1419.187516,7402.059420,-6217.729913,1608.800546
1419.187845,7179.997637,-5625.565159,1225.752797
1419.188175,7624.121203,-5625.565159,919.314598
1419.188504,7254.018232,-5107.421000,1685.410096
1419.188834,7105.977043,-5995.668130,1225.752797
1419.189163,7328.038826,-5921.647536,842.705048
1419.189493,7328.038826,-5255.462188,995.924147
1419.189823,7920.203579,-7254.018232,1608.800546
1419.190152,7994.224174,-7031.956449,1762.019645
1419.190482,6809.894666,-5921.647536,1072.533697
1419.190811,6957.935855,-6883.915261,612.876398
1419.191141,7105.977043,-7772.162391,1225.752797
1419.191471,6069.688724,-8290.306550,766.095498
1419.191800,4663.297435,-7772.162391,229.828649
1419.192130,4737.318029,-7105.977043,0.000000
1419.192459,5551.544565,-7328.038826,612.876398
1419.192789,6439.791695,-7105.977043,1072.533697
1419.193119,7105.977043,-6661.853478,1762.019645
1419.193448,7550.100608,-5921.647536,1225.752797
1419.193778,8216.285956,-6217.729913,1072.533697
1419.194107,7550.100608,-6291.750507,1838.629195
1419.194437,7254.018232,-5699.585753,383.047749
1419.194766,7105.977043,-5995.668130,919.314598
1419.195096,7328.038826,-7105.977043,1455.581446
1419.195426,7772.162391,-6957.935855,1455.581446
1419.195755,7698.141797,-5773.606348,1838.629195
1419.196085,7624.121203,-5921.647536,2068.457845
1419.196414,7550.100608,-6735.874072,1685.410096
1419.196744,6439.791695,-7624.121203,1072.533697
1419.197074,4219.173869,-7328.038826,-153.219100
1419.197403,4145.153275,-6735.874072,0.000000
1419.197733,6069.688724,-6069.688724,919.314598
1419.198062,7624.121203,-5995.668130,995.924147
1419.198392,7772.162391,-5403.503377,1838.629195
1419.198722,8586.388927,-5255.462188,1149.143247
1419.199051,9178.553681,-7105.977043,1915.238745
1419.199381,8068.244768,-6217.729913,1378.971896
1419.199710,6513.812290,-5773.606348,536.266849
1419.200040,6365.771101,-5995.668130,766.095498
1419.200369,7031.956449,-6735.874072,995.924147
1419.200699,7920.203579,-6587.832884,2528.115143
1419.201029,8512.368333,-6069.688724,2221.676944
1419.201358,8216.285956,-5995.668130,2528.115143
1419.201688,6365.771101,-7402.059420,1225.752797
1419.202017,4441.235652,-8512.368333,229.828649
1419.202347,2960.823768,-7328.038826,-459.657299
1419.202677,2886.803174,-9326.594869,-612.876398
1419.203006,4441.235652,-9104.533087,0.000000
1419.203336,6513.812290,-7254.018232,995.924147
1419.203665,8882.471304,-5847.626942,1455.581446
1419.203995,9918.759623,-4811.338623,1838.629195
1419.204325,8808.450710,-5551.544565,1991.848295
1419.204654,7624.121203,-5625.565159,689.485948
1419.204984,7254.018232,-3923.091493,383.047749
1419.205313,8216.285956,-5107.421000,842.705048
1419.205643,8216.285956,-6365.771101,1532.190996
1419.205973,8290.306550,-7105.977043,2374.896044
1419.206302,8586.388927,-6809.894666,2145.067394
1419.206632,8734.430116,-5921.647536,2068.457845
1419.206961,6587.832884,-7105.977043,1378.971896
1419.207291,4589.276840,-7772.162391,306.438199
1419.207620,3404.947333,-7920.203579,-459.657299
1419.207950,3701.029710,-7846.182985,0.000000
1419.208280,4441.235652,-7846.182985,1225.752797
1419.208609,5921.647536,-7846.182985,1685.410096
1419.208939,7105.977043,-5847.626942,1072.533697
1419.209268,7328.038826,-6143.709319,1149.143247
1419.209598,7698.141797,-5551.544565,1608.800546
1419.209928,8068.244768,-5403.503377,1532.190996
1419.210257,7920.203579,-4589.276840,1072.533697
1419.210587,8290.306550,-4071.132681,919.314598
1419.210916,8142.265362,-5551.544565,1455.581446
1419.211246,8660.409521,-5847.626942,1532.190996
1419.211576,8438.347739,-6439.791695,2451.505594
1419.211905,8290.306550,-7846.182985,1838.629195
1419.212235,7179.997637,-8216.285956,1532.190996
1419.212564,5551.544565,-7550.100608,459.657299
1419.212894,4515.256246,-8290.306550,-1149.143247
1419.213223,4515.256246,-8142.265362,0.000000
1419.213553,4219.173869,-8216.285956,0.000000
1419.213883,5107.421000,-6883.915261,229.828649
1419.214212,6513.812290,-4811.338623,1455.581446
1419.214542,8882.471304,-4885.359217,1532.190996
1419.214871,9770.718434,-5625.565159,2604.724693
1419.215201,9178.553681,-5329.482782,2451.505594
1419.215531,8142.265362,-4071.132681,612.876398
1419.215860,7994.224174,-5255.462188,919.314598
1419.216190,7994.224174,-6661.853478,1762.019645
1419.216519,8068.244768,-7105.977043,995.924147
1419.216849,7105.977043,-6883.915261,1149.143247
1419.217179,7179.997637,-7402.059420,1915.238745
1419.217508,7254.018232,-9400.615463,2221.676944
1419.217838,5625.565159,-8142.265362,995.924147
1419.218167,3404.947333,-7031.956449,-612.876398
1419.218497,3108.864956,-6957.935855,-1225.752797
1419.218826,4515.256246,-7476.080014,153.219100
1419.219156,5699.585753,-7624.121203,229.828649
1419.219486,7031.956449,-6735.874072,842.705048
1419.219815,8216.285956,-5403.503377,766.095498
1419.220145,8882.471304,-5921.647536,536.266849
1419.220474,7920.203579,-6217.729913,1991.848295
1419.220804,9104.533087,-5403.503377,1149.143247
1419.221134,9326.594869,-5921.647536,1532.190996
1419.221463,9326.594869,-6291.750507,1762.019645
1419.221793,7624.121203,-6513.812290,1455.581446
1419.222122,7254.018232,-5773.606348,612.876398
1419.222452,6513.812290,-8438.347739,1455.581446
1419.222782,5847.626942,-8586.388927,1838.629195
1419.223111,5033.400406,-7476.080014,689.485948
1419.223441,4145.153275,-5921.647536,153.219100
1419.223770,4071.132681,-6439.791695,0.000000
1419.224100,5773.606348,-6069.688724,612.876398
1419.224429,7179.997637,-5033.400406,612.876398
1419.224759,8068.244768,-5107.421000,1149.143247
1419.225089,9622.677246,-4959.379811,1149.143247
1419.225418,9400.615463,-5847.626942,1915.238745
1419.225748,9178.553681,-6069.688724,1225.752797
1419.226077,8660.409521,-4589.276840,1302.362347
1419.226407,9474.636058,-5625.565159,2145.067394
1419.226737,9474.636058,-6439.791695,2451.505594
1419.227066,8438.347739,-5921.647536,2528.115143
1419.227396,7254.018232,-5551.544565,1378.971896
1419.227725,6143.709319,-6365.771101,536.266849
1419.228055,5477.523971,-8364.327145,2374.896044
1419.228385,4589.276840,-8290.306550,612.876398
1419.228714,3330.926739,-7846.182985,-689.485948
1419.229043,3182.885551,-7105.977043,-766.095498
1419.229372,5255.462188,-8438.347739,383.047749
1419.229701,7402.059420,-8660.409521,1149.143247
1419.230031,8586.388927,-5255.462188,1302.362347
1419.230360,8438.347739,-6291.750507,995.924147
1419.230689,8068.244768,-7179.997637,1302.362347
1419.231018,7105.977043,-6365.771101,1149.143247
1419.231347,6439.791695,-6735.874072,76.609550
1419.231677,6439.791695,-6217.729913,536.266849
1419.232006,7105.977043,-7624.121203,1378.971896
1419.232335,7179.997637,-7105.977043,1762.019645
1419.232664,7698.141797,-6809.894666,2374.896044
1419.232993,8216.285956,-6291.750507,2221.676944
1419.233323,7920.203579,-6661.853478,1532.190996
1419.233652,5181.441594,-7105.977043,612.876398
1419.233981,3923.091493,-6439.791695,-995.924147
1419.234310,4145.153275,-7550.100608,-306.438199
1419.234639,5995.668130,-7476.080014,459.657299
1419.234969,7254.018232,-7031.956449,1225.752797
1419.235298,8660.409521,-5921.647536,1455.581446
1419.235627,10066.800811,-5847.626942,1608.800546
1419.235956,9326.594869,-6291.750507,1991.848295
1419.236285,7994.224174,-5107.421000,1532.190996
1419.236615,7179.997637,-4441.235652,995.924147
1419.236944,7179.997637,-5329.482782,919.314598
1419.237273,7105.977043,-6439.791695,1991.848295
1419.237602,6735.874072,-6143.709319,1915.238745
1419.237931,7994.224174,-5995.668130,2528.115143
1419.238261,8364.327145,-6291.750507,2451.505594
1419.238590,7920.203579,-6439.791695,2528.115143
1419.238919,5699.585753,-5921.647536,153.219100
1419.239248,4145.153275,-6809.894666,-1072.533697
1419.239577,3923.091493,-7846.182985,-383.047749
1419.239907,5847.626942,-7698.141797,612.876398
1419.240236,6957.935855,-7105.977043,689.485948
1419.240565,7846.182985,-5995.668130,1072.533697
1419.240894,8586.388927,-5847.626942,1455.581446
1419.241223,7550.100608,-7105.977043,689.485948
1419.241553,7031.956449,-6883.915261,1608.800546
1419.241882,7328.038826,-4737.318029,766.095498
1419.242211,7624.121203,-5107.421000,536.266849
1419.242540,7476.080014,-5773.606348,1378.971896
1419.242869,7476.080014,-6291.750507,1838.629195
1419.243199,8364.327145,-6587.832884,1915.238745
1419.243528,8068.244768,-6291.750507,1762.019645
1419.243857,6883.915261,-7031.956449,2068.457845
1419.244186,5995.668130,-7105.977043,306.438199
1419.244515,4515.256246,-7402.059420,-536.266849
1419.244845,3849.070898,-8512.368333,0.000000
1419.245174,4959.379811,-8808.450710,0.000000
1419.245503,6069.688724,-7179.997637,536.266849
1419.245832,6365.771101,-7402.059420,536.266849
1419.246161,6661.853478,-6957.935855,536.266849
1419.246491,6587.832884,-7328.038826,153.219100
1419.246820,5847.626942,-7476.080014,383.047749
1419.247149,7031.956449,-5403.503377,766.095498
1419.247478,8438.347739,-5477.523971,1685.410096
1419.247808,9400.615463,-5551.544565,2145.067394
1419.248137,8808.450710,-5551.544565,1915.238745
1419.248466,8216.285956,-5477.523971,1378.971896
1419.248795,8216.285956,-5477.523971,1225.752797
1419.249124,7920.203579,-7105.977043,1455.581446
1419.249454,7105.977043,-6809.894666,459.657299
1419.249783,5255.462188,-6513.812290,-229.828649
1419.250112,5033.400406,-8512.368333,612.876398
1419.250441,5847.626942,-8068.244768,766.095498
1419.250770,6661.853478,-6587.832884,153.219100
1419.251100,6957.935855,-5551.544565,612.876398
1419.251429,7550.100608,-5995.668130,842.705048
1419.251758,7698.141797,-6809.894666,1455.581446
1419.252087,6957.935855,-5699.585753,1685.410096
1419.252416,7920.203579,-3775.050304,229.828649
1419.252746,9252.574275,-3701.029710,1532.190996
1419.253075,9474.636058,-3849.070898,2681.334243
1419.253404,9252.574275,-5699.585753,1072.533697
1419.253733,8438.347739,-5847.626942,2374.896044
1419.254062,6513.812290,-7920.203579,1608.800546
1419.254392,6957.935855,-7179.997637,612.876398
1419.254721,4663.297435,-7031.956449,1225.752797
1419.255050,3182.885551,-10066.800811,-842.705048
1419.255379,4293.194464,-7031.956449,-536.266849
1419.255708,6291.750507,-7179.997637,1302.362347
1419.256038,7105.977043,-9326.594869,536.266849
1419.256367,7476.080014,-5329.482782,842.705048
1419.256696,7254.018232,-6735.874072,229.828649
1419.257025,6587.832884,-6217.729913,459.657299
1419.257354,6513.812290,-7179.997637,2221.676944
1419.257684,7402.059420,-5699.585753,612.876398
1419.258013,8512.368333,-3997.112087,842.705048
1419.258342,7105.977043,-6735.874072,2374.896044
1419.258671,7402.059420,-6661.853478,1455.581446
1419.259000,8068.244768,-5403.503377,1302.362347
1419.259330,7698.141797,-7624.121203,2221.676944
1419.259659,7105.977043,-7254.018232,1532.190996
1419.259988,5773.606348,-8142.265362,1072.533697
1419.260317,3256.906145,-8068.244768,-383.047749
1419.260646,3997.112087,-8882.471304,-536.266849
1419.260976,5477.523971,-8586.388927,1149.143247
1419.261305,6957.935855,-7846.182985,1072.533697
1419.261634,7476.080014,-5477.523971,1072.533697
1419.261963,7772.162391,-5107.421000,1225.752797
1419.262292,7772.162391,-6069.688724,842.705048
1419.262622,7772.162391,-4219.173869,842.705048
1419.262951,7476.080014,-4885.359217,2145.067394
1419.263280,8438.347739,-4737.318029,1302.362347
1419.263609,8290.306550,-5773.606348,1685.410096
1419.263938,8438.347739,-6217.729913,2374.896044
1419.264268,9104.533087,-4737.318029,1838.629195
1419.264597,9474.636058,-5181.441594,2834.553343
1419.264926,9326.594869,-6143.709319,2681.334243
1419.265255,7105.977043,-5921.647536,1608.800546
1419.265584,4737.318029,-5551.544565,0.000000
1419.265914,3775.050304,-7105.977043,-536.266849
1419.266243,4737.318029,-8438.347739,689.485948
1419.266572,5773.606348,-8068.244768,1838.629195
1419.266901,6143.709319,-6735.874072,842.705048
1419.267230,6439.791695,-6069.688724,612.876398
1419.267560,6957.935855,-6661.853478,1149.143247
1419.267889,6439.791695,-6883.915261,536.266849
1419.268218,7105.977043,-5699.585753,229.828649
1419.268547,7328.038826,-6217.729913,919.314598
1419.268876,7772.162391,-7105.977043,1378.971896
1419.269206,6883.915261,-8068.244768,1608.800546
1419.269535,7624.121203,-6513.812290,1149.143247
1419.269864,7846.182985,-6587.832884,1302.362347
1419.270193,7550.100608,-8142.265362,1762.019645
1419.270522,5847.626942,-7698.141797,689.485948
1419.270852,4737.318029,-7550.100608,0.000000
1419.271181,5255.462188,-7920.203579,536.266849
1419.271510,6069.688724,-7476.080014,459.657299
1419.271839,6513.812290,-7402.059420,689.485948
1419.272168,6365.771101,-6439.791695,689.485948
1419.272498,6587.832884,-6735.874072,0.000000
1419.272827,6661.853478,-7254.018232,1225.752797
1419.273156,6439.791695,-7550.100608,306.438199
1419.273485,7105.977043,-6883.915261,766.095498
1419.273815,7328.038826,-6587.832884,1378.971896
1419.274144,7920.203579,-7476.080014,1838.629195
1419.274473,8808.450710,-4737.318029,1838.629195
1419.274802,8586.388927,-4515.256246,2451.505594
1419.275131,9400.615463,-5625.565159,2374.896044
1419.275461,9178.553681,-5625.565159,2145.067394
1419.275790,6587.832884,-6217.729913,1455.581446
1419.276119,4589.276840,-5551.544565,0.000000
1419.276448,4959.379811,-6365.771101,229.828649
1419.276777,6809.894666,-5773.606348,1225.752797
1419.277107,7920.203579,-5921.647536,1378.971896
1419.277436,8142.265362,-5773.606348,1915.238745
1419.277765,7698.141797,-5477.523971,1072.533697
1419.278094,6513.812290,-6957.935855,306.438199
1419.278423,5995.668130,-6143.709319,536.266849
1419.278753,6809.894666,-5699.585753,306.438199
1419.279082,7624.121203,-7179.997637,919.314598
1419.279411,7624.121203,-8068.244768,1608.800546
1419.279740,7698.141797,-6513.812290,1685.410096
1419.280069,8142.265362,-5403.503377,1149.143247
1419.280399,8068.244768,-5107.421000,1915.238745
1419.280728,7402.059420,-6217.729913,1378.971896
1419.281057,6291.750507,-6587.832884,459.657299
1419.281386,5329.482782,-5773.606348,0.000000
1419.281715,5921.647536,-6883.915261,383.047749
1419.282045,7105.977043,-7476.080014,1762.019645
1419.282374,7179.997637,-7105.977043,689.485948
1419.282703,6439.791695,-7328.038826,612.876398
1419.283032,5921.647536,-7402.059420,229.828649
1419.283361,6143.709319,-8734.430116,612.876398
1419.283691,6291.750507,-7550.100608,536.266849
1419.284020,6291.750507,-5921.647536,842.705048
1419.284349,7624.121203,-7476.080014,689.485948
1419.284678,7624.121203,-6809.894666,1532.190996
1419.285007,7105.977043,-6587.832884,1302.362347
1419.285337,7476.080014,-6661.853478,995.924147
1419.285666,7994.224174,-5551.544565,1149.143247
1419.285995,7550.100608,-7105.977043,1838.629195
1419.286324,5773.606348,-7772.162391,153.219100
1419.286653,4589.276840,-7105.977043,-459.657299
1419.286983,5477.523971,-7254.018232,842.705048
1419.287312,6661.853478,-7920.203579,1072.533697
1419.287641,7402.059420,-6513.812290,1149.143247
1419.287970,7179.997637,-5847.626942,1149.143247
1419.288299,7328.038826,-6735.874072,1225.752797
1419.288629,7624.121203,-5847.626942,1302.362347
1419.288958,6513.812290,-6143.709319,1149.143247
1419.289287,6513.812290,-4737.318029,536.266849
1419.289616,7328.038826,-5921.647536,2145.067394
1419.289945,7698.141797,-7105.977043,2528.115143
1419.290275,7328.038826,-5403.503377,1072.533697
1419.290604,7105.977043,-4515.256246,1072.533697
1419.290933,8142.265362,-5403.503377,1302.362347
1419.291262,8290.306550,-6883.915261,2528.115143
1419.291591,7328.038826,-5847.626942,1532.190996
1419.291921,6069.688724,-5181.441594,306.438199
1419.292250,6365.771101,-6587.832884,919.314598
1419.292579,7328.038826,-7624.121203,1915.238745
1419.292908,8290.306550,-6587.832884,1685.410096
1419.293237,8142.265362,-5625.565159,1455.581446
1419.293567,7476.080014,-5625.565159,919.314598
1419.293896,6957.935855,-6587.832884,842.705048
1419.294225,6069.688724,-5625.565159,842.705048
1419.294554,5699.585753,-5255.462188,0.000000
1419.294883,6217.729913,-6661.853478,536.266849
1419.295213,6883.915261,-7698.141797,1225.752797
1419.295542,6661.853478,-7328.038826,1225.752797
1419.295871,7105.977043,-7105.977043,1302.362347
1419.296200,7402.059420,-7402.059420,2145.067394
1419.296529,6661.853478,-7920.203579,1302.362347
1419.296859,5699.585753,-7476.080014,1149.143247
1419.297188,4959.379811,-6587.832884,-153.219100
1419.297517,6069.688724,-7994.224174,842.705048
1419.297846,7328.038826,-7846.182985,1838.629195
1419.298176,7254.018232,-7698.141797,1072.533697
1419.298505,7105.977043,-5773.606348,1149.143247
1419.298834,6809.894666,-5847.626942,306.438199
1419.299163,7031.956449,-6661.853478,383.047749
1419.299492,6291.750507,-5921.647536,612.876398
1419.299822,6291.750507,-6365.771101,153.219100
1419.300151,7328.038826,-6143.709319,-153.219100
1419.300480,7179.997637,-6809.894666,766.095498
1419.300809,7698.141797,-7328.038826,1455.581446
1419.301138,8882.471304,-6291.750507,1608.800546
1419.301468,8734.430116,-7105.977043,2451.505594
1419.301797,8216.285956,-7179.997637,1608.800546
1419.302126,7105.977043,-6217.729913,459.657299
1419.302455,5403.503377,-5773.606348,0.000000
1419.302784,6291.750507,-6513.812290,919.314598
1419.303114,7476.080014,-6883.915261,1838.629195
1419.303443,8290.306550,-5255.462188,1838.629195
1419.303772,7772.162391,-3701.029710,1532.190996
1419.304101,8068.244768,-4811.338623,1149.143247
1419.304430,7698.141797,-6069.688724,995.924147
1419.304760,6143.709319,-6735.874072,306.438199
1419.305089,6439.791695,-6439.791695,536.266849
1419.305418,7476.080014,-6143.709319,306.438199
1419.305747,7105.977043,-7105.977043,689.485948
1419.306076,7328.038826,-6661.853478,1532.190996
1419.306406,8290.306550,-6513.812290,1302.362347
1419.306735,8290.306550,-6957.935855,1762.019645
1419.307064,6735.874072,-8512.368333,2221.676944
1419.307393,5329.482782,-7254.018232,306.438199
1419.307722,4071.132681,-6735.874072,-995.924147
1419.308052,4367.215058,-7920.203579,383.047749
1419.308381,6735.874072,-8216.285956,1838.629195
1419.308710,8068.244768,-6365.771101,1608.800546
1419.309039,7920.203579,-5403.503377,1532.190996
1419.309368,7328.038826,-5847.626942,1225.752797
1419.309698,6735.874072,-6809.894666,536.266849
1419.310027,4959.379811,-6661.853478,-536.266849
1419.310356,5255.462188,-6217.729913,0.000000
1419.310685,7179.997637,-7624.121203,919.314598
1419.311014,8438.347739,-7328.038826,2145.067394
1419.311344,8364.327145,-6587.832884,1838.629195
1419.311673,8216.285956,-5403.503377,1685.410096
1419.312002,7698.141797,-6883.915261,1149.143247
1419.312331,6735.874072,-7476.080014,1532.190996
1419.312660,5033.400406,-6439.791695,536.266849
1419.312990,5033.400406,-7772.162391,-306.438199
1419.313319,5699.585753,-7179.997637,919.314598
1419.313648,7031.956449,-7476.080014,1762.019645
1419.313977,7846.182985,-6513.812290,766.095498
1419.314306,7698.141797,-4663.297435,1532.190996
1419.314636,8364.327145,-5551.544565,1378.971896
1419.314965,7698.141797,-6217.729913,919.314598
1419.315294,6291.750507,-5329.482782,0.000000
1419.315623,6217.729913,-5551.544565,-536.266849
1419.315952,7402.059420,-5995.668130,1302.362347
1419.316282,8586.388927,-7105.977043,2681.334243
1419.316611,8364.327145,-5921.647536,2221.676944
1419.316940,8142.265362,-5921.647536,1838.629195
1419.317269,8068.244768,-5477.523971,2298.286494
1419.317598,7179.997637,-7476.080014,1302.362347
1419.317928,5403.503377,-6883.915261,995.924147
1419.318257,4071.132681,-6883.915261,0.000000
1419.318586,4885.359217,-8216.285956,153.219100
1419.318915,5921.647536,-7402.059420,2374.896044
1419.319244,7105.977043,-7105.977043,1532.190996
1419.319574,7105.977043,-4515.256246,612.876398
1419.319903,6439.791695,-5625.565159,536.266849
1419.320232,7105.977043,-6365.771101,1302.362347
1419.320561,7105.977043,-5625.565159,689.485948
1419.320890,6735.874072,-6217.729913,919.314598
1419.321220,7402.059420,-5921.647536,1302.362347
1419.321549,7846.182985,-7254.018232,1608.800546
1419.321878,7920.203579,-7031.956449,2221.676944
1419.322207,8068.244768,-5921.647536,2068.457845
1419.322537,8364.327145,-7105.977043,1915.238745
1419.322866,7105.977043,-8068.244768,1532.190996
1419.323195,5107.421000,-7476.080014,459.657299
1419.323524,3478.967927,-7179.997637,-536.266849
1419.323853,4441.235652,-7846.182985,229.828649
1419.324183,5995.668130,-8142.265362,1225.752797
1419.324512,7179.997637,-6291.750507,1072.533697
1419.324841,7328.038826,-4959.379811,1455.581446
1419.325170,7105.977043,-5921.647536,842.705048
1419.325499,7254.018232,-6883.915261,1455.581446
1419.325829,7402.059420,-6069.688724,995.924147
1419.326158,6883.915261,-4959.379811,1378.971896
1419.326487,8290.306550,-5107.421000,2145.067394
1419.326816,8882.471304,-6661.853478,1915.238745
1419.327145,8142.265362,-6069.688724,1455.581446
1419.327475,7402.059420,-7328.038826,2145.067394
1419.327804,8290.306550,-7179.997637,1685.410096
1419.328133,7179.997637,-7994.224174,1455.581446
1419.328462,4737.318029,-8142.265362,612.876398
1419.328791,4071.132681,-7624.121203,-766.095498
1419.329121,4293.194464,-8290.306550,-383.047749
1419.329450,5477.523971,-7920.203579,536.266849
1419.329779,7624.121203,-5403.503377,1532.190996
1419.330108,8660.409521,-4145.153275,1225.752797
1419.330437,8512.368333,-4737.318029,842.705048
1419.330767,7920.203579,-6217.729913,1991.848295
1419.331096,8438.347739,-5033.400406,919.314598
1419.331426,8068.244768,-4737.318029,536.266849
1419.331755,8068.244768,-5107.421000,1225.752797
1419.332084,8512.368333,-6439.791695,1685.410096
1419.332413,8660.409521,-7254.018232,1838.629195
1419.332742,7624.121203,-6809.894666,2374.896044
1419.333072,7624.121203,-7328.038826,1378.971896
1419.333401,6513.812290,-7772.162391,612.876398
1419.333730,4589.276840,-7031.956449,0.000000
1419.334059,3478.967927,-7179.997637,-1532.190996
1419.334389,2960.823768,-7698.141797,-612.876398
1419.334718,4737.318029,-7624.121203,0.000000
1419.335047,6439.791695,-6513.812290,0.000000
1419.335376,7920.203579,-4293.194464,2068.457845
1419.335706,9030.512492,-5625.565159,1685.410096
1419.336035,9104.533087,-5033.400406,1532.190996
1419.336364,8142.265362,-5033.400406,1302.362347
1419.336693,7994.224174,-5329.482782,0.000000
1419.337022,8512.368333,-6069.688724,1378.971896
1419.337352,8364.327145,-7402.059420,1455.581446
1419.337681,7920.203579,-7920.203579,1302.362347
1419.338010,7772.162391,-7105.977043,1455.581446
1419.338339,7698.141797,-7772.162391,1685.410096
1419.338669,7105.977043,-8216.285956,1225.752797
1419.338998,4441.235652,-7328.038826,0.000000
1419.339327,2368.659014,-7179.997637,-766.095498
1419.339656,2516.700203,-8364.327145,-1225.752797
1419.339986,4145.153275,-7179.997637,0.000000
1419.340315,7254.018232,-6883.915261,1225.752797
1419.340644,9178.553681,-4959.379811,1838.629195
1419.340973,10066.800811,-4071.132681,2451.505594
1419.341303,9548.656652,-5403.503377,2298.286494
1419.341632,8586.388927,-4293.194464,1455.581446
1419.341961,7031.956449,-4589.276840,153.219100
1419.342290,7179.997637,-5847.626942,842.705048
1419.342619,8142.265362,-7994.224174,1685.410096
1419.342949,8438.347739,-8068.244768,2451.505594
1419.343278,8216.285956,-6513.812290,1532.190996
1419.343607,7920.203579,-6809.894666,1838.629195
1419.343936,6587.832884,-6587.832884,842.705048
1419.344266,4071.132681,-7105.977043,-383.047749
1419.344595,3034.844362,-7772.162391,-459.657299
1419.344924,3552.988522,-7476.080014,-612.876398
1419.345253,5551.544565,-8438.347739,536.266849
1419.345583,7105.977043,-6439.791695,1225.752797
1419.345912,8068.244768,-5477.523971,1608.800546
1419.346241,8586.388927,-5773.606348,1991.848295
1419.346570,8512.368333,-5477.523971,1915.238745
1419.346900,7994.224174,-4885.359217,1608.800546
1419.347229,7772.162391,-4515.256246,766.095498
1419.347558,7772.162391,-5181.441594,1685.410096
1419.347887,8882.471304,-6957.935855,1991.848295
1419.348216,7994.224174,-6365.771101,2298.286494
1419.348546,7920.203579,-7031.956449,1838.629195
1419.348875,7105.977043,-7846.182985,1378.971896
1419.349204,4959.379811,-7254.018232,995.924147
1419.349533,3034.844362,-8882.471304,-612.876398
1419.349863,2220.617826,-8438.347739,-1455.581446
1419.350192,3108.864956,-8808.450710,-612.876398
1419.350521,5921.647536,-8438.347739,919.314598
1419.350850,8438.347739,-6735.874072,1532.190996
1419.351180,9474.636058,-4811.338623,1378.971896
1419.351509,9030.512492,-5847.626942,1685.410096
1419.351838,8734.430116,-6069.688724,1532.190996
1419.352167,8364.327145,-4219.173869,1225.752797
1419.352496,8512.368333,-3997.112087,766.095498
1419.352826,8956.491898,-4145.153275,1225.752797
1419.353155,9252.574275,-6069.688724,2145.067394
1419.353484,8290.306550,-7105.977043,2221.676944
1419.353813,7994.224174,-6291.750507,2145.067394
1419.354143,7476.080014,-6735.874072,1072.533697
1419.354472,5995.668130,-7772.162391,1072.533697
1419.354801,3478.967927,-8142.265362,153.219100
1419.355130,2738.761985,-7031.956449,-1685.410096
1419.355460,3182.885551,-8808.450710,0.000000
1419.355789,5329.482782,-8956.491898,1149.143247
1419.356118,7624.121203,-6883.915261,1302.362347
1419.356447,7920.203579,-5477.523971,1225.752797
1419.356777,8364.327145,-5699.585753,842.705048
1419.357106,8734.430116,-6217.729913,1302.362347
1419.357435,8660.409521,-4737.318029,1762.019645
1419.357764,8512.368333,-3627.009116,842.705048
1419.358093,8808.450710,-3701.029710,1762.019645
1419.358423,9252.574275,-5773.606348,2374.896044
1419.358752,7920.203579,-7105.977043,1685.410096
1419.359081,7624.121203,-6439.791695,1685.410096
1419.359410,7105.977043,-6735.874072,1455.581446
1419.359740,6365.771101,-7994.224174,1455.581446
1419.360069,3923.091493,-7772.162391,0.000000
1419.360398,2886.803174,-7254.018232,-766.095498
1419.360727,3775.050304,-8364.327145,-383.047749
1419.361057,5625.565159,-8290.306550,612.876398
1419.361386,7550.100608,-6661.853478,1838.629195
1419.361715,8660.409521,-5255.462188,1072.533697
1419.362044,8956.491898,-6069.688724,2145.067394
1419.362374,8364.327145,-5699.585753,1302.362347
1419.362703,7920.203579,-5773.606348,459.657299
1419.363032,7550.100608,-4515.256246,1149.143247
1419.363361,7920.203579,-5699.585753,1149.143247
1419.363690,8216.285956,-6587.832884,1915.238745
1419.364020,7994.224174,-5847.626942,2221.676944
1419.364349,8142.265362,-7031.956449,2528.115143
1419.364678,8216.285956,-6587.832884,1915.238745
1419.365007,6439.791695,-7550.100608,1072.533697
1419.365337,4441.235652,-7550.100608,-306.438199
1419.365666,3256.906145,-7476.080014,-1149.143247
1419.365995,4441.235652,-8438.347739,-766.095498
1419.366324,5921.647536,-8438.347739,1225.752797
1419.366654,7698.141797,-6291.750507,919.314598
1419.366983,8512.368333,-5181.441594,689.485948
1419.367312,7624.121203,-6143.709319,1455.581446
1419.367641,7179.997637,-7920.203579,1838.629195
1419.367970,7772.162391,-4737.318029,459.657299
1419.368300,7328.038826,-5773.606348,766.095498
1419.368629,7698.141797,-5773.606348,1455.581446
1419.368958,9104.533087,-6587.832884,2221.676944
1419.369287,9104.533087,-6661.853478,3753.867940
1419.369617,8660.409521,-5255.462188,2451.505594
1419.369946,7698.141797,-6217.729913,1991.848295
1419.370275,6513.812290,-6143.709319,1378.971896
1419.370604,4367.215058,-7105.977043,-306.438199
1419.370934,3627.009116,-7179.997637,-536.266849
1419.371263,3997.112087,-8660.409521,459.657299
1419.371592,5551.544565,-8586.388927,919.314598
1419.371921,6957.935855,-7254.018232,1838.629195
1419.372251,7328.038826,-6661.853478,1302.362347
1419.372580,7772.162391,-6439.791695,919.314598
1419.372909,7179.997637,-7105.977043,1302.362347
1419.373238,7402.059420,-6217.729913,536.266849
1419.373567,7624.121203,-4293.194464,536.266849
1419.373897,8216.285956,-5699.585753,1838.629195
1419.374226,8512.368333,-6883.915261,2374.896044
1419.374555,8142.265362,-6735.874072,2528.115143
1419.374884,7994.224174,-5847.626942,1991.848295
1419.375214,7328.038826,-5773.606348,1302.362347
1419.375543,6513.812290,-7105.977043,1455.581446
1419.375872,4367.215058,-6809.894666,-459.657299
1419.376201,4071.132681,-7476.080014,-306.438199
1419.376531,5181.441594,-8660.409521,-229.828649
1419.376860,5847.626942,-8882.471304,919.314598
1419.377189,6587.832884,-7476.080014,842.705048
1419.377518,6809.894666,-7179.997637,842.705048
1419.377848,7105.977043,-6883.915261,1149.143247
1419.378177,6809.894666,-6587.832884,1302.362347
1419.378506,6809.894666,-5255.462188,612.876398
1419.378835,7402.059420,-3849.070898,766.095498
1419.379164,8290.306550,-5329.482782,1149.143247
1419.379494,8882.471304,-6069.688724,2911.162892
1419.379823,8882.471304,-5995.668130,2221.676944
1419.380152,8956.491898,-5255.462188,2068.457845
1419.380481,8290.306550,-6587.832884,1455.581446
1419.380811,6661.853478,-7698.141797,1149.143247
1419.381140,5181.441594,-7179.997637,0.000000
1419.381469,5773.606348,-6957.935855,306.438199
1419.381798,6291.750507,-8512.368333,1378.971896
1419.382128,6439.791695,-7402.059420,1072.533697
1419.382457,6661.853478,-5995.668130,1225.752797
1419.382786,7031.956449,-6069.688724,612.876398
1419.383115,7105.977043,-6439.791695,1455.581446
1419.383444,6809.894666,-6587.832884,1149.143247
1419.383774,6883.915261,-6069.688724,689.485948
1419.384103,7402.059420,-4737.318029,995.924147
1419.384432,8068.244768,-5107.421000,1378.971896
1419.384761,8882.471304,-6365.771101,2451.505594
1419.385091,9104.533087,-5699.585753,2528.115143
1419.385420,8660.409521,-5403.503377,2528.115143
1419.385749,7846.182985,-6587.832884,1455.581446
1419.386078,5995.668130,-7476.080014,995.924147
1419.386408,4589.276840,-7920.203579,153.219100
1419.386737,4145.153275,-8068.244768,0.000000
1419.387066,5181.441594,-7920.203579,459.657299
1419.387395,5995.668130,-8290.306550,766.095498
1419.387725,7105.977043,-7105.977043,995.924147
1419.388054,7105.977043,-6143.709319,689.485948
1419.388383,6809.894666,-6291.750507,383.047749
1419.388712,6365.771101,-6291.750507,0.000000
1419.389041,6513.812290,-6069.688724,153.219100
1419.389371,7994.224174,-5551.544565,995.924147
1419.389700,8956.491898,-5921.647536,2298.286494
1419.390029,9400.615463,-7031.956449,2604.724693
1419.390358,9252.574275,-5773.606348,2068.457845
1419.390688,8882.471304,-4959.379811,1915.238745
1419.391017,8882.471304,-5773.606348,2145.067394
1419.391346,7698.141797,-6957.935855,1302.362347
1419.391675,5329.482782,-7920.203579,995.924147
1419.392005,3775.050304,-8142.265362,0.000000
1419.392334,3997.112087,-7846.182985,153.219100
1419.392663,5107.421000,-7920.203579,919.314598
1419.392992,6291.750507,-5699.585753,306.438199
1419.393322,7105.977043,-5477.523971,842.705048
1419.393651,7698.141797,-5995.668130,612.876398
1419.393980,8142.265362,-6661.853478,1225.752797
1419.394309,7328.038826,-5477.523971,1149.143247
1419.394638,7624.121203,-5107.421000,306.438199
1419.394968,7994.224174,-7105.977043,1072.533697
1419.395297,7476.080014,-7402.059420,1378.971896
1419.395626,7920.203579,-6587.832884,1838.629195
1419.395955,9252.574275,-5921.647536,1532.190996
1419.396285,9178.553681,-5403.503377,1762.019645
1419.396614,7698.141797,-6809.894666,1762.019645
1419.396943,5477.523971,-6587.832884,612.876398
1419.397272,4737.318029,-7105.977043,0.000000
1419.397602,4515.256246,-8734.430116,383.047749
1419.397931,5033.400406,-7846.182985,459.657299
1419.398260,5995.668130,-7031.956449,383.047749
1419.398589,7402.059420,-6661.853478,842.705048
1419.398918,7476.080014,-6809.894666,995.924147
1419.399248,7476.080014,-6883.915261,689.485948
1419.399577,7031.956449,-5921.647536,919.314598
1419.399906,7254.018232,-5403.503377,536.266849
1419.400235,7550.100608,-5995.668130,536.266849
1419.400565,7624.121203,-6439.791695,1762.019645
1419.400894,7179.997637,-6217.729913,1532.190996
1419.401223,8216.285956,-4959.379811,1455.581446
1419.401552,8734.430116,-5107.421000,2451.505594
1419.401882,8290.306550,-5699.585753,1762.019645
1419.402211,7031.956449,-5551.544565,1762.019645
1419.402540,5551.544565,-6439.791695,383.047749
1419.402869,5847.626942,-7846.182985,689.485948
1419.403199,6439.791695,-6365.771101,842.705048
1419.403528,6809.894666,-6661.853478,919.314598
1419.403857,6439.791695,-7402.059420,76.609550
1419.404186,6661.853478,-7772.162391,612.876398
1419.404515,6291.750507,-8438.347739,919.314598
1419.404845,6439.791695,-7031.956449,459.657299
1419.405174,6143.709319,-5403.503377,919.314598
1419.405503,6587.832884,-6735.874072,612.876398
1419.405832,6735.874072,-7402.059420,1072.533697
1419.406162,6883.915261,-6661.853478,1149.143247
1419.406491,7402.059420,-5995.668130,1302.362347
1419.406820,8216.285956,-6513.812290,1838.629195
1419.407149,8216.285956,-5995.668130,2528.115143
1419.407479,6957.935855,-6069.688724,1302.362347
1419.407808,5995.668130,-5255.462188,76.609550
1419.408137,5773.606348,-6661.853478,995.924147
1419.408466,6957.935855,-7624.121203,1225.752797
1419.408796,8290.306550,-6069.688724,1532.190996
1419.409125,8216.285956,-5477.523971,1455.581446
1419.409454,7402.059420,-7328.038826,1072.533697
1419.409783,7105.977043,-7254.018232,842.705048
1419.410112,5995.668130,-6365.771101,153.219100
1419.410442,5921.647536,-5329.482782,-229.828649
1419.410771,6809.894666,-6291.750507,536.266849
1419.411100,7179.997637,-6439.791695,1149.143247
1419.411429,7328.038826,-6809.894666,1455.581446
1419.411759,8290.306550,-6365.771101,1991.848295
1419.412088,9474.636058,-5995.668130,2374.896044
1419.412417,7994.224174,-5773.606348,1915.238745
1419.412746,6365.771101,-5625.565159,842.705048
1419.413076,5625.565159,-6069.688724,306.438199
1419.413405,5625.565159,-7254.018232,536.266849
1419.413734,6587.832884,-7476.080014,1072.533697
1419.414063,7254.018232,-7031.956449,2068.457845
1419.414392,7179.997637,-6883.915261,1455.581446
1419.414722,7031.956449,-7550.100608,1072.533697
1419.415051,5847.626942,-8216.285956,1072.533697
1419.415380,5181.441594,-7105.977043,-306.438199
1419.415709,5773.606348,-6587.832884,-383.047749
1419.416039,6291.750507,-6217.729913,536.266849
1419.416368,6809.894666,-7105.977043,1072.533697
1419.416697,7624.121203,-6957.935855,1225.752797
1419.417026,8290.306550,-6513.812290,1532.190996
1419.417356,9030.512492,-5921.647536,2068.457845
1419.417685,7994.224174,-6661.853478,1302.362347
1419.418014,6661.853478,-5995.668130,0.000000
1419.418343,5477.523971,-6735.874072,0.000000
1419.418673,6513.812290,-8290.306550,536.266849
1419.419002,7328.038826,-7031.956449,1608.800546
1419.419331,8068.244768,-5847.626942,1991.848295
1419.419660,8512.368333,-5699.585753,1302.362347
1419.419989,7772.162391,-5995.668130,1838.629195
1419.420319,7328.038826,-6883.915261,1302.362347
1419.420648,6217.729913,-6069.688724,383.047749
1419.420977,5551.544565,-4737.318029,306.438199
1419.421306,5995.668130,-7031.956449,689.485948
1419.421636,6291.750507,-6439.791695,383.047749
1419.421965,6439.791695,-6291.750507,1532.190996
1419.422294,7105.977043,-6439.791695,1225.752797
1419.422623,8290.306550,-6587.832884,1915.238745
1419.422953,8142.265362,-7031.956449,2221.676944
1419.423282,7254.018232,-5699.585753,459.657299
1419.423611,5847.626942,-6365.771101,383.047749
1419.423940,6587.832884,-7105.977043,689.485948
1419.424270,7476.080014,-7846.182985,1532.190996
1419.424599,7550.100608,-6587.832884,1455.581446
1419.424928,7105.977043,-5699.585753,919.314598
1419.425257,7105.977043,-5995.668130,1225.752797
1419.425586,7031.956449,-7179.997637,1225.752797
1419.425916,5995.668130,-6069.688724,229.828649
1419.426245,5625.565159,-4737.318029,-229.828649
1419.426574,6069.688724,-5699.585753,0.000000
1419.426903,6883.915261,-6883.915261,995.924147
1419.427233,7254.018232,-7105.977043,1608.800546
1419.427562,7920.203579,-6365.771101,1378.971896
1419.427891,8808.450710,-7179.997637,2298.286494
1419.428220,7920.203579,-7105.977043,1915.238745
1419.428550,6735.874072,-7031.956449,689.485948
1419.428879,5773.606348,-6809.894666,612.876398
1419.429208,6735.874072,-6883.915261,1608.800546
1419.429537,7328.038826,-7105.977043,919.314598
1419.429867,7105.977043,-5995.668130,1455.581446
1419.430196,6957.935855,-6069.688724,919.314598
1419.430525,6809.894666,-7550.100608,459.657299
1419.430854,6291.750507,-7328.038826,1072.533697
1419.431183,5033.400406,-6883.915261,0.000000
1419.431513,5847.626942,-6069.688724,-76.609550
1419.431842,6439.791695,-6661.853478,459.657299
1419.432171,7550.100608,-7179.997637,536.266849
1419.432500,8438.347739,-6143.709319,1149.143247
1419.432830,8438.347739,-6735.874072,1532.190996
1419.433159,8438.347739,-7550.100608,1762.019645
1419.433488,7920.203579,-7105.977043,1225.752797
1419.433817,5847.626942,-6661.853478,1378.971896
1419.434147,5921.647536,-6809.894666,612.876398
1419.434476,6883.915261,-6883.915261,1838.629195
1419.434805,7402.059420,-6661.853478,1608.800546
1419.435134,7328.038826,-5477.523971,1072.533697
1419.435464,6883.915261,-5551.544565,919.314598
1419.435793,6513.812290,-6365.771101,383.047749
1419.436122,6069.688724,-7105.977043,536.266849
1419.436451,5847.626942,-6365.771101,766.095498
1419.436781,6513.812290,-5921.647536,229.828649
1419.437110,7179.997637,-6883.915261,612.876398
1419.437439,7402.059420,-6735.874072,1532.190996
1419.437768,7846.182985,-6809.894666,1532.190996
1419.438098,8438.347739,-6143.709319,1455.581446
1419.438427,8660.409521,-5403.503377,3064.381992
1419.438756,8660.409521,-7254.018232,1838.629195
1419.439085,6735.874072,-5255.462188,1072.533697
1419.439415,4737.318029,-6809.894666,229.828649
1419.439744,5847.626942,-7105.977043,842.705048
1419.440073,7179.997637,-5847.626942,1608.800546
1419.440402,7402.059420,-5773.606348,995.924147
1419.440731,7328.038826,-4663.297435,1149.143247
1419.441061,7105.977043,-5995.668130,612.876398
1419.441390,6069.688724,-7920.203579,1532.190996
1419.441719,5255.462188,-6513.812290,306.438199
1419.442048,5181.441594,-6291.750507,-766.095498
1419.442378,6143.709319,-7772.162391,536.266849
1419.442707,7105.977043,-7772.162391,1072.533697
1419.443036,9474.636058,-7031.956449,2911.162892
1419.443365,10732.986159,-5329.482782,2298.286494
1419.443695,9770.718434,-6809.894666,2987.772442
1419.444024,8142.265362,-6439.791695,1991.848295
1419.444353,5033.400406,-6143.709319,-229.828649
1419.444682,2812.782580,-7179.997637,-842.705048
1419.445012,3330.926739,-8438.347739,0.000000
1419.445341,5107.421000,-8512.368333,919.314598
1419.445670,6291.750507,-6291.750507,459.657299
1419.445999,5921.647536,-6069.688724,536.266849
1419.446329,6735.874072,-6587.832884,153.219100
1419.446658,7550.100608,-6587.832884,919.314598
1419.446987,7254.018232,-6217.729913,76.609550
1419.447316,8290.306550,-5107.421000,1072.533697
1419.447646,9326.594869,-5033.400406,766.095498
1419.447975,9918.759623,-6513.812290,1915.238745
1419.448304,9622.677246,-6069.688724,2757.943793
1419.448633,9474.636058,-6587.832884,2604.724693
1419.448963,9252.574275,-5699.585753,2451.505594
1419.449292,7031.956449,-6217.729913,1302.362347
1419.449621,3849.070898,-8068.244768,153.219100
1419.449950,3627.009116,-6365.771101,-612.876398
1419.450279,4219.173869,-7624.121203,536.266849
1419.450609,5847.626942,-7402.059420,919.314598
1419.450938,6735.874072,-4959.379811,1302.362347
1419.451267,6883.915261,-5773.606348,1072.533697
1419.451596,6439.791695,-6883.915261,229.828649
1419.451926,5921.647536,-7031.956449,383.047749
1419.452255,6957.935855,-6291.750507,995.924147
1419.452584,8808.450710,-5477.523971,995.924147
1419.452913,9918.759623,-5847.626942,2757.943793
1419.453243,10140.821405,-5995.668130,2145.067394
1419.453572,9992.780217,-5921.647536,1991.848295
1419.453901,8808.450710,-5699.585753,2145.067394
1419.454230,7550.100608,-6069.688724,1455.581446
1419.454560,5477.523971,-6883.915261,842.705048
1419.454889,3256.906145,-7698.141797,-153.219100
1419.455218,2664.741391,-8142.265362,-459.657299
1419.455547,3701.029710,-8512.368333,-153.219100
1419.455877,5551.544565,-7846.182985,766.095498
1419.456206,6883.915261,-6513.812290,919.314598
1419.456535,7698.141797,-5329.482782,1225.752797
1419.456864,8068.244768,-7105.977043,1532.190996
1419.457194,8512.368333,-6513.812290,1532.190996
1419.457523,7920.203579,-4811.338623,1072.533697
1419.457852,7550.100608,-5329.482782,383.047749
1419.458181,7846.182985,-6143.709319,2221.676944
1419.458511,8364.327145,-7031.956449,2681.334243
1419.458840,8364.327145,-6217.729913,1838.629195
1419.459169,7402.059420,-6365.771101,1225.752797
1419.459498,7179.997637,-7624.121203,1685.410096
1419.459827,5551.544565,-7402.059420,-229.828649
1419.460157,3182.885551,-6809.894666,-919.314598
1419.460486,3182.885551,-8068.244768,-842.705048
1419.460815,4885.359217,-8956.491898,459.657299
1419.461144,6513.812290,-7920.203579,1762.019645
1419.461474,7698.141797,-6513.812290,995.924147
1419.461803,8882.471304,-5107.421000,1149.143247
1419.462132,9326.594869,-5329.482782,1455.581446
1419.462461,8734.430116,-6291.750507,1378.971896
1419.462791,7772.162391,-4515.256246,689.485948
1419.463120,8290.306550,-4441.235652,842.705048
1419.463449,9400.615463,-6217.729913,1685.410096
1419.463778,8882.471304,-6661.853478,2604.724693
1419.464108,7476.080014,-5921.647536,2298.286494
1419.464437,6883.915261,-6365.771101,842.705048
1419.464766,5921.647536,-7402.059420,1225.752797
1419.465095,4589.276840,-8364.327145,153.219100
1419.465425,3256.906145,-7772.162391,-612.876398
1419.465754,3849.070898,-7328.038826,-383.047749
1419.466083,5033.400406,-8216.285956,919.314598
1419.466412,7105.977043,-6883.915261,1149.143247
1419.466742,7550.100608,-5773.606348,766.095498
1419.467071,8216.285956,-4737.318029,1225.752797
1419.467400,8808.450710,-6217.729913,1838.629195
1419.467729,8364.327145,-5255.462188,995.924147
1419.468059,7772.162391,-5033.400406,995.924147
1419.468388,7994.224174,-6365.771101,1225.752797
1419.468717,7994.224174,-5921.647536,1991.848295
1419.469046,7031.956449,-7550.100608,1378.971896
1419.469375,5995.668130,-7402.059420,919.314598
1419.469705,6587.832884,-6439.791695,1149.143247
1419.470034,5921.647536,-8216.285956,1302.362347
1419.470363,4737.318029,-7698.141797,689.485948
1419.470692,4589.276840,-7624.121203,-306.438199
1419.471022,4959.379811,-7772.162391,-306.438199
1419.471351,5255.462188,-8142.265362,842.705048
1419.471680,6587.832884,-7402.059420,1608.800546
1419.472009,7920.203579,-4885.359217,919.314598
1419.472339,8068.244768,-4885.359217,1378.971896
1419.472668,8734.430116,-5107.421000,1838.629195
1419.472997,9178.553681,-5921.647536,2221.676944
1419.473326,8438.347739,-4811.338623,1149.143247
1419.473656,7402.059420,-5477.523971,842.705048
1419.473985,7179.997637,-7105.977043,1532.190996
1419.474314,7105.977043,-8364.327145,1608.800546
1419.474643,5921.647536,-9474.636058,1149.143247
1419.474973,5403.503377,-8808.450710,1149.143247
1419.475302,5107.421000,-9474.636058,536.266849
1419.475631,4145.153275,-9622.677246,0.000000
1419.475960,2368.659014,-9326.594869,-689.485948
1419.476290,3108.864956,-9474.636058,-1378.971896
1419.476619,4219.173869,-9104.533087,0.000000
1419.476948,5699.585753,-8290.306550,766.095498
1419.477277,7328.038826,-6587.832884,1225.752797
1419.477606,8660.409521,-4367.215058,1685.410096
1419.477936,9104.533087,-5921.647536,1762.019645
1419.478265,8290.306550,-5551.544565,1685.410096
1419.478594,7920.203579,-5625.565159,1685.410096
1419.478923,8364.327145,-5699.585753,1378.971896
1419.479253,7920.203579,-6957.935855,2451.505594
1419.479582,6957.935855,-7476.080014,3370.820191
1419.479911,6365.771101,-6513.812290,2068.457845
1419.480240,5773.606348,-6587.832884,2145.067394
1419.480570,5107.421000,-6809.894666,1685.410096
1419.480899,3997.112087,-8142.265362,1532.190996
1419.481228,2442.679609,-8216.285956,76.609550
1419.481557,888.247130,-9178.553681,-919.314598
1419.481887,2072.576638,-9400.615463,-459.657299
1419.482216,4293.194464,-9696.697840,919.314598
1419.482545,5551.544565,-9844.739029,1915.238745
1419.482874,5995.668130,-8290.306550,919.314598
1419.483204,6291.750507,-8512.368333,1149.143247
1419.483533,6883.915261,-9474.636058,1762.019645
1419.483862,5921.647536,-9030.512492,1991.848295
1419.484191,4145.153275,-8438.347739,459.657299
1419.484521,3552.988522,-9622.677246,919.314598
1419.484850,4071.132681,-10658.965565,1838.629195
1419.485179,4071.132681,-9918.759623,2221.676944
1419.485508,3849.070898,-9104.533087,1608.800546
1419.485838,3997.112087,-6439.791695,689.485948
1419.486167,4663.297435,-6883.915261,689.485948
1419.486496,4441.235652,-8808.450710,1302.362347
1419.486825,3923.091493,-9030.512492,2068.457845
1419.487154,4293.194464,-8586.388927,153.219100
1419.487484,4145.153275,-9252.574275,0.000000
1419.487813,4737.318029,-10140.821405,1532.190996
1419.488142,5699.585753,-12139.377449,2451.505594
1419.488471,5847.626942,-9474.636058,2068.457845
1419.488801,4737.318029,-7254.018232,-229.828649
1419.489130,4663.297435,-6957.935855,-842.705048
1419.489459,5255.462188,-8882.471304,229.828649
1419.489788,5625.565159,-11547.212695,2145.067394
1419.490118,4811.338623,-10510.924376,0.000000
1419.490447,3775.050304,-8882.471304,-1149.143247
1419.490776,4219.173869,-9178.553681,0.000000
1419.491105,4811.338623,-11251.130318,1762.019645
1419.491435,6217.729913,-9622.677246,2145.067394
1419.491764,5625.565159,-7105.977043,536.266849
1419.492093,5181.441594,-3997.112087,-383.047749
1419.492422,6365.771101,-5551.544565,1378.971896
1419.492752,7772.162391,-7105.977043,3294.210641
1419.493081,7328.038826,-7328.038826,2221.676944
1419.493410,5403.503377,-7031.956449,766.095498
1419.493739,4071.132681,-7105.977043,0.000000
1419.494069,3552.988522,-8808.450710,383.047749
1419.494398,4071.132681,-10140.821405,919.314598
1419.494727,4663.297435,-10658.965565,76.609550
1419.495056,4145.153275,-9474.636058,536.266849
1419.495386,4219.173869,-9400.615463,1072.533697
1419.495715,5551.544565,-8142.265362,1149.143247
1419.496044,6439.791695,-6291.750507,1149.143247
1419.496373,5995.668130,-7179.997637,306.438199
1419.496702,5921.647536,-8734.430116,1685.410096
1419.497032,5921.647536,-8956.491898,2145.067394
1419.497361,6365.771101,-7031.956449,1838.629195
1419.497690,6439.791695,-6291.750507,842.705048
1419.498019,4959.379811,-7179.997637,459.657299
1419.498349,3849.070898,-10584.944971,995.924147
1419.498678,3997.112087,-11473.192101,1685.410096
1419.499007,4589.276840,-9548.656652,1225.752797
1419.499336,4515.256246,-8808.450710,842.705048
1419.499666,4663.297435,-8068.244768,842.705048
1419.499995,4959.379811,-8808.450710,1532.190996
1419.500324,5773.606348,-9104.533087,1991.848295
1419.500653,6143.709319,-6809.894666,2145.067394
1419.500983,5699.585753,-5403.503377,1991.848295
1419.501312,4737.318029,-6513.812290,1072.533697
1419.501641,4219.173869,-8808.450710,1532.190996
1419.501970,3627.009116,-10955.047942,1685.410096
1419.502300,2812.782580,-10584.944971,842.705048
1419.502629,2738.761985,-9696.697840,0.000000
1419.502958,3108.864956,-11325.150913,0.000000
1419.503287,3034.844362,-12435.459826,1149.143247
1419.503617,2960.823768,-13175.665768,2068.457845
1419.503946,2812.782580,-11103.089130,1149.143247
1419.504275,3849.070898,-7846.182985,995.924147
1419.504604,5551.544565,-6291.750507,1072.533697
1419.504934,7031.956449,-6069.688724,1302.362347
1419.505263,7105.977043,-5477.523971,1838.629195
1419.505592,5921.647536,-7031.956449,1225.752797
1419.505921,5329.482782,-7624.121203,995.924147
1419.506250,4959.379811,-8660.409521,919.314598
1419.506580,4589.276840,-9844.739029,1072.533697
1419.506909,2812.782580,-10881.027347,1072.533697
1419.507238,2886.803174,-11769.274478,-229.828649
1419.507567,2590.720797,-11843.295072,-229.828649
1419.507897,3775.050304,-10658.965565,383.047749
1419.508226,5255.462188,-9474.636058,1532.190996
1419.508555,5921.647536,-9178.553681,1532.190996
1419.508884,5773.606348,-7550.100608,2145.067394
1419.509214,5773.606348,-6735.874072,1762.019645
1419.509543,6587.832884,-4811.338623,2451.505594
1419.509872,7179.997637,-3478.967927,2298.286494
1419.510201,7179.997637,-5107.421000,1455.581446
1419.510531,6735.874072,-5403.503377,842.705048
1419.510860,5551.544565,-7402.059420,459.657299
1419.511189,4885.359217,-8364.327145,-306.438199
1419.511518,5033.400406,-8364.327145,-459.657299
1419.511848,5773.606348,-10510.924376,459.657299
1419.512177,5329.482782,-12139.377449,689.485948
1419.512506,4885.359217,-12583.501014,1302.362347
1419.512835,3849.070898,-12435.459826,842.705048
1419.513165,3034.844362,-10658.965565,-536.266849
1419.513494,2368.659014,-10584.944971,-612.876398
1419.513823,3182.885551,-11029.068536,153.219100
1419.514152,4737.318029,-9622.677246,1225.752797
1419.514482,6069.688724,-6735.874072,1838.629195
1419.514811,6957.935855,-3478.967927,1608.800546
1419.515140,7994.224174,-1776.494261,1991.848295
1419.515469,9252.574275,-1850.514855,2145.067394
1419.515798,8068.244768,-4145.153275,2145.067394
1419.516128,6291.750507,-6365.771101,1685.410096
1419.516457,5551.544565,-8660.409521,306.438199
1419.516786,4367.215058,-11621.233289,612.876398
1419.517115,3701.029710,-13175.665768,1838.629195
1419.517445,3849.070898,-14582.057057,1378.971896
1419.517774,3404.947333,-12953.603985,1378.971896
1419.518103,2886.803174,-11547.212695,1149.143247
1419.518432,3478.967927,-8290.306550,919.314598
1419.518762,3997.112087,-6069.688724,536.266849
1419.519091,3701.029710,-6365.771101,459.657299
1419.519420,4293.194464,-5699.585753,383.047749
1419.519749,4959.379811,-5699.585753,842.705048
1419.520079,6217.729913,-5921.647536,306.438199
1419.520408,6513.812290,-6883.915261,766.095498
1419.520737,5773.606348,-9400.615463,1149.143247
1419.521066,4885.359217,-11251.130318,383.047749
1419.521396,4219.173869,-12435.459826,1455.581446
1419.521725,4441.235652,-11843.295072,1685.410096
1419.522054,5033.400406,-11251.130318,2374.896044
1419.522383,4737.318029,-10584.944971,2987.772442
1419.522713,4737.318029,-9622.677246,3217.601092
1419.523042,5033.400406,-7846.182985,3217.601092
1419.523371,5551.544565,-5329.482782,2911.162892
1419.523700,6143.709319,-4219.173869,2757.943793
1419.524030,6217.729913,-4811.338623,2834.553343
1419.524359,5329.482782,-5625.565159,2451.505594
1419.524688,4145.153275,-6661.853478,1608.800546
1419.525017,3478.967927,-9030.512492,383.047749
1419.525346,3404.947333,-9326.594869,689.485948
1419.525676,4219.173869,-11547.212695,995.924147
1419.526005,4885.359217,-13101.645173,2911.162892
1419.526334,6069.688724,-11621.233289,2911.162892
1419.526663,6143.709319,-10732.986159,2757.943793
1419.526993,6513.812290,-8438.347739,3600.648841
1419.527322,6365.771101,-7105.977043,3677.258390
1419.527651,6735.874072,-5107.421000,3140.991542
1419.527980,7105.977043,-3923.091493,3524.039291
1419.528310,7772.162391,-3627.009116,3677.258390
1419.528639,8216.285956,-3923.091493,3140.991542
1419.528968,7105.977043,-4885.359217,3064.381992
1419.529297,6439.791695,-6069.688724,2374.896044
1419.529627,5995.668130,-7476.080014,2068.457845
1419.529956,5921.647536,-8586.388927,3140.991542
1419.530285,6735.874072,-8734.430116,3830.477490
1419.530614,7476.080014,-9252.574275,3677.258390
1419.530944,7031.956449,-7254.018232,4060.306139
1419.531273,6513.812290,-7179.997637,3600.648841
1419.531602,6883.915261,-6587.832884,4443.353888
1419.531931,6957.935855,-5329.482782,4136.915689
1419.532261,6809.894666,-4811.338623,3677.258390
1419.532590,7105.977043,-4071.132681,4519.963438
1419.532919,8142.265362,-4663.297435,4749.792088
1419.533248,8438.347739,-4145.153275,4903.011187
1419.533578,7920.203579,-4663.297435,4443.353888
1419.533907,7624.121203,-5403.503377,3677.258390
1419.534236,7105.977043,-6957.935855,3600.648841
1419.534565,6365.771101,-9400.615463,3907.087040
1419.534895,5699.585753,-10807.006753,3677.258390
1419.535224,5255.462188,-10658.965565,3524.039291
1419.535553,4219.173869,-10807.006753,3447.429741
1419.535883,4071.132681,-10214.842000,3600.648841
1419.536212,4145.153275,-9474.636058,4366.744339
1419.536541,4589.276840,-8216.285956,4596.572988
1419.536870,6069.688724,-6365.771101,4060.306139
1419.537200,6735.874072,-4663.297435,5209.449386
1419.537529,7772.162391,-4145.153275,5669.106685
1419.537858,8734.430116,-3627.009116,6128.763984
1419.538187,8512.368333,-1850.514855,5439.278036
1419.538517,9178.553681,-3182.885551,5209.449386
1419.538846,9696.697840,-3923.091493,5439.278036
1419.539175,9474.636058,-4811.338623,5745.716235
1419.539504,8956.491898,-6439.791695,4903.011187
1419.539834,7624.121203,-6735.874072,4903.011187
1419.540163,6143.709319,-8512.368333,4213.525239
1419.540492,5625.565159,-9474.636058,3753.867940
1419.540822,4737.318029,-9918.759623,4136.915689
1419.541151,4145.153275,-9992.780217,3907.087040
1419.541480,3256.906145,-9548.656652,2987.772442
1419.541809,2590.720797,-9474.636058,3370.820191
1419.542139,3552.988522,-7920.203579,3140.991542
1419.542468,5403.503377,-6587.832884,3907.087040
1419.542797,7698.141797,-4737.318029,4443.353888
1419.543126,9844.739029,-3701.029710,5439.278036
1419.543456,10510.924376,-3330.926739,6588.421283
1419.543785,11399.171507,-2146.597232,6205.373534
1419.544114,10732.986159,-2072.576638,4979.620737
1419.544443,9178.553681,-3256.906145,4136.915689
1419.544773,7624.121203,-5699.585753,3830.477490
1419.545102,6439.791695,-8068.244768,3524.039291
1419.545431,5477.523971,-8882.471304,2911.162892
1419.545761,4885.359217,-9696.697840,2451.505594
1419.546090,4737.318029,-10214.842000,2451.505594
1419.546419,4959.379811,-9696.697840,4290.134789
1419.546748,5033.400406,-8586.388927,3447.429741
1419.547078,5107.421000,-6587.832884,3140.991542
1419.547407,7179.997637,-4589.276840,4290.134789
1419.547736,8882.471304,-4441.235652,3447.429741
1419.548065,9474.636058,-4293.194464,4673.182538
1419.548395,9696.697840,-4219.173869,4136.915689
1419.548724,8956.491898,-5033.400406,3064.381992
1419.549053,7105.977043,-6217.729913,3140.991542
1419.549382,6291.750507,-7846.182985,2451.505594
1419.549712,6143.709319,-7920.203579,3064.381992
1419.550041,5921.647536,-8068.244768,3677.258390
1419.550370,6587.832884,-7920.203579,3447.429741
1419.550699,7179.997637,-7105.977043,4213.525239
1419.551029,7698.141797,-7624.121203,4903.011187
1419.551358,7846.182985,-6513.812290,4519.963438
1419.551687,7328.038826,-5773.606348,3830.477490
1419.552017,6439.791695,-5181.441594,3294.210641
1419.552346,6439.791695,-3997.112087,3217.601092
1419.552675,7476.080014,-3182.885551,3370.820191
1419.553004,8882.471304,-2812.782580,4060.306139
1419.553334,9104.533087,-5107.421000,3524.039291
1419.553663,7920.203579,-6217.729913,4443.353888
1419.553992,6365.771101,-8586.388927,3447.429741
1419.554321,4811.338623,-10732.986159,2451.505594
1419.554651,3701.029710,-10955.047942,2528.115143
1419.554980,3849.070898,-10288.862594,2604.724693
1419.555309,4145.153275,-9252.574275,3140.991542
1419.555638,5403.503377,-7031.956449,3447.429741
1419.555968,6439.791695,-5699.585753,3524.039291
1419.556297,7031.956449,-4515.256246,3907.087040
1419.556626,7624.121203,-4515.256246,5132.839837
1419.556956,8734.430116,-4367.215058,5362.668486
1419.557285,9474.636058,-3404.947333,5439.278036
1419.557614,10214.842000,-3034.844362,5822.325785
1419.557943,11103.089130,-3849.070898,5515.887586
1419.558273,9178.553681,-4145.153275,3907.087040
1419.558602,7254.018232,-6513.812290,3447.429741
1419.558931,5699.585753,-8586.388927,2911.162892
1419.559260,4441.235652,-9696.697840,2068.457845
1419.559590,4367.215058,-11473.192101,3217.601092
1419.559919,4293.194464,-11695.253884,3447.429741
1419.560248,4515.256246,-9992.780217,3830.477490
1419.560577,5033.400406,-8364.327145,3753.867940
1419.560907,6069.688724,-5107.421000,4366.744339
1419.561236,7698.141797,-4515.256246,5439.278036
1419.561565,9696.697840,-3404.947333,5439.278036
1419.561895,9918.759623,-2146.597232,5362.668486
1419.562224,9400.615463,-2294.638420,5286.058936
1419.562553,8956.491898,-3478.967927,4519.963438
1419.562882,7476.080014,-5403.503377,4596.572988
1419.563212,7402.059420,-7698.141797,4366.744339
1419.563541,7772.162391,-8660.409521,4596.572988
1419.563870,7105.977043,-8734.430116,4596.572988
1419.564199,6291.750507,-9474.636058,3677.258390
1419.564529,5181.441594,-8808.450710,3370.820191
1419.564858,4441.235652,-7402.059420,2834.553343
1419.565187,4737.318029,-6735.874072,3064.381992
1419.565516,6809.894666,-6217.729913,4366.744339
1419.565846,7550.100608,-4885.359217,5056.230287
1419.566175,7550.100608,-5699.585753,5132.839837
1419.566504,7105.977043,-5551.544565,5362.668486
1419.566833,7179.997637,-5033.400406,5132.839837
1419.567163,8660.409521,-5255.462188,5056.230287
1419.567492,8364.327145,-3923.091493,4903.011187
1419.567821,7920.203579,-4811.338623,3983.696590
1419.568151,7328.038826,-6439.791695,3983.696590
1419.568480,6661.853478,-7920.203579,4519.963438
1419.568809,6513.812290,-9400.615463,4060.306139
1419.569138,5773.606348,-8660.409521,4290.134789
1419.569468,5033.400406,-8364.327145,3447.429741
1419.569797,4515.256246,-9030.512492,3140.991542
1419.570126,4737.318029,-7772.162391,3983.696590
1419.570455,5921.647536,-6291.750507,4136.915689
1419.570785,7179.997637,-3034.844362,3600.648841
1419.571114,7402.059420,-2368.659014,3600.648841
1419.571443,8068.244768,-3775.050304,3140.991542
1419.571772,8290.306550,-5033.400406,3907.087040
1419.572102,9104.533087,-5995.668130,4903.011187
1419.572431,9400.615463,-7031.956449,4596.572988
1419.572760,7772.162391,-7179.997637,3524.039291
1419.573090,6291.750507,-9104.533087,2528.115143
1419.573419,5255.462188,-9770.718434,2451.505594
1419.573748,5477.523971,-8512.368333,2374.896044
1419.574077,6587.832884,-7105.977043,2757.943793
1419.574407,7328.038826,-6735.874072,2681.334243
1419.574736,7624.121203,-5995.668130,3447.429741
1419.575065,6957.935855,-5033.400406,3217.601092
1419.575394,6513.812290,-5551.544565,2451.505594
1419.575724,7105.977043,-5107.421000,2451.505594
1419.576053,7550.100608,-4811.338623,2145.067394
1419.576382,8142.265362,-5329.482782,1608.800546
1419.576711,8216.285956,-5033.400406,2145.067394
1419.577041,7772.162391,-6513.812290,1072.533697
1419.577370,7105.977043,-7624.121203,306.438199
1419.577699,6957.935855,-7846.182985,1455.581446
1419.578029,7698.141797,-9104.533087,1608.800546
1419.578358,7698.141797,-9252.574275,1762.019645
1419.578687,5773.606348,-11029.068536,2298.286494
1419.579016,4737.318029,-9178.553681,1838.629195
1419.579346,5995.668130,-5181.441594,536.266849
1419.579675,6661.853478,-3256.906145,1685.410096
1419.580004,8068.244768,-3182.885551,2145.067394
1419.580333,7920.203579,-5107.421000,2987.772442
1419.580663,8216.285956,-3627.009116,3907.087040
1419.580992,8216.285956,-3108.864956,1838.629195
1419.581321,7772.162391,-3627.009116,1225.752797
1419.581650,7254.018232,-6217.729913,536.266849
1419.581980,7402.059420,-8068.244768,842.705048
1419.582309,6735.874072,-6217.729913,-919.314598
1419.582638,6069.688724,-6957.935855,-1532.190996
1419.582967,5773.606348,-9474.636058,-306.438199
1419.583297,5995.668130,-11251.130318,1225.752797
1419.583626,5551.544565,-10584.944971,1149.143247
1419.583955,3701.029710,-8734.430116,689.485948
1419.584285,4219.173869,-8586.388927,229.828649
1419.584614,5847.626942,-7772.162391,1532.190996
1419.584943,7624.121203,-5625.565159,2145.067394
1419.585272,9548.656652,-3923.091493,2911.162892
1419.585602,10066.800811,-2368.659014,2451.505594
1419.585931,9030.512492,-1924.535449,1225.752797
1419.586260,7402.059420,-3256.906145,1072.533697
1419.586589,7624.121203,-4737.318029,1378.971896
1419.586919,8216.285956,-6587.832884,919.314598
1419.587248,7772.162391,-7031.956449,0.000000
1419.587577,6069.688724,-8808.450710,689.485948
1419.587906,6291.750507,-9622.677246,766.095498
1419.588236,6365.771101,-9474.636058,383.047749
1419.588565,4885.359217,-8512.368333,76.609550
1419.588894,4219.173869,-8512.368333,0.000000
1419.589224,4589.276840,-9844.739029,1149.143247
1419.589553,5255.462188,-8660.409521,2681.334243
1419.589882,7476.080014,-5773.606348,2987.772442
1419.590211,9622.677246,-4071.132681,3600.648841
1419.590541,10362.883188,-3997.112087,4213.525239
1419.590870,9252.574275,-3034.844362,3217.601092
1419.591199,8068.244768,-1924.535449,1685.410096
1419.591528,7031.956449,-1628.453072,0.000000
1419.591858,6439.791695,-4441.235652,-459.657299
1419.592187,6883.915261,-7476.080014,689.485948
1419.592516,7698.141797,-8660.409521,919.314598
1419.592845,7179.997637,-9252.574275,766.095498
1419.593175,5773.606348,-9474.636058,919.314598
1419.593504,5255.462188,-10066.800811,76.609550
1419.593833,6069.688724,-9474.636058,842.705048
1419.594163,5921.647536,-7846.182985,1302.362347
1419.594492,5329.482782,-7698.141797,1072.533697
1419.594821,5033.400406,-6587.832884,1225.752797
1419.595150,7402.059420,-4737.318029,2221.676944
1419.595480,9622.677246,-3034.844362,3140.991542
1419.595809,9548.656652,-3256.906145,3600.648841
1419.596138,9104.533087,-4293.194464,3140.991542
1419.596467,8216.285956,-3034.844362,1455.581446
1419.596797,7179.997637,-3034.844362,153.219100
1419.597126,5773.606348,-4959.379811,-306.438199
1419.597455,6513.812290,-8142.265362,-459.657299
1419.597784,6143.709319,-9104.533087,0.000000
1419.598114,5921.647536,-9178.553681,-459.657299
1419.598443,5551.544565,-9548.656652,0.000000
1419.598772,5329.482782,-9992.780217,153.219100
1419.599101,5699.585753,-10288.862594,229.828649
1419.599431,5995.668130,-8586.388927,919.314598
1419.599760,6365.771101,-7846.182985,1608.800546
1419.600089,6587.832884,-7105.977043,1685.410096
1419.600419,7254.018232,-4959.379811,2604.724693
1419.600748,8216.285956,-3478.967927,1378.971896
1419.601077,8734.430116,-3849.070898,2068.457845
1419.601406,8512.368333,-3404.947333,1838.629195
1419.601736,8290.306550,-4441.235652,1225.752797
1419.602065,8068.244768,-4145.153275,766.095498
1419.602394,7994.224174,-7031.956449,919.314598
1419.602723,7476.080014,-8882.471304,919.314598
1419.603053,6365.771101,-7328.038826,-383.047749
1419.603382,5033.400406,-7920.203579,-995.924147
1419.603711,5033.400406,-9104.533087,-919.314598
1419.604040,5847.626942,-8142.265362,0.000000
1419.604370,6439.791695,-7698.141797,0.000000
1419.604699,6735.874072,-8290.306550,1685.410096
1419.605028,6587.832884,-8438.347739,2834.553343
1419.605358,6809.894666,-7402.059420,1532.190996
1419.605687,6587.832884,-4663.297435,1532.190996
1419.606016,7624.121203,-3552.988522,2145.067394
1419.606345,8956.491898,-3923.091493,1532.190996
1419.606675,8438.347739,-3701.029710,1225.752797
1419.607004,7105.977043,-3775.050304,153.219100
1419.607333,7772.162391,-4145.153275,-459.657299
1419.607662,7328.038826,-6661.853478,153.219100
1419.607992,6809.894666,-9474.636058,1149.143247
1419.608321,6957.935855,-8364.327145,76.609550
1419.608650,7031.956449,-6883.915261,-229.828649
1419.608979,6439.791695,-8364.327145,-383.047749
1419.609309,6513.812290,-8882.471304,459.657299
1419.609638,7179.997637,-7105.977043,689.485948
1419.609967,6883.915261,-6883.915261,306.438199
1419.610297,5847.626942,-6809.894666,1225.752797
1419.610626,6069.688724,-7476.080014,2068.457845
1419.610955,7846.182985,-6291.750507,1991.848295
1419.611284,8364.327145,-4219.173869,2757.943793
1419.611614,8660.409521,-4811.338623,3677.258390
1419.611943,8882.471304,-5033.400406,2145.067394
1419.612272,7846.182985,-4737.318029,1838.629195
1419.612601,5921.647536,-4293.194464,-306.438199
1419.612931,4959.379811,-5921.647536,-1225.752797
1419.613260,4811.338623,-7254.018232,0.000000
1419.613589,5995.668130,-8882.471304,229.828649
1419.613918,7105.977043,-8882.471304,766.095498
1419.614248,7031.956449,-8956.491898,1532.190996
1419.614577,7031.956449,-9400.615463,995.924147
1419.614906,6587.832884,-8586.388927,1072.533697
1419.615235,6513.812290,-7031.956449,1149.143247
1419.615565,6439.791695,-7698.141797,1991.848295
1419.615894,6217.729913,-6957.935855,1915.238745
1419.616223,6883.915261,-5107.421000,2298.286494
1419.616553,7772.162391,-3701.029710,2451.505594
1419.616882,8734.430116,-4293.194464,3370.820191
1419.617211,8734.430116,-5329.482782,3064.381992
1419.617540,7624.121203,-4145.153275,1838.629195
1419.617870,5995.668130,-3478.967927,153.219100
1419.618199,5773.606348,-5995.668130,-306.438199
1419.618528,5847.626942,-7550.100608,689.485948
1419.618857,7105.977043,-7328.038826,153.219100
1419.619187,6587.832884,-7402.059420,612.876398
1419.619516,6809.894666,-7846.182985,995.924147
1419.619845,7031.956449,-8882.471304,1072.533697
1419.620174,7624.121203,-8438.347739,1225.752797
1419.620504,7105.977043,-7698.141797,1762.019645
1419.620833,5995.668130,-8586.388927,1378.971896
1419.621162,5403.503377,-7402.059420,1685.410096
1419.621492,6291.750507,-4515.256246,1915.238745
1419.621821,8142.265362,-3034.844362,1378.971896
1419.622150,9474.636058,-4589.276840,3217.601092
1419.622479,9696.697840,-5921.647536,3140.991542
1419.622809,8512.368333,-4663.297435,919.314598
1419.623138,6217.729913,-3701.029710,-536.266849
1419.623467,5033.400406,-5329.482782,-689.485948
1419.623796,5921.647536,-7698.141797,-1149.143247
1419.624126,6439.791695,-7105.977043,-306.438199
1419.624455,7179.997637,-8068.244768,995.924147
1419.624784,7772.162391,-8512.368333,1302.362347
1419.625113,8216.285956,-8660.409521,1838.629195
1419.625443,7031.956449,-8734.430116,919.314598
1419.625772,6587.832884,-7328.038826,919.314598
1419.626101,5773.606348,-8882.471304,1378.971896
1419.626431,5255.462188,-7698.141797,1378.971896
1419.626760,6217.729913,-5255.462188,1302.362347
1419.627089,7994.224174,-4145.153275,2298.286494
1419.627418,8882.471304,-4737.318029,1991.848295
1419.627748,7920.203579,-6069.688724,1762.019645
1419.628077,6735.874072,-5477.523971,995.924147
1419.628406,5995.668130,-5107.421000,-995.924147
1419.628735,5773.606348,-6069.688724,-612.876398
1419.629065,5625.565159,-7846.182985,0.000000
1419.629394,7031.956449,-8364.327145,-306.438199
1419.629723,7031.956449,-6513.812290,-306.438199
1419.630052,6143.709319,-7920.203579,0.000000
1419.630382,6661.853478,-8512.368333,1149.143247
1419.630711,7994.224174,-6735.874072,1762.019645
1419.631040,7328.038826,-7105.977043,1149.143247
1419.631369,6735.874072,-8068.244768,2221.676944
1419.631698,6883.915261,-7846.182985,2528.115143
1419.632028,8142.265362,-5329.482782,1762.019645
1419.632357,7772.162391,-3330.926739,1608.800546
1419.632686,7402.059420,-3997.112087,1302.362347
1419.633015,7550.100608,-4737.318029,995.924147
1419.633344,6587.832884,-5181.441594,306.438199
1419.633673,5551.544565,-5033.400406,0.000000
1419.634003,5773.606348,-6883.915261,-229.828649
1419.634332,7105.977043,-8290.306550,612.876398
1419.634661,7402.059420,-8586.388927,919.314598
1419.634990,7624.121203,-7994.224174,919.314598
1419.635319,6735.874072,-7031.956449,0.000000
1419.635649,6735.874072,-7624.121203,0.000000
1419.635978,7328.038826,-6587.832884,995.924147
1419.636307,7402.059420,-6291.750507,1149.143247
1419.636636,6513.812290,-7105.977043,1532.190996
1419.636965,5699.585753,-8068.244768,1991.848295
1419.637294,6735.874072,-6809.894666,1762.019645
1419.637624,7920.203579,-5107.421000,2221.676944
1419.637953,8068.244768,-5329.482782,2298.286494
1419.638282,7402.059420,-5773.606348,2374.896044
1419.638611,7105.977043,-3923.091493,689.485948
1419.638940,5773.606348,-3775.050304,-536.266849
1419.639270,5625.565159,-6069.688724,0.000000
1419.639599,7476.080014,-8068.244768,1378.971896
1419.639928,7105.977043,-6809.894666,842.705048
1419.640257,6513.812290,-6957.935855,1225.752797
1419.640586,6957.935855,-8512.368333,1608.800546
1419.640915,8068.244768,-7846.182985,1532.190996
1419.641245,8068.244768,-7920.203579,1225.752797
1419.641574,7179.997637,-7624.121203,2145.067394
1419.641903,6513.812290,-7550.100608,1072.533697
1419.642232,5699.585753,-7994.224174,1072.533697
1419.642561,5625.565159,-6143.709319,1608.800546
1419.642891,7031.956449,-4589.276840,1149.143247
1419.643220,8216.285956,-5921.647536,2068.457845
1419.643549,7920.203579,-5847.626942,2987.772442
1419.643878,7624.121203,-5107.421000,1532.190996
1419.644207,7031.956449,-4515.256246,1225.752797
1419.644536,6365.771101,-5921.647536,842.705048
1419.644866,6217.729913,-7328.038826,153.219100
1419.645195,6661.853478,-5699.585753,0.000000
1419.645524,6513.812290,-5107.421000,-536.266849
1419.645853,7550.100608,-6809.894666,612.876398
1419.646182,7994.224174,-7920.203579,1378.971896
1419.646512,8216.285956,-8364.327145,2221.676944
1419.646841,7994.224174,-7772.162391,2374.896044
1419.647170,7031.956449,-7772.162391,2604.724693
1419.647499,5921.647536,-7698.141797,1991.848295
1419.647828,6217.729913,-5329.482782,1455.581446
1419.648157,6809.894666,-4071.132681,536.266849
1419.648487,6957.935855,-4219.173869,1072.533697
1419.648816,6809.894666,-5329.482782,1532.190996
1419.649145,7179.997637,-4515.256246,1302.362347
1419.649474,6143.709319,-5255.462188,306.438199
1419.649803,5847.626942,-7105.977043,536.266849
1419.650133,6439.791695,-8808.450710,919.314598
1419.650462,7550.100608,-7772.162391,0.000000
1419.650791,7254.018232,-6439.791695,306.438199
1419.651120,7698.141797,-7328.038826,0.000000
1419.651449,8216.285956,-8290.306550,0.000000
1419.651778,7624.121203,-7179.997637,153.219100
1419.652108,6809.894666,-7179.997637,229.828649
1419.652437,5995.668130,-8216.285956,919.314598
1419.652766,6217.729913,-7105.977043,995.924147
1419.653095,6513.812290,-5773.606348,1072.533697
1419.653424,8216.285956,-4663.297435,1762.019645
1419.653754,8808.450710,-5921.647536,2374.896044
1419.654083,7994.224174,-6217.729913,1455.581446
1419.654412,6809.894666,-4515.256246,153.219100
1419.654741,5551.544565,-4589.276840,-919.314598
1419.655070,5625.565159,-6883.915261,-153.219100
1419.655399,5625.565159,-8586.388927,229.828649
1419.655729,6735.874072,-6439.791695,0.000000
1419.656058,6587.832884,-5847.626942,-383.047749
1419.656387,7254.018232,-6439.791695,459.657299
1419.656716,8364.327145,-8216.285956,1072.533697
1419.657045,7994.224174,-8290.306550,1149.143247
1419.657375,7254.018232,-7328.038826,995.924147
1419.657704,6439.791695,-7179.997637,689.485948
1419.658033,5255.462188,-7624.121203,995.924147
1419.658362,5847.626942,-5699.585753,229.828649
1419.658691,7476.080014,-4515.256246,919.314598
1419.659020,8734.430116,-5403.503377,2451.505594
1419.659350,8438.347739,-5033.400406,1378.971896
1419.659679,8290.306550,-5107.421000,1838.629195
1419.660008,7994.224174,-4663.297435,612.876398
1419.660337,6957.935855,-6217.729913,842.705048
1419.660666,5847.626942,-7179.997637,612.876398
1419.660996,5995.668130,-6217.729913,-229.828649
1419.661325,6957.935855,-5625.565159,0.000000
1419.661654,7254.018232,-6587.832884,153.219100
1419.661983,7402.059420,-7550.100608,459.657299
1419.662312,7624.121203,-7772.162391,1455.581446
1419.662641,6809.894666,-7698.141797,1149.143247
1419.662971,5847.626942,-8882.471304,1455.581446
1419.663300,5551.544565,-8142.265362,1915.238745
1419.663629,6735.874072,-6217.729913,1838.629195
1419.663958,7846.182985,-5625.565159,2451.505594
1419.664287,8956.491898,-6735.874072,3677.258390
1419.664616,8660.409521,-5477.523971,2604.724693
1419.664946,6809.894666,-3552.988522,306.438199
1419.665275,5477.523971,-4145.153275,0.000000
1419.665604,5033.400406,-5847.626942,-536.266849
1419.665933,5477.523971,-7254.018232,-459.657299
1419.666262,6513.812290,-7698.141797,0.000000
1419.666592,6883.915261,-7772.162391,995.924147
1419.666921,7402.059420,-8586.388927,1225.752797
1419.667250,6661.853478,-9474.636058,1455.581446
1419.667579,6291.750507,-8216.285956,1072.533697
1419.667908,6069.688724,-6957.935855,1225.752797
1419.668237,6069.688724,-7476.080014,1455.581446
1419.668567,6513.812290,-7031.956449,2374.896044
1419.668896,7254.018232,-4737.318029,2221.676944
1419.669225,8068.244768,-2738.761985,2068.457845
1419.669554,8734.430116,-4441.235652,2681.334243
1419.669883,8438.347739,-5403.503377,3447.429741
1419.670213,7254.018232,-4811.338623,1762.019645
1419.670542,6291.750507,-4959.379811,229.828649
1419.670871,5847.626942,-7105.977043,766.095498
1419.671200,5625.565159,-7772.162391,76.609550
1419.671529,5773.606348,-8068.244768,-612.876398
1419.671858,6291.750507,-7402.059420,0.000000
1419.672188,6957.935855,-8660.409521,229.828649
1419.672517,7105.977043,-9548.656652,1149.143247
1419.672846,7179.997637,-7772.162391,1685.410096
1419.673175,7550.100608,-7254.018232,1532.190996
1419.673504,7105.977043,-6735.874072,2145.067394
1419.673834,6513.812290,-6069.688724,2221.676944
1419.674163,7550.100608,-4071.132681,1762.019645
1419.674492,9030.512492,-2368.659014,2451.505594
1419.674821,9326.594869,-3404.947333,2528.115143
1419.675150,8364.327145,-4293.194464,1378.971896
1419.675479,7846.182985,-5403.503377,1302.362347
1419.675809,6661.853478,-5699.585753,612.876398
1419.676138,5995.668130,-8142.265362,76.609550
1419.676467,5181.441594,-9030.512492,0.000000
1419.676796,5329.482782,-7624.121203,-1072.533697
1419.677125,5477.523971,-8290.306550,-459.657299
1419.677455,5773.606348,-8586.388927,766.095498
1419.677784,6365.771101,-8438.347739,842.705048
1419.678113,6957.935855,-6883.915261,766.095498
1419.678442,7105.977043,-6365.771101,2221.676944
1419.678771,6957.935855,-7624.121203,2068.457845
1419.679100,6735.874072,-6661.853478,2987.772442
1419.679430,6957.935855,-4145.153275,2374.896044
1419.679759,8142.265362,-3627.009116,1149.143247
1419.680088,8956.491898,-3701.029710,1608.800546
1419.680417,9326.594869,-5995.668130,2298.286494
1419.680746,8068.244768,-6365.771101,229.828649
1419.681076,6217.729913,-6661.853478,-995.924147
1419.681405,4737.318029,-8956.491898,-612.876398
1419.681734,5255.462188,-9696.697840,-383.047749
1419.682063,6143.709319,-7846.182985,-306.438199
1419.682392,5995.668130,-7920.203579,-153.219100
1419.682721,5921.647536,-7994.224174,0.000000
1419.683051,6587.832884,-7402.059420,919.314598
1419.683380,7624.121203,-6587.832884,1608.800546
1419.683709,8068.244768,-5403.503377,1685.410096
1419.684038,6883.915261,-5551.544565,2374.896044
1419.684367,6439.791695,-6439.791695,1532.190996
1419.684697,6735.874072,-4293.194464,1225.752797
1419.685026,8512.368333,-4589.276840,2681.334243
1419.685355,9844.739029,-6143.709319,2987.772442
1419.685684,9474.636058,-5699.585753,2298.286494
1419.686013,6661.853478,-5699.585753,383.047749
1419.686342,3701.029710,-6439.791695,-1838.629195
1419.686672,3849.070898,-7402.059420,-1991.848295
1419.687001,5181.441594,-8586.388927,-1072.533697
1419.687330,6291.750507,-7994.224174,-766.095498
1419.687659,7105.977043,-8068.244768,1455.581446
1419.687988,7846.182985,-8290.306550,919.314598
1419.688318,7698.141797,-7772.162391,1685.410096
1419.688647,7550.100608,-6069.688724,1685.410096
1419.688976,7920.203579,-5847.626942,1532.190996
1419.689305,7402.059420,-5921.647536,1991.848295
1419.689634,6439.791695,-5995.668130,2451.505594
1419.689963,7105.977043,-4441.235652,2068.457845
1419.690293,8660.409521,-4145.153275,2298.286494
1419.690622,9178.553681,-5329.482782,2681.334243
1419.690951,8068.244768,-6661.853478,2298.286494
1419.691280,6513.812290,-5477.523971,1225.752797
1419.691609,5699.585753,-6069.688724,-306.438199
1419.691939,4737.318029,-8068.244768,-383.047749
1419.692268,5551.544565,-8290.306550,229.828649
1419.692597,7105.977043,-8660.409521,-153.219100
1419.692926,6661.853478,-7254.018232,459.657299
1419.693255,6439.791695,-7920.203579,1225.752797
1419.693584,6809.894666,-8586.388927,1302.362347
1419.693914,7105.977043,-6809.894666,1685.410096
1419.694243,7328.038826,-6735.874072,1685.410096
1419.694572,6365.771101,-7105.977043,2221.676944
1419.694901,5699.585753,-7105.977043,1991.848295
1419.695230,6957.935855,-4811.338623,2145.067394
1419.695560,8290.306550,-2886.803174,2451.505594
1419.695889,8956.491898,-3775.050304,2221.676944
1419.696218,8660.409521,-5551.544565,2068.457845
1419.696547,7550.100608,-5255.462188,1838.629195
1419.696876,6217.729913,-4737.318029,-229.828649
1419.697205,5255.462188,-6661.853478,-995.924147
1419.697535,5921.647536,-7920.203579,0.000000
1419.697864,7105.977043,-7920.203579,0.000000
1419.698193,7402.059420,-8142.265362,1225.752797
1419.698522,7105.977043,-7698.141797,1302.362347
1419.698851,6587.832884,-7105.977043,459.657299
1419.699181,6661.853478,-6365.771101,766.095498
1419.699510,6735.874072,-5329.482782,842.705048
1419.699839,6513.812290,-7402.059420,1991.848295
1419.700168,6143.709319,-7772.162391,2834.553343
1419.700497,7179.997637,-4663.297435,2221.676944
1419.700826,8956.491898,-4663.297435,2451.505594
1419.701156,9622.677246,-4737.318029,2987.772442
1419.701485,8586.388927,-4737.318029,1915.238745
1419.701814,6661.853478,-5403.503377,-306.438199
1419.702143,5551.544565,-4737.318029,-919.314598
1419.702472,5773.606348,-6883.915261,-1072.533697
1419.702802,6809.894666,-8956.491898,-153.219100
1419.703131,6735.874072,-7772.162391,0.000000
1419.703460,6365.771101,-9030.512492,0.000000
1419.703789,6587.832884,-9548.656652,229.828649
1419.704118,6587.832884,-9178.553681,459.657299
1419.704447,7402.059420,-7846.182985,919.314598
1419.704777,7254.018232,-6291.750507,1762.019645
1419.705106,6661.853478,-7920.203579,2145.067394
1419.705435,6217.729913,-6957.935855,2374.896044
1419.705764,6143.709319,-4515.256246,1685.410096
1419.706093,7772.162391,-2516.700203,2221.676944
1419.706423,9326.594869,-4219.173869,2757.943793
1419.706752,9178.553681,-4885.359217,2528.115143
1419.707081,7328.038826,-3775.050304,306.438199
1419.707410,5625.565159,-5033.400406,-995.924147
1419.707739,5847.626942,-6809.894666,-229.828649
1419.708068,6365.771101,-7402.059420,-1378.971896
1419.708398,5773.606348,-7846.182985,-1532.190996
1419.708727,5477.523971,-9400.615463,229.828649
1419.709056,6513.812290,-11399.171507,459.657299
1419.709385,6587.832884,-9844.739029,919.314598
1419.709714,6143.709319,-7402.059420,1149.143247
1419.710044,6809.894666,-7105.977043,536.266849
1419.710373,6661.853478,-6957.935855,2221.676944
1419.710702,6069.688724,-6883.915261,2604.724693
1419.711031,7698.141797,-3552.988522,1762.019645
1419.711360,9178.553681,-1332.370696,2374.896044
1419.711689,10510.924376,-2664.741391,2757.943793
1419.712019,9918.759623,-4145.153275,2528.115143
1419.712348,8882.471304,-4145.153275,1455.581446
1419.712677,6809.894666,-3923.091493,-766.095498
1419.713006,5773.606348,-7105.977043,-459.657299
1419.713335,6143.709319,-8660.409521,0.000000
1419.713665,6957.935855,-8364.327145,0.000000
1419.713994,5847.626942,-9326.594869,-383.047749
1419.714323,5403.503377,-9622.677246,0.000000
1419.714652,5995.668130,-10362.883188,536.266849
1419.714981,6735.874072,-8364.327145,1149.143247
1419.715310,6587.832884,-7550.100608,2528.115143
1419.715640,5551.544565,-8364.327145,2298.286494
1419.715969,5477.523971,-7031.956449,2221.676944
1419.716298,6957.935855,-4589.276840,2145.067394
1419.716627,9104.533087,-2368.659014,2681.334243
1419.716956,10436.903782,-1628.453072,2681.334243
1419.717286,10288.862594,-4219.173869,2068.457845
1419.717615,8364.327145,-4515.256246,1685.410096
1419.717944,5773.606348,-4515.256246,0.000000
1419.718273,4737.318029,-7254.018232,-1302.362347
1419.718602,4811.338623,-7920.203579,-306.438199
1419.718931,5329.482782,-8660.409521,-306.438199
1419.719261,5773.606348,-9770.718434,459.657299
1419.719590,5921.647536,-10214.842000,1608.800546
1419.719919,6809.894666,-9474.636058,1838.629195
1419.720248,7105.977043,-8216.285956,1455.581446
1419.720577,6217.729913,-6587.832884,2068.457845
1419.720907,5255.462188,-7105.977043,2374.896044
1419.721236,5477.523971,-5995.668130,1532.190996
1419.721565,6735.874072,-2812.782580,1915.238745
1419.721894,9326.594869,-2738.761985,2757.943793
1419.722223,11325.150913,-3404.947333,4060.306139
1419.722552,10288.862594,-4515.256246,2681.334243
1419.722882,7624.121203,-4367.215058,689.485948
1419.723211,5107.421000,-4219.173869,-766.095498
1419.723540,5033.400406,-7179.997637,-842.705048
1419.723869,5995.668130,-8290.306550,-689.485948
1419.724198,6291.750507,-7846.182985,-229.828649
1419.724528,6365.771101,-9178.553681,-153.219100
1419.724857,6957.935855,-10288.862594,536.266849
1419.725186,6957.935855,-10066.800811,1532.190996
1419.725515,7179.997637,-8216.285956,995.924147
1419.725844,7698.141797,-7105.977043,1915.238745
1419.726173,6217.729913,-7105.977043,1685.410096
1419.726503,6291.750507,-6291.750507,2145.067394
1419.726832,7624.121203,-3552.988522,2451.505594
1419.727161,9252.574275,-1406.391290,2221.676944
1419.727490,10066.800811,-2590.720797,2451.505594
1419.727819,9400.615463,-4145.153275,2757.943793
1419.728149,8586.388927,-5329.482782,1455.581446
1419.728478,6513.812290,-6217.729913,0.000000
1419.728807,5033.400406,-6809.894666,-1302.362347
1419.729136,5699.585753,-8808.450710,-1149.143247
1419.729465,6735.874072,-8438.347739,-842.705048
1419.729794,5921.647536,-8216.285956,0.000000
1419.730124,5329.482782,-10066.800811,-306.438199
1419.730453,6217.729913,-9844.739029,1149.143247
1419.730782,7105.977043,-8586.388927,1149.143247
1419.731111,7105.977043,-7105.977043,1685.410096
1419.731440,6513.812290,-6883.915261,2604.724693
1419.731770,6809.894666,-7105.977043,1915.238745
1419.732099,6883.915261,-3923.091493,1225.752797
1419.732428,7698.141797,-1850.514855,919.314598
1419.732757,9548.656652,-2812.782580,1915.238745
1419.733086,9252.574275,-4145.153275,1302.362347
1419.733415,7105.977043,-4959.379811,536.266849
1419.733745,5329.482782,-6217.729913,0.000000
1419.734074,5773.606348,-8068.244768,-306.438199
1419.734403,6291.750507,-8808.450710,-536.266849
1419.734732,6069.688724,-9178.553681,0.000000
1419.735061,6883.915261,-9104.533087,306.438199
1419.735390,6069.688724,-8956.491898,0.000000
1419.735720,5625.565159,-9104.533087,153.219100
1419.736049,6217.729913,-6661.853478,1072.533697
1419.736378,7105.977043,-6513.812290,1378.971896
1419.736707,6291.750507,-8068.244768,2834.553343
1419.737036,5477.523971,-6883.915261,3217.601092
1419.737365,7402.059420,-4219.173869,2298.286494
1419.737695,8216.285956,-2590.720797,1378.971896
1419.738024,8660.409521,-2664.741391,1915.238745
1419.738353,8438.347739,-4663.297435,1072.533697
1419.738682,7550.100608,-4515.256246,0.000000
1419.739011,6143.709319,-5625.565159,-459.657299
1419.739340,6587.832884,-8068.244768,0.000000
1419.739669,7031.956449,-8586.388927,689.485948
1419.739999,7254.018232,-7920.203579,0.000000
1419.740328,6365.771101,-8660.409521,842.705048
1419.740657,6587.832884,-8660.409521,536.266849
1419.740986,7772.162391,-8660.409521,153.219100
1419.741315,8068.244768,-7105.977043,1915.238745
1419.741644,7550.100608,-6143.709319,1991.848295
1419.741974,6587.832884,-7402.059420,2068.457845
1419.742303,5773.606348,-7179.997637,2298.286494
1419.742632,6365.771101,-3923.091493,2145.067394
1419.742961,8512.368333,-3256.906145,2528.115143
1419.743290,9326.594869,-4515.256246,3370.820191
1419.743619,8364.327145,-4737.318029,2068.457845
1419.743949,6809.894666,-4959.379811,995.924147
1419.744278,5625.565159,-6217.729913,536.266849
1419.744607,5329.482782,-7476.080014,0.000000
1419.744936,5551.544565,-8512.368333,153.219100
1419.745265,5625.565159,-7772.162391,0.000000
1419.745594,6513.812290,-8364.327145,612.876398
1419.745924,6735.874072,-9918.759623,1378.971896
1419.746253,7105.977043,-8808.450710,1838.629195
1419.746582,7920.203579,-7402.059420,1455.581446
1419.746911,7254.018232,-6661.853478,1302.362347
1419.747240,4663.297435,-7920.203579,1838.629195
1419.747569,4219.173869,-7402.059420,1685.410096
1419.747899,5995.668130,-3627.009116,1762.019645
1419.748228,7624.121203,-3330.926739,2604.724693
1419.748557,8734.430116,-4367.215058,3830.477490
1419.748886,8586.388927,-4589.276840,3294.210641
1419.749215,7846.182985,-5921.647536,2068.457845
1419.749544,6735.874072,-4737.318029,766.095498
1419.749874,5329.482782,-5551.544565,-459.657299
1419.750203,5921.647536,-7402.059420,-612.876398
1419.750532,6439.791695,-7254.018232,76.609550
1419.750861,7105.977043,-6513.812290,153.219100
1419.751190,7031.956449,-8586.388927,0.000000
1419.751519,7328.038826,-9474.636058,2298.286494
1419.751849,7920.203579,-8216.285956,1455.581446
1419.752178,7105.977043,-8734.430116,1225.752797
1419.752507,4959.379811,-7772.162391,1225.752797
1419.752836,5181.441594,-7772.162391,919.314598
1419.753165,7179.997637,-5477.523971,1149.143247
1419.753494,8142.265362,-1924.535449,1149.143247
1419.753824,9326.594869,-4071.132681,1532.190996
1419.754153,10362.883188,-3923.091493,2528.115143
1419.754482,8216.285956,-3627.009116,842.705048
1419.754811,6957.935855,-4737.318029,306.438199
1419.755140,6809.894666,-6587.832884,-306.438199
1419.755469,7105.977043,-8290.306550,-229.828649
1419.755799,6883.915261,-7624.121203,-459.657299
1419.756128,6809.894666,-8882.471304,153.219100
1419.756457,6883.915261,-9474.636058,76.609550
1419.756786,7179.997637,-9178.553681,306.438199
1419.757115,6587.832884,-7772.162391,459.657299
1419.757444,6365.771101,-8142.265362,766.095498
1419.757773,5255.462188,-8586.388927,1378.971896
1419.758103,5107.421000,-7254.018232,1685.410096
1419.758432,6587.832884,-5107.421000,1838.629195
1419.758761,8882.471304,-4071.132681,2451.505594
1419.759090,9474.636058,-4145.153275,3064.381992
1419.759419,8068.244768,-4589.276840,1838.629195
1419.759748,6513.812290,-2442.679609,76.609550
1419.760078,5181.441594,-3627.009116,-1532.190996
1419.760407,5181.441594,-6513.812290,-919.314598
1419.760736,5995.668130,-6883.915261,0.000000
1419.761065,6513.812290,-8068.244768,-306.438199
1419.761394,6513.812290,-8808.450710,0.000000
1419.761723,6809.894666,-10584.944971,1378.971896
1419.762053,7550.100608,-9918.759623,1072.533697
1419.762382,7328.038826,-7920.203579,689.485948
1419.762711,5847.626942,-6217.729913,0.000000
1419.763040,5181.441594,-7105.977043,919.314598
1419.763369,5329.482782,-6883.915261,1532.190996
1419.763698,7328.038826,-3478.967927,1762.019645
1419.764028,9030.512492,-3330.926739,2604.724693
1419.764357,10140.821405,-4589.276840,3907.087040
1419.764686,9474.636058,-5107.421000,2451.505594
1419.765015,7846.182985,-4737.318029,1302.362347
1419.765344,5847.626942,-4589.276840,0.000000
1419.765673,5921.647536,-6217.729913,-995.924147
1419.766003,5699.585753,-7994.224174,-995.924147
1419.766332,6069.688724,-7624.121203,0.000000
1419.766661,6735.874072,-8438.347739,-153.219100
1419.766990,7105.977043,-9844.739029,689.485948
1419.767319,7105.977043,-9548.656652,1455.581446
1419.767648,7920.203579,-8808.450710,1378.971896
1419.767978,7105.977043,-7031.956449,1838.629195
1419.768307,5329.482782,-7105.977043,1915.238745
1419.768636,5921.647536,-6291.750507,1532.190996
1419.768965,7254.018232,-3256.906145,1762.019645
1419.769294,8882.471304,-3849.070898,2528.115143
1419.769623,9326.594869,-4441.235652,3370.820191
1419.769953,8290.306550,-4811.338623,2911.162892
1419.770282,7179.997637,-5403.503377,1455.581446
1419.770611,5255.462188,-5033.400406,306.438199
1419.770940,5255.462188,-8734.430116,995.924147
1419.771269,6883.915261,-8882.471304,383.047749
1419.771598,6143.709319,-7328.038826,0.000000
1419.771928,4737.318029,-7105.977043,-383.047749
1419.772257,4959.379811,-8660.409521,0.000000
1419.772586,7031.956449,-7254.018232,1225.752797
1419.772915,8216.285956,-7254.018232,1838.629195
1419.773244,7476.080014,-7624.121203,3294.210641
1419.773573,6217.729913,-7698.141797,3447.429741
1419.773902,6365.771101,-6883.915261,2528.115143
1419.774232,6291.750507,-3478.967927,1991.848295
1419.774561,7550.100608,-3404.947333,1991.848295
1419.774890,8882.471304,-5699.585753,2374.896044
1419.775219,7994.224174,-4811.338623,1532.190996
1419.775548,6365.771101,-5033.400406,153.219100
1419.775877,6735.874072,-5329.482782,-766.095498
1419.776207,5847.626942,-8142.265362,0.000000
1419.776536,5625.565159,-9178.553681,306.438199
1419.776865,6069.688724,-7624.121203,383.047749
1419.777194,7254.018232,-7402.059420,536.266849
