#time,accel_x,accel_y,accel_z
1241.244294,6513.812290,-6587.832884,1149.143247
1241.244625,6439.791695,-6513.812290,995.924147
1241.244955,6513.812290,-7105.977043,612.876398
1241.245285,6439.791695,-6957.935855,1149.143247
1241.245616,6809.894666,-6809.894666,1149.143247
1241.245946,7105.977043,-6587.832884,1149.143247
1241.246276,6661.853478,-7105.977043,766.095498
1241.246607,7105.977043,-6883.915261,919.314598
1241.246937,6735.874072,-7105.977043,612.876398
1241.247268,7105.977043,-6735.874072,842.705048
1241.247598,7105.977043,-6587.832884,1072.533697
1241.247928,6957.935855,-6217.729913,1149.143247
1241.248259,7624.121203,-6143.709319,1608.800546
1241.248589,7920.203579,-6291.750507,1149.143247
1241.248919,7402.059420,-6513.812290,1149.143247
1241.249250,7105.977043,-5921.647536,1225.752797
1241.249580,6809.894666,-6217.729913,459.657299
1241.249910,6809.894666,-6365.771101,689.485948
1241.250241,6957.935855,-6439.791695,995.924147
1241.250571,7328.038826,-6217.729913,1072.533697
1241.250901,6809.894666,-5551.544565,2145.067394
1241.251232,7179.997637,-6143.709319,1072.533697
1241.251562,7105.977043,-6587.832884,612.876398
1241.251892,6957.935855,-6587.832884,919.314598
1241.252223,6957.935855,-6957.935855,612.876398
1241.252553,6735.874072,-7031.956449,689.485948
1241.252884,6809.894666,-6513.812290,919.314598
1241.253214,6883.915261,-6883.915261,1149.143247
1241.253544,7105.977043,-7031.956449,1072.533697
1241.253875,6809.894666,-7254.018232,919.314598
1241.254205,6439.791695,-6661.853478,995.924147
1241.254535,6735.874072,-7031.956449,842.705048
1241.254866,6957.935855,-6661.853478,1072.533697
1241.255196,7105.977043,-6513.812290,995.924147
1241.255526,7476.080014,-5995.668130,995.924147
1241.255857,7328.038826,-6291.750507,1302.362347
1241.256187,7105.977043,-6439.791695,842.705048
1241.256517,7031.956449,-6439.791695,1455.581446
1241.256848,6957.935855,-6587.832884,766.095498
1241.257178,6957.935855,-6661.853478,1302.362347
1241.257509,6883.915261,-6735.874072,1149.143247
1241.257839,6809.894666,-6291.750507,995.924147
1241.258169,7105.977043,-6661.853478,1608.800546
1241.258500,7179.997637,-6291.750507,1302.362347
1241.258830,6587.832884,-6439.791695,995.924147
1241.259160,6513.812290,-6809.894666,995.924147
1241.259491,6217.729913,-6439.791695,995.924147
1241.259821,6661.853478,-6883.915261,995.924147
1241.260151,7179.997637,-6217.729913,919.314598
1241.260482,7105.977043,-6883.915261,1378.971896
1241.260812,7179.997637,-6809.894666,919.314598
1241.261142,6587.832884,-7105.977043,842.705048
1241.261473,6587.832884,-6513.812290,689.485948
1241.261803,6957.935855,-7105.977043,1149.143247
1241.262133,6957.935855,-6883.915261,766.095498
1241.262464,7105.977043,-6587.832884,995.924147
1241.262794,7476.080014,-5995.668130,1149.143247
1241.263125,7328.038826,-5921.647536,1685.410096
1241.263455,7402.059420,-6365.771101,1149.143247
1241.263785,7328.038826,-5921.647536,995.924147
1241.264116,7254.018232,-6069.688724,459.657299
1241.264446,7105.977043,-6291.750507,1225.752797
1241.264776,6957.935855,-5995.668130,1378.971896
1241.265107,7105.977043,-6217.729913,1302.362347
1241.265437,7105.977043,-6513.812290,1302.362347
1241.265767,7179.997637,-6143.709319,1302.362347
1241.266098,6735.874072,-6957.935855,1149.143247
1241.266428,6661.853478,-6735.874072,842.705048
1241.266758,6513.812290,-6883.915261,995.924147
1241.267089,6735.874072,-6957.935855,995.924147
1241.267419,6957.935855,-5847.626942,995.924147
1241.267750,7105.977043,-6217.729913,766.095498
1241.268080,6957.935855,-6809.894666,1072.533697
1241.268410,6883.915261,-6883.915261,1225.752797
1241.268741,6809.894666,-6957.935855,459.657299
1241.269071,6661.853478,-6661.853478,1302.362347
1241.269401,7031.956449,-6365.771101,383.047749
1241.269732,7031.956449,-7031.956449,995.924147
1241.270062,7402.059420,-6661.853478,1378.971896
1241.270392,7402.059420,-6217.729913,1072.533697
1241.270723,6957.935855,-6217.729913,1455.581446
1241.271053,6883.915261,-6439.791695,1072.533697
1241.271383,6809.894666,-6365.771101,842.705048
1241.271714,6735.874072,-6513.812290,766.095498
1241.272044,6513.812290,-6365.771101,1378.971896
1241.272374,7624.121203,-6143.709319,1225.752797
1241.272705,7402.059420,-6217.729913,1378.971896
1241.273035,6957.935855,-6291.750507,1149.143247
1241.273366,6587.832884,-6809.894666,995.924147
1241.273696,6439.791695,-6957.935855,612.876398
1241.274026,6513.812290,-7254.018232,842.705048
1241.274357,6587.832884,-7031.956449,995.924147
1241.274687,6735.874072,-7105.977043,1149.143247
1241.275017,6957.935855,-7031.956449,1149.143247
1241.275348,7105.977043,-6513.812290,919.314598
1241.275678,6217.729913,-6587.832884,1149.143247
1241.276008,6661.853478,-6291.750507,459.657299
1241.276339,6957.935855,-6661.853478,766.095498
1241.276669,7328.038826,-6291.750507,1072.533697
1241.276999,7476.080014,-6513.812290,1072.533697
1241.277330,7402.059420,-6291.750507,1149.143247
1241.277660,7105.977043,-6291.750507,1149.143247
1241.277991,7105.977043,-6217.729913,919.314598
1241.278321,7254.018232,-6587.832884,995.924147
1241.278651,7179.997637,-6217.729913,612.876398
1241.278982,7105.977043,-5995.668130,919.314598
1241.279312,7105.977043,-6439.791695,919.314598
1241.279642,7105.977043,-6809.894666,1072.533697
1241.279973,7624.121203,-6365.771101,1072.533697
1241.280303,7031.956449,-5995.668130,842.705048
1241.280633,6513.812290,-6439.791695,1149.143247
1241.280964,6513.812290,-6735.874072,842.705048
1241.281294,6809.894666,-5995.668130,689.485948
1241.281624,6957.935855,-6365.771101,919.314598
1241.281955,7031.956449,-6439.791695,919.314598
1241.282285,6735.874072,-6365.771101,1149.143247
1241.282615,7476.080014,-6809.894666,1225.752797
1241.282946,6587.832884,-6587.832884,1072.533697
1241.283276,6957.935855,-7105.977043,612.876398
1241.283607,7105.977043,-6735.874072,1072.533697
1241.283937,7105.977043,-6809.894666,842.705048
1241.284267,7476.080014,-6883.915261,1378.971896
1241.284598,7105.977043,-6291.750507,1225.752797
1241.284928,7328.038826,-6735.874072,766.095498
1241.285258,7105.977043,-6365.771101,1149.143247
1241.285589,6957.935855,-6587.832884,1378.971896
1241.285919,7179.997637,-6291.750507,536.266849
1241.286249,6809.894666,-6661.853478,1072.533697
1241.286580,7031.956449,-6661.853478,1149.143247
1241.286910,7105.977043,-6439.791695,1149.143247
1241.287240,6809.894666,-6069.688724,1378.971896
1241.287571,6735.874072,-6587.832884,995.924147
1241.287901,6661.853478,-7031.956449,842.705048
1241.288232,6661.853478,-7550.100608,1225.752797
1241.288562,6735.874072,-6883.915261,919.314598
1241.288892,6661.853478,-6513.812290,766.095498
1241.289223,6957.935855,-6587.832884,1072.533697
1241.289553,6883.915261,-6957.935855,1149.143247
1241.289883,7031.956449,-6661.853478,1072.533697
1241.290214,6661.853478,-6957.935855,919.314598
1241.290544,6957.935855,-7031.956449,459.657299
1241.290874,7105.977043,-6587.832884,612.876398
1241.291205,7031.956449,-6661.853478,1149.143247
1241.291535,7550.100608,-6809.894666,1225.752797
1241.291865,7698.141797,-6217.729913,1302.362347
1241.292196,7550.100608,-6143.709319,919.314598
1241.292526,7105.977043,-6291.750507,919.314598
1241.292856,6735.874072,-6217.729913,766.095498
1241.293187,6809.894666,-6365.771101,536.266849
1241.293517,6661.853478,-5551.544565,1378.971896
1241.293848,6957.935855,-6439.791695,1149.143247
1241.294178,7105.977043,-6143.709319,1225.752797
1241.294508,7179.997637,-6069.688724,1378.971896
1241.294839,7105.977043,-6883.915261,1149.143247
1241.295169,6661.853478,-6957.935855,612.876398
1241.295499,6513.812290,-6883.915261,766.095498
1241.295830,6587.832884,-7031.956449,1072.533697
1241.296160,6809.894666,-6587.832884,919.314598
1241.296490,7476.080014,-6439.791695,1302.362347
1241.296821,7254.018232,-7105.977043,995.924147
1241.297151,6809.894666,-6809.894666,842.705048
1241.297481,6513.812290,-6883.915261,842.705048
1241.297812,6809.894666,-7031.956449,919.314598
1241.298142,7105.977043,-6291.750507,1149.143247
1241.298473,7254.018232,-6143.709319,1302.362347
1241.298803,7476.080014,-6217.729913,1225.752797
1241.299133,7402.059420,-6217.729913,1072.533697
1241.299464,7476.080014,-6365.771101,919.314598
1241.299794,6957.935855,-6513.812290,1149.143247
1241.300124,7031.956449,-6365.771101,689.485948
1241.300455,7179.997637,-6513.812290,766.095498
1241.300785,6809.894666,-6587.832884,1302.362347
1241.301115,7476.080014,-6587.832884,1455.581446
1241.301446,7550.100608,-6513.812290,1225.752797
1241.301776,7179.997637,-6513.812290,1225.752797
1241.302106,6513.812290,-6661.853478,842.705048
1241.302437,6217.729913,-6883.915261,1378.971896
1241.302767,6957.935855,-7105.977043,842.705048
1241.303097,6661.853478,-6957.935855,995.924147
1241.303428,6809.894666,-6439.791695,995.924147
1241.303758,7105.977043,-7031.956449,1225.752797
1241.304089,7105.977043,-6661.853478,842.705048
1241.304419,6883.915261,-7254.018232,919.314598
1241.304749,7105.977043,-6809.894666,459.657299
1241.305080,6809.894666,-6661.853478,766.095498
1241.305410,7179.997637,-6439.791695,1302.362347
1241.305740,7254.018232,-6735.874072,689.485948
1241.306071,7550.100608,-6365.771101,1149.143247
1241.306401,7476.080014,-6587.832884,1302.362347
1241.306731,7105.977043,-6365.771101,919.314598
1241.307060,6957.935855,-5847.626942,1149.143247
1241.307390,6661.853478,-6217.729913,766.095498
1241.307719,7105.977043,-6143.709319,995.924147
1241.308049,7105.977043,-6143.709319,1149.143247
1241.308378,7254.018232,-5847.626942,689.485948
1241.308708,7254.018232,-5847.626942,1608.800546
1241.309037,7254.018232,-6069.688724,1378.971896
1241.309367,6513.812290,-6513.812290,612.876398
1241.309696,6809.894666,-6513.812290,919.314598
1241.310026,6587.832884,-6883.915261,536.266849
1241.310355,6809.894666,-7105.977043,995.924147
1241.310685,6809.894666,-6069.688724,153.219100
1241.311014,6735.874072,-6883.915261,1072.533697
1241.311344,6735.874072,-7105.977043,1149.143247
1241.311673,7105.977043,-7105.977043,1225.752797
1241.312003,6809.894666,-6513.812290,1149.143247
1241.312333,6957.935855,-6883.915261,842.705048
1241.312662,7105.977043,-6513.812290,1149.143247
1241.312992,7254.018232,-6513.812290,919.314598
1241.313321,7402.059420,-6439.791695,1225.752797
1241.313651,7254.018232,-6365.771101,1149.143247
1241.313980,7105.977043,-6587.832884,842.705048
1241.314310,6957.935855,-6513.812290,1149.143247
1241.314639,7031.956449,-6587.832884,536.266849
1241.314969,6957.935855,-6365.771101,919.314598
1241.315298,6883.915261,-6883.915261,919.314598
1241.315628,7031.956449,-6439.791695,766.095498
1241.315957,7031.956449,-6365.771101,1608.800546
1241.316287,7550.100608,-6217.729913,1762.019645
1241.316616,6735.874072,-6513.812290,766.095498
1241.316946,6513.812290,-6883.915261,689.485948
1241.317275,6587.832884,-6883.915261,1149.143247
1241.317605,7105.977043,-6809.894666,1608.800546
1241.317934,7031.956449,-6587.832884,1455.581446
1241.318264,7105.977043,-7031.956449,1378.971896
1241.318594,6883.915261,-7031.956449,919.314598
1241.318923,6809.894666,-7105.977043,919.314598
1241.319253,6957.935855,-6883.915261,766.095498
1241.319582,7105.977043,-6587.832884,689.485948
1241.319912,7031.956449,-6217.729913,919.314598
1241.320241,7254.018232,-6809.894666,1072.533697
1241.320571,7328.038826,-6143.709319,1225.752797
1241.320900,7328.038826,-6291.750507,995.924147
1241.321230,7179.997637,-6439.791695,919.314598
1241.321559,7105.977043,-6513.812290,1072.533697
1241.321889,7105.977043,-6291.750507,689.485948
1241.322218,7254.018232,-6439.791695,1225.752797
1241.322548,6883.915261,-6291.750507,1149.143247
1241.322877,7328.038826,-6365.771101,1225.752797
1241.323207,7402.059420,-6291.750507,1532.190996
1241.323536,7179.997637,-6217.729913,842.705048
1241.323866,6661.853478,-6587.832884,1149.143247
1241.324195,6587.832884,-7105.977043,919.314598
1241.324525,6735.874072,-6957.935855,1072.533697
1241.324855,7031.956449,-6661.853478,1149.143247
1241.325184,6883.915261,-6143.709319,919.314598
1241.325514,6735.874072,-6587.832884,1302.362347
1241.325843,6735.874072,-6957.935855,995.924147
1241.326173,6661.853478,-7031.956449,842.705048
1241.326502,6735.874072,-6661.853478,842.705048
1241.326832,7179.997637,-6365.771101,1149.143247
1241.327161,6809.894666,-6661.853478,919.314598
1241.327491,7328.038826,-6883.915261,1302.362347
1241.327820,7031.956449,-6217.729913,1225.752797
1241.328150,7254.018232,-6291.750507,1455.581446
1241.328479,7105.977043,-6513.812290,612.876398
1241.328809,6809.894666,-6143.709319,1225.752797
1241.329138,7105.977043,-6513.812290,459.657299
1241.329468,6735.874072,-6439.791695,919.314598
1241.329797,6587.832884,-6143.709319,919.314598
1241.330127,6957.935855,-6513.812290,1302.362347
1241.330456,7031.956449,-6217.729913,995.924147
1241.330786,7031.956449,-6513.812290,995.924147
1241.331115,6809.894666,-6513.812290,919.314598
1241.331445,6883.915261,-6513.812290,1072.533697
1241.331775,6587.832884,-6957.935855,612.876398
1241.332104,6735.874072,-7105.977043,919.314598
1241.332434,7105.977043,-6587.832884,1072.533697
1241.332763,6735.874072,-6439.791695,383.047749
1241.333093,7105.977043,-6809.894666,842.705048
1241.333422,6587.832884,-7031.956449,689.485948
1241.333752,6735.874072,-7105.977043,842.705048
1241.334081,6957.935855,-6513.812290,1072.533697
1241.334411,7179.997637,-6587.832884,1225.752797
1241.334740,7105.977043,-6809.894666,1302.362347
1241.335070,7550.100608,-6069.688724,1225.752797
1241.335399,7328.038826,-6439.791695,689.485948
1241.335729,7476.080014,-6661.853478,1149.143247
1241.336058,7105.977043,-5773.606348,1072.533697
1241.336388,7254.018232,-6365.771101,689.485948
1241.336717,6809.894666,-6069.688724,842.705048
1241.337047,6957.935855,-6365.771101,842.705048
1241.337376,7402.059420,-6587.832884,1378.971896
1241.337706,7105.977043,-6439.791695,1072.533697
1241.338036,6883.915261,-6291.750507,995.924147
1241.338365,6587.832884,-6439.791695,766.095498
1241.338695,6661.853478,-6661.853478,1225.752797
1241.339024,7105.977043,-6439.791695,766.095498
1241.339354,6809.894666,-6735.874072,995.924147
1241.339683,6957.935855,-6365.771101,995.924147
1241.340013,6957.935855,-6883.915261,919.314598
1241.340342,7254.018232,-6513.812290,842.705048
1241.340672,6661.853478,-7179.997637,995.924147
1241.341001,6735.874072,-6957.935855,306.438199
1241.341331,6809.894666,-6661.853478,1149.143247
1241.341660,6883.915261,-6587.832884,1302.362347
1241.341990,7105.977043,-6439.791695,1608.800546
1241.342319,7254.018232,-6513.812290,1455.581446
1241.342649,7105.977043,-6513.812290,1225.752797
1241.342978,7105.977043,-6291.750507,995.924147
1241.343308,6883.915261,-6439.791695,919.314598
1241.343637,6809.894666,-6291.750507,612.876398
1241.343967,7031.956449,-6439.791695,1149.143247
1241.344297,6735.874072,-6957.935855,1149.143247
1241.344626,7105.977043,-6513.812290,1225.752797
1241.344956,7179.997637,-6587.832884,1225.752797
1241.345285,6883.915261,-6661.853478,766.095498
1241.345615,6439.791695,-7105.977043,1149.143247
1241.345944,6365.771101,-6957.935855,1302.362347
1241.346274,6587.832884,-6883.915261,995.924147
1241.346603,6365.771101,-6217.729913,1225.752797
1241.346933,6809.894666,-6365.771101,1149.143247
1241.347262,6735.874072,-6809.894666,919.314598
1241.347592,7105.977043,-6661.853478,995.924147
1241.347921,6587.832884,-6439.791695,612.876398
1241.348251,6661.853478,-7031.956449,1072.533697
1241.348580,7031.956449,-6587.832884,919.314598
1241.348910,7179.997637,-6809.894666,612.876398
1241.349239,7105.977043,-6735.874072,1378.971896
1241.349569,7550.100608,-6365.771101,1762.019645
1241.349898,7476.080014,-6513.812290,1149.143247
1241.350228,7254.018232,-6439.791695,1072.533697
1241.350558,7179.997637,-6143.709319,689.485948
1241.350887,7476.080014,-5847.626942,842.705048
1241.351217,7031.956449,-5551.544565,1149.143247
1241.351546,7105.977043,-5995.668130,995.924147
1241.351876,7105.977043,-6143.709319,1149.143247
1241.352205,7179.997637,-5995.668130,1225.752797
1241.352535,6809.894666,-6143.709319,1149.143247
1241.352864,6809.894666,-6735.874072,536.266849
1241.353194,6809.894666,-7105.977043,1149.143247
1241.353523,6957.935855,-6809.894666,919.314598
1241.353853,6957.935855,-7105.977043,1072.533697
1241.354182,7179.997637,-6587.832884,612.876398
1241.354512,6809.894666,-7105.977043,842.705048
1241.354841,6883.915261,-7179.997637,1225.752797
1241.355171,6439.791695,-7031.956449,1302.362347
1241.355500,6883.915261,-6883.915261,1378.971896
1241.355830,7105.977043,-5995.668130,1378.971896
1241.356159,7328.038826,-5403.503377,842.705048
1241.356489,7772.162391,-5329.482782,1149.143247
1241.356819,8216.285956,-5329.482782,1608.800546
1241.357148,8956.491898,-5625.565159,1072.533697
1241.357478,7994.224174,-6069.688724,1225.752797
1241.357807,6735.874072,-6661.853478,153.219100
1241.358137,5625.565159,-7476.080014,0.000000
1241.358466,5773.606348,-6735.874072,306.438199
1241.358796,7031.956449,-7179.997637,689.485948
1241.359125,8216.285956,-6513.812290,1685.410096
1241.359455,8364.327145,-5625.565159,1762.019645
1241.359784,7994.224174,-4293.194464,1455.581446
1241.360114,7846.182985,-4441.235652,1915.238745
1241.360443,7476.080014,-5255.462188,919.314598
1241.360773,7476.080014,-4441.235652,766.095498
1241.361102,8438.347739,-4885.359217,1225.752797
1241.361432,8586.388927,-4367.215058,919.314598
1241.361761,7920.203579,-4811.338623,766.095498
1241.362091,7846.182985,-5995.668130,1072.533697
1241.362420,8364.327145,-5403.503377,536.266849
1241.362750,8586.388927,-7031.956449,995.924147
1241.363080,8068.244768,-5477.523971,766.095498
1241.363409,7994.224174,-5181.441594,76.609550
1241.363739,8142.265362,-5773.606348,612.876398
1241.364068,8660.409521,-4737.318029,919.314598
1241.364398,8364.327145,-4737.318029,536.266849
1241.364727,8660.409521,-3923.091493,1455.581446
1241.365057,8882.471304,-4515.256246,1072.533697
1241.365386,9104.533087,-3627.009116,1378.971896
1241.365716,9178.553681,-3256.906145,1685.410096
1241.366045,9474.636058,-3256.906145,1915.238745
1241.366375,10288.862594,-2738.761985,1378.971896
1241.366704,10140.821405,-3182.885551,1685.410096
1241.367034,10288.862594,-3478.967927,1378.971896
1241.367363,9770.718434,-3552.988522,1455.581446
1241.367693,9030.512492,-4737.318029,1455.581446
1241.368022,8586.388927,-5329.482782,995.924147
1241.368352,8586.388927,-5403.503377,1149.143247
1241.368681,8290.306550,-5107.421000,766.095498
1241.369011,7624.121203,-5551.544565,1072.533697
1241.369341,7550.100608,-5551.544565,1072.533697
1241.369670,7994.224174,-5403.503377,612.876398
1241.370000,8068.244768,-5329.482782,459.657299
1241.370329,7698.141797,-5403.503377,153.219100
1241.370659,8068.244768,-5773.606348,0.000000
1241.370988,8882.471304,-4737.318029,306.438199
1241.371318,9770.718434,-4071.132681,229.828649
1241.371647,10955.047942,-4737.318029,842.705048
1241.371977,11325.150913,-4293.194464,1991.848295
1241.372306,10807.006753,-3404.947333,1072.533697
1241.372636,10066.800811,-3552.988522,612.876398
1241.372965,9696.697840,-3182.885551,1072.533697
1241.373295,9326.594869,-4145.153275,1072.533697
1241.373624,8808.450710,-4959.379811,2068.457845
1241.373954,8660.409521,-4145.153275,1302.362347
1241.374283,8142.265362,-4441.235652,995.924147
1241.374613,7994.224174,-4737.318029,1532.190996
1241.374942,7920.203579,-5847.626942,1838.629195
1241.375272,8512.368333,-3997.112087,1838.629195
1241.375602,8364.327145,-4515.256246,1225.752797
1241.375931,8216.285956,-4811.338623,1149.143247
1241.376261,8290.306550,-4515.256246,383.047749
1241.376590,8660.409521,-6069.688724,612.876398
1241.376920,8142.265362,-5403.503377,689.485948
1241.377249,7328.038826,-6069.688724,-383.047749
1241.377579,7179.997637,-6069.688724,-229.828649
1241.377908,7772.162391,-5921.647536,-153.219100
1241.378238,8586.388927,-6661.853478,306.438199
1241.378567,8364.327145,-6513.812290,842.705048
1241.378897,7772.162391,-6069.688724,76.609550
1241.379226,7179.997637,-6291.750507,919.314598
1241.379556,7254.018232,-6735.874072,1685.410096
1241.379885,7624.121203,-7105.977043,2374.896044
1241.380215,7624.121203,-6069.688724,1685.410096
1241.380544,7328.038826,-5995.668130,1762.019645
1241.380874,8216.285956,-4737.318029,1762.019645
1241.381203,8216.285956,-4737.318029,1685.410096
1241.381533,7402.059420,-3552.988522,612.876398
1241.381863,7476.080014,-3627.009116,-153.219100
1241.382192,7772.162391,-4071.132681,153.219100
1241.382522,8290.306550,-4071.132681,0.000000
1241.382851,8364.327145,-4959.379811,459.657299
1241.383181,8512.368333,-5477.523971,536.266849
1241.383510,8290.306550,-7476.080014,1149.143247
1241.383840,8142.265362,-8216.285956,2221.676944
1241.384169,8216.285956,-7550.100608,1991.848295
1241.384499,7772.162391,-7772.162391,1991.848295
1241.384828,6439.791695,-8068.244768,2221.676944
1241.385158,5699.585753,-8364.327145,1608.800546
1241.385487,5033.400406,-7179.997637,842.705048
1241.385817,4811.338623,-6809.894666,536.266849
1241.386146,5329.482782,-6661.853478,-306.438199
1241.386476,5847.626942,-5995.668130,-229.828649
1241.386805,6735.874072,-6809.894666,-306.438199
1241.387135,6883.915261,-5847.626942,0.000000
1241.387464,6735.874072,-5921.647536,536.266849
1241.387794,7846.182985,-6217.729913,1302.362347
1241.388123,8882.471304,-6143.709319,1685.410096
1241.388453,8734.430116,-6365.771101,2298.286494
1241.388783,8290.306550,-6513.812290,2757.943793
1241.389112,7772.162391,-6217.729913,2374.896044
1241.389442,7846.182985,-4071.132681,2451.505594
1241.389771,7994.224174,-4367.215058,1915.238745
1241.390101,8068.244768,-4959.379811,2298.286494
1241.390430,7328.038826,-5329.482782,2068.457845
1241.390760,6217.729913,-5847.626942,1608.800546
1241.391089,5625.565159,-5181.441594,0.000000
1241.391419,6217.729913,-6957.935855,766.095498
1241.391748,7179.997637,-8068.244768,1762.019645
1241.392078,7476.080014,-7772.162391,1225.752797
1241.392407,7031.956449,-7624.121203,459.657299
1241.392737,6513.812290,-7550.100608,229.828649
1241.393066,6587.832884,-7772.162391,459.657299
1241.393396,6143.709319,-7920.203579,306.438199
1241.393725,5181.441594,-8290.306550,306.438199
1241.394055,4737.318029,-8142.265362,229.828649
1241.394384,4959.379811,-7846.182985,1149.143247
1241.394714,5847.626942,-8068.244768,2374.896044
1241.395044,7105.977043,-6809.894666,2528.115143
1241.395373,7846.182985,-4589.276840,3294.210641
1241.395703,8438.347739,-3849.070898,2374.896044
1241.396032,8660.409521,-3552.988522,2145.067394
1241.396362,8882.471304,-4293.194464,1608.800546
1241.396691,7550.100608,-4589.276840,689.485948
1241.397021,7402.059420,-4737.318029,-459.657299
1241.397350,6883.915261,-5921.647536,0.000000
1241.397680,6957.935855,-7105.977043,459.657299
1241.398009,6735.874072,-7846.182985,153.219100
1241.398339,6217.729913,-8216.285956,1072.533697
1241.398668,5847.626942,-8364.327145,612.876398
1241.398998,5773.606348,-8364.327145,919.314598
1241.399327,5403.503377,-8882.471304,919.314598
1241.399657,5181.441594,-8882.471304,689.485948
1241.399986,5329.482782,-7328.038826,153.219100
1241.400316,5773.606348,-7031.956449,0.000000
1241.400645,7031.956449,-6661.853478,612.876398
1241.400975,8882.471304,-5847.626942,689.485948
1241.401305,9030.512492,-4959.379811,612.876398
1241.401634,8438.347739,-4293.194464,612.876398
1241.401964,8438.347739,-4441.235652,842.705048
1241.402293,8882.471304,-4589.276840,842.705048
1241.402623,8882.471304,-5921.647536,1608.800546
1241.402952,8068.244768,-6217.729913,1149.143247
1241.403282,7328.038826,-6365.771101,842.705048
1241.403611,6735.874072,-7105.977043,689.485948
1241.403941,6513.812290,-7179.997637,536.266849
1241.404270,5847.626942,-6809.894666,612.876398
1241.404600,6069.688724,-6809.894666,919.314598
1241.404929,6291.750507,-7254.018232,842.705048
1241.405259,6513.812290,-6513.812290,1072.533697
1241.405588,6735.874072,-6513.812290,2298.286494
1241.405917,7254.018232,-6661.853478,1762.019645
1241.406246,7402.059420,-6291.750507,1608.800546
1241.406575,7105.977043,-6513.812290,1225.752797
1241.406904,7031.956449,-6661.853478,383.047749
1241.407233,7105.977043,-6069.688724,0.000000
1241.407562,6365.771101,-7179.997637,0.000000
1241.407891,5995.668130,-7179.997637,0.000000
1241.408220,5847.626942,-8068.244768,229.828649
1241.408549,6439.791695,-8290.306550,76.609550
1241.408878,6217.729913,-7698.141797,1072.533697
1241.409207,6365.771101,-7772.162391,1455.581446
1241.409536,7328.038826,-7254.018232,2451.505594
1241.409865,7328.038826,-6143.709319,2604.724693
1241.410194,8216.285956,-5107.421000,2604.724693
1241.410523,8216.285956,-2516.700203,2145.067394
1241.410852,8142.265362,-2886.803174,1608.800546
1241.411181,8216.285956,-2960.823768,995.924147
1241.411510,7772.162391,-4293.194464,1149.143247
1241.411839,6957.935855,-4959.379811,0.000000
1241.412168,5995.668130,-6143.709319,0.000000
1241.412497,5995.668130,-8660.409521,306.438199
1241.412826,6587.832884,-9474.636058,1762.019645
1241.413155,7031.956449,-9918.759623,1302.362347
1241.413484,6365.771101,-9474.636058,1225.752797
1241.413813,5403.503377,-9474.636058,842.705048
1241.414142,5699.585753,-9252.574275,842.705048
1241.414471,5181.441594,-8068.244768,76.609550
1241.414800,5773.606348,-7328.038826,0.000000
1241.415129,6365.771101,-6069.688724,306.438199
1241.415458,7179.997637,-5625.565159,919.314598
1241.415787,8216.285956,-5181.441594,1532.190996
1241.416116,8216.285956,-4219.173869,1455.581446
1241.416445,7994.224174,-4515.256246,1532.190996
1241.416774,8216.285956,-4959.379811,1149.143247
1241.417103,8142.265362,-5477.523971,995.924147
1241.417432,7994.224174,-6661.853478,1149.143247
1241.417761,7772.162391,-7105.977043,1762.019645
1241.418090,7254.018232,-7402.059420,919.314598
1241.418419,6957.935855,-7328.038826,689.485948
1241.418748,6587.832884,-7105.977043,459.657299
1241.419077,6513.812290,-6735.874072,229.828649
1241.419406,6365.771101,-6587.832884,766.095498
1241.419735,6661.853478,-5995.668130,1302.362347
1241.420064,6809.894666,-5255.462188,1608.800546
1241.420393,7698.141797,-5625.565159,1838.629195
1241.420722,7772.162391,-5477.523971,2451.505594
1241.421051,7328.038826,-5921.647536,1149.143247
1241.421380,7031.956449,-6587.832884,536.266849
1241.421709,6291.750507,-6883.915261,-153.219100
1241.422038,6439.791695,-7476.080014,-306.438199
1241.422367,5995.668130,-8216.285956,0.000000
1241.422696,6069.688724,-9252.574275,0.000000
1241.423025,6069.688724,-9030.512492,306.438199
1241.423354,6217.729913,-8438.347739,1149.143247
1241.423683,6513.812290,-7031.956449,1225.752797
1241.424012,7105.977043,-7105.977043,2145.067394
1241.424341,7105.977043,-5921.647536,2145.067394
1241.424669,7105.977043,-4441.235652,1455.581446
1241.424998,7179.997637,-3552.988522,1072.533697
1241.425327,7994.224174,-3552.988522,1762.019645
1241.425656,8216.285956,-3701.029710,1149.143247
1241.425985,8142.265362,-4737.318029,919.314598
1241.426314,7920.203579,-5773.606348,919.314598
1241.426643,7476.080014,-7031.956449,842.705048
1241.426972,6513.812290,-8660.409521,689.485948
1241.427301,6439.791695,-9474.636058,689.485948
1241.427630,5995.668130,-9548.656652,1149.143247
1241.427959,5847.626942,-9474.636058,1149.143247
1241.428288,5551.544565,-8660.409521,76.609550
1241.428617,5403.503377,-7920.203579,229.828649
1241.428946,5773.606348,-6957.935855,459.657299
1241.429275,6217.729913,-5625.565159,229.828649
1241.429604,7402.059420,-4811.338623,689.485948
1241.429933,7550.100608,-4441.235652,1455.581446
1241.430262,7994.224174,-4145.153275,1455.581446
1241.430591,8586.388927,-3923.091493,2068.457845
1241.430920,9326.594869,-4367.215058,1762.019645
1241.431249,9178.553681,-5773.606348,1762.019645
1241.431578,8364.327145,-6291.750507,1685.410096
1241.431907,7550.100608,-7402.059420,689.485948
1241.432236,6809.894666,-7698.141797,612.876398
1241.432565,6217.729913,-7772.162391,689.485948
1241.432894,5921.647536,-8142.265362,229.828649
1241.433223,5921.647536,-6883.915261,766.095498
1241.433552,6069.688724,-6957.935855,459.657299
1241.433881,5995.668130,-6365.771101,766.095498
1241.434210,6513.812290,-6217.729913,1991.848295
1241.434539,6439.791695,-5625.565159,1378.971896
1241.434868,7105.977043,-5477.523971,1149.143247
1241.435197,7105.977043,-5625.565159,1608.800546
1241.435526,7920.203579,-6291.750507,1378.971896
1241.435855,8216.285956,-6883.915261,1378.971896
1241.436184,7624.121203,-6735.874072,-153.219100
1241.436513,6439.791695,-7254.018232,-383.047749
1241.436842,6291.750507,-8216.285956,0.000000
1241.437171,6217.729913,-9474.636058,229.828649
1241.437500,5773.606348,-8808.450710,612.876398
1241.437829,5329.482782,-8882.471304,1302.362347
1241.438158,5625.565159,-7476.080014,1455.581446
1241.438487,6143.709319,-6365.771101,1762.019645
1241.438816,7328.038826,-4293.194464,2604.724693
1241.439145,8512.368333,-2516.700203,1991.848295
1241.439474,9400.615463,-1850.514855,2298.286494
1241.439803,8882.471304,-2146.597232,1149.143247
1241.440132,8438.347739,-3849.070898,766.095498
1241.440461,7698.141797,-5699.585753,689.485948
1241.440790,7624.121203,-6661.853478,919.314598
1241.441119,7254.018232,-8808.450710,1685.410096
1241.441448,7105.977043,-9770.718434,1991.848295
1241.441777,6513.812290,-9992.780217,1991.848295
1241.442106,6069.688724,-10214.842000,919.314598
1241.442435,4737.318029,-9770.718434,383.047749
1241.442764,3627.009116,-9252.574275,-766.095498
1241.443093,3330.926739,-8142.265362,-995.924147
1241.443422,4071.132681,-7328.038826,-612.876398
1241.443751,5847.626942,-6957.935855,76.609550
1241.444080,7402.059420,-5107.421000,1225.752797
1241.444409,8290.306550,-5107.421000,1532.190996
1241.444738,9104.533087,-3923.091493,2374.896044
1241.445067,9622.677246,-4367.215058,2451.505594
1241.445396,9548.656652,-4589.276840,2145.067394
1241.445725,9252.574275,-5403.503377,2451.505594
1241.446054,9252.574275,-5403.503377,1608.800546
1241.446383,8142.265362,-6069.688724,919.314598
1241.446712,6957.935855,-6809.894666,842.705048
1241.447041,6735.874072,-6957.935855,229.828649
1241.447370,5921.647536,-7550.100608,153.219100
1241.447699,5551.544565,-6957.935855,229.828649
1241.448028,5625.565159,-6809.894666,689.485948
1241.448357,5625.565159,-6365.771101,612.876398
1241.448686,5995.668130,-6365.771101,1455.581446
1241.449015,6735.874072,-6365.771101,1762.019645
1241.449344,7550.100608,-5847.626942,2451.505594
1241.449673,7846.182985,-5921.647536,1915.238745
1241.450002,7994.224174,-6587.832884,1378.971896
1241.450331,8216.285956,-7105.977043,1225.752797
1241.450660,7846.182985,-7476.080014,689.485948
1241.450989,6735.874072,-7550.100608,383.047749
1241.451318,6143.709319,-7846.182985,229.828649
1241.451647,6143.709319,-8216.285956,0.000000
1241.451976,6069.688724,-8364.327145,766.095498
1241.452305,6291.750507,-7920.203579,1302.362347
1241.452634,5847.626942,-6587.832884,689.485948
1241.452963,6217.729913,-5551.544565,995.924147
1241.453292,6513.812290,-5181.441594,1225.752797
1241.453621,7328.038826,-4293.194464,1378.971896
1241.453950,8216.285956,-3182.885551,1915.238745
1241.454279,8882.471304,-3108.864956,1685.410096
1241.454608,8660.409521,-4293.194464,1685.410096
1241.454937,8512.368333,-5477.523971,1149.143247
1241.455266,7698.141797,-7179.997637,1225.752797
1241.455595,7179.997637,-8438.347739,919.314598
1241.455924,6143.709319,-9252.574275,842.705048
1241.456253,6143.709319,-9844.739029,1225.752797
1241.456582,5921.647536,-9844.739029,612.876398
1241.456911,5033.400406,-8586.388927,612.876398
1241.457240,4811.338623,-8438.347739,-383.047749
1241.457569,5255.462188,-7105.977043,0.000000
1241.457898,5477.523971,-6513.812290,76.609550
1241.458227,5847.626942,-5773.606348,306.438199
1241.458556,6587.832884,-4441.235652,1378.971896
1241.458885,8142.265362,-4219.173869,2068.457845
1241.459214,9474.636058,-4219.173869,2681.334243
1241.459543,9474.636058,-4737.318029,2757.943793
1241.459872,9104.533087,-4737.318029,1762.019645
1241.460201,8068.244768,-5329.482782,1378.971896
1241.460530,7254.018232,-7105.977043,1072.533697
1241.460859,6587.832884,-7920.203579,1149.143247
1241.461188,6513.812290,-7994.224174,229.828649
1241.461517,6365.771101,-7550.100608,306.438199
1241.461846,5477.523971,-7846.182985,459.657299
1241.462175,5847.626942,-7402.059420,766.095498
1241.462504,6143.709319,-6291.750507,919.314598
1241.462833,6365.771101,-6069.688724,1302.362347
1241.463162,6735.874072,-5995.668130,1838.629195
1241.463491,7031.956449,-6143.709319,1608.800546
1241.463820,7328.038826,-6291.750507,1762.019645
1241.464149,7624.121203,-5847.626942,1378.971896
1241.464478,7698.141797,-6291.750507,1072.533697
1241.464807,7698.141797,-6957.935855,229.828649
1241.465136,7328.038826,-7920.203579,612.876398
1241.465465,6883.915261,-8142.265362,383.047749
1241.465794,6587.832884,-8290.306550,306.438199
1241.466123,6365.771101,-7920.203579,0.000000
1241.466452,5995.668130,-8216.285956,995.924147
1241.466781,6513.812290,-7105.977043,1455.581446
1241.467110,6661.853478,-6217.729913,1149.143247
1241.467439,7254.018232,-4589.276840,1532.190996
1241.467768,7105.977043,-3034.844362,1378.971896
1241.468097,7698.141797,-2664.741391,1302.362347
1241.468426,8956.491898,-2664.741391,1378.971896
1241.468755,9474.636058,-2738.761985,1378.971896
1241.469084,9178.553681,-4663.297435,1455.581446
1241.469413,8068.244768,-6143.709319,919.314598
1241.469742,7476.080014,-7846.182985,1225.752797
1241.470071,6957.935855,-8734.430116,919.314598
1241.470400,6735.874072,-9844.739029,1225.752797
1241.470729,5477.523971,-10436.903782,919.314598
1241.471058,4959.379811,-9548.656652,0.000000
1241.471387,4663.297435,-9030.512492,-459.657299
1241.471716,4589.276840,-7698.141797,-229.828649
1241.472045,5033.400406,-6735.874072,229.828649
1241.472374,5847.626942,-5921.647536,-229.828649
1241.472703,6365.771101,-4737.318029,229.828649
1241.473032,7402.059420,-4737.318029,1302.362347
1241.473361,8512.368333,-4737.318029,1455.581446
1241.473690,9326.594869,-4959.379811,1991.848295
1241.474019,9474.636058,-5773.606348,2451.505594
1241.474348,9252.574275,-6217.729913,1838.629195
1241.474677,8290.306550,-6439.791695,1608.800546
1241.475006,7476.080014,-6809.894666,1378.971896
1241.475335,6809.894666,-7402.059420,536.266849
1241.475664,6587.832884,-7698.141797,536.266849
1241.475993,5921.647536,-7550.100608,919.314598
1241.476322,5625.565159,-6883.915261,995.924147
1241.476651,5921.647536,-6069.688724,1072.533697
1241.476980,5995.668130,-5107.421000,1378.971896
1241.477309,6365.771101,-5107.421000,1149.143247
1241.477638,6661.853478,-5477.523971,1685.410096
1241.477967,6587.832884,-5699.585753,1762.019645
1241.478296,7476.080014,-6365.771101,995.924147
1241.478625,7402.059420,-6735.874072,766.095498
1241.478954,7328.038826,-8216.285956,842.705048
1241.479283,7550.100608,-8586.388927,842.705048
1241.479612,7328.038826,-8734.430116,153.219100
1241.479940,6217.729913,-9178.553681,306.438199
1241.480269,5847.626942,-9548.656652,842.705048
1241.480598,6143.709319,-8438.347739,842.705048
1241.480927,5921.647536,-7254.018232,1378.971896
1241.481256,5699.585753,-6291.750507,1838.629195
1241.481585,6957.935855,-4441.235652,2374.896044
1241.481914,7698.141797,-1924.535449,1225.752797
1241.482243,7698.141797,-2146.597232,1225.752797
1241.482572,8512.368333,-2220.617826,1378.971896
1241.482901,8882.471304,-3923.091493,1072.533697
1241.483230,8364.327145,-4959.379811,1072.533697
1241.483559,7920.203579,-7031.956449,1532.190996
1241.483888,8216.285956,-7994.224174,1225.752797
1241.484217,7698.141797,-9252.574275,2298.286494
1241.484546,7105.977043,-9770.718434,1378.971896
1241.484875,6217.729913,-10066.800811,1225.752797
1241.485204,5477.523971,-9696.697840,459.657299
1241.485533,5033.400406,-8808.450710,153.219100
1241.485862,4071.132681,-8216.285956,-995.924147
1241.486191,3775.050304,-7179.997637,-766.095498
1241.486520,4737.318029,-6957.935855,-459.657299
1241.486849,5625.565159,-6069.688724,0.000000
1241.487178,7105.977043,-4663.297435,842.705048
1241.487507,8586.388927,-5033.400406,1532.190996
1241.487836,9400.615463,-4589.276840,1762.019645
1241.488165,9252.574275,-5107.421000,1915.238745
1241.488494,9326.594869,-5921.647536,1915.238745
1241.488823,9030.512492,-6439.791695,1762.019645
1241.489152,8438.347739,-7031.956449,1455.581446
1241.489481,7254.018232,-7031.956449,919.314598
1241.489810,6883.915261,-6883.915261,536.266849
1241.490139,6735.874072,-7328.038826,919.314598
1241.490468,5995.668130,-6883.915261,919.314598
1241.490797,5773.606348,-5699.585753,459.657299
1241.491126,5625.565159,-5107.421000,766.095498
1241.491455,5995.668130,-5551.544565,842.705048
1241.491784,6809.894666,-5921.647536,1225.752797
1241.492113,6735.874072,-5773.606348,1532.190996
1241.492442,7402.059420,-6143.709319,1149.143247
1241.492771,7402.059420,-6513.812290,1072.533697
1241.493100,7994.224174,-7031.956449,1149.143247
1241.493429,7328.038826,-8068.244768,1149.143247
1241.493758,6957.935855,-7994.224174,459.657299
1241.494087,6439.791695,-8438.347739,0.000000
1241.494416,6143.709319,-8142.265362,459.657299
1241.494745,6661.853478,-7476.080014,306.438199
1241.495074,6957.935855,-7179.997637,1608.800546
1241.495403,6809.894666,-6957.935855,2374.896044
1241.495732,6439.791695,-5847.626942,1991.848295
1241.496061,6365.771101,-4367.215058,1838.629195
1241.496390,7179.997637,-3034.844362,612.876398
1241.496719,7179.997637,-2960.823768,306.438199
1241.497048,8068.244768,-3552.988522,919.314598
1241.497377,8512.368333,-5033.400406,1378.971896
1241.497706,7920.203579,-5921.647536,1302.362347
1241.498035,7328.038826,-7402.059420,842.705048
1241.498364,6735.874072,-9178.553681,1072.533697
1241.498693,6809.894666,-10066.800811,1378.971896
1241.499022,6513.812290,-10584.944971,1149.143247
1241.499351,5847.626942,-9474.636058,1378.971896
1241.499680,5699.585753,-8512.368333,229.828649
1241.500009,5107.421000,-7328.038826,-306.438199
1241.500338,4811.338623,-7031.956449,0.000000
1241.500667,4737.318029,-6587.832884,-306.438199
1241.500996,6217.729913,-6217.729913,-153.219100
1241.501325,6957.935855,-5255.462188,842.705048
1241.501654,7920.203579,-4737.318029,1455.581446
1241.501983,8808.450710,-4515.256246,1838.629195
1241.502312,9548.656652,-4071.132681,1838.629195
1241.502641,9178.553681,-5255.462188,2298.286494
1241.502970,8808.450710,-5921.647536,1991.848295
1241.503299,8068.244768,-7105.977043,1302.362347
1241.503628,7550.100608,-6661.853478,842.705048
1241.503957,7031.956449,-7550.100608,153.219100
1241.504286,6513.812290,-7179.997637,689.485948
1241.504615,6291.750507,-6661.853478,919.314598
1241.504944,5995.668130,-6661.853478,1149.143247
1241.505273,6661.853478,-5329.482782,1378.971896
1241.505602,6513.812290,-5551.544565,1608.800546
1241.505931,6883.915261,-5699.585753,1302.362347
1241.506260,6735.874072,-5625.565159,1455.581446
1241.506589,7031.956449,-6291.750507,1302.362347
1241.506918,6957.935855,-6365.771101,1072.533697
1241.507247,7105.977043,-7254.018232,766.095498
1241.507576,6957.935855,-8142.265362,459.657299
1241.507905,6513.812290,-8438.347739,306.438199
1241.508234,6735.874072,-9104.533087,-306.438199
1241.508563,5625.565159,-8438.347739,76.609550
1241.508892,6069.688724,-8142.265362,536.266849
1241.509221,6735.874072,-7550.100608,1225.752797
1241.509550,7328.038826,-6883.915261,2068.457845
1241.509880,7402.059420,-6439.791695,2604.724693
1241.510209,7402.059420,-3775.050304,2068.457845
1241.510538,7846.182985,-2368.659014,1225.752797
1241.510867,8364.327145,-2146.597232,1225.752797
1241.511196,8660.409521,-2960.823768,1072.533697
1241.511525,8068.244768,-3923.091493,1149.143247
1241.511854,7772.162391,-5329.482782,919.314598
1241.512183,7031.956449,-6957.935855,842.705048
1241.512512,6957.935855,-7994.224174,842.705048
1241.512841,6883.915261,-9770.718434,1762.019645
1241.513170,6661.853478,-10214.842000,689.485948
1241.513499,5403.503377,-9622.677246,689.485948
1241.513828,5033.400406,-9178.553681,0.000000
1241.514157,5403.503377,-8290.306550,76.609550
1241.514486,5699.585753,-7105.977043,306.438199
1241.514816,5403.503377,-6809.894666,153.219100
1241.515145,5995.668130,-5773.606348,153.219100
1241.515474,6883.915261,-5551.544565,766.095498
1241.515803,7994.224174,-5107.421000,995.924147
1241.516132,8364.327145,-5329.482782,2298.286494
1241.516461,8364.327145,-5625.565159,1532.190996
1241.516790,8142.265362,-5699.585753,1608.800546
1241.517119,7772.162391,-6587.832884,1991.848295
1241.517448,8364.327145,-6587.832884,1685.410096
1241.517777,8216.285956,-6735.874072,1455.581446
1241.518106,7920.203579,-6513.812290,1149.143247
1241.518435,7402.059420,-6439.791695,459.657299
1241.518764,6217.729913,-6291.750507,383.047749
1241.519093,6513.812290,-5107.421000,1149.143247
1241.519422,6365.771101,-6439.791695,766.095498
1241.519752,6439.791695,-5773.606348,1532.190996
1241.520081,6661.853478,-6069.688724,1608.800546
1241.520410,6735.874072,-5921.647536,1378.971896
1241.520739,6661.853478,-7328.038826,1762.019645
1241.521068,6365.771101,-7031.956449,1225.752797
1241.521397,6217.729913,-7254.018232,842.705048
1241.521726,5995.668130,-7994.224174,383.047749
1241.522055,6143.709319,-8808.450710,306.438199
1241.522384,6513.812290,-8364.327145,76.609550
1241.522713,6661.853478,-8290.306550,-919.314598
1241.523042,6661.853478,-7698.141797,612.876398
1241.523371,6661.853478,-7105.977043,1378.971896
1241.523700,7994.224174,-7031.956449,2298.286494
1241.524029,7772.162391,-5477.523971,2451.505594
1241.524358,7550.100608,-4663.297435,2681.334243
1241.524688,7994.224174,-2812.782580,2068.457845
1241.525017,7402.059420,-2072.576638,1225.752797
1241.525346,7105.977043,-2812.782580,1072.533697
1241.525675,6883.915261,-4663.297435,536.266849
1241.526004,7254.018232,-5625.565159,1149.143247
1241.526333,6809.894666,-7105.977043,383.047749
1241.526662,6291.750507,-8956.491898,1455.581446
1241.526991,6143.709319,-9844.739029,1302.362347
1241.527320,6513.812290,-9918.759623,1225.752797
1241.527649,6439.791695,-9696.697840,1072.533697
1241.527978,6217.729913,-9030.512492,1149.143247
1241.528307,5995.668130,-8068.244768,76.609550
1241.528636,5921.647536,-7105.977043,0.000000
1241.528965,5921.647536,-6291.750507,0.000000
1241.529294,6143.709319,-6143.709319,0.000000
1241.529624,7105.977043,-5107.421000,919.314598
1241.529953,7476.080014,-5551.544565,1072.533697
1241.530282,7920.203579,-5181.441594,1608.800546
1241.530611,8438.347739,-4959.379811,1991.848295
1241.530940,8512.368333,-5329.482782,1608.800546
1241.531269,8290.306550,-6217.729913,1685.410096
1241.531598,7698.141797,-6883.915261,1608.800546
1241.531927,7920.203579,-7031.956449,1302.362347
1241.532256,7402.059420,-6661.853478,842.705048
1241.532585,6957.935855,-5847.626942,842.705048
1241.532914,7031.956449,-5847.626942,766.095498
1241.533243,6883.915261,-5699.585753,995.924147
1241.533572,6291.750507,-5773.606348,1072.533697
1241.533901,6439.791695,-6291.750507,1685.410096
1241.534230,6957.935855,-5773.606348,1149.143247
1241.534560,7031.956449,-6217.729913,1455.581446
1241.534889,6809.894666,-6513.812290,1302.362347
1241.535218,6661.853478,-6809.894666,1302.362347
1241.535547,7031.956449,-6809.894666,689.485948
1241.535876,6883.915261,-7254.018232,612.876398
1241.536205,6217.729913,-7772.162391,383.047749
1241.536534,5551.544565,-8216.285956,-306.438199
1241.536863,5625.565159,-8142.265362,-306.438199
1241.537192,6143.709319,-8364.327145,-76.609550
1241.537521,6513.812290,-7476.080014,1072.533697
1241.537850,7105.977043,-7105.977043,1532.190996
1241.538179,7179.997637,-5847.626942,1608.800546
1241.538508,7179.997637,-5329.482782,1455.581446
1241.538837,7698.141797,-4367.215058,1838.629195
1241.539166,8290.306550,-4071.132681,1838.629195
1241.539496,8512.368333,-3404.947333,1149.143247
1241.539825,8512.368333,-3108.864956,995.924147
1241.540154,9030.512492,-4515.256246,1072.533697
1241.540483,8734.430116,-5699.585753,1302.362347
1241.540812,8068.244768,-7105.977043,1455.581446
1241.541141,6957.935855,-8808.450710,995.924147
1241.541470,6883.915261,-8808.450710,1149.143247
1241.541799,5921.647536,-9474.636058,689.485948
1241.542128,5847.626942,-9918.759623,842.705048
1241.542457,5255.462188,-9030.512492,766.095498
1241.542786,4737.318029,-8068.244768,0.000000
1241.543115,4663.297435,-6883.915261,459.657299
1241.543444,5329.482782,-6513.812290,76.609550
1241.543773,6291.750507,-6217.729913,229.828649
1241.544102,7105.977043,-5699.585753,689.485948
1241.544432,8142.265362,-5107.421000,1072.533697
1241.544761,8808.450710,-4885.359217,2451.505594
1241.545090,9252.574275,-5329.482782,2374.896044
1241.545419,8882.471304,-5847.626942,2221.676944
1241.545748,8068.244768,-6809.894666,1838.629195
1241.546077,7179.997637,-6957.935855,1225.752797
1241.546406,6587.832884,-6809.894666,919.314598
1241.546735,6809.894666,-6587.832884,536.266849
1241.547064,6809.894666,-6069.688724,459.657299
1241.547393,6513.812290,-6069.688724,536.266849
1241.547722,6143.709319,-6217.729913,612.876398
1241.548051,5329.482782,-6439.791695,689.485948
1241.548380,6069.688724,-6513.812290,1149.143247
1241.548709,6735.874072,-6513.812290,2374.896044
1241.549038,7105.977043,-6439.791695,1991.848295
1241.549368,6957.935855,-6513.812290,1838.629195
1241.549697,6957.935855,-6587.832884,1302.362347
1241.550026,7105.977043,-7105.977043,459.657299
1241.550355,7105.977043,-7105.977043,689.485948
1241.550684,7105.977043,-7179.997637,229.828649
1241.551013,6735.874072,-7402.059420,0.000000
1241.551342,6365.771101,-7402.059420,229.828649
1241.551671,6291.750507,-7698.141797,229.828649
1241.552000,6883.915261,-7698.141797,1455.581446
1241.552329,7031.956449,-6587.832884,1838.629195
1241.552658,7105.977043,-5995.668130,1685.410096
1241.552987,7179.997637,-5477.523971,1991.848295
1241.553316,7550.100608,-4367.215058,1762.019645
1241.553645,7994.224174,-3404.947333,919.314598
1241.553974,8142.265362,-3552.988522,689.485948
1241.554304,8438.347739,-4071.132681,842.705048
1241.554633,8142.265362,-5921.647536,1378.971896
1241.554962,7920.203579,-6883.915261,1302.362347
1241.555291,7105.977043,-7920.203579,1532.190996
1241.555620,7105.977043,-8882.471304,842.705048
1241.555949,6957.935855,-8808.450710,1225.752797
1241.556278,6365.771101,-9474.636058,842.705048
1241.556607,5033.400406,-8956.491898,1149.143247
1241.556936,4959.379811,-7846.182985,0.000000
1241.557265,5181.441594,-7550.100608,-153.219100
1241.557594,5625.565159,-6883.915261,383.047749
1241.557923,5921.647536,-6439.791695,76.609550
1241.558252,6365.771101,-6069.688724,536.266849
1241.558581,6809.894666,-5921.647536,689.485948
1241.558910,7402.059420,-5403.503377,919.314598
1241.559240,7994.224174,-5773.606348,2145.067394
1241.559569,8660.409521,-5921.647536,2298.286494
1241.559898,8586.388927,-5551.544565,2221.676944
1241.560227,7920.203579,-5921.647536,1991.848295
1241.560556,7550.100608,-6217.729913,1302.362347
1241.560885,7254.018232,-6217.729913,995.924147
1241.561214,7254.018232,-5995.668130,459.657299
1241.561543,6587.832884,-5403.503377,536.266849
1241.561872,6069.688724,-5773.606348,842.705048
1241.562201,5921.647536,-6217.729913,995.924147
1241.562530,6143.709319,-6809.894666,1378.971896
1241.562859,6735.874072,-6513.812290,1762.019645
1241.563188,6809.894666,-6439.791695,1915.238745
1241.563517,6809.894666,-7105.977043,1532.190996
1241.563846,6513.812290,-7179.997637,1455.581446
1241.564176,6365.771101,-7105.977043,536.266849
1241.564505,7105.977043,-7031.956449,153.219100
1241.564834,7031.956449,-7402.059420,459.657299
1241.565163,6883.915261,-7698.141797,0.000000
1241.565492,7031.956449,-7698.141797,383.047749
1241.565821,7031.956449,-7476.080014,919.314598
1241.566150,6735.874072,-7402.059420,995.924147
1241.566479,7105.977043,-7179.997637,1991.848295
1241.566808,7846.182985,-6513.812290,1762.019645
1241.567137,7328.038826,-5477.523971,1378.971896
1241.567466,6883.915261,-5107.421000,1225.752797
1241.567795,7254.018232,-4367.215058,842.705048
1241.568124,7698.141797,-4145.153275,1072.533697
1241.568453,7846.182985,-4441.235652,766.095498
1241.568782,7698.141797,-4663.297435,1762.019645
1241.569112,8216.285956,-5995.668130,1302.362347
1241.569441,7846.182985,-6809.894666,1455.581446
1241.569770,6957.935855,-8142.265362,1225.752797
1241.570099,7105.977043,-8068.244768,1455.581446
1241.570428,7476.080014,-8216.285956,842.705048
1241.570757,6661.853478,-8512.368333,1149.143247
1241.571086,5329.482782,-7846.182985,383.047749
1241.571415,5625.565159,-7698.141797,-229.828649
1241.571744,5699.585753,-6587.832884,306.438199
1241.572073,5773.606348,-6809.894666,459.657299
1241.572402,6143.709319,-6217.729913,76.609550
1241.572731,6587.832884,-5921.647536,383.047749
1241.573060,7105.977043,-6365.771101,536.266849
1241.573389,7550.100608,-5995.668130,1685.410096
1241.573718,8142.265362,-6069.688724,1915.238745
1241.574048,8660.409521,-6439.791695,1762.019645
1241.574377,7920.203579,-6143.709319,1762.019645
1241.574706,7105.977043,-6439.791695,1838.629195
1241.575035,7624.121203,-5995.668130,1302.362347
1241.575364,7476.080014,-5921.647536,1302.362347
1241.575693,7624.121203,-4811.338623,689.485948
1241.576022,6809.894666,-5551.544565,995.924147
1241.576351,6661.853478,-6069.688724,689.485948
1241.576680,6365.771101,-5699.585753,689.485948
1241.577009,6217.729913,-6587.832884,1532.190996
1241.577338,7031.956449,-6439.791695,2068.457845
1241.577667,7105.977043,-6957.935855,2145.067394
1241.577996,6809.894666,-7031.956449,1838.629195
1241.578325,6217.729913,-7550.100608,1072.533697
1241.578654,6143.709319,-7254.018232,383.047749
1241.578984,6365.771101,-7254.018232,153.219100
1241.579313,6513.812290,-7772.162391,612.876398
1241.579642,7031.956449,-7624.121203,0.000000
1241.579971,7105.977043,-7031.956449,0.000000
1241.580300,7105.977043,-7105.977043,842.705048
1241.580629,7179.997637,-7179.997637,1532.190996
1241.580958,7624.121203,-6513.812290,1685.410096
1241.581287,7698.141797,-5921.647536,1685.410096
1241.581616,7328.038826,-4959.379811,1608.800546
1241.581945,7550.100608,-5181.441594,1072.533697
1241.582274,7698.141797,-4367.215058,919.314598
1241.582603,8438.347739,-4589.276840,612.876398
1241.582932,7698.141797,-4737.318029,1072.533697
1241.583261,7402.059420,-5551.544565,919.314598
1241.583590,7254.018232,-7105.977043,1072.533697
1241.583920,7105.977043,-7698.141797,1455.581446
1241.584249,6587.832884,-8586.388927,919.314598
1241.584578,6809.894666,-8290.306550,1072.533697
1241.584907,6513.812290,-8512.368333,995.924147
1241.585236,5995.668130,-8290.306550,306.438199
1241.585565,5255.462188,-7476.080014,842.705048
1241.585894,5625.565159,-7476.080014,76.609550
1241.586223,6217.729913,-6661.853478,383.047749
1241.586552,6365.771101,-5995.668130,306.438199
1241.586881,6735.874072,-5921.647536,995.924147
1241.587210,7402.059420,-5329.482782,1302.362347
1241.587539,7476.080014,-5699.585753,1378.971896
1241.587868,7698.141797,-6513.812290,1685.410096
1241.588197,7846.182985,-6069.688724,1991.848295
1241.588526,8068.244768,-6513.812290,1991.848295
1241.588856,7105.977043,-6291.750507,1455.581446
1241.589185,6809.894666,-6513.812290,842.705048
1241.589514,6809.894666,-6143.709319,842.705048
1241.589843,7105.977043,-5921.647536,1149.143247
1241.590172,7031.956449,-5551.544565,459.657299
1241.590501,6291.750507,-5921.647536,842.705048
1241.590830,6217.729913,-6957.935855,919.314598
1241.591159,6735.874072,-6291.750507,1685.410096
1241.591488,7105.977043,-6957.935855,2451.505594
1241.591817,7550.100608,-6513.812290,2451.505594
1241.592146,7105.977043,-6365.771101,1991.848295
1241.592475,6661.853478,-6661.853478,919.314598
1241.592804,6513.812290,-6883.915261,536.266849
1241.593133,6365.771101,-7328.038826,0.000000
1241.593462,6439.791695,-7550.100608,76.609550
1241.593792,6439.791695,-7179.997637,0.000000
1241.594121,6661.853478,-7698.141797,153.219100
1241.594450,7105.977043,-7328.038826,766.095498
1241.594779,7254.018232,-7179.997637,1532.190996
1241.595108,7031.956449,-7328.038826,1302.362347
1241.595437,7105.977043,-7105.977043,1455.581446
1241.595766,7550.100608,-6291.750507,1532.190996
1241.596095,7476.080014,-5699.585753,1838.629195
1241.596424,7254.018232,-4737.318029,919.314598
1241.596753,7698.141797,-4145.153275,1455.581446
1241.597082,8142.265362,-4145.153275,1149.143247
1241.597411,8290.306550,-4737.318029,536.266849
1241.597740,6809.894666,-6069.688724,536.266849
1241.598069,6587.832884,-7105.977043,842.705048
1241.598398,6661.853478,-7550.100608,766.095498
1241.598728,7031.956449,-7846.182985,1532.190996
1241.599057,6957.935855,-7846.182985,2145.067394
1241.599386,6809.894666,-8216.285956,1532.190996
1241.599715,5921.647536,-7624.121203,459.657299
1241.600044,5403.503377,-7402.059420,383.047749
1241.600373,5995.668130,-7254.018232,383.047749
1241.600702,6661.853478,-6439.791695,536.266849
1241.601031,6069.688724,-6217.729913,612.876398
1241.601360,6661.853478,-6291.750507,1378.971896
1241.601689,7179.997637,-5921.647536,1149.143247
1241.602018,7624.121203,-6513.812290,1685.410096
1241.602347,7772.162391,-6217.729913,1915.238745
1241.602676,7994.224174,-6291.750507,1532.190996
1241.603005,7994.224174,-6143.709319,1455.581446
1241.603335,7179.997637,-5995.668130,1072.533697
1241.603664,7254.018232,-5921.647536,919.314598
1241.603993,8068.244768,-5625.565159,1072.533697
1241.604322,7698.141797,-5625.565159,842.705048
1241.604651,7105.977043,-5921.647536,919.314598
1241.604980,6143.709319,-6143.709319,995.924147
1241.605309,6217.729913,-7105.977043,1302.362347
1241.605638,6883.915261,-6809.894666,1838.629195
1241.605967,6809.894666,-7105.977043,1915.238745
1241.606296,6587.832884,-6513.812290,1838.629195
1241.606625,6217.729913,-6587.832884,842.705048
1241.606954,6143.709319,-6735.874072,766.095498
1241.607283,6143.709319,-7476.080014,459.657299
1241.607612,6513.812290,-7772.162391,0.000000
1241.607941,6513.812290,-7328.038826,383.047749
1241.608271,6143.709319,-7179.997637,536.266849
1241.608600,6661.853478,-7698.141797,689.485948
1241.608929,6957.935855,-7772.162391,1378.971896
1241.609258,7105.977043,-7328.038826,1302.362347
1241.609587,7328.038826,-7105.977043,1378.971896
1241.609916,7624.121203,-5477.523971,1991.848295
1241.610245,7328.038826,-4737.318029,1532.190996
1241.610575,7402.059420,-4219.173869,1072.533697
1241.610904,7624.121203,-4145.153275,919.314598
1241.611233,8142.265362,-4071.132681,1072.533697
1241.611562,8068.244768,-4367.215058,612.876398
1241.611891,7698.141797,-5107.421000,766.095498
1241.612221,7476.080014,-6957.935855,1225.752797
1241.612550,7550.100608,-7772.162391,1072.533697
1241.612879,7105.977043,-7772.162391,1608.800546
1241.613208,6883.915261,-8512.368333,1455.581446
1241.613537,6217.729913,-8216.285956,842.705048
1241.613867,5329.482782,-8290.306550,229.828649
1241.614196,5107.421000,-7624.121203,76.609550
1241.614525,4959.379811,-8216.285956,76.609550
1241.614854,6217.729913,-7476.080014,459.657299
1241.615183,6365.771101,-6883.915261,0.000000
1241.615513,6513.812290,-5921.647536,536.266849
1241.615842,7179.997637,-5699.585753,1072.533697
1241.616171,7994.224174,-5847.626942,1532.190996
1241.616500,8660.409521,-6217.729913,1608.800546
1241.616829,8364.327145,-5921.647536,2298.286494
1241.617159,8364.327145,-5921.647536,1378.971896
1241.617488,7328.038826,-5699.585753,1225.752797
1241.617817,6735.874072,-6365.771101,919.314598
1241.618146,6809.894666,-6069.688724,536.266849
1241.618475,7698.141797,-6069.688724,1072.533697
1241.618805,7550.100608,-6291.750507,1685.410096
1241.619134,7179.997637,-6143.709319,1225.752797
1241.619463,6587.832884,-6291.750507,1072.533697
1241.619792,6513.812290,-6587.832884,1455.581446
1241.620121,6513.812290,-7179.997637,1532.190996
1241.620451,6957.935855,-6661.853478,1838.629195
1241.620780,6957.935855,-6957.935855,1378.971896
1241.621109,6957.935855,-6957.935855,1149.143247
1241.621438,7031.956449,-7328.038826,1149.143247
1241.621768,6365.771101,-7772.162391,995.924147
1241.622097,6735.874072,-7624.121203,0.000000
1241.622426,5995.668130,-7402.059420,0.000000
1241.622755,5403.503377,-7402.059420,-153.219100
1241.623084,6365.771101,-7698.141797,459.657299
1241.623414,6513.812290,-6513.812290,1225.752797
1241.623743,7402.059420,-7179.997637,1608.800546
1241.624072,7550.100608,-6883.915261,1915.238745
1241.624401,7624.121203,-5329.482782,1685.410096
1241.624730,7179.997637,-4293.194464,995.924147
1241.625060,7476.080014,-4293.194464,536.266849
1241.625389,7698.141797,-4293.194464,995.924147
1241.625718,7994.224174,-4367.215058,995.924147
1241.626047,7994.224174,-4885.359217,1302.362347
1241.626376,7698.141797,-5477.523971,1455.581446
1241.626706,7402.059420,-6439.791695,1455.581446
1241.627035,7179.997637,-8364.327145,1608.800546
1241.627364,6735.874072,-8364.327145,1608.800546
1241.627693,6291.750507,-8734.430116,1225.752797
1241.628022,6143.709319,-8068.244768,995.924147
1241.628352,5107.421000,-7550.100608,0.000000
1241.628681,4885.359217,-7772.162391,-76.609550
1241.629010,5847.626942,-7105.977043,383.047749
1241.629339,6809.894666,-6587.832884,76.609550
1241.629668,6809.894666,-5551.544565,766.095498
1241.629998,6957.935855,-5921.647536,612.876398
1241.630327,7698.141797,-6291.750507,1225.752797
1241.630656,8290.306550,-5847.626942,1915.238745
1241.630985,8438.347739,-6365.771101,1608.800546
1241.631314,8290.306550,-6217.729913,1532.190996
1241.631644,7772.162391,-6439.791695,1762.019645
1241.631973,7920.203579,-6439.791695,1532.190996
1241.632302,7254.018232,-5921.647536,1455.581446
1241.632631,7105.977043,-5921.647536,612.876398
1241.632960,6883.915261,-6513.812290,536.266849
1241.633290,6365.771101,-6291.750507,919.314598
1241.633619,5995.668130,-6587.832884,536.266849
1241.633948,5995.668130,-6735.874072,919.314598
1241.634277,6513.812290,-6587.832884,1915.238745
1241.634607,6883.915261,-7105.977043,1838.629195
1241.634936,6587.832884,-6661.853478,1838.629195
1241.635265,6513.812290,-6809.894666,1608.800546
1241.635594,6883.915261,-6587.832884,459.657299
1241.635923,6217.729913,-7550.100608,689.485948
1241.636253,6809.894666,-7846.182985,612.876398
1241.636582,6809.894666,-8142.265362,306.438199
1241.636911,6291.750507,-7476.080014,306.438199
1241.637240,5921.647536,-7624.121203,689.485948
1241.637569,6069.688724,-7846.182985,842.705048
1241.637899,6513.812290,-7254.018232,1455.581446
1241.638228,6883.915261,-6735.874072,1838.629195
1241.638557,7328.038826,-5699.585753,2374.896044
1241.638886,7920.203579,-3923.091493,1762.019645
1241.639215,8290.306550,-2960.823768,1378.971896
1241.639545,8142.265362,-2442.679609,1302.362347
1241.639874,8882.471304,-3330.926739,919.314598
1241.640203,7698.141797,-4219.173869,689.485948
1241.640532,7179.997637,-5625.565159,995.924147
1241.640861,6661.853478,-7402.059420,995.924147
1241.641191,6809.894666,-7846.182985,1455.581446
1241.641520,6587.832884,-8512.368333,2451.505594
1241.641849,6809.894666,-9474.636058,1915.238745
1241.642178,5995.668130,-9326.594869,1685.410096
1241.642507,5255.462188,-7994.224174,76.609550
1241.642837,4737.318029,-7994.224174,-383.047749
1241.643166,4885.359217,-8068.244768,0.000000
1241.643495,5551.544565,-7179.997637,0.000000
1241.643824,6439.791695,-6957.935855,612.876398
1241.644153,7402.059420,-4885.359217,1149.143247
1241.644483,7772.162391,-5255.462188,1378.971896
1241.644812,9104.533087,-4959.379811,2145.067394
1241.645141,8956.491898,-5477.523971,1915.238745
1241.645470,8734.430116,-6217.729913,1608.800546
1241.645799,8512.368333,-5551.544565,1378.971896
1241.646129,8290.306550,-5625.565159,995.924147
1241.646458,7772.162391,-6661.853478,1072.533697
1241.646787,7031.956449,-7105.977043,1302.362347
1241.647116,7105.977043,-6439.791695,383.047749
1241.647446,6439.791695,-6587.832884,383.047749
1241.647775,5773.606348,-6143.709319,612.876398
1241.648104,5995.668130,-6513.812290,995.924147
1241.648433,6439.791695,-6439.791695,1225.752797
1241.648762,7105.977043,-6439.791695,1378.971896
1241.649092,7402.059420,-6365.771101,1762.019645
1241.649421,7624.121203,-5921.647536,1838.629195
1241.649750,7920.203579,-6365.771101,1302.362347
1241.650079,7105.977043,-6661.853478,842.705048
1241.650408,6513.812290,-7105.977043,689.485948
1241.650738,5921.647536,-7328.038826,0.000000
1241.651067,5921.647536,-8438.347739,76.609550
1241.651396,5921.647536,-7698.141797,459.657299
1241.651725,6365.771101,-7624.121203,536.266849
1241.652054,6809.894666,-7254.018232,383.047749
1241.652384,6883.915261,-7254.018232,1532.190996
1241.652713,6883.915261,-7105.977043,1685.410096
1241.653042,7105.977043,-5181.441594,1455.581446
1241.653371,7328.038826,-4515.256246,612.876398
1241.653700,7476.080014,-4071.132681,1608.800546
1241.654030,8290.306550,-4071.132681,995.924147
1241.654359,8808.450710,-4737.318029,1378.971896
1241.654688,8438.347739,-5403.503377,689.485948
1241.655017,7920.203579,-5847.626942,1378.971896
1241.655346,7254.018232,-7476.080014,1302.362347
1241.655676,6883.915261,-8660.409521,1532.190996
1241.656005,6513.812290,-9030.512492,1225.752797
1241.656334,5847.626942,-9178.553681,995.924147
1241.656663,5403.503377,-8364.327145,1225.752797
1241.656992,4959.379811,-7698.141797,76.609550
1241.657322,5255.462188,-7476.080014,229.828649
1241.657651,5625.565159,-6957.935855,306.438199
1241.657980,5773.606348,-6439.791695,383.047749
1241.658309,6365.771101,-5773.606348,995.924147
1241.658638,7105.977043,-5699.585753,1072.533697
1241.658968,8290.306550,-5773.606348,1532.190996
1241.659297,8586.388927,-5403.503377,2145.067394
1241.659626,8808.450710,-5255.462188,2068.457845
1241.659955,8808.450710,-6439.791695,1915.238745
1241.660285,8364.327145,-6291.750507,1762.019645
1241.660614,7476.080014,-6291.750507,919.314598
1241.660943,7031.956449,-5921.647536,612.876398
1241.661272,7179.997637,-6217.729913,842.705048
1241.661601,6883.915261,-6513.812290,766.095498
1241.661931,6291.750507,-6291.750507,689.485948
1241.662260,5551.544565,-6069.688724,459.657299
1241.662589,5329.482782,-6291.750507,1149.143247
1241.662918,6587.832884,-6661.853478,1685.410096
1241.663247,7031.956449,-7402.059420,2221.676944
1241.663577,7105.977043,-7105.977043,1762.019645
1241.663906,7179.997637,-6735.874072,1532.190996
1241.664235,7105.977043,-7328.038826,1225.752797
1241.664564,6587.832884,-7328.038826,459.657299
1241.664893,6143.709319,-7772.162391,229.828649
1241.665223,6365.771101,-7846.182985,0.000000
1241.665552,5995.668130,-8068.244768,459.657299
1241.665881,6069.688724,-7550.100608,229.828649
1241.666210,6439.791695,-7772.162391,1149.143247
1241.666539,6735.874072,-7254.018232,1762.019645
1241.666869,7031.956449,-6365.771101,1532.190996
1241.667198,7105.977043,-5255.462188,2451.505594
1241.667527,7772.162391,-3849.070898,1762.019645
1241.667856,7846.182985,-3478.967927,1378.971896
1241.668185,7920.203579,-3404.947333,1072.533697
1241.668515,8216.285956,-4367.215058,919.314598
1241.668844,8068.244768,-5255.462188,995.924147
1241.669173,7624.121203,-6069.688724,1149.143247
1241.669502,7328.038826,-6957.935855,1149.143247
1241.669831,7105.977043,-7994.224174,1302.362347
1241.670161,7328.038826,-8882.471304,1378.971896
1241.670490,6661.853478,-8586.388927,1762.019645
1241.670819,6069.688724,-8364.327145,612.876398
1241.671148,5107.421000,-7994.224174,0.000000
1241.671478,4737.318029,-7920.203579,-229.828649
1241.671807,4885.359217,-7846.182985,-689.485948
1241.672136,5625.565159,-7772.162391,76.609550
1241.672465,6587.832884,-6809.894666,229.828649
1241.672794,6883.915261,-5699.585753,1072.533697
1241.673124,7698.141797,-5329.482782,1149.143247
1241.673453,9178.553681,-6143.709319,1991.848295
1241.673782,9104.533087,-5255.462188,2145.067394
1241.674111,8882.471304,-5329.482782,1532.190996
1241.674440,8068.244768,-5625.565159,1225.752797
1241.674770,7920.203579,-5477.523971,1302.362347
1241.675099,7772.162391,-6069.688724,995.924147
1241.675428,7476.080014,-6069.688724,1225.752797
1241.675757,7179.997637,-5773.606348,766.095498
1241.676086,6809.894666,-5995.668130,766.095498
1241.676416,6587.832884,-6217.729913,1378.971896
1241.676745,6439.791695,-6587.832884,842.705048
1241.677074,6291.750507,-6883.915261,1149.143247
1241.677403,6513.812290,-6883.915261,1838.629195
1241.677732,6513.812290,-6735.874072,1225.752797
1241.678062,6735.874072,-7402.059420,1608.800546
1241.678391,6957.935855,-7105.977043,1302.362347
1241.678720,6883.915261,-6957.935855,612.876398
1241.679049,6365.771101,-7105.977043,306.438199
1241.679378,5403.503377,-7105.977043,383.047749
1241.679708,6217.729913,-7476.080014,306.438199
1241.680037,6587.832884,-7550.100608,459.657299
1241.680366,6809.894666,-7476.080014,1149.143247
1241.680695,7105.977043,-7402.059420,1915.238745
1241.681024,7476.080014,-6883.915261,1378.971896
1241.681354,7105.977043,-5995.668130,1225.752797
1241.681683,7254.018232,-5995.668130,1608.800546
1241.682012,7402.059420,-4737.318029,1302.362347
1241.682341,7698.141797,-4219.173869,1149.143247
1241.682670,7846.182985,-4219.173869,1072.533697
1241.683000,8216.285956,-4737.318029,1378.971896
1241.683329,8364.327145,-5403.503377,1608.800546
1241.683658,7846.182985,-5921.647536,1149.143247
1241.683987,7031.956449,-6365.771101,1608.800546
1241.684317,7105.977043,-7698.141797,1455.581446
1241.684646,6809.894666,-8512.368333,1455.581446
1241.684975,6217.729913,-8586.388927,1149.143247
1241.685304,5625.565159,-8364.327145,1072.533697
1241.685633,5551.544565,-8142.265362,383.047749
1241.685963,5477.523971,-8216.285956,229.828649
1241.686292,5551.544565,-7402.059420,76.609550
1241.686621,5995.668130,-7105.977043,153.219100
1241.686950,6883.915261,-6661.853478,0.000000
1241.687279,6735.874072,-5921.647536,1149.143247
1241.687609,7328.038826,-5477.523971,1149.143247
1241.687938,8290.306550,-5181.441594,1915.238745
1241.688267,8734.430116,-5255.462188,2298.286494
1241.688596,8364.327145,-5255.462188,1532.190996
1241.688925,7994.224174,-5773.606348,1455.581446
1241.689255,7772.162391,-5625.565159,842.705048
1241.689584,7476.080014,-5625.565159,689.485948
1241.689913,7328.038826,-6069.688724,689.485948
1241.690242,6957.935855,-7031.956449,995.924147
1241.690571,6587.832884,-7031.956449,919.314598
1241.690901,5699.585753,-6661.853478,842.705048
1241.691230,5699.585753,-7328.038826,1225.752797
1241.691559,5921.647536,-7031.956449,2145.067394
1241.691888,6809.894666,-6957.935855,1685.410096
1241.692217,6587.832884,-6587.832884,1762.019645
1241.692547,6587.832884,-6513.812290,1072.533697
1241.692876,6513.812290,-6735.874072,842.705048
1241.693205,5921.647536,-6661.853478,229.828649
1241.693534,5847.626942,-6883.915261,153.219100
1241.693863,6291.750507,-7476.080014,76.609550
1241.694193,6513.812290,-7994.224174,0.000000
1241.694522,7031.956449,-8142.265362,1225.752797
1241.694851,7031.956449,-7994.224174,1455.581446
1241.695180,7698.141797,-7254.018232,1455.581446
1241.695509,7179.997637,-6809.894666,1455.581446
1241.695839,6661.853478,-6143.709319,1608.800546
1241.696168,7476.080014,-5699.585753,1225.752797
1241.696497,7698.141797,-4663.297435,919.314598
1241.696826,8068.244768,-4145.153275,919.314598
1241.697156,8142.265362,-4071.132681,995.924147
1241.697485,8734.430116,-4145.153275,1302.362347
1241.697814,7920.203579,-5625.565159,1072.533697
1241.698143,7550.100608,-6143.709319,1225.752797
1241.698472,7179.997637,-7105.977043,1302.362347
1241.698802,7179.997637,-7846.182985,919.314598
1241.699131,6587.832884,-8142.265362,1685.410096
1241.699460,6587.832884,-8808.450710,1149.143247
1241.699789,6069.688724,-8438.347739,689.485948
1241.700118,5699.585753,-8068.244768,76.609550
1241.700448,5551.544565,-7179.997637,0.000000
1241.700777,5921.647536,-6883.915261,229.828649
1241.701106,5921.647536,-6883.915261,536.266849
1241.701435,6439.791695,-6217.729913,689.485948
1241.701764,7031.956449,-5625.565159,1455.581446
1241.702094,7402.059420,-5033.400406,2451.505594
1241.702423,8364.327145,-4811.338623,1915.238745
1241.702752,8512.368333,-5033.400406,2221.676944
1241.703081,7994.224174,-5699.585753,1455.581446
1241.703410,8068.244768,-5995.668130,1532.190996
1241.703740,7254.018232,-5625.565159,612.876398
1241.704069,7328.038826,-5995.668130,536.266849
1241.704398,6735.874072,-7105.977043,995.924147
1241.704727,6809.894666,-7105.977043,1378.971896
1241.705056,6809.894666,-7031.956449,612.876398
1241.705386,6291.750507,-6735.874072,1378.971896
1241.705715,6439.791695,-7031.956449,1455.581446
1241.706044,6587.832884,-7179.997637,1608.800546
1241.706373,6513.812290,-7031.956449,2374.896044
1241.706702,6365.771101,-6291.750507,536.266849
1241.707032,5699.585753,-6365.771101,76.609550
1241.707361,6069.688724,-6957.935855,689.485948
1241.707690,6587.832884,-7179.997637,383.047749
1241.708019,6661.853478,-7031.956449,306.438199
1241.708348,6809.894666,-7624.121203,76.609550
1241.708678,6661.853478,-8068.244768,612.876398
1241.709007,6809.894666,-7846.182985,1149.143247
1241.709336,7105.977043,-7402.059420,1455.581446
1241.709665,7624.121203,-7105.977043,1991.848295
1241.709994,7328.038826,-6439.791695,1762.019645
1241.710323,7105.977043,-5107.421000,1455.581446
1241.710652,7920.203579,-4441.235652,1455.581446
1241.710982,8438.347739,-4071.132681,995.924147
1241.711311,8216.285956,-3404.947333,842.705048
1241.711640,7920.203579,-4663.297435,919.314598
1241.711969,7550.100608,-5403.503377,995.924147
1241.712298,7105.977043,-6587.832884,995.924147
1241.712627,7328.038826,-7179.997637,842.705048
1241.712957,7031.956449,-8068.244768,919.314598
1241.713286,6735.874072,-8290.306550,1378.971896
1241.713615,6439.791695,-9030.512492,1991.848295
1241.713944,6069.688724,-8808.450710,766.095498
1241.714273,5477.523971,-7624.121203,306.438199
1241.714602,5181.441594,-7328.038826,153.219100
1241.714931,5551.544565,-6957.935855,0.000000
1241.715261,6365.771101,-6291.750507,459.657299
1241.715590,7105.977043,-5921.647536,1149.143247
1241.715919,7476.080014,-5181.441594,1302.362347
1241.716248,7772.162391,-5255.462188,1991.848295
1241.716577,8882.471304,-5181.441594,2145.067394
1241.716906,8882.471304,-5255.462188,2221.676944
1241.717235,8364.327145,-5181.441594,1608.800546
1241.717565,7550.100608,-5995.668130,612.876398
1241.717894,7105.977043,-6217.729913,842.705048
1241.718223,7105.977043,-6439.791695,612.876398
1241.718552,7105.977043,-6883.915261,1072.533697
1241.718881,6957.935855,-7031.956449,1225.752797
1241.719210,6217.729913,-6883.915261,689.485948
1241.719539,5995.668130,-6883.915261,766.095498
1241.719869,6439.791695,-6365.771101,1455.581446
1241.720198,7031.956449,-6587.832884,1072.533697
1241.720527,7179.997637,-6143.709319,1608.800546
1241.720856,7402.059420,-5773.606348,1915.238745
1241.721185,7105.977043,-6661.853478,1225.752797
1241.721514,7031.956449,-7105.977043,1149.143247
1241.721844,6735.874072,-7476.080014,306.438199
1241.722173,6143.709319,-7624.121203,0.000000
1241.722502,6143.709319,-8068.244768,153.219100
1241.722831,5995.668130,-8142.265362,76.609550
1241.723160,6439.791695,-8068.244768,1149.143247
1241.723489,7179.997637,-7994.224174,1302.362347
1241.723818,7179.997637,-7179.997637,1378.971896
1241.724148,7031.956449,-6439.791695,1608.800546
1241.724477,7031.956449,-5699.585753,1455.581446
1241.724806,7254.018232,-4737.318029,689.485948
1241.725135,7772.162391,-3997.112087,1149.143247
1241.725464,8438.347739,-3849.070898,1072.533697
1241.725793,8438.347739,-3997.112087,995.924147
1241.726122,7772.162391,-4589.276840,1378.971896
1241.726452,8438.347739,-5847.626942,1225.752797
1241.726781,7698.141797,-7254.018232,919.314598
1241.727110,7328.038826,-8290.306550,1302.362347
1241.727439,6735.874072,-8882.471304,1762.019645
1241.727768,6661.853478,-8438.347739,1302.362347
1241.728097,5847.626942,-8438.347739,766.095498
1241.728426,5033.400406,-8438.347739,306.438199
1241.728756,5107.421000,-7698.141797,0.000000
1241.729085,5551.544565,-7105.977043,229.828649
1241.729414,5773.606348,-6439.791695,459.657299
1241.729743,6291.750507,-5329.482782,995.924147
1241.730072,6957.935855,-5181.441594,459.657299
1241.730401,7476.080014,-5551.544565,1455.581446
1241.730730,8290.306550,-5329.482782,2374.896044
1241.731060,9400.615463,-5403.503377,1915.238745
1241.731389,9178.553681,-5551.544565,1838.629195
1241.731718,8438.347739,-5625.565159,1762.019645
1241.732047,7550.100608,-6957.935855,919.314598
1241.732376,7031.956449,-6439.791695,842.705048
1241.732705,7105.977043,-6365.771101,76.609550
1241.733035,6587.832884,-6883.915261,612.876398
1241.733364,6439.791695,-7105.977043,1149.143247
1241.733693,6143.709319,-7105.977043,766.095498
1241.734022,5995.668130,-6513.812290,995.924147
1241.734351,5995.668130,-6291.750507,1149.143247
1241.734680,6809.894666,-6513.812290,2145.067394
1241.735009,7179.997637,-6513.812290,2221.676944
1241.735339,7105.977043,-6513.812290,1455.581446
1241.735668,6587.832884,-7105.977043,1225.752797
1241.735997,6513.812290,-6883.915261,766.095498
1241.736326,6735.874072,-8068.244768,689.485948
1241.736655,6661.853478,-7550.100608,919.314598
1241.736984,5699.585753,-8142.265362,536.266849
1241.737313,5847.626942,-7772.162391,153.219100
1241.737643,5773.606348,-8142.265362,612.876398
1241.737972,6217.729913,-7476.080014,1072.533697
1241.738301,6957.935855,-7031.956449,1149.143247
1241.738630,6957.935855,-6069.688724,1685.410096
1241.738959,7105.977043,-5847.626942,2145.067394
1241.739288,7846.182985,-3330.926739,995.924147
1241.739617,8216.285956,-2812.782580,1072.533697
1241.739947,8808.450710,-2590.720797,1225.752797
1241.740276,8512.368333,-3849.070898,919.314598
1241.740605,8216.285956,-5921.647536,1455.581446
1241.740934,7846.182985,-6217.729913,919.314598
1241.741263,7550.100608,-7550.100608,766.095498
1241.741592,7105.977043,-8290.306550,1685.410096
1241.741922,6735.874072,-9474.636058,1149.143247
1241.742251,6217.729913,-9844.739029,1532.190996
1241.742580,5403.503377,-8586.388927,229.828649
1241.742909,5107.421000,-7994.224174,0.000000
1241.743238,5107.421000,-7105.977043,0.000000
1241.743567,5551.544565,-7402.059420,0.000000
1241.743896,6069.688724,-6735.874072,76.609550
1241.744226,6439.791695,-5699.585753,689.485948
1241.744555,7254.018232,-5551.544565,842.705048
1241.744884,8438.347739,-5033.400406,1685.410096
1241.745213,8956.491898,-5255.462188,2298.286494
1241.745542,9326.594869,-5551.544565,2068.457845
1241.745871,8882.471304,-5255.462188,1838.629195
1241.746200,8512.368333,-5773.606348,995.924147
1241.746530,7994.224174,-6587.832884,995.924147
1241.746859,8142.265362,-6217.729913,689.485948
1241.747188,7031.956449,-7105.977043,229.828649
1241.747517,5551.544565,-6735.874072,842.705048
1241.747846,5625.565159,-6661.853478,842.705048
1241.748175,6291.750507,-6513.812290,1072.533697
1241.748504,6735.874072,-5847.626942,1608.800546
1241.748834,6809.894666,-6735.874072,1225.752797
1241.749163,6439.791695,-5551.544565,1762.019645
1241.749492,6365.771101,-5847.626942,995.924147
1241.749821,6809.894666,-5921.647536,919.314598
1241.750150,7476.080014,-7105.977043,1225.752797
1241.750479,7624.121203,-7328.038826,459.657299
1241.750809,7105.977043,-7698.141797,536.266849
1241.751138,6291.750507,-8068.244768,153.219100
1241.751467,6069.688724,-8660.409521,306.438199
1241.751796,6217.729913,-7994.224174,689.485948
1241.752125,6661.853478,-8290.306550,1302.362347
1241.752454,6809.894666,-7254.018232,1762.019645
1241.752783,6957.935855,-6809.894666,1991.848295
1241.753113,6957.935855,-5477.523971,1532.190996
1241.753442,6513.812290,-3775.050304,1302.362347
1241.753771,7105.977043,-4219.173869,1072.533697
1241.754100,8068.244768,-3775.050304,766.095498
1241.754429,8586.388927,-4219.173869,1149.143247
1241.754758,8216.285956,-5255.462188,1302.362347
1241.755087,8216.285956,-5329.482782,842.705048
1241.755417,8142.265362,-7179.997637,1455.581446
1241.755746,7698.141797,-8216.285956,1302.362347
1241.756075,7031.956449,-9178.553681,1302.362347
1241.756404,6069.688724,-8956.491898,1685.410096
1241.756733,5477.523971,-8364.327145,0.000000
1241.757062,5107.421000,-8142.265362,0.000000
1241.757391,5033.400406,-7846.182985,153.219100
1241.757721,5625.565159,-6957.935855,383.047749
1241.758050,6143.709319,-5995.668130,76.609550
1241.758379,5847.626942,-5477.523971,153.219100
1241.758708,6439.791695,-6143.709319,1072.533697
1241.759037,7698.141797,-5403.503377,1225.752797
1241.759366,8290.306550,-5477.523971,1838.629195
1241.759696,9030.512492,-5329.482782,1991.848295
1241.760025,9474.636058,-6069.688724,2221.676944
1241.760354,8512.368333,-5773.606348,1455.581446
1241.760683,7550.100608,-7031.956449,229.828649
1241.761012,7254.018232,-7031.956449,1378.971896
1241.761341,7105.977043,-6513.812290,383.047749
1241.761670,6957.935855,-6217.729913,612.876398
1241.762000,6143.709319,-6217.729913,1149.143247
1241.762329,6365.771101,-5699.585753,766.095498
1241.762658,6217.729913,-6069.688724,1685.410096
1241.762987,6439.791695,-6069.688724,1302.362347
1241.763316,6587.832884,-6513.812290,1991.848295
1241.763645,7105.977043,-6661.853478,1838.629195
1241.763974,7550.100608,-6957.935855,1378.971896
1241.764304,6735.874072,-6957.935855,1072.533697
1241.764633,6661.853478,-7476.080014,766.095498
1241.764962,7105.977043,-8142.265362,306.438199
1241.765291,7031.956449,-7920.203579,459.657299
1241.765620,5995.668130,-8068.244768,-153.219100
1241.765949,5477.523971,-8438.347739,459.657299
1241.766278,5551.544565,-9030.512492,1072.533697
1241.766608,6069.688724,-7920.203579,1302.362347
1241.766937,6217.729913,-5921.647536,1302.362347
1241.767266,6439.791695,-5921.647536,1532.190996
1241.767595,7105.977043,-5033.400406,1225.752797
1241.767924,7328.038826,-4145.153275,1225.752797
1241.768253,7994.224174,-3627.009116,1302.362347
1241.768583,9474.636058,-3034.844362,1072.533697
1241.768912,8956.491898,-4367.215058,1532.190996
1241.769241,8290.306550,-5329.482782,1608.800546
1241.769570,8068.244768,-7179.997637,1608.800546
1241.769899,8068.244768,-8216.285956,1608.800546
1241.770228,7105.977043,-8438.347739,1915.238745
1241.770557,6143.709319,-9252.574275,1378.971896
1241.770887,5625.565159,-8512.368333,919.314598
1241.771216,5033.400406,-8660.409521,306.438199
1241.771545,4737.318029,-8660.409521,229.828649
1241.771874,4959.379811,-6809.894666,306.438199
1241.772203,5699.585753,-5921.647536,76.609550
1241.772532,5995.668130,-5181.441594,76.609550
1241.772861,6513.812290,-5107.421000,919.314598
1241.773191,7846.182985,-4737.318029,1149.143247
1241.773520,8808.450710,-4737.318029,1378.971896
1241.773849,8882.471304,-4811.338623,1915.238745
1241.774178,8882.471304,-5625.565159,2068.457845
1241.774507,8808.450710,-6587.832884,2068.457845
1241.774836,7920.203579,-7031.956449,1302.362347
1241.775165,7031.956449,-7179.997637,229.828649
1241.775495,6439.791695,-7105.977043,306.438199
1241.775824,6439.791695,-7476.080014,76.609550
1241.776153,6809.894666,-6957.935855,842.705048
1241.776482,5625.565159,-7105.977043,306.438199
1241.776811,6291.750507,-6587.832884,612.876398
1241.777140,6587.832884,-6291.750507,1608.800546
1241.777470,6957.935855,-5847.626942,1378.971896
1241.777799,7105.977043,-6291.750507,1455.581446
1241.778128,6661.853478,-6439.791695,1378.971896
1241.778457,7105.977043,-6513.812290,1225.752797
1241.778786,7179.997637,-6365.771101,919.314598
1241.779115,7476.080014,-7105.977043,919.314598
1241.779444,7254.018232,-7624.121203,383.047749
1241.779774,6217.729913,-8364.327145,153.219100
1241.780103,5847.626942,-8586.388927,536.266849
1241.780432,5699.585753,-8512.368333,919.314598
1241.780761,6217.729913,-7624.121203,1149.143247
1241.781090,6365.771101,-7550.100608,1302.362347
1241.781419,6291.750507,-6883.915261,1225.752797
1241.781748,6661.853478,-5477.523971,1608.800546
1241.782078,7476.080014,-4367.215058,1072.533697
1241.782407,7994.224174,-3404.947333,842.705048
1241.782736,8216.285956,-3108.864956,1225.752797
1241.783065,8734.430116,-3923.091493,459.657299
1241.783394,8660.409521,-4663.297435,1378.971896
1241.783723,8290.306550,-5921.647536,1915.238745
1241.784052,8290.306550,-7550.100608,1455.581446
1241.784382,7698.141797,-8438.347739,1685.410096
1241.784711,6587.832884,-9104.533087,1532.190996
1241.785040,5329.482782,-9104.533087,1072.533697
1241.785369,5255.462188,-8956.491898,459.657299
1241.785698,5255.462188,-8290.306550,229.828649
1241.786027,5255.462188,-7254.018232,153.219100
1241.786356,5329.482782,-5921.647536,383.047749
1241.786686,5107.421000,-5181.441594,-383.047749
1241.787015,5699.585753,-5329.482782,383.047749
1241.787344,6957.935855,-4885.359217,995.924147
1241.787673,7994.224174,-4663.297435,1915.238745
1241.788002,9104.533087,-4367.215058,2068.457845
1241.788331,9400.615463,-5033.400406,1608.800546
1241.788661,9400.615463,-5921.647536,2374.896044
1241.788990,9030.512492,-6291.750507,1532.190996
1241.789319,8438.347739,-6513.812290,689.485948
1241.789648,7698.141797,-6513.812290,0.000000
1241.789977,6809.894666,-7105.977043,459.657299
1241.790306,6513.812290,-7105.977043,0.000000
1241.790635,5921.647536,-6957.935855,536.266849
1241.790965,5921.647536,-6661.853478,842.705048
1241.791294,6217.729913,-6143.709319,2145.067394
1241.791623,7031.956449,-6883.915261,1762.019645
1241.791952,6365.771101,-6513.812290,1532.190996
1241.792281,6365.771101,-6069.688724,1302.362347
1241.792610,6957.935855,-6365.771101,1455.581446
1241.792939,7179.997637,-6217.729913,919.314598
1241.793269,7105.977043,-6735.874072,842.705048
1241.793598,7105.977043,-7179.997637,76.609550
1241.793927,7105.977043,-8364.327145,459.657299
1241.794256,6957.935855,-8512.368333,612.876398
1241.794585,6735.874072,-8660.409521,919.314598
1241.794914,6661.853478,-8438.347739,612.876398
1241.795243,6735.874072,-7698.141797,842.705048
1241.795573,6069.688724,-7254.018232,1072.533697
1241.795902,6439.791695,-6587.832884,1225.752797
1241.796231,6809.894666,-4737.318029,919.314598
1241.796560,7105.977043,-3849.070898,689.485948
1241.796889,7402.059420,-3627.009116,306.438199
1241.797218,7772.162391,-3701.029710,1149.143247
1241.797548,7772.162391,-5181.441594,766.095498
1241.797877,7920.203579,-6217.729913,1302.362347
1241.798206,8290.306550,-7105.977043,1991.848295
1241.798535,8290.306550,-7624.121203,1838.629195
1241.798864,7772.162391,-8438.347739,1915.238745
1241.799193,6661.853478,-8882.471304,1532.190996
1241.799522,5921.647536,-8734.430116,995.924147
1241.799852,5773.606348,-8142.265362,306.438199
1241.800181,4959.379811,-6587.832884,76.609550
1241.800510,4959.379811,-7031.956449,383.047749
1241.800839,5403.503377,-6217.729913,306.438199
1241.801168,5847.626942,-5551.544565,536.266849
1241.801497,6587.832884,-5403.503377,689.485948
1241.801826,7105.977043,-5107.421000,1685.410096
1241.802156,7994.224174,-5625.565159,1302.362347
1241.802485,8364.327145,-5625.565159,2068.457845
1241.802814,8142.265362,-6735.874072,2068.457845
1241.803143,8660.409521,-6291.750507,1685.410096
1241.803472,8660.409521,-5995.668130,1072.533697
1241.803801,7772.162391,-6587.832884,459.657299
1241.804130,7624.121203,-6735.874072,842.705048
1241.804460,7105.977043,-6957.935855,842.705048
1241.804789,7105.977043,-6365.771101,766.095498
1241.805118,5847.626942,-5477.523971,1149.143247
1241.805447,6439.791695,-6069.688724,1302.362347
1241.805776,6957.935855,-6143.709319,1838.629195
1241.806105,7031.956449,-6439.791695,2298.286494
1241.806435,6439.791695,-5699.585753,1225.752797
1241.806764,6291.750507,-6217.729913,919.314598
1241.807093,6513.812290,-7105.977043,995.924147
1241.807422,6735.874072,-7402.059420,842.705048
1241.807751,6587.832884,-7179.997637,612.876398
1241.808080,6809.894666,-7698.141797,153.219100
1241.808409,6587.832884,-8660.409521,536.266849
1241.808739,6513.812290,-8068.244768,919.314598
1241.809068,6365.771101,-8438.347739,919.314598
1241.809397,6365.771101,-7105.977043,919.314598
1241.809726,6809.894666,-6883.915261,1378.971896
1241.810055,6661.853478,-5773.606348,1378.971896
1241.810384,7105.977043,-4737.318029,1302.362347
1241.810713,7624.121203,-3552.988522,1608.800546
1241.811043,7846.182985,-3404.947333,1149.143247
1241.811372,8068.244768,-3552.988522,1072.533697
1241.811701,7920.203579,-4589.276840,995.924147
1241.812030,7920.203579,-5699.585753,919.314598
1241.812359,7698.141797,-6587.832884,1149.143247
1241.812688,7920.203579,-8364.327145,1378.971896
1241.813017,7698.141797,-8586.388927,1838.629195
1241.813346,7105.977043,-9030.512492,1378.971896
1241.813676,6143.709319,-8808.450710,842.705048
1241.814005,5329.482782,-7920.203579,689.485948
1241.814334,4811.338623,-8216.285956,153.219100
1241.814663,5403.503377,-6957.935855,229.828649
1241.814992,5773.606348,-6365.771101,306.438199
1241.815321,6365.771101,-5847.626942,459.657299
1241.815650,6365.771101,-5329.482782,536.266849
1241.815980,6957.935855,-5033.400406,1225.752797
1241.816309,7402.059420,-5477.523971,1991.848295
1241.816638,8142.265362,-6217.729913,1991.848295
1241.816967,8512.368333,-6069.688724,2451.505594
1241.817296,8290.306550,-6365.771101,1915.238745
1241.817625,7994.224174,-6439.791695,1378.971896
1241.817954,8068.244768,-6661.853478,1378.971896
1241.818284,7402.059420,-6661.853478,1149.143247
1241.818613,6439.791695,-6365.771101,383.047749
1241.818942,6069.688724,-6365.771101,612.876398
1241.819271,6143.709319,-6069.688724,689.485948
1241.819600,5921.647536,-6809.894666,842.705048
1241.819929,5995.668130,-6513.812290,1225.752797
1241.820258,6735.874072,-5995.668130,1608.800546
1241.820587,7105.977043,-6143.709319,1915.238745
1241.820917,6513.812290,-6069.688724,1302.362347
1241.821246,6735.874072,-6735.874072,1149.143247
1241.821575,7476.080014,-7105.977043,919.314598
1241.821904,7328.038826,-6883.915261,536.266849
1241.822233,7031.956449,-7698.141797,919.314598
1241.822562,6587.832884,-7698.141797,689.485948
1241.822891,6069.688724,-7846.182985,766.095498
1241.823221,6439.791695,-7994.224174,995.924147
1241.823550,6143.709319,-8438.347739,1302.362347
1241.823879,6513.812290,-7179.997637,1072.533697
1241.824208,6365.771101,-5921.647536,1378.971896
1241.824537,6365.771101,-5033.400406,1149.143247
1241.824866,7550.100608,-3997.112087,919.314598
1241.825195,7994.224174,-3552.988522,995.924147
1241.825524,8142.265362,-3552.988522,536.266849
1241.825854,8142.265362,-4441.235652,1149.143247
1241.826183,8142.265362,-5107.421000,689.485948
1241.826512,8512.368333,-6143.709319,1149.143247
1241.826841,7846.182985,-7402.059420,1532.190996
1241.827170,7624.121203,-8512.368333,1915.238745
1241.827499,7920.203579,-8808.450710,1149.143247
1241.827828,6735.874072,-8364.327145,1302.362347
1241.828158,5625.565159,-7994.224174,459.657299
1241.828487,5033.400406,-8216.285956,76.609550
1241.828816,5181.441594,-7698.141797,383.047749
1241.829145,5403.503377,-6809.894666,229.828649
1241.829474,5995.668130,-6291.750507,383.047749
1241.829803,6661.853478,-5255.462188,919.314598
1241.830132,7179.997637,-5551.544565,1225.752797
1241.830462,7179.997637,-5255.462188,1149.143247
1241.830791,8068.244768,-5921.647536,1455.581446
1241.831120,8364.327145,-6291.750507,1302.362347
1241.831449,8216.285956,-6661.853478,1455.581446
1241.831778,7772.162391,-7328.038826,1225.752797
1241.832107,8290.306550,-7550.100608,995.924147
1241.832436,7994.224174,-6809.894666,995.924147
1241.832765,7105.977043,-6809.894666,459.657299
1241.833095,6069.688724,-6587.832884,689.485948
1241.833424,5921.647536,-6143.709319,766.095498
1241.833753,6217.729913,-5551.544565,536.266849
1241.834082,6291.750507,-5403.503377,1302.362347
1241.834411,7179.997637,-5847.626942,1991.848295
1241.834740,7402.059420,-5921.647536,1915.238745
1241.835069,7105.977043,-5477.523971,1762.019645
1241.835399,6365.771101,-6439.791695,612.876398
1241.835728,6365.771101,-7031.956449,459.657299
1241.836057,6439.791695,-8364.327145,536.266849
1241.836386,6439.791695,-8586.388927,612.876398
1241.836715,6069.688724,-8586.388927,919.314598
1241.837044,6365.771101,-8290.306550,842.705048
1241.837373,6069.688724,-7994.224174,919.314598
1241.837702,5921.647536,-7179.997637,1072.533697
1241.838032,6143.709319,-6957.935855,919.314598
1241.838361,5921.647536,-6217.729913,1455.581446
1241.838690,6883.915261,-4441.235652,1302.362347
1241.839019,7328.038826,-3627.009116,1149.143247
1241.839348,8142.265362,-3034.844362,995.924147
1241.839677,8586.388927,-3404.947333,1225.752797
1241.840006,8586.388927,-4515.256246,612.876398
1241.840336,8364.327145,-5329.482782,1378.971896
1241.840665,8290.306550,-6365.771101,1532.190996
1241.840994,7920.203579,-7254.018232,1608.800546
1241.841323,7624.121203,-8808.450710,1762.019645
1241.841652,7105.977043,-9474.636058,1455.581446
1241.841981,6365.771101,-9474.636058,1378.971896
1241.842310,5625.565159,-8364.327145,995.924147
1241.842640,5107.421000,-7105.977043,-612.876398
1241.842969,4737.318029,-7254.018232,0.000000
1241.843298,5107.421000,-7105.977043,0.000000
1241.843627,5699.585753,-6513.812290,306.438199
1241.843956,6365.771101,-5477.523971,383.047749
1241.844285,7254.018232,-5033.400406,612.876398
1241.844614,8216.285956,-5773.606348,1225.752797
1241.844943,8364.327145,-5625.565159,1915.238745
1241.845273,8438.347739,-6291.750507,1838.629195
1241.845602,8216.285956,-7105.977043,1532.190996
1241.845931,7772.162391,-7105.977043,1532.190996
1241.846260,7550.100608,-7105.977043,1072.533697
1241.846589,7476.080014,-6883.915261,1149.143247
1241.846918,7031.956449,-6439.791695,536.266849
1241.847247,6143.709319,-6439.791695,229.828649
1241.847577,6069.688724,-6143.709319,612.876398
1241.847906,5847.626942,-5107.421000,536.266849
1241.848235,6513.812290,-4959.379811,995.924147
1241.848564,6661.853478,-5773.606348,2145.067394
1241.848893,7328.038826,-6143.709319,2145.067394
1241.849222,7550.100608,-6439.791695,1838.629195
1241.849551,7698.141797,-6143.709319,1455.581446
1241.849880,7328.038826,-6957.935855,1149.143247
1241.850210,7402.059420,-7402.059420,766.095498
1241.850539,6143.709319,-8438.347739,536.266849
1241.850868,5625.565159,-9030.512492,306.438199
1241.851197,5773.606348,-8364.327145,383.047749
1241.851526,5699.585753,-8734.430116,995.924147
1241.851855,6069.688724,-8438.347739,995.924147
1241.852184,5847.626942,-7476.080014,1302.362347
1241.852514,6069.688724,-6365.771101,1455.581446
1241.852843,7105.977043,-4737.318029,1225.752797
1241.853172,7328.038826,-3478.967927,1762.019645
1241.853501,8586.388927,-3404.947333,1455.581446
1241.853830,9104.533087,-2886.803174,1608.800546
1241.854159,9030.512492,-3552.988522,1225.752797
1241.854488,8808.450710,-4515.256246,842.705048
1241.854818,8364.327145,-5329.482782,1608.800546
1241.855147,8142.265362,-6957.935855,1225.752797
1241.855476,7698.141797,-8068.244768,1378.971896
1241.855805,6957.935855,-8808.450710,1455.581446
1241.856134,6735.874072,-9474.636058,1072.533697
1241.856463,5773.606348,-9030.512492,689.485948
1241.856792,4885.359217,-8068.244768,153.219100
1241.857121,4293.194464,-7772.162391,0.000000
1241.857451,4589.276840,-7105.977043,0.000000
1241.857780,5403.503377,-6217.729913,536.266849
1241.858109,6439.791695,-6291.750507,612.876398
1241.858438,7476.080014,-5329.482782,1225.752797
1241.858767,7698.141797,-5107.421000,2068.457845
1241.859096,8808.450710,-5329.482782,1915.238745
1241.859425,8734.430116,-5403.503377,1838.629195
1241.859755,8290.306550,-5921.647536,1608.800546
1241.860084,8364.327145,-6291.750507,1762.019645
1241.860413,7920.203579,-6439.791695,1762.019645
1241.860742,7402.059420,-6439.791695,1762.019645
1241.861071,7179.997637,-6587.832884,766.095498
1241.861400,6735.874072,-6513.812290,766.095498
1241.861729,6291.750507,-6809.894666,383.047749
1241.862058,6143.709319,-5847.626942,689.485948
1241.862388,5625.565159,-5699.585753,842.705048
1241.862717,5699.585753,-5847.626942,306.438199
1241.863046,6439.791695,-6143.709319,1532.190996
1241.863375,7105.977043,-6661.853478,1915.238745
1241.863704,7920.203579,-6883.915261,1378.971896
1241.864033,7846.182985,-6513.812290,1149.143247
1241.864362,7402.059420,-7476.080014,995.924147
1241.864692,7105.977043,-8216.285956,995.924147
1241.865021,7179.997637,-7772.162391,612.876398
1241.865350,6587.832884,-7550.100608,0.000000
1241.865679,5995.668130,-8068.244768,459.657299
1241.866008,5921.647536,-8586.388927,919.314598
1241.866337,5921.647536,-8216.285956,1302.362347
1241.866666,5625.565159,-6957.935855,76.609550
1241.866995,6291.750507,-5699.585753,689.485948
1241.867325,6883.915261,-5329.482782,995.924147
1241.867654,7550.100608,-4515.256246,1608.800546
1241.867983,8142.265362,-3627.009116,1532.190996
1241.868312,8956.491898,-2664.741391,1225.752797
1241.868641,8808.450710,-3701.029710,689.485948
1241.868970,8216.285956,-5551.544565,995.924147
1241.869299,8068.244768,-7105.977043,1685.410096
1241.869629,7698.141797,-8216.285956,1072.533697
1241.869958,7624.121203,-8438.347739,1225.752797
1241.870287,6661.853478,-9030.512492,1302.362347
1241.870616,6439.791695,-9104.533087,1225.752797
1241.870945,6069.688724,-8586.388927,1072.533697
1241.871274,4885.359217,-7402.059420,229.828649
1241.871603,4293.194464,-6883.915261,0.000000
1241.871933,4959.379811,-6439.791695,0.000000
1241.872262,5995.668130,-6217.729913,536.266849
1241.872591,7031.956449,-5477.523971,842.705048
1241.872920,7105.977043,-4959.379811,1838.629195
1241.873249,7698.141797,-5403.503377,1685.410096
1241.873578,8216.285956,-5921.647536,1991.848295
1241.873907,8216.285956,-5921.647536,1685.410096
1241.874236,8216.285956,-6365.771101,1378.971896
1241.874566,7698.141797,-6809.894666,1685.410096
1241.874895,7772.162391,-6587.832884,1302.362347
1241.875224,7328.038826,-7031.956449,995.924147
1241.875553,7179.997637,-6069.688724,689.485948
1241.875882,7031.956449,-5995.668130,536.266849
1241.876211,5847.626942,-6957.935855,536.266849
1241.876540,5995.668130,-5995.668130,689.485948
1241.876870,6365.771101,-5773.606348,536.266849
1241.877199,6587.832884,-5551.544565,1302.362347
1241.877528,6957.935855,-6069.688724,2068.457845
1241.877857,7328.038826,-6661.853478,1762.019645
1241.878186,6809.894666,-6217.729913,1302.362347
1241.878515,6883.915261,-6809.894666,766.095498
1241.878844,6735.874072,-7105.977043,306.438199
1241.879173,6957.935855,-7920.203579,842.705048
1241.879503,6661.853478,-8216.285956,536.266849
1241.879832,6069.688724,-8216.285956,459.657299
1241.880161,6217.729913,-7994.224174,766.095498
1241.880490,6143.709319,-7920.203579,1455.581446
1241.880819,6143.709319,-7476.080014,919.314598
1241.881148,6217.729913,-6291.750507,1225.752797
1241.881477,7031.956449,-5255.462188,842.705048
1241.881807,7402.059420,-4515.256246,1072.533697
1241.882136,7846.182985,-2960.823768,1532.190996
1241.882465,8512.368333,-3701.029710,1225.752797
1241.882794,8882.471304,-3627.009116,919.314598
1241.883123,8512.368333,-4959.379811,842.705048
1241.883452,8290.306550,-7105.977043,1762.019645
1241.883781,8068.244768,-7179.997637,1302.362347
1241.884111,7402.059420,-8734.430116,919.314598
1241.884440,7031.956449,-8660.409521,1455.581446
1241.884769,6513.812290,-8808.450710,1149.143247
1241.885098,6217.729913,-9178.553681,1225.752797
1241.885427,5329.482782,-8216.285956,536.266849
1241.885756,4589.276840,-7476.080014,0.000000
1241.886085,4515.256246,-6661.853478,-229.828649
1241.886414,5255.462188,-5995.668130,0.000000
1241.886744,6069.688724,-5773.606348,306.438199
1241.887073,7105.977043,-5107.421000,842.705048
1241.887402,8216.285956,-5107.421000,1225.752797
1241.887731,8142.265362,-6143.709319,1991.848295
1241.888060,8364.327145,-5329.482782,1991.848295
1241.888389,8142.265362,-6513.812290,1915.238745
1241.888718,8512.368333,-6809.894666,1762.019645
1241.889048,8142.265362,-6883.915261,1532.190996
1241.889377,7994.224174,-6439.791695,1225.752797
1241.889706,7476.080014,-6365.771101,1149.143247
1241.890035,6957.935855,-6365.771101,689.485948
1241.890364,6365.771101,-6439.791695,459.657299
1241.890693,5699.585753,-5995.668130,229.828649
1241.891022,5625.565159,-5773.606348,842.705048
1241.891351,6143.709319,-5699.585753,689.485948
1241.891681,6365.771101,-5773.606348,1378.971896
1241.892010,6957.935855,-6069.688724,1838.629195
1241.892339,7402.059420,-6513.812290,2145.067394
1241.892668,8438.347739,-7179.997637,1455.581446
1241.892997,7624.121203,-6439.791695,842.705048
1241.893326,6957.935855,-7772.162391,536.266849
1241.893655,6883.915261,-7920.203579,766.095498
1241.893985,6587.832884,-7698.141797,995.924147
1241.894314,6439.791695,-8734.430116,612.876398
1241.894643,6291.750507,-7624.121203,1149.143247
1241.894972,5995.668130,-7476.080014,1149.143247
1241.895301,5847.626942,-6883.915261,919.314598
1241.895630,6069.688724,-5403.503377,1608.800546
1241.895959,6809.894666,-5033.400406,919.314598
1241.896289,7328.038826,-3775.050304,1378.971896
1241.896618,8068.244768,-3552.988522,1455.581446
1241.896947,8216.285956,-3404.947333,919.314598
1241.897276,8364.327145,-4515.256246,1302.362347
1241.897605,8290.306550,-5921.647536,995.924147
1241.897934,7846.182985,-7179.997637,1225.752797
1241.898263,7920.203579,-8290.306550,1455.581446
1241.898592,7920.203579,-8734.430116,1532.190996
1241.898922,6217.729913,-8808.450710,842.705048
1241.899251,5329.482782,-8808.450710,919.314598
1241.899580,5551.544565,-8586.388927,306.438199
1241.899909,5107.421000,-7698.141797,306.438199
1241.900238,4737.318029,-6883.915261,-306.438199
1241.900567,5107.421000,-6143.709319,0.000000
1241.900896,6217.729913,-5625.565159,612.876398
1241.901226,7179.997637,-5255.462188,1072.533697
1241.901555,7994.224174,-5033.400406,1838.629195
1241.901884,8734.430116,-4811.338623,2145.067394
1241.902213,8882.471304,-5329.482782,1838.629195
1241.902542,8734.430116,-5625.565159,1762.019645
1241.902871,8364.327145,-5995.668130,1838.629195
1241.903200,7772.162391,-6439.791695,2068.457845
1241.903529,7624.121203,-7105.977043,1302.362347
1241.903859,6735.874072,-6291.750507,536.266849
1241.904188,6513.812290,-7031.956449,229.828649
1241.904517,5625.565159,-7254.018232,383.047749
1241.904846,5181.441594,-7328.038826,153.219100
1241.905175,5181.441594,-6809.894666,459.657299
1241.905504,6069.688724,-6143.709319,919.314598
1241.905833,6735.874072,-6143.709319,1455.581446
1241.906163,7402.059420,-5551.544565,1915.238745
1241.906492,7698.141797,-5921.647536,1685.410096
1241.906821,7994.224174,-6513.812290,1685.410096
1241.907150,7920.203579,-6439.791695,1149.143247
1241.907479,7105.977043,-7254.018232,612.876398
1241.907808,6957.935855,-7402.059420,383.047749
1241.908137,6143.709319,-7846.182985,229.828649
1241.908466,5995.668130,-8142.265362,229.828649
1241.908796,6143.709319,-8216.285956,689.485948
1241.909125,6217.729913,-7402.059420,1149.143247
1241.909454,5773.606348,-7328.038826,1072.533697
1241.909783,5921.647536,-6217.729913,995.924147
1241.910112,6439.791695,-5329.482782,1302.362347
1241.910441,7476.080014,-4663.297435,1072.533697
1241.910770,8290.306550,-4071.132681,1762.019645
1241.911099,8290.306550,-3330.926739,1378.971896
1241.911428,9030.512492,-4071.132681,1302.362347
1241.911757,9400.615463,-4811.338623,1302.362347
1241.912086,8956.491898,-6143.709319,1149.143247
1241.912415,7846.182985,-7179.997637,1225.752797
1241.912744,6809.894666,-7994.224174,766.095498
1241.913073,6735.874072,-9400.615463,766.095498
1241.913402,6069.688724,-9474.636058,1072.533697
1241.913732,5255.462188,-9252.574275,612.876398
1241.914061,5033.400406,-8512.368333,0.000000
1241.914390,4441.235652,-7624.121203,-383.047749
1241.914719,4589.276840,-6661.853478,459.657299
1241.915048,5329.482782,-6291.750507,153.219100
1241.915377,6661.853478,-5329.482782,766.095498
1241.915706,7105.977043,-5255.462188,1608.800546
1241.916035,7920.203579,-5773.606348,1915.238745
1241.916364,8512.368333,-5477.523971,2374.896044
1241.916693,8364.327145,-5773.606348,1991.848295
1241.917022,8660.409521,-5403.503377,1838.629195
1241.917351,8142.265362,-6217.729913,1532.190996
1241.917680,7550.100608,-6957.935855,1149.143247
1241.918009,7105.977043,-6883.915261,995.924147
1241.918338,6809.894666,-6957.935855,76.609550
1241.918667,6291.750507,-6809.894666,766.095498
1241.918996,5847.626942,-6587.832884,229.828649
1241.919325,5625.565159,-6365.771101,0.000000
1241.919655,6069.688724,-6069.688724,689.485948
1241.919984,7031.956449,-6069.688724,1225.752797
1241.920313,7179.997637,-6143.709319,1532.190996
1241.920642,7031.956449,-6291.750507,1762.019645
1241.920971,7105.977043,-6365.771101,1302.362347
1241.921300,7476.080014,-6809.894666,1072.533697
1241.921629,7994.224174,-6735.874072,919.314598
1241.921958,7550.100608,-7402.059420,766.095498
1241.922287,7105.977043,-7550.100608,766.095498
1241.922616,6365.771101,-7550.100608,612.876398
1241.922945,5329.482782,-7402.059420,842.705048
1241.923274,5551.544565,-8068.244768,1455.581446
1241.923603,5773.606348,-7698.141797,995.924147
1241.923932,6069.688724,-6439.791695,842.705048
1241.924261,6069.688724,-5181.441594,995.924147
1241.924590,7105.977043,-4663.297435,1225.752797
1241.924919,8290.306550,-4145.153275,1378.971896
1241.925249,9104.533087,-3849.070898,1455.581446
1241.925578,9104.533087,-3478.967927,1149.143247
1241.925907,9400.615463,-4219.173869,1685.410096
1241.926236,9104.533087,-5995.668130,1378.971896
1241.926565,8142.265362,-7550.100608,842.705048
1241.926894,7328.038826,-9030.512492,1455.581446
1241.927223,7031.956449,-9178.553681,2068.457845
1241.927552,6365.771101,-8660.409521,1302.362347
1241.927881,5403.503377,-9622.677246,689.485948
1241.928210,4737.318029,-8290.306550,229.828649
1241.928539,4959.379811,-7772.162391,153.219100
1241.928868,4737.318029,-5995.668130,-229.828649
1241.929197,5181.441594,-5773.606348,0.000000
1241.929526,6291.750507,-5551.544565,842.705048
1241.929855,7105.977043,-5107.421000,1225.752797
1241.930184,7624.121203,-5477.523971,1302.362347
1241.930513,8512.368333,-5255.462188,2451.505594
1241.930843,9178.553681,-5255.462188,1762.019645
1241.931172,8882.471304,-6069.688724,1762.019645
1241.931501,7846.182985,-6143.709319,1378.971896
1241.931830,7920.203579,-6513.812290,1149.143247
1241.932159,7846.182985,-6957.935855,766.095498
1241.932488,7031.956449,-6883.915261,995.924147
1241.932817,6735.874072,-6661.853478,536.266849
1241.933146,5995.668130,-6587.832884,383.047749
1241.933475,5033.400406,-6365.771101,0.000000
1241.933804,5181.441594,-6587.832884,229.828649
1241.934133,6143.709319,-6513.812290,995.924147
1241.934462,7179.997637,-6291.750507,1455.581446
1241.934791,7402.059420,-6587.832884,2221.676944
1241.935120,7105.977043,-6735.874072,1685.410096
1241.935449,7772.162391,-6661.853478,1302.362347
1241.935778,7624.121203,-6587.832884,1072.533697
1241.936107,7031.956449,-6661.853478,459.657299
1241.936436,6587.832884,-7624.121203,229.828649
1241.936766,6513.812290,-7624.121203,536.266849
1241.937095,6069.688724,-7994.224174,766.095498
1241.937424,5699.585753,-7846.182985,689.485948
1241.937753,5699.585753,-7328.038826,842.705048
1241.938082,6587.832884,-7031.956449,2221.676944
1241.938411,6439.791695,-6513.812290,1225.752797
1241.938740,6735.874072,-5403.503377,1225.752797
1241.939069,7476.080014,-4515.256246,1225.752797
1241.939398,8512.368333,-4145.153275,1149.143247
1241.939727,8586.388927,-3775.050304,1455.581446
1241.940056,8882.471304,-4737.318029,1685.410096
1241.940385,9104.533087,-5403.503377,1608.800546
1241.940714,8142.265362,-5699.585753,919.314598
1241.941043,7550.100608,-7328.038826,919.314598
1241.941372,7105.977043,-8068.244768,1149.143247
1241.941701,7031.956449,-8882.471304,919.314598
1241.942030,5995.668130,-8808.450710,919.314598
1241.942360,4959.379811,-8660.409521,536.266849
1241.942689,5033.400406,-7772.162391,0.000000
1241.943018,5329.482782,-7328.038826,459.657299
1241.943347,5403.503377,-6439.791695,383.047749
1241.943676,5403.503377,-6365.771101,0.000000
1241.944005,6587.832884,-5699.585753,76.609550
1241.944334,7105.977043,-6069.688724,1608.800546
1241.944663,7920.203579,-5699.585753,1532.190996
1241.944992,8660.409521,-5477.523971,2145.067394
1241.945321,8586.388927,-6069.688724,2145.067394
1241.945650,8290.306550,-6217.729913,1608.800546
1241.945979,8142.265362,-5921.647536,1455.581446
1241.946308,7772.162391,-6365.771101,1149.143247
1241.946637,7328.038826,-6291.750507,1072.533697
1241.946966,6735.874072,-6365.771101,459.657299
1241.947295,6143.709319,-7105.977043,76.609550
1241.947624,5995.668130,-6883.915261,229.828649
1241.947954,5995.668130,-7254.018232,689.485948
1241.948283,6513.812290,-6883.915261,1225.752797
1241.948612,6809.894666,-6291.750507,2374.896044
1241.948941,7105.977043,-6365.771101,1455.581446
1241.949270,7105.977043,-6735.874072,1685.410096
1241.949599,7402.059420,-6883.915261,1762.019645
1241.949928,7772.162391,-6661.853478,842.705048
1241.950257,7254.018232,-6143.709319,1225.752797
1241.950586,6587.832884,-6439.791695,0.000000
1241.950915,6143.709319,-7254.018232,0.000000
1241.951244,6365.771101,-7698.141797,689.485948
1241.951573,6587.832884,-7550.100608,1072.533697
1241.951902,6587.832884,-8068.244768,1072.533697
1241.952231,6365.771101,-6957.935855,1302.362347
1241.952560,6291.750507,-7031.956449,1685.410096
1241.952889,6587.832884,-6661.853478,1378.971896
1241.953218,7031.956449,-4663.297435,1302.362347
1241.953547,7254.018232,-4663.297435,919.314598
1241.953877,7920.203579,-4663.297435,689.485948
1241.954206,7846.182985,-4737.318029,995.924147
1241.954535,8512.368333,-5181.441594,1225.752797
1241.954864,8438.347739,-6291.750507,1532.190996
1241.955193,7698.141797,-6809.894666,995.924147
1241.955522,7179.997637,-7994.224174,1072.533697
1241.955851,7105.977043,-8142.265362,1225.752797
1241.956180,7179.997637,-8734.430116,919.314598
1241.956509,5625.565159,-8216.285956,536.266849
1241.956838,5403.503377,-7698.141797,229.828649
1241.957167,5773.606348,-7402.059420,0.000000
1241.957496,5773.606348,-6735.874072,383.047749
1241.957825,5847.626942,-5921.647536,306.438199
1241.958154,5699.585753,-5847.626942,306.438199
1241.958483,6809.894666,-5847.626942,1225.752797
1241.958812,7846.182985,-5921.647536,1532.190996
1241.959141,8216.285956,-6217.729913,2757.943793
1241.959471,8290.306550,-5255.462188,1915.238745
1241.959800,8216.285956,-6439.791695,1685.410096
1241.960129,7920.203579,-6143.709319,1532.190996
1241.960458,7698.141797,-5773.606348,1302.362347
1241.960787,7550.100608,-6291.750507,689.485948
1241.961116,7254.018232,-5921.647536,842.705048
1241.961445,6735.874072,-6809.894666,383.047749
1241.961774,6365.771101,-6587.832884,689.485948
1241.962103,5477.523971,-6587.832884,919.314598
1241.962432,5699.585753,-7402.059420,612.876398
1241.962761,6439.791695,-6291.750507,1302.362347
1241.963090,6809.894666,-7105.977043,1455.581446
1241.963419,7179.997637,-6883.915261,1455.581446
1241.963748,6809.894666,-6513.812290,1532.190996
1241.964077,6809.894666,-7105.977043,1149.143247
1241.964406,7031.956449,-7031.956449,689.485948
1241.964735,6809.894666,-7328.038826,995.924147
1241.965065,7105.977043,-6735.874072,536.266849
1241.965394,6957.935855,-7031.956449,0.000000
1241.965723,6587.832884,-7846.182985,1149.143247
1241.966052,6365.771101,-7254.018232,1072.533697
1241.966381,5995.668130,-7550.100608,1302.362347
1241.966710,6143.709319,-6143.709319,1838.629195
1241.967039,6809.894666,-5921.647536,1608.800546
1241.967368,7031.956449,-5403.503377,1838.629195
1241.967697,7550.100608,-4515.256246,1838.629195
1241.968026,7624.121203,-4441.235652,1072.533697
1241.968355,8364.327145,-3034.844362,1762.019645
1241.968684,7772.162391,-4219.173869,536.266849
1241.969013,8512.368333,-5625.565159,1302.362347
1241.969342,8808.450710,-5921.647536,1532.190996
1241.969671,8068.244768,-6809.894666,842.705048
1241.970000,6809.894666,-7772.162391,1149.143247
1241.970329,7105.977043,-8364.327145,1532.190996
1241.970658,6809.894666,-8808.450710,689.485948
1241.970988,5625.565159,-8364.327145,459.657299
1241.971317,5033.400406,-8290.306550,-306.438199
1241.971646,4959.379811,-7624.121203,-536.266849
1241.971975,5107.421000,-7179.997637,0.000000
1241.972304,5551.544565,-6587.832884,383.047749
1241.972633,6365.771101,-5773.606348,0.000000
1241.972962,7328.038826,-5847.626942,1072.533697
1241.973291,7920.203579,-6069.688724,2145.067394
1241.973620,8512.368333,-5847.626942,2221.676944
1241.973949,9104.533087,-5625.565159,2068.457845
1241.974278,8808.450710,-5181.441594,2145.067394
1241.974607,8216.285956,-5847.626942,1685.410096
1241.974936,7328.038826,-5921.647536,919.314598
1241.975265,7328.038826,-6365.771101,229.828649
1241.975594,6513.812290,-7031.956449,229.828649
1241.975923,6661.853478,-7105.977043,536.266849
1241.976252,6439.791695,-7105.977043,689.485948
1241.976582,5773.606348,-6809.894666,1149.143247
1241.976911,5773.606348,-6291.750507,842.705048
1241.977240,6069.688724,-6439.791695,919.314598
1241.977569,6809.894666,-6957.935855,2298.286494
1241.977898,7402.059420,-6587.832884,1838.629195
1241.978227,7402.059420,-6143.709319,1762.019645
1241.978556,7105.977043,-6661.853478,919.314598
1241.978885,7105.977043,-6883.915261,766.095498
1241.979214,6957.935855,-6957.935855,229.828649
1241.979543,6957.935855,-7105.977043,536.266849
1241.979872,6513.812290,-7254.018232,459.657299
1241.980201,5995.668130,-7105.977043,766.095498
1241.980530,6143.709319,-7920.203579,1532.190996
1241.980859,5773.606348,-7994.224174,1532.190996
1241.981188,6291.750507,-6735.874072,1838.629195
1241.981517,6883.915261,-5699.585753,1685.410096
1241.981846,8068.244768,-4811.338623,2145.067394
1241.982176,7920.203579,-4441.235652,1532.190996
1241.982505,7698.141797,-4367.215058,612.876398
1241.982834,7994.224174,-3849.070898,1072.533697
1241.983163,7846.182985,-4663.297435,919.314598
1241.983492,8142.265362,-5773.606348,1608.800546
1241.983821,8142.265362,-6661.853478,1378.971896
1241.984150,7624.121203,-7920.203579,995.924147
1241.984479,6809.894666,-8734.430116,1149.143247
1241.984808,6439.791695,-9030.512492,919.314598
1241.985137,5773.606348,-8808.450710,383.047749
1241.985466,4811.338623,-8068.244768,229.828649
1241.985795,4737.318029,-8142.265362,-153.219100
1241.986124,5255.462188,-7179.997637,0.000000
1241.986453,5847.626942,-6143.709319,612.876398
1241.986782,6957.935855,-5921.647536,612.876398
1241.987111,7402.059420,-5403.503377,1225.752797
1241.987440,8142.265362,-5403.503377,2145.067394
1241.987769,8734.430116,-5625.565159,2374.896044
1241.988099,8512.368333,-5181.441594,1685.410096
1241.988428,8290.306550,-5403.503377,1762.019645
1241.988757,8290.306550,-5551.544565,1302.362347
1241.989086,7550.100608,-6143.709319,919.314598
1241.989415,7031.956449,-6513.812290,689.485948
1241.989744,6587.832884,-7179.997637,306.438199
1241.990073,6217.729913,-7476.080014,459.657299
1241.990402,5403.503377,-7254.018232,306.438199
1241.990731,5625.565159,-7698.141797,919.314598
1241.991060,6439.791695,-7031.956449,1072.533697
1241.991389,6809.894666,-6513.812290,1072.533697
1241.991718,7179.997637,-6735.874072,1608.800546
1241.992047,7698.141797,-5847.626942,1838.629195
1241.992376,7994.224174,-5921.647536,1225.752797
1241.992705,7254.018232,-6069.688724,1225.752797
1241.993034,7105.977043,-6439.791695,689.485948
1241.993363,7402.059420,-7105.977043,689.485948
1241.993693,7179.997637,-7105.977043,229.828649
1241.994022,5921.647536,-7328.038826,919.314598
1241.994351,5995.668130,-7105.977043,459.657299
1241.994680,6143.709319,-8364.327145,1225.752797
1241.995009,6069.688724,-8216.285956,1302.362347
1241.995338,6217.729913,-7179.997637,1532.190996
1241.995667,6735.874072,-6439.791695,1455.581446
1241.995996,6809.894666,-5403.503377,1455.581446
1241.996325,6883.915261,-4663.297435,1149.143247
1241.996654,7105.977043,-3627.009116,766.095498
1241.996983,8808.450710,-3923.091493,383.047749
1241.997312,8956.491898,-4219.173869,1532.190996
1241.997641,8734.430116,-4737.318029,1302.362347
1241.997970,8290.306550,-6069.688724,1378.971896
1241.998299,7994.224174,-7624.121203,1532.190996
1241.998628,7550.100608,-8364.327145,995.924147
1241.998957,6809.894666,-8734.430116,1455.581446
1241.999287,6069.688724,-8438.347739,842.705048
1241.999616,5477.523971,-8142.265362,153.219100
1241.999945,4293.194464,-8216.285956,153.219100
1242.000274,4885.359217,-7402.059420,-153.219100
1242.000603,5551.544565,-6957.935855,229.828649
1242.000932,6439.791695,-6143.709319,536.266849
1242.001261,6735.874072,-5625.565159,536.266849
1242.001590,7476.080014,-5625.565159,1149.143247
1242.001919,8068.244768,-5921.647536,1991.848295
1242.002248,8586.388927,-5329.482782,2068.457845
1242.002577,9104.533087,-4959.379811,2068.457845
1242.002906,8586.388927,-4959.379811,1838.629195
1242.003235,8586.388927,-5699.585753,1225.752797
1242.003564,7328.038826,-6365.771101,842.705048
1242.003893,7031.956449,-6883.915261,995.924147
1242.004222,6365.771101,-7624.121203,229.828649
1242.004551,5403.503377,-7031.956449,1302.362347
1242.004880,5181.441594,-7179.997637,229.828649
1242.005210,5403.503377,-7179.997637,689.485948
1242.005539,6365.771101,-6661.853478,1149.143247
1242.005868,7105.977043,-6957.935855,1838.629195
1242.006197,7624.121203,-5995.668130,1915.238745
1242.006526,7105.977043,-6291.750507,1378.971896
1242.006855,7328.038826,-6957.935855,995.924147
1242.007184,6809.894666,-6735.874072,1072.533697
1242.007513,6809.894666,-6661.853478,919.314598
1242.007842,7254.018232,-7105.977043,919.314598
1242.008171,7179.997637,-7254.018232,766.095498
1242.008500,6587.832884,-7402.059420,766.095498
1242.008829,6143.709319,-7698.141797,766.095498
1242.009158,5847.626942,-7624.121203,1149.143247
1242.009487,5847.626942,-7328.038826,1072.533697
1242.009816,6217.729913,-6291.750507,1225.752797
1242.010145,6661.853478,-5551.544565,1455.581446
1242.010474,7476.080014,-4663.297435,1532.190996
1242.010804,7624.121203,-4071.132681,1685.410096
1242.011133,8216.285956,-3775.050304,1302.362347
1242.011462,8512.368333,-4145.153275,1149.143247
1242.011791,8290.306550,-5033.400406,1225.752797
1242.012120,7994.224174,-5995.668130,766.095498
1242.012449,8142.265362,-7105.977043,1302.362347
1242.012778,7920.203579,-7402.059420,1455.581446
1242.013107,7179.997637,-8142.265362,1149.143247
1242.013436,6291.750507,-9030.512492,1149.143247
1242.013765,5329.482782,-8216.285956,383.047749
1242.014094,4959.379811,-7328.038826,0.000000
1242.014423,4959.379811,-6957.935855,0.000000
1242.014752,5403.503377,-6883.915261,229.828649
1242.015081,6143.709319,-6513.812290,1378.971896
1242.015410,6513.812290,-5329.482782,995.924147
1242.015739,6809.894666,-5921.647536,919.314598
1242.016068,7772.162391,-5773.606348,1915.238745
1242.016397,8512.368333,-6069.688724,1762.019645
1242.016726,8290.306550,-4885.359217,2451.505594
1242.017055,8290.306550,-5403.503377,1762.019645
1242.017384,8068.244768,-6365.771101,1302.362347
1242.017713,7402.059420,-6587.832884,919.314598
1242.018042,6809.894666,-6513.812290,919.314598
1242.018371,7328.038826,-6883.915261,383.047749
1242.018700,6365.771101,-7179.997637,229.828649
1242.019029,5551.544565,-7698.141797,919.314598
1242.019358,5477.523971,-7105.977043,383.047749
1242.019687,5847.626942,-6883.915261,1608.800546
1242.020016,6587.832884,-7031.956449,1532.190996
1242.020345,7031.956449,-6809.894666,1149.143247
1242.020674,7476.080014,-6439.791695,1762.019645
1242.021003,7550.100608,-6735.874072,1455.581446
1242.021332,7402.059420,-6587.832884,1302.362347
1242.021661,7328.038826,-6587.832884,919.314598
1242.021990,7179.997637,-6661.853478,612.876398
1242.022319,7179.997637,-7031.956449,383.047749
1242.022648,6735.874072,-6735.874072,536.266849
1242.022977,6143.709319,-7402.059420,76.609550
1242.023306,6069.688724,-7698.141797,1072.533697
1242.023635,6217.729913,-7328.038826,1455.581446
1242.023964,6513.812290,-7031.956449,1532.190996
1242.024293,6735.874072,-5995.668130,1225.752797
1242.024623,7031.956449,-5847.626942,1838.629195
1242.024952,7328.038826,-4737.318029,1455.581446
1242.025281,7624.121203,-4293.194464,766.095498
1242.025610,8068.244768,-3627.009116,919.314598
1242.025939,8512.368333,-5033.400406,536.266849
1242.026268,8068.244768,-6365.771101,1608.800546
1242.026597,7994.224174,-6883.915261,1302.362347
1242.026926,7772.162391,-7476.080014,1455.581446
1242.027255,7550.100608,-7476.080014,1608.800546
1242.027584,6587.832884,-8364.327145,919.314598
1242.027913,5699.585753,-8660.409521,842.705048
1242.028242,4959.379811,-8142.265362,0.000000
1242.028571,4737.318029,-7624.121203,-536.266849
1242.028900,5033.400406,-7179.997637,0.000000
1242.029229,5995.668130,-6809.894666,0.000000
1242.029558,7105.977043,-6587.832884,689.485948
1242.029887,7105.977043,-5181.441594,1149.143247
1242.030216,7105.977043,-5403.503377,842.705048
1242.030545,8142.265362,-5847.626942,2068.457845
1242.030874,8586.388927,-5551.544565,2145.067394
1242.031203,8142.265362,-5625.565159,1608.800546
1242.031532,7772.162391,-5847.626942,1302.362347
1242.031861,7402.059420,-6365.771101,1378.971896
1242.032190,7328.038826,-6587.832884,612.876398
1242.032519,7031.956449,-5847.626942,919.314598
1242.032848,6587.832884,-6883.915261,536.266849
1242.033177,6809.894666,-7328.038826,842.705048
1242.033506,5921.647536,-7105.977043,995.924147
1242.033835,5625.565159,-7031.956449,842.705048
1242.034164,6661.853478,-6513.812290,995.924147
1242.034493,7179.997637,-7105.977043,1532.190996
1242.034822,8142.265362,-7402.059420,1685.410096
1242.035151,7254.018232,-6513.812290,1838.629195
1242.035480,6883.915261,-7031.956449,689.485948
1242.035809,6217.729913,-6735.874072,229.828649
1242.036138,6217.729913,-6661.853478,229.828649
1242.036467,6809.894666,-6735.874072,229.828649
1242.036796,6587.832884,-7698.141797,306.438199
1242.037125,6069.688724,-7328.038826,766.095498
1242.037454,5921.647536,-7254.018232,536.266849
1242.037783,6809.894666,-7328.038826,1149.143247
1242.038112,6809.894666,-7179.997637,1991.848295
1242.038442,6809.894666,-6809.894666,1838.629195
1242.038771,7179.997637,-4959.379811,1532.190996
1242.039100,7698.141797,-4293.194464,1455.581446
1242.039429,8364.327145,-4367.215058,1455.581446
1242.039758,8512.368333,-4071.132681,1302.362347
1242.040087,8512.368333,-4071.132681,995.924147
1242.040416,7994.224174,-5107.421000,766.095498
1242.040745,7476.080014,-5255.462188,1455.581446
1242.041074,7698.141797,-7031.956449,1455.581446
1242.041403,7846.182985,-7772.162391,1225.752797
1242.041732,7105.977043,-8216.285956,1225.752797
1242.042061,5995.668130,-8512.368333,536.266849
1242.042390,5551.544565,-8068.244768,459.657299
1242.042719,4737.318029,-8882.471304,153.219100
1242.043048,5329.482782,-7846.182985,306.438199
1242.043377,5995.668130,-7105.977043,612.876398
1242.043706,6809.894666,-6513.812290,536.266849
1242.044035,6957.935855,-5625.565159,919.314598
1242.044364,7179.997637,-5699.585753,1532.190996
1242.044693,7254.018232,-5773.606348,1455.581446
1242.045022,7994.224174,-5181.441594,1838.629195
1242.045351,8068.244768,-4737.318029,1762.019645
1242.045680,8216.285956,-5477.523971,1532.190996
1242.046009,7624.121203,-5699.585753,1378.971896
1242.046338,7254.018232,-6069.688724,1072.533697
1242.046667,6883.915261,-6365.771101,229.828649
1242.046996,6513.812290,-6513.812290,536.266849
1242.047325,5847.626942,-7105.977043,383.047749
1242.047654,5921.647536,-7179.997637,383.047749
1242.047983,6143.709319,-7179.997637,1072.533697
1242.048312,6513.812290,-7105.977043,1302.362347
1242.048641,7105.977043,-6587.832884,2374.896044
1242.048970,7105.977043,-6291.750507,1532.190996
1242.049299,6883.915261,-6439.791695,1225.752797
1242.049628,6587.832884,-6957.935855,1378.971896
1242.049957,7105.977043,-6883.915261,-153.219100
1242.050286,6513.812290,-6513.812290,76.609550
1242.050615,6439.791695,-7105.977043,0.000000
1242.050944,6661.853478,-7846.182985,536.266849
1242.051273,6735.874072,-7328.038826,612.876398
1242.051602,6217.729913,-7476.080014,995.924147
1242.051931,6439.791695,-7476.080014,1149.143247
1242.052261,6957.935855,-7550.100608,1378.971896
1242.052590,7328.038826,-6587.832884,1225.752797
1242.052919,7476.080014,-6143.709319,2451.505594
1242.053248,7624.121203,-4737.318029,1762.019645
1242.053577,7846.182985,-4219.173869,1378.971896
1242.053906,7994.224174,-3923.091493,1072.533697
1242.054235,8068.244768,-3997.112087,1302.362347
1242.054564,8142.265362,-4441.235652,842.705048
1242.054893,7920.203579,-5699.585753,919.314598
1242.055222,7179.997637,-6439.791695,1225.752797
1242.055551,7476.080014,-7328.038826,1378.971896
1242.055880,7698.141797,-7994.224174,1149.143247
1242.056209,7254.018232,-8364.327145,1149.143247
1242.056538,6217.729913,-8734.430116,842.705048
1242.056867,5329.482782,-7920.203579,306.438199
1242.057196,5181.441594,-7698.141797,-306.438199
1242.057525,5255.462188,-6883.915261,229.828649
1242.057854,5625.565159,-6809.894666,229.828649
1242.058183,6143.709319,-6587.832884,689.485948
1242.058512,6809.894666,-6291.750507,1302.362347
1242.058841,7105.977043,-5551.544565,1762.019645
1242.059170,8216.285956,-5107.421000,2298.286494
