#time,accel_x,accel_y,accel_z
1377.195241,7105.977043,-6439.791695,612.876398
1377.195571,7105.977043,-6365.771101,842.705048
1377.195901,7031.956449,-6439.791695,1302.362347
1377.196231,6661.853478,-5773.606348,1685.410096
1377.196561,6883.915261,-6439.791695,1149.143247
1377.196891,6883.915261,-6365.771101,919.314598
1377.197221,6661.853478,-6587.832884,995.924147
1377.197551,7105.977043,-6661.853478,1302.362347
1377.197881,6883.915261,-6217.729913,1532.190996
1377.198211,6809.894666,-6513.812290,1072.533697
1377.198541,6661.853478,-6587.832884,1455.581446
1377.198871,6661.853478,-6957.935855,1302.362347
1377.199201,6883.915261,-6883.915261,689.485948
1377.199531,6957.935855,-6217.729913,842.705048
1377.199861,6809.894666,-6883.915261,919.314598
1377.200191,7476.080014,-6883.915261,766.095498
1377.200521,7328.038826,-6217.729913,1149.143247
1377.200851,7624.121203,-6957.935855,0.000000
1377.201181,7254.018232,-6291.750507,1072.533697
1377.201511,7328.038826,-6513.812290,1072.533697
1377.201841,7328.038826,-6439.791695,612.876398
1377.202171,7402.059420,-6069.688724,459.657299
1377.202501,7402.059420,-5921.647536,1302.362347
1377.202831,7254.018232,-6217.729913,766.095498
1377.203161,7031.956449,-6735.874072,1149.143247
1377.203492,6809.894666,-6661.853478,919.314598
1377.203822,7031.956449,-6365.771101,612.876398
1377.204152,6883.915261,-6365.771101,1149.143247
1377.204482,7105.977043,-6439.791695,1225.752797
1377.204812,6883.915261,-6809.894666,1072.533697
1377.205142,7105.977043,-7031.956449,1378.971896
1377.205472,6809.894666,-6661.853478,1072.533697
1377.205802,6883.915261,-6661.853478,1072.533697
1377.206132,6809.894666,-6809.894666,1225.752797
1377.206462,6809.894666,-7031.956449,766.095498
1377.206792,6957.935855,-6735.874072,1225.752797
1377.207122,6661.853478,-6809.894666,1225.752797
1377.207452,7105.977043,-6883.915261,842.705048
1377.207782,6809.894666,-6883.915261,1225.752797
1377.208112,7031.956449,-6587.832884,1072.533697
1377.208442,7031.956449,-6513.812290,689.485948
1377.208772,6809.894666,-6587.832884,1302.362347
1377.209102,6957.935855,-6809.894666,1302.362347
1377.209432,7179.997637,-6217.729913,766.095498
1377.209762,7179.997637,-6513.812290,1378.971896
1377.210092,7105.977043,-6365.771101,842.705048
1377.210422,6957.935855,-6291.750507,995.924147
1377.210752,7031.956449,-6217.729913,1072.533697
1377.211082,7031.956449,-6439.791695,1072.533697
1377.211412,7105.977043,-6365.771101,1378.971896
1377.211742,6883.915261,-6661.853478,1072.533697
1377.212073,6735.874072,-6735.874072,842.705048
1377.212403,7105.977043,-6217.729913,1072.533697
1377.212733,6513.812290,-6809.894666,1149.143247
1377.213063,6365.771101,-7105.977043,1378.971896
1377.213393,6809.894666,-6957.935855,1302.362347
1377.213723,6809.894666,-6661.853478,842.705048
1377.214053,6809.894666,-6735.874072,919.314598
1377.214383,6809.894666,-6587.832884,536.266849
1377.214713,7105.977043,-7105.977043,842.705048
1377.215043,7105.977043,-6587.832884,1149.143247
1377.215373,7105.977043,-6513.812290,995.924147
1377.215703,7179.997637,-6587.832884,766.095498
1377.216033,7179.997637,-5995.668130,995.924147
1377.216363,6883.915261,-6439.791695,689.485948
1377.216693,7105.977043,-6439.791695,1225.752797
1377.217023,7402.059420,-5995.668130,1302.362347
1377.217353,7254.018232,-5921.647536,1378.971896
1377.217683,7254.018232,-5921.647536,1072.533697
1377.218013,7105.977043,-6439.791695,1072.533697
1377.218343,7031.956449,-6365.771101,766.095498
1377.218673,7105.977043,-6217.729913,1225.752797
1377.219003,6809.894666,-6069.688724,1149.143247
1377.219333,6957.935855,-6587.832884,689.485948
1377.219663,6809.894666,-7105.977043,995.924147
1377.219993,6809.894666,-6957.935855,1072.533697
1377.220323,6661.853478,-6809.894666,612.876398
1377.220654,6587.832884,-6883.915261,1378.971896
1377.220984,6809.894666,-6883.915261,995.924147
1377.221314,6883.915261,-6883.915261,842.705048
1377.221644,6883.915261,-7105.977043,995.924147
1377.221974,7105.977043,-6513.812290,1149.143247
1377.222304,7254.018232,-6587.832884,689.485948
1377.222634,7031.956449,-6587.832884,1149.143247
1377.222964,6809.894666,-6587.832884,689.485948
1377.223294,7328.038826,-6883.915261,1225.752797
1377.223624,7105.977043,-6661.853478,1149.143247
1377.223954,7105.977043,-6735.874072,1072.533697
1377.224284,7105.977043,-6291.750507,1225.752797
1377.224614,7031.956449,-6587.832884,995.924147
1377.224944,6809.894666,-6439.791695,1149.143247
1377.225274,6809.894666,-6587.832884,1532.190996
1377.225604,7105.977043,-6365.771101,689.485948
1377.225934,7179.997637,-6143.709319,995.924147
1377.226264,6217.729913,-6587.832884,1072.533697
1377.226594,6513.812290,-6661.853478,1225.752797
1377.226924,6735.874072,-6661.853478,995.924147
1377.227254,6735.874072,-6587.832884,1302.362347
1377.227584,6809.894666,-6661.853478,995.924147
1377.227914,7031.956449,-6661.853478,1149.143247
1377.228244,6439.791695,-6587.832884,1455.581446
1377.228574,6735.874072,-7031.956449,766.095498
1377.228905,6661.853478,-6587.832884,766.095498
1377.229235,7105.977043,-6809.894666,1225.752797
1377.229565,7772.162391,-6957.935855,1455.581446
1377.229895,7179.997637,-6291.750507,1072.533697
1377.230225,7179.997637,-6291.750507,536.266849
1377.230555,7179.997637,-5995.668130,919.314598
1377.230885,7105.977043,-6365.771101,995.924147
1377.231215,7105.977043,-5921.647536,919.314598
1377.231545,7254.018232,-6365.771101,1072.533697
1377.231875,7846.182985,-6143.709319,842.705048
1377.232205,7254.018232,-6439.791695,1225.752797
1377.232535,6587.832884,-5847.626942,1378.971896
1377.232865,7105.977043,-6439.791695,612.876398
1377.233195,7105.977043,-6513.812290,919.314598
1377.233525,6957.935855,-6513.812290,1072.533697
1377.233855,6883.915261,-6661.853478,919.314598
1377.234185,6809.894666,-6587.832884,842.705048
1377.234515,6809.894666,-6587.832884,1225.752797
1377.234845,6883.915261,-6809.894666,1072.533697
1377.235175,6069.688724,-6735.874072,919.314598
1377.235505,6365.771101,-6735.874072,1378.971896
1377.235835,6883.915261,-6957.935855,536.266849
1377.236165,6735.874072,-6809.894666,919.314598
1377.236495,6735.874072,-6883.915261,1072.533697
1377.236825,6957.935855,-7031.956449,995.924147
1377.237155,6957.935855,-6291.750507,766.095498
1377.237486,7179.997637,-6587.832884,995.924147
1377.237816,7105.977043,-6883.915261,1072.533697
1377.238146,7031.956449,-6735.874072,1072.533697
1377.238476,7031.956449,-6957.935855,689.485948
1377.238806,6957.935855,-6365.771101,1072.533697
1377.239136,7105.977043,-6069.688724,995.924147
1377.239466,7105.977043,-6217.729913,919.314598
1377.239796,7105.977043,-6439.791695,1378.971896
1377.240126,7254.018232,-6291.750507,1455.581446
1377.240456,7105.977043,-6439.791695,1149.143247
1377.240786,6587.832884,-6291.750507,1072.533697
1377.241116,6883.915261,-6587.832884,842.705048
1377.241446,6883.915261,-6957.935855,689.485948
1377.241776,7031.956449,-6587.832884,1455.581446
1377.242106,6735.874072,-6735.874072,1072.533697
1377.242436,6661.853478,-6809.894666,842.705048
1377.242766,6735.874072,-6883.915261,1225.752797
1377.243096,7031.956449,-7105.977043,536.266849
1377.243426,6809.894666,-6661.853478,842.705048
1377.243756,6661.853478,-6661.853478,1225.752797
1377.244086,7105.977043,-6809.894666,766.095498
1377.244416,7031.956449,-6513.812290,1302.362347
1377.244746,7105.977043,-7105.977043,919.314598
1377.245076,7254.018232,-6365.771101,919.314598
1377.245406,7402.059420,-6143.709319,1149.143247
1377.245736,7105.977043,-6809.894666,766.095498
1377.246067,7328.038826,-6365.771101,1149.143247
1377.246397,7476.080014,-6069.688724,1225.752797
1377.246727,7402.059420,-6291.750507,919.314598
1377.247057,7179.997637,-6143.709319,1149.143247
1377.247387,6957.935855,-6661.853478,842.705048
1377.247717,7105.977043,-6661.853478,1455.581446
1377.248047,7179.997637,-5921.647536,1149.143247
1377.248377,6957.935855,-6217.729913,842.705048
1377.248707,6587.832884,-6365.771101,612.876398
1377.249037,6735.874072,-6587.832884,1149.143247
1377.249367,7031.956449,-6143.709319,995.924147
1377.249697,6735.874072,-6587.832884,919.314598
1377.250027,6957.935855,-6809.894666,1302.362347
1377.250357,7105.977043,-7105.977043,1149.143247
1377.250687,6883.915261,-6957.935855,689.485948
1377.251017,6809.894666,-6513.812290,1302.362347
1377.251347,6661.853478,-6661.853478,306.438199
1377.251677,6957.935855,-7031.956449,995.924147
1377.252007,7179.997637,-6439.791695,842.705048
1377.252337,7031.956449,-6661.853478,1072.533697
1377.252667,7105.977043,-6513.812290,1149.143247
1377.252997,6957.935855,-6587.832884,919.314598
1377.253327,6957.935855,-6439.791695,919.314598
1377.253657,7105.977043,-6217.729913,995.924147
1377.253987,7328.038826,-6217.729913,689.485948
1377.254318,6661.853478,-6957.935855,1378.971896
1377.254648,6661.853478,-6291.750507,1915.238745
1377.254978,7105.977043,-6365.771101,995.924147
1377.255308,6809.894666,-6439.791695,1149.143247
1377.255638,6735.874072,-6365.771101,766.095498
1377.255968,6365.771101,-6587.832884,842.705048
1377.256298,6735.874072,-6809.894666,842.705048
1377.256628,6809.894666,-6365.771101,1225.752797
1377.256958,7031.956449,-6143.709319,919.314598
1377.257288,6291.750507,-6735.874072,459.657299
1377.257618,6439.791695,-6587.832884,919.314598
1377.257948,6735.874072,-7031.956449,383.047749
1377.258278,6513.812290,-7105.977043,1149.143247
1377.258608,6957.935855,-6957.935855,919.314598
1377.258938,7254.018232,-6735.874072,995.924147
1377.259268,7105.977043,-6587.832884,1225.752797
1377.259594,7179.997637,-6735.874072,842.705048
1377.259924,7105.977043,-5995.668130,766.095498
1377.260254,7476.080014,-6957.935855,1302.362347
1377.260584,7179.997637,-6439.791695,689.485948
1377.260914,7328.038826,-6143.709319,1225.752797
1377.261244,7402.059420,-5995.668130,995.924147
1377.261573,7402.059420,-5921.647536,1225.752797
1377.261903,7105.977043,-6365.771101,919.314598
1377.262233,7031.956449,-6143.709319,919.314598
1377.262563,7105.977043,-6513.812290,1072.533697
1377.262893,7031.956449,-6217.729913,689.485948
1377.263223,6587.832884,-6735.874072,1149.143247
1377.263552,6883.915261,-6587.832884,919.314598
1377.263882,6957.935855,-6513.812290,1149.143247
1377.264212,6809.894666,-6439.791695,1532.190996
1377.264542,6809.894666,-6587.832884,1072.533697
1377.264872,6735.874072,-6661.853478,1608.800546
1377.265202,6957.935855,-6735.874072,536.266849
1377.265531,6587.832884,-6809.894666,1072.533697
1377.265861,6809.894666,-6735.874072,1149.143247
1377.266191,6883.915261,-6587.832884,1072.533697
1377.266521,7179.997637,-6291.750507,1149.143247
1377.266851,6883.915261,-6735.874072,1149.143247
1377.267181,7105.977043,-6661.853478,842.705048
1377.267510,7105.977043,-6809.894666,995.924147
1377.267840,6809.894666,-6735.874072,919.314598
1377.268170,7179.997637,-6217.729913,536.266849
1377.268500,7476.080014,-5921.647536,995.924147
1377.268830,7105.977043,-6291.750507,1149.143247
1377.269160,7179.997637,-6217.729913,1302.362347
1377.269489,7031.956449,-6513.812290,1072.533697
1377.269819,7031.956449,-6661.853478,1225.752797
1377.270149,6661.853478,-6291.750507,1149.143247
1377.270479,6735.874072,-6217.729913,383.047749
1377.270809,6883.915261,-6957.935855,459.657299
1377.271139,6957.935855,-6883.915261,1302.362347
1377.271468,6587.832884,-6735.874072,919.314598
1377.271798,6587.832884,-6883.915261,612.876398
1377.272128,6513.812290,-6957.935855,1149.143247
1377.272458,6513.812290,-7105.977043,995.924147
1377.272788,6513.812290,-6809.894666,1149.143247
1377.273118,6661.853478,-6809.894666,995.924147
1377.273447,7105.977043,-6883.915261,1378.971896
1377.273777,6883.915261,-6513.812290,1532.190996
1377.274107,7105.977043,-6365.771101,1149.143247
1377.274437,7254.018232,-6883.915261,842.705048
1377.274767,7179.997637,-6809.894666,1225.752797
1377.275096,7179.997637,-6291.750507,766.095498
1377.275426,7105.977043,-6513.812290,1225.752797
1377.275756,7328.038826,-6291.750507,919.314598
1377.276086,7179.997637,-6587.832884,842.705048
1377.276416,7105.977043,-6439.791695,919.314598
1377.276746,7105.977043,-6365.771101,995.924147
1377.277075,7031.956449,-5995.668130,1149.143247
1377.277405,7105.977043,-6069.688724,1149.143247
1377.277735,6587.832884,-6291.750507,842.705048
1377.278065,6957.935855,-5921.647536,536.266849
1377.278395,7031.956449,-6365.771101,1225.752797
1377.278725,6883.915261,-6439.791695,919.314598
1377.279054,6957.935855,-6883.915261,919.314598
1377.279384,6809.894666,-6883.915261,1378.971896
1377.279714,7328.038826,-7105.977043,1149.143247
1377.280044,6735.874072,-6587.832884,536.266849
1377.280374,6291.750507,-6809.894666,995.924147
1377.280704,7031.956449,-7031.956449,842.705048
1377.281033,7624.121203,-6883.915261,1378.971896
1377.281363,7328.038826,-6365.771101,919.314598
1377.281693,7179.997637,-6513.812290,919.314598
1377.282023,7031.956449,-6217.729913,842.705048
1377.282353,7031.956449,-6883.915261,995.924147
1377.282683,6883.915261,-6365.771101,1378.971896
1377.283012,7254.018232,-6217.729913,1225.752797
1377.283342,7105.977043,-6291.750507,995.924147
1377.283672,7105.977043,-6587.832884,1072.533697
1377.284002,7031.956449,-7031.956449,689.485948
1377.284332,7031.956449,-7031.956449,1149.143247
1377.284662,6957.935855,-6587.832884,995.924147
1377.284991,6513.812290,-6365.771101,1072.533697
1377.285321,6069.688724,-6661.853478,612.876398
1377.285651,7031.956449,-6661.853478,1378.971896
1377.285981,6809.894666,-6957.935855,1225.752797
1377.286311,5921.647536,-6809.894666,919.314598
1377.286641,6439.791695,-6883.915261,1072.533697
1377.286970,6661.853478,-6957.935855,1149.143247
1377.287300,6809.894666,-6809.894666,612.876398
1377.287630,6809.894666,-6735.874072,689.485948
1377.287960,6513.812290,-7031.956449,995.924147
1377.288290,7105.977043,-6957.935855,612.876398
1377.288620,7254.018232,-6661.853478,1072.533697
1377.288949,7105.977043,-6809.894666,995.924147
1377.289279,7105.977043,-6661.853478,1072.533697
1377.289609,7105.977043,-6291.750507,1072.533697
1377.289939,7105.977043,-6069.688724,689.485948
1377.290269,7550.100608,-6439.791695,1149.143247
1377.290599,7328.038826,-6143.709319,1072.533697
1377.290928,7179.997637,-6513.812290,1072.533697
1377.291258,6661.853478,-6217.729913,1225.752797
1377.291588,6957.935855,-6439.791695,842.705048
1377.291918,7179.997637,-6513.812290,459.657299
1377.292248,6809.894666,-6513.812290,1072.533697
1377.292578,6809.894666,-6587.832884,1072.533697
1377.292907,6957.935855,-6957.935855,1225.752797
1377.293237,6883.915261,-6365.771101,1455.581446
1377.293567,7105.977043,-6439.791695,995.924147
1377.293897,6587.832884,-6661.853478,919.314598
1377.294227,6883.915261,-6587.832884,995.924147
1377.294557,6957.935855,-7031.956449,612.876398
1377.294886,6513.812290,-6143.709319,1072.533697
1377.295216,6735.874072,-6883.915261,1149.143247
1377.295546,7105.977043,-6735.874072,766.095498
1377.295876,7179.997637,-6513.812290,1072.533697
1377.296206,7105.977043,-6439.791695,1149.143247
1377.296535,6957.935855,-6439.791695,842.705048
1377.296865,6957.935855,-6439.791695,1149.143247
1377.297195,7105.977043,-6809.894666,842.705048
1377.297525,7105.977043,-6069.688724,1302.362347
1377.297855,7476.080014,-5847.626942,1455.581446
1377.298185,7105.977043,-6143.709319,919.314598
1377.298514,6883.915261,-6217.729913,1149.143247
1377.298844,6957.935855,-6365.771101,919.314598
1377.299174,7031.956449,-6143.709319,995.924147
1377.299504,7105.977043,-6217.729913,1149.143247
1377.299834,6809.894666,-6735.874072,1072.533697
1377.300164,6809.894666,-6809.894666,919.314598
1377.300493,6661.853478,-6883.915261,1302.362347
1377.300823,6587.832884,-7031.956449,995.924147
1377.301153,6957.935855,-6661.853478,766.095498
1377.301483,7031.956449,-6957.935855,1302.362347
1377.301813,6587.832884,-7105.977043,919.314598
1377.302143,6809.894666,-7031.956449,919.314598
1377.302472,6809.894666,-6957.935855,1378.971896
1377.302802,6735.874072,-7031.956449,689.485948
1377.303132,6957.935855,-6439.791695,1149.143247
1377.303462,6957.935855,-6587.832884,842.705048
1377.303792,7105.977043,-6587.832884,1302.362347
1377.304122,7772.162391,-6661.853478,1225.752797
1377.304451,7179.997637,-6587.832884,1149.143247
1377.304781,7105.977043,-5995.668130,1149.143247
1377.305111,7402.059420,-5773.606348,1225.752797
1377.305441,7328.038826,-6143.709319,919.314598
1377.305771,7254.018232,-6291.750507,1149.143247
1377.306101,7031.956449,-6365.771101,1072.533697
1377.306430,7105.977043,-6365.771101,1072.533697
1377.306760,6809.894666,-6513.812290,1072.533697
1377.307090,6735.874072,-6365.771101,1149.143247
1377.307420,6069.688724,-6513.812290,919.314598
1377.307750,6661.853478,-6809.894666,1302.362347
1377.308080,7105.977043,-6217.729913,536.266849
1377.308409,6661.853478,-6661.853478,1149.143247
1377.308739,6883.915261,-6735.874072,1225.752797
1377.309069,7105.977043,-6809.894666,919.314598
1377.309399,7179.997637,-5921.647536,612.876398
1377.309729,7476.080014,-5699.585753,1149.143247
1377.310059,8216.285956,-5699.585753,995.924147
1377.310388,8808.450710,-6143.709319,1455.581446
1377.310718,8216.285956,-5477.523971,1378.971896
1377.311048,7254.018232,-6365.771101,459.657299
1377.311378,6809.894666,-6883.915261,383.047749
1377.311708,5921.647536,-7402.059420,153.219100
1377.312038,6735.874072,-7031.956449,536.266849
1377.312367,7179.997637,-6365.771101,612.876398
1377.312697,8438.347739,-5625.565159,1455.581446
1377.313027,8290.306550,-4737.318029,1838.629195
1377.313357,8512.368333,-3997.112087,1378.971896
1377.313687,8512.368333,-4737.318029,1455.581446
1377.314017,8512.368333,-4515.256246,1225.752797
1377.314346,8290.306550,-3775.050304,1072.533697
1377.314676,8290.306550,-4885.359217,919.314598
1377.315006,7994.224174,-4737.318029,919.314598
1377.315336,7624.121203,-6143.709319,995.924147
1377.315666,7772.162391,-5181.441594,612.876398
1377.315996,7994.224174,-5699.585753,842.705048
1377.316325,8068.244768,-6513.812290,536.266849
1377.316655,7624.121203,-5847.626942,383.047749
1377.316985,7179.997637,-6143.709319,229.828649
1377.317315,7402.059420,-5329.482782,536.266849
1377.317645,8068.244768,-5181.441594,459.657299
1377.317975,8660.409521,-4441.235652,1072.533697
1377.318304,8882.471304,-4441.235652,1455.581446
1377.318634,9474.636058,-4367.215058,1302.362347
1377.318964,9474.636058,-3404.947333,1455.581446
1377.319294,9400.615463,-3478.967927,1378.971896
1377.319624,9696.697840,-2516.700203,1225.752797
1377.319953,10066.800811,-2516.700203,1225.752797
1377.320283,10066.800811,-3404.947333,1762.019645
1377.320613,9992.780217,-3182.885551,995.924147
1377.320943,9622.677246,-4219.173869,1455.581446
1377.321273,9252.574275,-4293.194464,1072.533697
1377.321603,8660.409521,-5329.482782,1225.752797
1377.321932,8068.244768,-5033.400406,1455.581446
1377.322262,8290.306550,-4885.359217,1072.533697
1377.322592,7994.224174,-5625.565159,1225.752797
1377.322922,8142.265362,-4441.235652,1302.362347
1377.323252,8364.327145,-4515.256246,919.314598
1377.323582,8512.368333,-4071.132681,1455.581446
1377.323911,8290.306550,-5107.421000,459.657299
1377.324241,7994.224174,-5773.606348,612.876398
1377.324571,7920.203579,-4441.235652,153.219100
1377.324901,8142.265362,-5551.544565,-153.219100
1377.325231,9400.615463,-4885.359217,383.047749
1377.325561,9918.759623,-5329.482782,689.485948
1377.325890,10288.862594,-5181.441594,766.095498
1377.326220,9696.697840,-4219.173869,536.266849
1377.326550,9326.594869,-4071.132681,919.314598
1377.326880,9696.697840,-3997.112087,919.314598
1377.327210,9548.656652,-4145.153275,1838.629195
1377.327540,9474.636058,-3552.988522,1532.190996
1377.327869,9178.553681,-3182.885551,1762.019645
1377.328199,9178.553681,-3997.112087,1608.800546
1377.328529,9178.553681,-4071.132681,2068.457845
1377.328859,8956.491898,-3775.050304,1762.019645
1377.329189,8364.327145,-3330.926739,995.924147
1377.329519,8734.430116,-3627.009116,919.314598
1377.329848,9252.574275,-4515.256246,1072.533697
1377.330178,9326.594869,-4145.153275,612.876398
1377.330508,8808.450710,-4811.338623,-229.828649
1377.330838,8808.450710,-4737.318029,76.609550
1377.331168,9400.615463,-5625.565159,-536.266849
1377.331498,8734.430116,-5921.647536,229.828649
1377.331827,8512.368333,-6143.709319,919.314598
1377.332157,8290.306550,-6735.874072,689.485948
1377.332487,8808.450710,-5921.647536,1455.581446
1377.332817,8290.306550,-5699.585753,2068.457845
1377.333147,8290.306550,-5033.400406,1532.190996
1377.333477,8734.430116,-4145.153275,2068.457845
1377.333806,9104.533087,-4071.132681,1608.800546
1377.334136,10140.821405,-2368.659014,1915.238745
1377.334466,10881.027347,-1258.350101,1685.410096
1377.334796,10881.027347,-1258.350101,536.266849
1377.335126,10214.842000,-1258.350101,0.000000
1377.335456,9770.718434,-2368.659014,-383.047749
1377.335785,9622.677246,-3182.885551,0.000000
1377.336115,9400.615463,-4959.379811,76.609550
1377.336445,7994.224174,-6661.853478,536.266849
1377.336775,7624.121203,-7402.059420,612.876398
1377.337105,7254.018232,-8512.368333,995.924147
1377.337435,6957.935855,-8808.450710,1378.971896
1377.337764,6883.915261,-7624.121203,612.876398
1377.338094,7179.997637,-6365.771101,919.314598
1377.338424,7920.203579,-4885.359217,1302.362347
1377.338754,9104.533087,-3404.947333,919.314598
1377.339084,9622.677246,-2812.782580,1915.238745
1377.339414,9696.697840,-2368.659014,1532.190996
1377.339743,9696.697840,-1036.288319,995.924147
1377.340073,10066.800811,148.041188,1149.143247
1377.340403,11621.233289,-962.267725,1072.533697
1377.340733,11769.274478,-1480.411884,1149.143247
1377.341063,12065.356855,-1702.473667,1149.143247
1377.341392,11917.315666,-2442.679609,689.485948
1377.341722,10732.986159,-5033.400406,1991.848295
1377.342052,8734.430116,-7031.956449,1378.971896
1377.342382,6809.894666,-8660.409521,536.266849
1377.342712,4885.359217,-9178.553681,306.438199
1377.343042,4219.173869,-8734.430116,-383.047749
1377.343371,5329.482782,-7920.203579,-153.219100
1377.343701,6883.915261,-7476.080014,459.657299
1377.344031,8290.306550,-6069.688724,1072.533697
1377.344361,9326.594869,-4071.132681,1378.971896
1377.344691,9548.656652,-2368.659014,1838.629195
1377.345021,10066.800811,-1258.350101,1149.143247
1377.345350,10066.800811,-888.247130,1532.190996
1377.345680,11325.150913,-518.144159,1378.971896
1377.346010,12065.356855,-592.164754,1225.752797
1377.346340,12139.377449,-740.205942,2221.676944
1377.346670,13323.706956,-2146.597232,2604.724693
1377.347000,12657.521608,-3627.009116,2451.505594
1377.347329,10362.883188,-4441.235652,1991.848295
1377.347659,8068.244768,-6365.771101,612.876398
1377.347989,6809.894666,-7994.224174,0.000000
1377.348319,4441.235652,-8290.306550,-229.828649
1377.348649,3404.947333,-9770.718434,-1532.190996
1377.348979,3849.070898,-7550.100608,-536.266849
1377.349308,6809.894666,-4737.318029,76.609550
1377.349638,9918.759623,-3849.070898,612.876398
1377.349968,11547.212695,-2516.700203,1838.629195
1377.350298,11769.274478,-1850.514855,2068.457845
1377.350628,11251.130318,-1702.473667,1455.581446
1377.350958,9844.739029,-2368.659014,1915.238745
1377.351287,8808.450710,-2960.823768,306.438199
1377.351617,8438.347739,-6291.750507,536.266849
1377.351947,8438.347739,-6883.915261,1685.410096
1377.352277,9178.553681,-8364.327145,1762.019645
1377.352607,8364.327145,-8586.388927,2451.505594
1377.352937,7698.141797,-5699.585753,1532.190996
1377.353266,6365.771101,-6143.709319,0.000000
1377.353596,6069.688724,-3849.070898,-383.047749
1377.353926,6513.812290,-4441.235652,0.000000
1377.354256,7698.141797,-4811.338623,306.438199
1377.354586,8290.306550,-3849.070898,919.314598
1377.354916,9400.615463,-3478.967927,1302.362347
1377.355245,10584.944971,-3182.885551,1532.190996
1377.355575,10584.944971,-4071.132681,1532.190996
1377.355905,9696.697840,-5995.668130,1225.752797
1377.356235,8290.306550,-7179.997637,1685.410096
1377.356565,7328.038826,-7476.080014,612.876398
1377.356895,5921.647536,-6439.791695,-919.314598
1377.357224,5107.421000,-7031.956449,-306.438199
1377.357554,5847.626942,-9770.718434,766.095498
1377.357884,6883.915261,-10066.800811,1685.410096
1377.358214,5995.668130,-9252.574275,1838.629195
1377.358544,4959.379811,-6069.688724,76.609550
1377.358874,4811.338623,-5625.565159,-383.047749
1377.359203,5699.585753,-7402.059420,76.609550
1377.359533,6513.812290,-7476.080014,1149.143247
1377.359863,7105.977043,-5921.647536,1762.019645
1377.360193,8660.409521,-3108.864956,1149.143247
1377.360523,9474.636058,-2220.617826,995.924147
1377.360853,10214.842000,-3849.070898,1685.410096
1377.361182,9770.718434,-5995.668130,1608.800546
1377.361512,8216.285956,-7550.100608,1608.800546
1377.361841,7254.018232,-6365.771101,919.314598
1377.362171,6513.812290,-5033.400406,689.485948
1377.362500,6735.874072,-6439.791695,1608.800546
1377.362829,7846.182985,-6883.915261,2604.724693
1377.363159,8364.327145,-6439.791695,2681.334243
1377.363488,7254.018232,-3404.947333,1838.629195
1377.363817,8142.265362,-1110.308913,842.705048
1377.364147,8512.368333,-2590.720797,766.095498
1377.364476,8734.430116,-4811.338623,1685.410096
1377.364805,7328.038826,-7698.141797,1838.629195
1377.365134,6069.688724,-7846.182985,536.266849
1377.365464,5255.462188,-7846.182985,536.266849
1377.365793,5255.462188,-8216.285956,306.438199
1377.366122,6143.709319,-10436.903782,1149.143247
1377.366452,6217.729913,-10436.903782,1455.581446
1377.366781,5551.544565,-9770.718434,919.314598
1377.367110,5255.462188,-6513.812290,536.266849
1377.367440,5995.668130,-6217.729913,842.705048
1377.367769,6735.874072,-5551.544565,995.924147
1377.368098,6217.729913,-7105.977043,1532.190996
1377.368427,5477.523971,-6217.729913,2374.896044
1377.368757,6365.771101,-4589.276840,842.705048
1377.369086,7476.080014,-4441.235652,1149.143247
1377.369415,8808.450710,-4959.379811,2374.896044
1377.369745,8586.388927,-5847.626942,1378.971896
1377.370074,7328.038826,-5181.441594,689.485948
1377.370403,6513.812290,-5773.606348,229.828649
1377.370733,7402.059420,-6513.812290,689.485948
1377.371062,8142.265362,-8142.265362,1762.019645
1377.371391,7328.038826,-8882.471304,1072.533697
1377.371720,5551.544565,-8364.327145,689.485948
1377.372050,5403.503377,-8364.327145,766.095498
1377.372379,6365.771101,-7179.997637,1072.533697
1377.372708,6661.853478,-7698.141797,1455.581446
1377.373038,5847.626942,-6439.791695,842.705048
1377.373367,6069.688724,-4959.379811,306.438199
1377.373696,7179.997637,-4737.318029,842.705048
1377.374026,8290.306550,-4441.235652,1915.238745
1377.374355,9326.594869,-5107.421000,1915.238745
1377.374684,9030.512492,-5699.585753,1685.410096
1377.375013,8290.306550,-5921.647536,1455.581446
1377.375343,7179.997637,-7328.038826,536.266849
1377.375672,7105.977043,-7328.038826,612.876398
1377.376001,6439.791695,-8808.450710,536.266849
1377.376331,5477.523971,-8956.491898,-306.438199
1377.376660,4737.318029,-7179.997637,-306.438199
1377.376989,5625.565159,-6957.935855,229.828649
1377.377319,7698.141797,-6069.688724,1149.143247
1377.377648,7550.100608,-6735.874072,1302.362347
1377.377977,6143.709319,-6291.750507,689.485948
1377.378307,5477.523971,-5403.503377,-459.657299
1377.378636,6513.812290,-5329.482782,536.266849
1377.378965,7846.182985,-6291.750507,1225.752797
1377.379294,8882.471304,-6587.832884,2145.067394
1377.379624,9400.615463,-4959.379811,1378.971896
1377.379953,8956.491898,-4737.318029,1225.752797
1377.380282,8660.409521,-5107.421000,1072.533697
1377.380612,8512.368333,-6365.771101,1149.143247
1377.380941,7179.997637,-8068.244768,1608.800546
1377.381270,5773.606348,-7402.059420,76.609550
1377.381600,4589.276840,-6513.812290,-536.266849
1377.381929,5255.462188,-7105.977043,0.000000
1377.382258,6587.832884,-8068.244768,1378.971896
1377.382587,6883.915261,-8512.368333,1838.629195
1377.382917,6513.812290,-6513.812290,1149.143247
1377.383246,6291.750507,-4441.235652,76.609550
1377.383575,7402.059420,-5255.462188,536.266849
1377.383905,8364.327145,-5625.565159,1608.800546
1377.384234,7772.162391,-6735.874072,1838.629195
1377.384563,7624.121203,-6883.915261,612.876398
1377.384893,6587.832884,-6809.894666,459.657299
1377.385222,6809.894666,-8142.265362,612.876398
1377.385551,7031.956449,-8808.450710,1532.190996
1377.385880,6883.915261,-7624.121203,1302.362347
1377.386210,5551.544565,-6957.935855,229.828649
1377.386539,5773.606348,-5699.585753,306.438199
1377.386868,6661.853478,-5181.441594,1225.752797
1377.387198,7328.038826,-5107.421000,1532.190996
1377.387527,6513.812290,-5699.585753,1302.362347
1377.387856,5847.626942,-5847.626942,919.314598
1377.388186,6439.791695,-5921.647536,842.705048
1377.388515,8512.368333,-5847.626942,2221.676944
1377.388844,8882.471304,-6883.915261,2068.457845
1377.389173,8216.285956,-6513.812290,919.314598
1377.389503,7031.956449,-5847.626942,842.705048
1377.389832,7476.080014,-5921.647536,766.095498
1377.390161,8512.368333,-6513.812290,1608.800546
1377.390491,7624.121203,-7254.018232,2068.457845
1377.390820,5477.523971,-7254.018232,612.876398
1377.391149,3701.029710,-8142.265362,-306.438199
1377.391479,3701.029710,-7994.224174,0.000000
1377.391808,5477.523971,-8956.491898,689.485948
1377.392137,6513.812290,-8586.388927,1378.971896
1377.392466,7105.977043,-6883.915261,1149.143247
1377.392796,7031.956449,-5921.647536,1149.143247
1377.393125,7624.121203,-4145.153275,1378.971896
1377.393454,8290.306550,-5033.400406,766.095498
1377.393784,8956.491898,-5847.626942,1532.190996
1377.394113,8142.265362,-6439.791695,1915.238745
1377.394442,7772.162391,-5995.668130,1532.190996
1377.394772,7994.224174,-6957.935855,1072.533697
1377.395101,7402.059420,-6883.915261,1455.581446
1377.395430,7105.977043,-7254.018232,842.705048
1377.395759,6513.812290,-6809.894666,842.705048
1377.396089,6291.750507,-5773.606348,919.314598
1377.396418,7179.997637,-5107.421000,229.828649
1377.396747,7031.956449,-5995.668130,1762.019645
1377.397077,6365.771101,-7254.018232,1149.143247
1377.397406,5625.565159,-6439.791695,0.000000
1377.397735,5847.626942,-6513.812290,842.705048
1377.398065,7031.956449,-6661.853478,1378.971896
1377.398394,8290.306550,-7994.224174,2145.067394
1377.398723,8438.347739,-6587.832884,2221.676944
1377.399052,7328.038826,-5625.565159,306.438199
1377.399382,7105.977043,-5255.462188,306.438199
1377.399711,7920.203579,-5329.482782,1225.752797
1377.400040,8290.306550,-6143.709319,689.485948
1377.400370,6957.935855,-6291.750507,536.266849
1377.400699,5329.482782,-7254.018232,689.485948
1377.401028,6069.688724,-6735.874072,153.219100
1377.401358,6883.915261,-7031.956449,1149.143247
1377.401687,7105.977043,-7846.182985,1532.190996
1377.402016,6809.894666,-6513.812290,842.705048
1377.402345,6439.791695,-5995.668130,459.657299
1377.402675,6661.853478,-5551.544565,612.876398
1377.403004,8808.450710,-5625.565159,995.924147
1377.403333,9474.636058,-5847.626942,2451.505594
1377.403663,8290.306550,-6291.750507,1378.971896
1377.403992,7105.977043,-7105.977043,536.266849
1377.404321,5995.668130,-6661.853478,1149.143247
1377.404651,6439.791695,-8364.327145,842.705048
1377.404980,7031.956449,-8142.265362,1225.752797
1377.405309,6439.791695,-7179.997637,766.095498
1377.405638,5181.441594,-7328.038826,153.219100
1377.405968,5995.668130,-5773.606348,612.876398
1377.406297,6957.935855,-6587.832884,612.876398
1377.406626,6809.894666,-6735.874072,0.000000
1377.406956,5033.400406,-6735.874072,459.657299
1377.407285,5181.441594,-7994.224174,229.828649
1377.407614,6809.894666,-7550.100608,842.705048
1377.407944,8142.265362,-7031.956449,1991.848295
1377.408273,8734.430116,-7031.956449,1378.971896
1377.408602,7772.162391,-5995.668130,2298.286494
1377.408931,7328.038826,-5255.462188,919.314598
1377.409261,8216.285956,-5329.482782,2068.457845
1377.409590,9104.533087,-4811.338623,2374.896044
1377.409919,7328.038826,-5033.400406,1991.848295
1377.410249,5477.523971,-6143.709319,1072.533697
1377.410578,4367.215058,-6291.750507,459.657299
1377.410907,5403.503377,-6735.874072,842.705048
1377.411237,6735.874072,-7179.997637,1608.800546
1377.411566,7179.997637,-5625.565159,2221.676944
1377.411895,6957.935855,-5699.585753,689.485948
1377.412224,6513.812290,-5403.503377,689.485948
1377.412554,7031.956449,-5551.544565,306.438199
1377.412883,7402.059420,-6957.935855,1149.143247
1377.413212,7254.018232,-6439.791695,1455.581446
1377.413542,7031.956449,-6957.935855,919.314598
1377.413871,7550.100608,-6513.812290,536.266849
1377.414200,7624.121203,-7846.182985,2068.457845
1377.414530,8882.471304,-8512.368333,2451.505594
1377.414859,7402.059420,-7105.977043,919.314598
1377.415188,5625.565159,-5477.523971,0.000000
1377.415517,4959.379811,-5847.626942,-459.657299
1377.415847,6809.894666,-6439.791695,153.219100
1377.416176,7105.977043,-7698.141797,689.485948
1377.416505,6217.729913,-7846.182985,919.314598
1377.416835,5181.441594,-7179.997637,306.438199
1377.417164,5255.462188,-7698.141797,153.219100
1377.417493,6439.791695,-7698.141797,1532.190996
1377.417823,7624.121203,-8438.347739,1532.190996
1377.418152,7550.100608,-6661.853478,1149.143247
1377.418481,7179.997637,-5181.441594,0.000000
1377.418810,7624.121203,-4811.338623,1302.362347
1377.419140,9104.533087,-5107.421000,1072.533697
1377.419469,8512.368333,-6883.915261,1072.533697
1377.419798,5995.668130,-7402.059420,1149.143247
1377.420128,5329.482782,-7698.141797,0.000000
1377.420457,6291.750507,-6439.791695,229.828649
1377.420786,7031.956449,-7254.018232,919.314598
1377.421116,7328.038826,-7328.038826,919.314598
1377.421445,6957.935855,-6291.750507,1072.533697
1377.421774,6957.935855,-4959.379811,153.219100
1377.422103,7920.203579,-3775.050304,306.438199
1377.422433,9178.553681,-5477.523971,1762.019645
1377.422762,8956.491898,-5921.647536,1608.800546
1377.423091,7105.977043,-6957.935855,1225.752797
1377.423421,5551.544565,-7179.997637,1149.143247
1377.423750,6809.894666,-7254.018232,919.314598
1377.424079,7179.997637,-7920.203579,1225.752797
1377.424409,6809.894666,-7105.977043,1302.362347
1377.424738,5921.647536,-6439.791695,459.657299
1377.425067,6661.853478,-5255.462188,306.438199
1377.425396,7105.977043,-5329.482782,919.314598
1377.425726,7698.141797,-6735.874072,1149.143247
1377.426055,7105.977043,-7031.956449,842.705048
1377.426384,6143.709319,-7179.997637,689.485948
1377.426714,5921.647536,-7328.038826,1072.533697
1377.427043,7476.080014,-6365.771101,1532.190996
1377.427372,8290.306550,-7031.956449,1762.019645
1377.427702,7624.121203,-6143.709319,1378.971896
1377.428031,7105.977043,-5625.565159,1072.533697
1377.428360,6439.791695,-5699.585753,229.828649
1377.428689,7402.059420,-6069.688724,1149.143247
1377.429019,8586.388927,-7179.997637,1915.238745
1377.429348,7105.977043,-7402.059420,1072.533697
1377.429677,5181.441594,-7624.121203,1225.752797
1377.430007,4959.379811,-7550.100608,229.828649
1377.430336,5847.626942,-7994.224174,766.095498
1377.430665,7105.977043,-8290.306550,1302.362347
1377.430995,7328.038826,-6587.832884,1532.190996
1377.431324,6661.853478,-5181.441594,689.485948
1377.431653,7254.018232,-4737.318029,919.314598
1377.431982,8660.409521,-4663.297435,1532.190996
1377.432312,8808.450710,-6291.750507,2298.286494
1377.432641,7920.203579,-4737.318029,1838.629195
1377.432970,6809.894666,-5329.482782,1225.752797
1377.433300,7328.038826,-5921.647536,1225.752797
1377.433629,7179.997637,-6587.832884,2068.457845
1377.433958,7328.038826,-8216.285956,2068.457845
1377.434288,6883.915261,-6513.812290,995.924147
1377.434617,5255.462188,-6439.791695,0.000000
1377.434946,5403.503377,-7254.018232,766.095498
1377.435275,7105.977043,-7772.162391,1302.362347
1377.435605,7698.141797,-8142.265362,1378.971896
1377.435934,5699.585753,-7920.203579,919.314598
1377.436263,4737.318029,-7105.977043,0.000000
1377.436593,4737.318029,-7179.997637,0.000000
1377.436922,6143.709319,-8290.306550,1302.362347
1377.437251,7550.100608,-7550.100608,1685.410096
1377.437581,7476.080014,-5921.647536,1455.581446
1377.437910,7476.080014,-4737.318029,1302.362347
1377.438239,8438.347739,-4071.132681,1455.581446
1377.438568,9030.512492,-4737.318029,1532.190996
1377.438898,8438.347739,-6143.709319,1225.752797
1377.439227,6809.894666,-6143.709319,1149.143247
1377.439556,6365.771101,-7624.121203,842.705048
1377.439886,6439.791695,-7402.059420,1455.581446
1377.440215,6587.832884,-8142.265362,1991.848295
1377.440544,6661.853478,-7772.162391,689.485948
1377.440874,5921.647536,-6069.688724,842.705048
1377.441203,5995.668130,-6439.791695,536.266849
1377.441532,7179.997637,-4737.318029,1149.143247
1377.441861,7846.182985,-5403.503377,612.876398
1377.442191,6957.935855,-6143.709319,0.000000
1377.442520,5477.523971,-7105.977043,766.095498
1377.442849,5699.585753,-7402.059420,766.095498
1377.443179,7179.997637,-7179.997637,689.485948
1377.443508,7698.141797,-8068.244768,1915.238745
1377.443837,7994.224174,-7105.977043,1762.019645
1377.444167,7179.997637,-6365.771101,459.657299
1377.444496,7698.141797,-5773.606348,766.095498
1377.444825,7698.141797,-4737.318029,459.657299
1377.445155,8438.347739,-5995.668130,995.924147
1377.445484,7550.100608,-5921.647536,1838.629195
1377.445813,6809.894666,-5773.606348,766.095498
1377.446142,6365.771101,-5995.668130,842.705048
1377.446472,6883.915261,-5403.503377,1532.190996
1377.446801,7550.100608,-6661.853478,2145.067394
1377.447130,7105.977043,-5625.565159,1072.533697
1377.447460,6069.688724,-5255.462188,536.266849
1377.447789,6661.853478,-5107.421000,383.047749
1377.448118,7624.121203,-5773.606348,1378.971896
1377.448448,8142.265362,-7328.038826,2681.334243
1377.448777,7105.977043,-7920.203579,1302.362347
1377.449106,5329.482782,-7772.162391,536.266849
1377.449435,4515.256246,-8512.368333,0.000000
1377.449765,5403.503377,-8808.450710,536.266849
1377.450094,6883.915261,-8290.306550,1532.190996
1377.450423,7105.977043,-7328.038826,842.705048
1377.450753,6439.791695,-5551.544565,842.705048
1377.451082,7254.018232,-4811.338623,766.095498
1377.451411,8586.388927,-4885.359217,919.314598
1377.451741,8734.430116,-5181.441594,1225.752797
1377.452070,7402.059420,-6217.729913,1072.533697
1377.452399,6809.894666,-6661.853478,229.828649
1377.452728,7105.977043,-6809.894666,1072.533697
1377.453058,7698.141797,-6883.915261,1455.581446
1377.453387,7254.018232,-7179.997637,1685.410096
1377.453716,5921.647536,-6143.709319,842.705048
1377.454046,5181.441594,-7179.997637,153.219100
1377.454375,5551.544565,-7179.997637,383.047749
1377.454704,6883.915261,-7698.141797,1225.752797
1377.455034,7105.977043,-8142.265362,1378.971896
1377.455363,5921.647536,-8068.244768,1302.362347
1377.455692,4885.359217,-7994.224174,536.266849
1377.456021,5699.585753,-7254.018232,536.266849
1377.456351,6735.874072,-6587.832884,1149.143247
1377.456680,7624.121203,-6809.894666,1532.190996
1377.457009,7772.162391,-6291.750507,1378.971896
1377.457339,7402.059420,-5033.400406,1149.143247
1377.457668,7698.141797,-4737.318029,766.095498
1377.457997,8438.347739,-4663.297435,1225.752797
1377.458327,8290.306550,-5551.544565,1838.629195
1377.458656,6957.935855,-6365.771101,1149.143247
1377.458985,6439.791695,-7476.080014,1455.581446
1377.459314,7550.100608,-5995.668130,1378.971896
1377.459644,7698.141797,-7179.997637,1149.143247
1377.459973,6883.915261,-6069.688724,2145.067394
1377.460302,6735.874072,-4959.379811,842.705048
1377.460632,7698.141797,-5107.421000,1072.533697
1377.460961,8290.306550,-4515.256246,1608.800546
1377.461290,7846.182985,-5699.585753,2145.067394
1377.461620,7105.977043,-5995.668130,689.485948
1377.461949,5699.585753,-6587.832884,459.657299
1377.462278,5033.400406,-8512.368333,459.657299
1377.462607,5847.626942,-7550.100608,1225.752797
1377.462937,6587.832884,-8068.244768,1302.362347
1377.463266,6809.894666,-8290.306550,612.876398
1377.463595,6143.709319,-7031.956449,612.876398
1377.463925,6513.812290,-7179.997637,766.095498
1377.464254,7402.059420,-6513.812290,536.266849
1377.464583,7624.121203,-6365.771101,612.876398
1377.464913,7031.956449,-6735.874072,1072.533697
1377.465242,7031.956449,-6735.874072,1149.143247
1377.465572,6661.853478,-6809.894666,689.485948
1377.465901,6957.935855,-7105.977043,842.705048
1377.466230,7476.080014,-7105.977043,1149.143247
1377.466560,7328.038826,-6069.688724,1225.752797
1377.466889,6809.894666,-6069.688724,689.485948
1377.467218,6883.915261,-5551.544565,536.266849
1377.467548,7624.121203,-6143.709319,612.876398
1377.467877,7698.141797,-7254.018232,1302.362347
1377.468207,6439.791695,-6735.874072,1149.143247
1377.468536,5551.544565,-8216.285956,153.219100
1377.468865,5255.462188,-8216.285956,766.095498
1377.469195,5995.668130,-8438.347739,1302.362347
1377.469524,7031.956449,-8364.327145,1762.019645
1377.469853,7105.977043,-5995.668130,1149.143247
1377.470183,6587.832884,-5477.523971,1378.971896
1377.470512,7476.080014,-4071.132681,536.266849
1377.470841,7772.162391,-4663.297435,689.485948
1377.471171,7994.224174,-5477.523971,1685.410096
1377.471500,7328.038826,-6143.709319,1149.143247
1377.471830,7105.977043,-6661.853478,1149.143247
1377.472159,7550.100608,-5699.585753,1149.143247
1377.472488,7476.080014,-7550.100608,1455.581446
1377.472818,7550.100608,-6883.915261,1378.971896
1377.473147,6217.729913,-7179.997637,689.485948
1377.473476,5699.585753,-5551.544565,0.000000
1377.473806,7105.977043,-5255.462188,229.828649
1377.474135,7920.203579,-6735.874072,1302.362347
1377.474465,7476.080014,-7179.997637,1225.752797
1377.474794,6735.874072,-7179.997637,1762.019645
1377.475123,6143.709319,-6883.915261,459.657299
1377.475453,5477.523971,-6513.812290,0.000000
1377.475782,6365.771101,-7179.997637,1378.971896
1377.476111,7105.977043,-7328.038826,1302.362347
1377.476441,6957.935855,-6587.832884,842.705048
1377.476770,6735.874072,-5329.482782,1378.971896
1377.477099,8290.306550,-4811.338623,612.876398
1377.477429,9030.512492,-5625.565159,1915.238745
1377.477758,7846.182985,-6143.709319,1685.410096
1377.478088,7179.997637,-7105.977043,459.657299
1377.478417,6439.791695,-6513.812290,612.876398
1377.478746,6513.812290,-6735.874072,766.095498
1377.479076,7624.121203,-7179.997637,2298.286494
1377.479405,8364.327145,-6291.750507,1991.848295
1377.479734,6513.812290,-5699.585753,612.876398
1377.480064,6069.688724,-4885.359217,459.657299
1377.480393,7328.038826,-5255.462188,1302.362347
1377.480723,8956.491898,-6513.812290,1378.971896
1377.481052,6809.894666,-6587.832884,2145.067394
1377.481381,5033.400406,-7402.059420,612.876398
1377.481711,5033.400406,-7179.997637,0.000000
1377.482040,6735.874072,-7328.038826,612.876398
1377.482369,7402.059420,-8512.368333,2145.067394
1377.482699,7179.997637,-7476.080014,1455.581446
1377.483028,6291.750507,-6439.791695,689.485948
1377.483358,6513.812290,-5477.523971,0.000000
1377.483687,7179.997637,-5921.647536,842.705048
1377.484016,7402.059420,-6365.771101,1915.238745
1377.484346,6587.832884,-7105.977043,1225.752797
1377.484675,5403.503377,-7105.977043,1072.533697
1377.485004,6217.729913,-5995.668130,1225.752797
1377.485334,7550.100608,-6809.894666,1302.362347
1377.485663,7698.141797,-6439.791695,1608.800546
1377.485992,7179.997637,-6661.853478,1532.190996
1377.486322,6883.915261,-5329.482782,229.828649
1377.486651,7328.038826,-4145.153275,842.705048
1377.486981,8290.306550,-5773.606348,1685.410096
1377.487310,8438.347739,-6587.832884,1915.238745
1377.487639,6957.935855,-7698.141797,1149.143247
1377.487969,4959.379811,-8142.265362,-306.438199
1377.488298,4219.173869,-8586.388927,-306.438199
1377.488627,5551.544565,-7550.100608,842.705048
1377.488957,6661.853478,-8882.471304,1072.533697
1377.489286,6735.874072,-7328.038826,995.924147
1377.489616,7031.956449,-4737.318029,919.314598
1377.489945,8142.265362,-5773.606348,1378.971896
1377.490274,9400.615463,-4737.318029,1302.362347
1377.490604,7698.141797,-5033.400406,842.705048
1377.490933,6513.812290,-6291.750507,689.485948
1377.491262,6143.709319,-6069.688724,842.705048
1377.491592,7624.121203,-6587.832884,1225.752797
1377.491921,8290.306550,-7624.121203,2298.286494
1377.492251,8142.265362,-6291.750507,1685.410096
1377.492580,7105.977043,-5181.441594,612.876398
1377.492909,6143.709319,-5181.441594,383.047749
1377.493239,6735.874072,-6069.688724,1378.971896
1377.493568,7994.224174,-5995.668130,1302.362347
1377.493897,7920.203579,-5847.626942,1455.581446
1377.494227,6735.874072,-6439.791695,612.876398
1377.494556,5403.503377,-6735.874072,689.485948
1377.494885,7105.977043,-8364.327145,1302.362347
1377.495215,7402.059420,-8586.388927,1225.752797
1377.495544,7105.977043,-7772.162391,1378.971896
1377.495874,6217.729913,-5921.647536,689.485948
1377.496203,7105.977043,-5699.585753,842.705048
1377.496532,8068.244768,-5921.647536,612.876398
1377.496862,7920.203579,-6957.935855,1378.971896
1377.497191,7476.080014,-6883.915261,1532.190996
1377.497520,6217.729913,-6735.874072,306.438199
1377.497850,5847.626942,-7031.956449,383.047749
1377.498179,7105.977043,-7920.203579,1532.190996
1377.498509,7920.203579,-7179.997637,1762.019645
1377.498838,7031.956449,-5921.647536,919.314598
1377.499167,5773.606348,-4515.256246,229.828649
1377.499497,7105.977043,-4367.215058,689.485948
1377.499826,8586.388927,-5329.482782,1455.581446
1377.500155,8142.265362,-7179.997637,1991.848295
1377.500485,6587.832884,-7105.977043,1455.581446
1377.500814,5403.503377,-7846.182985,0.000000
1377.501143,5181.441594,-9030.512492,766.095498
1377.501473,6439.791695,-7994.224174,689.485948
1377.501802,7328.038826,-8734.430116,1302.362347
1377.502132,6809.894666,-7105.977043,995.924147
1377.502461,5847.626942,-7031.956449,612.876398
1377.502790,6957.935855,-5921.647536,1072.533697
1377.503120,8142.265362,-5255.462188,612.876398
1377.503449,7698.141797,-5995.668130,842.705048
1377.503778,6365.771101,-6439.791695,536.266849
1377.504108,5847.626942,-6661.853478,229.828649
1377.504437,6883.915261,-6957.935855,1149.143247
1377.504767,7920.203579,-6217.729913,1455.581446
1377.505096,8216.285956,-6513.812290,1532.190996
1377.505425,7328.038826,-6143.709319,1608.800546
1377.505755,6439.791695,-6069.688724,919.314598
1377.506084,7179.997637,-5033.400406,1072.533697
1377.506413,8068.244768,-5477.523971,1149.143247
1377.506743,8142.265362,-6365.771101,1762.019645
1377.507072,6439.791695,-7328.038826,1608.800546
1377.507402,5255.462188,-7550.100608,459.657299
1377.507731,5181.441594,-6365.771101,536.266849
1377.508060,6365.771101,-7624.121203,1378.971896
1377.508390,7550.100608,-6513.812290,1991.848295
1377.508719,7105.977043,-4885.359217,995.924147
1377.509048,6883.915261,-4737.318029,306.438199
1377.509378,8216.285956,-3849.070898,536.266849
1377.509707,9030.512492,-5847.626942,1915.238745
1377.510036,8586.388927,-6957.935855,1072.533697
1377.510366,6957.935855,-7105.977043,919.314598
1377.510695,6661.853478,-6883.915261,689.485948
1377.511025,7328.038826,-7328.038826,1072.533697
1377.511354,7624.121203,-8068.244768,1762.019645
1377.511683,7105.977043,-6587.832884,1608.800546
1377.512013,5995.668130,-6587.832884,919.314598
1377.512342,5255.462188,-5403.503377,76.609550
1377.512671,6143.709319,-5255.462188,383.047749
1377.513001,7624.121203,-7402.059420,1608.800546
1377.513330,7179.997637,-6883.915261,1685.410096
1377.513660,5403.503377,-6439.791695,383.047749
1377.513989,5551.544565,-6809.894666,689.485948
1377.514318,7550.100608,-7402.059420,2145.067394
1377.514648,7920.203579,-8364.327145,2374.896044
1377.514977,6217.729913,-6957.935855,995.924147
1377.515306,5551.544565,-6957.935855,76.609550
1377.515636,6883.915261,-6439.791695,383.047749
1377.515965,7772.162391,-6439.791695,1302.362347
1377.516295,7328.038826,-7920.203579,1225.752797
1377.516624,7031.956449,-7254.018232,842.705048
1377.516953,5477.523971,-7179.997637,153.219100
1377.517283,6217.729913,-7254.018232,1072.533697
1377.517612,7328.038826,-6883.915261,1225.752797
1377.517941,8216.285956,-6143.709319,1378.971896
1377.518271,7031.956449,-5329.482782,612.876398
1377.518600,6735.874072,-4219.173869,612.876398
1377.518929,7846.182985,-4145.153275,1378.971896
1377.519259,9474.636058,-5699.585753,1991.848295
1377.519588,8956.491898,-6513.812290,3064.381992
1377.519918,6587.832884,-6661.853478,1302.362347
1377.520247,5033.400406,-7254.018232,383.047749
1377.520576,4885.359217,-7698.141797,306.438199
1377.520906,5921.647536,-7550.100608,995.924147
1377.521235,6439.791695,-9252.574275,2068.457845
1377.521564,6217.729913,-7254.018232,842.705048
1377.521894,6291.750507,-5403.503377,689.485948
1377.522223,7031.956449,-6217.729913,383.047749
1377.522553,8216.285956,-6291.750507,1455.581446
1377.522882,7550.100608,-6291.750507,1149.143247
1377.523211,6365.771101,-6661.853478,383.047749
1377.523541,6587.832884,-5255.462188,919.314598
1377.523870,7994.224174,-6439.791695,1532.190996
1377.524199,8734.430116,-6957.935855,2374.896044
1377.524529,8512.368333,-5995.668130,1455.581446
1377.524858,7328.038826,-4885.359217,689.485948
1377.525188,7328.038826,-4071.132681,383.047749
1377.525517,7772.162391,-5403.503377,1302.362347
1377.525846,8808.450710,-5921.647536,1838.629195
1377.526176,7550.100608,-6661.853478,1302.362347
1377.526505,6587.832884,-7846.182985,459.657299
1377.526834,4811.338623,-7105.977043,306.438199
1377.527164,5625.565159,-7402.059420,536.266849
1377.527493,6513.812290,-8512.368333,919.314598
1377.527822,6661.853478,-7105.977043,1915.238745
1377.528152,7031.956449,-5847.626942,-76.609550
1377.528481,7179.997637,-5181.441594,229.828649
1377.528811,7994.224174,-5255.462188,1225.752797
1377.529140,8586.388927,-6439.791695,1532.190996
1377.529469,7476.080014,-7254.018232,1685.410096
1377.529799,6143.709319,-6587.832884,842.705048
1377.530128,6217.729913,-7105.977043,0.000000
1377.530457,7105.977043,-7476.080014,689.485948
1377.530787,7476.080014,-7698.141797,1072.533697
1377.531116,7254.018232,-7105.977043,383.047749
1377.531446,5995.668130,-6439.791695,306.438199
1377.531775,6439.791695,-6365.771101,0.000000
1377.532104,7698.141797,-5847.626942,689.485948
1377.532434,8216.285956,-7254.018232,1838.629195
1377.532763,7550.100608,-6661.853478,1532.190996
1377.533092,5699.585753,-6735.874072,153.219100
1377.533422,5625.565159,-6883.915261,536.266849
1377.533751,6809.894666,-7402.059420,612.876398
1377.534080,7772.162391,-7105.977043,1225.752797
1377.534410,7031.956449,-6809.894666,1225.752797
1377.534739,6809.894666,-5995.668130,766.095498
1377.535069,7994.224174,-5625.565159,919.314598
1377.535398,8808.450710,-5921.647536,1838.629195
1377.535727,7994.224174,-7328.038826,1532.190996
1377.536057,6069.688724,-6661.853478,919.314598
1377.536386,5107.421000,-7402.059420,0.000000
1377.536715,5255.462188,-7624.121203,383.047749
1377.537045,6661.853478,-6513.812290,2451.505594
1377.537374,7624.121203,-7328.038826,1378.971896
1377.537704,6217.729913,-6069.688724,612.876398
1377.538033,6143.709319,-5477.523971,995.924147
1377.538362,7550.100608,-5255.462188,1149.143247
1377.538692,9622.677246,-5255.462188,2068.457845
1377.539021,8068.244768,-6291.750507,1915.238745
1377.539350,6291.750507,-6661.853478,1072.533697
1377.539680,5699.585753,-6513.812290,536.266849
1377.540009,6069.688724,-6587.832884,766.095498
1377.540339,6439.791695,-8068.244768,1378.971896
1377.540668,7254.018232,-6661.853478,2451.505594
1377.540997,6735.874072,-5921.647536,1149.143247
1377.541327,5995.668130,-5107.421000,612.876398
1377.541656,6661.853478,-4441.235652,1302.362347
1377.541985,8068.244768,-6069.688724,1225.752797
1377.542315,7772.162391,-6513.812290,1378.971896
1377.542644,5773.606348,-7328.038826,1378.971896
1377.542973,5329.482782,-7402.059420,306.438199
1377.543303,6069.688724,-7920.203579,689.485948
1377.543632,6957.935855,-8882.471304,1762.019645
1377.543962,7624.121203,-7846.182985,1915.238745
1377.544291,7254.018232,-5773.606348,689.485948
1377.544620,7105.977043,-5329.482782,536.266849
1377.544950,7920.203579,-5255.462188,1225.752797
1377.545279,8216.285956,-5995.668130,1225.752797
1377.545608,7550.100608,-6365.771101,1149.143247
1377.545938,5773.606348,-6587.832884,612.876398
1377.546267,4885.359217,-7105.977043,306.438199
1377.546597,6143.709319,-6735.874072,536.266849
1377.546926,7105.977043,-8068.244768,1838.629195
1377.547255,7254.018232,-5921.647536,1302.362347
1377.547585,7328.038826,-5551.544565,1149.143247
1377.547914,7846.182985,-4219.173869,536.266849
1377.548243,8512.368333,-5625.565159,1455.581446
1377.548573,8586.388927,-6661.853478,1991.848295
1377.548902,7254.018232,-6809.894666,919.314598
1377.549232,5551.544565,-6957.935855,1072.533697
1377.549561,5847.626942,-6735.874072,383.047749
1377.549890,6217.729913,-8142.265362,1149.143247
1377.550220,7105.977043,-7772.162391,1532.190996
1377.550549,7031.956449,-6661.853478,1378.971896
1377.550878,6365.771101,-5107.421000,689.485948
1377.551208,7105.977043,-4293.194464,459.657299
1377.551537,7550.100608,-5403.503377,1378.971896
1377.551866,7698.141797,-6735.874072,1455.581446
1377.552196,7179.997637,-7105.977043,995.924147
1377.552525,5847.626942,-7402.059420,919.314598
1377.552855,5699.585753,-7328.038826,689.485948
1377.553184,6809.894666,-8586.388927,689.485948
1377.553513,7105.977043,-7846.182985,1762.019645
1377.553843,6735.874072,-6809.894666,1149.143247
1377.554172,6587.832884,-5625.565159,383.047749
1377.554501,7624.121203,-4293.194464,536.266849
1377.554831,7772.162391,-6217.729913,842.705048
1377.555160,8142.265362,-6217.729913,1915.238745
1377.555490,6661.853478,-6069.688724,842.705048
1377.555819,5625.565159,-6809.894666,536.266849
1377.556148,6735.874072,-6291.750507,1149.143247
1377.556478,7550.100608,-6883.915261,1378.971896
1377.556807,7105.977043,-6513.812290,1991.848295
1377.557136,6587.832884,-6365.771101,1225.752797
1377.557466,7105.977043,-5921.647536,919.314598
1377.557795,8142.265362,-5181.441594,1455.581446
1377.558124,8364.327145,-6513.812290,1532.190996
1377.558454,7624.121203,-6957.935855,995.924147
1377.558783,5477.523971,-7550.100608,536.266849
1377.559113,4959.379811,-7402.059420,229.828649
1377.559442,6365.771101,-7772.162391,842.705048
1377.559771,7698.141797,-7179.997637,2451.505594
1377.560101,7920.203579,-6735.874072,1685.410096
1377.560430,7105.977043,-5847.626942,76.609550
1377.560759,6587.832884,-4737.318029,459.657299
1377.561089,7550.100608,-4885.359217,306.438199
1377.561418,8068.244768,-5255.462188,306.438199
1377.561748,7550.100608,-5921.647536,1302.362347
1377.562077,6957.935855,-7698.141797,766.095498
1377.562406,6883.915261,-7550.100608,1225.752797
1377.562736,7254.018232,-6957.935855,1608.800546
1377.563065,7476.080014,-7698.141797,1302.362347
1377.563394,6661.853478,-7328.038826,1225.752797
1377.563724,5625.565159,-6291.750507,153.219100
1377.564053,6143.709319,-6143.709319,459.657299
1377.564382,7994.224174,-5625.565159,1685.410096
1377.564712,8068.244768,-7328.038826,1762.019645
1377.565041,6809.894666,-6957.935855,1378.971896
1377.565370,5107.421000,-7179.997637,612.876398
1377.565699,4959.379811,-6439.791695,-459.657299
1377.566029,5773.606348,-6883.915261,1378.971896
1377.566358,7476.080014,-7402.059420,1991.848295
1377.566687,8216.285956,-6365.771101,1532.190996
1377.567017,7179.997637,-5403.503377,1149.143247
1377.567346,7624.121203,-4515.256246,689.485948
1377.567675,8290.306550,-5107.421000,536.266849
1377.568005,7698.141797,-6735.874072,1685.410096
1377.568334,7031.956449,-7254.018232,1225.752797
1377.568663,6217.729913,-7254.018232,919.314598
1377.568993,6661.853478,-6587.832884,995.924147
1377.569322,7031.956449,-8142.265362,1685.410096
1377.569651,6735.874072,-7698.141797,1762.019645
1377.569981,5847.626942,-6217.729913,383.047749
1377.570310,5551.544565,-5625.565159,0.000000
1377.570639,7402.059420,-5773.606348,383.047749
1377.570969,9104.533087,-4367.215058,1532.190996
1377.571298,8216.285956,-6883.915261,2145.067394
1377.571627,6513.812290,-7846.182985,1455.581446
1377.571957,5995.668130,-5033.400406,306.438199
1377.572286,6217.729913,-7402.059420,995.924147
1377.572615,7031.956449,-8364.327145,1302.362347
1377.572945,7328.038826,-7476.080014,1762.019645
1377.573274,6513.812290,-5995.668130,1072.533697
1377.573603,6735.874072,-4959.379811,306.438199
1377.573932,7402.059420,-6217.729913,1149.143247
1377.574262,7994.224174,-6883.915261,1762.019645
1377.574591,7328.038826,-5403.503377,689.485948
1377.574920,6365.771101,-6883.915261,612.876398
1377.575250,6143.709319,-6291.750507,766.095498
1377.575579,7254.018232,-7105.977043,1455.581446
1377.575908,8068.244768,-7105.977043,1762.019645
1377.576238,7476.080014,-6217.729913,1455.581446
1377.576567,6735.874072,-6439.791695,766.095498
1377.576896,7105.977043,-4737.318029,689.485948
1377.577226,7994.224174,-5403.503377,1302.362347
1377.577555,8882.471304,-5699.585753,1762.019645
1377.577884,7179.997637,-6587.832884,2145.067394
1377.578214,5921.647536,-6957.935855,995.924147
1377.578543,5107.421000,-6883.915261,306.438199
1377.578872,5699.585753,-7772.162391,1072.533697
1377.579202,6809.894666,-8512.368333,1608.800546
1377.579531,6809.894666,-6587.832884,1072.533697
1377.579860,5847.626942,-6661.853478,536.266849
1377.580190,6217.729913,-5847.626942,459.657299
1377.580519,7254.018232,-6069.688724,919.314598
1377.580848,7179.997637,-6587.832884,919.314598
1377.581178,6809.894666,-7476.080014,1532.190996
1377.581507,6365.771101,-7476.080014,919.314598
1377.581836,7031.956449,-6365.771101,1225.752797
1377.582165,7698.141797,-6809.894666,1378.971896
1377.582495,8956.491898,-7031.956449,1532.190996
1377.582824,7550.100608,-6217.729913,1072.533697
1377.583153,6069.688724,-6439.791695,383.047749
1377.583483,6513.812290,-5921.647536,0.000000
1377.583812,7179.997637,-6365.771101,612.876398
1377.584141,7179.997637,-7994.224174,1685.410096
1377.584471,5921.647536,-8290.306550,1072.533697
1377.584800,5477.523971,-7328.038826,536.266849
1377.585129,5033.400406,-7328.038826,-153.219100
1377.585459,6291.750507,-7920.203579,842.705048
1377.585788,6957.935855,-7105.977043,1225.752797
1377.586117,7105.977043,-6217.729913,1149.143247
1377.586447,7402.059420,-5181.441594,766.095498
1377.586776,8216.285956,-4145.153275,1455.581446
1377.587105,9252.574275,-5033.400406,1762.019645
1377.587435,9178.553681,-4811.338623,2451.505594
1377.587764,7846.182985,-5625.565159,1455.581446
1377.588093,6217.729913,-6513.812290,1072.533697
1377.588423,6439.791695,-6735.874072,1378.971896
1377.588752,7031.956449,-7772.162391,1302.362347
1377.589081,6883.915261,-6587.832884,1225.752797
1377.589411,5847.626942,-6439.791695,536.266849
1377.589740,6069.688724,-6069.688724,153.219100
1377.590069,6883.915261,-6143.709319,1302.362347
1377.590398,7920.203579,-7031.956449,1532.190996
1377.590728,7698.141797,-6735.874072,1225.752797
1377.591057,6143.709319,-6365.771101,842.705048
1377.591386,6513.812290,-6809.894666,459.657299
1377.591716,7105.977043,-6809.894666,1149.143247
1377.592045,7328.038826,-7254.018232,1838.629195
1377.592374,7624.121203,-6513.812290,1378.971896
1377.592704,7254.018232,-5625.565159,612.876398
1377.593033,7254.018232,-5773.606348,0.000000
1377.593362,7698.141797,-5625.565159,995.924147
1377.593692,7402.059420,-6735.874072,1608.800546
1377.594021,6513.812290,-7179.997637,1225.752797
1377.594350,5107.421000,-7254.018232,153.219100
1377.594680,5477.523971,-6587.832884,842.705048
1377.595009,6661.853478,-6957.935855,919.314598
1377.595338,7254.018232,-7624.121203,1608.800546
1377.595668,7105.977043,-6513.812290,1608.800546
1377.595997,6143.709319,-5477.523971,1072.533697
1377.596326,7105.977043,-5033.400406,766.095498
1377.596656,8216.285956,-5403.503377,1838.629195
1377.596985,7920.203579,-6883.915261,1532.190996
1377.597314,5921.647536,-7698.141797,995.924147
1377.597644,5033.400406,-8142.265362,0.000000
1377.597973,5773.606348,-8142.265362,76.609550
1377.598302,7031.956449,-8290.306550,1149.143247
1377.598631,7105.977043,-8660.409521,1915.238745
1377.598961,6957.935855,-6735.874072,612.876398
1377.599290,6661.853478,-5625.565159,383.047749
1377.599619,7179.997637,-5033.400406,689.485948
1377.599949,8290.306550,-5329.482782,1762.019645
1377.600278,8364.327145,-5699.585753,2221.676944
1377.600607,7328.038826,-5773.606348,1302.362347
1377.600937,5995.668130,-6439.791695,995.924147
1377.601266,6809.894666,-5477.523971,1149.143247
1377.601595,7772.162391,-6809.894666,1302.362347
1377.601925,7846.182985,-7031.956449,2298.286494
1377.602254,7031.956449,-5625.565159,1685.410096
1377.602583,5403.503377,-6661.853478,-153.219100
1377.602913,6439.791695,-6143.709319,919.314598
1377.603242,7105.977043,-7402.059420,1225.752797
1377.603571,7402.059420,-7328.038826,919.314598
1377.603901,5625.565159,-7105.977043,1072.533697
1377.604230,5699.585753,-6883.915261,536.266849
1377.604559,7402.059420,-7105.977043,1225.752797
1377.604889,7550.100608,-7105.977043,1685.410096
1377.605218,7550.100608,-6661.853478,1225.752797
1377.605547,6957.935855,-4885.359217,842.705048
1377.605876,7105.977043,-4737.318029,306.438199
1377.606206,7328.038826,-5847.626942,1072.533697
1377.606535,7402.059420,-6809.894666,2374.896044
1377.606864,7254.018232,-6809.894666,1378.971896
1377.607194,5995.668130,-7031.956449,842.705048
1377.607523,5921.647536,-6439.791695,1225.752797
1377.607852,7105.977043,-6809.894666,1225.752797
1377.608182,8364.327145,-7105.977043,1149.143247
1377.608511,7031.956449,-6069.688724,1608.800546
1377.608840,7105.977043,-5329.482782,536.266849
1377.609170,8142.265362,-5181.441594,919.314598
1377.609499,8882.471304,-5773.606348,2374.896044
1377.609828,8438.347739,-7105.977043,1532.190996
1377.610158,6143.709319,-7105.977043,1149.143247
1377.610487,4737.318029,-7624.121203,229.828649
1377.610816,5255.462188,-7920.203579,0.000000
1377.611146,5773.606348,-7402.059420,766.095498
1377.611475,7105.977043,-8734.430116,1532.190996
1377.611804,6513.812290,-7698.141797,766.095498
1377.612134,5403.503377,-6735.874072,229.828649
1377.612463,6513.812290,-6439.791695,0.000000
1377.612792,8290.306550,-5329.482782,689.485948
1377.613122,8216.285956,-6069.688724,1225.752797
1377.613451,7698.141797,-6365.771101,689.485948
1377.613780,7031.956449,-7254.018232,1072.533697
1377.614109,7698.141797,-5921.647536,1838.629195
1377.614439,8142.265362,-6217.729913,1685.410096
1377.614768,7624.121203,-6365.771101,1072.533697
1377.615097,6957.935855,-5329.482782,842.705048
1377.615427,6735.874072,-6069.688724,919.314598
1377.615756,7772.162391,-5107.421000,766.095498
1377.616085,8438.347739,-5255.462188,1685.410096
1377.616415,7402.059420,-7179.997637,1302.362347
1377.616744,5033.400406,-7772.162391,689.485948
1377.617073,3997.112087,-8068.244768,-536.266849
1377.617403,4737.318029,-8216.285956,153.219100
1377.617732,6513.812290,-7994.224174,689.485948
1377.618061,7402.059420,-7772.162391,1149.143247
1377.618391,7328.038826,-5699.585753,1225.752797
1377.618720,7920.203579,-4811.338623,153.219100
1377.619049,8956.491898,-4737.318029,459.657299
1377.619379,9474.636058,-4737.318029,1532.190996
1377.619708,8882.471304,-5995.668130,1685.410096
1377.620037,7476.080014,-6143.709319,689.485948
1377.620367,6291.750507,-5995.668130,689.485948
1377.620696,6217.729913,-6143.709319,842.705048
1377.621025,7476.080014,-6883.915261,1455.581446
1377.621355,7476.080014,-7105.977043,1685.410096
1377.621684,6587.832884,-6439.791695,1225.752797
1377.622013,5921.647536,-7105.977043,306.438199
1377.622342,7105.977043,-5329.482782,459.657299
1377.622672,7254.018232,-6439.791695,1608.800546
1377.623001,6957.935855,-8438.347739,1532.190996
1377.623330,6587.832884,-6217.729913,919.314598
1377.623660,6513.812290,-7550.100608,612.876398
1377.623989,6735.874072,-7624.121203,1302.362347
1377.624318,7105.977043,-7179.997637,1225.752797
1377.624648,7550.100608,-7031.956449,1302.362347
1377.624977,6661.853478,-4811.338623,766.095498
1377.625306,6883.915261,-5329.482782,459.657299
1377.625636,7254.018232,-5625.565159,612.876398
1377.625965,7624.121203,-5625.565159,1149.143247
1377.626294,7328.038826,-6291.750507,1149.143247
1377.626624,6587.832884,-6957.935855,919.314598
1377.626953,6735.874072,-7031.956449,1302.362347
1377.627282,7105.977043,-7254.018232,1149.143247
1377.627612,7328.038826,-7179.997637,1685.410096
1377.627941,7105.977043,-6439.791695,995.924147
1377.628270,6661.853478,-5477.523971,383.047749
1377.628600,7031.956449,-5773.606348,536.266849
1377.628929,8438.347739,-6365.771101,2068.457845
1377.629258,8068.244768,-6735.874072,1302.362347
1377.629588,7031.956449,-6365.771101,1685.410096
1377.629917,5107.421000,-7105.977043,153.219100
1377.630246,4737.318029,-7624.121203,229.828649
1377.630575,5773.606348,-8512.368333,1455.581446
1377.630905,7105.977043,-8364.327145,2374.896044
1377.631234,6809.894666,-6143.709319,1302.362347
1377.631563,6439.791695,-6587.832884,766.095498
1377.631893,6883.915261,-5847.626942,306.438199
1377.632222,7105.977043,-6143.709319,689.485948
1377.632551,7624.121203,-7254.018232,1225.752797
1377.632881,7328.038826,-6365.771101,536.266849
1377.633210,6587.832884,-6291.750507,689.485948
1377.633539,7698.141797,-7031.956449,1149.143247
1377.633869,8882.471304,-7105.977043,2451.505594
1377.634198,8586.388927,-6439.791695,2298.286494
1377.634527,6883.915261,-5625.565159,612.876398
1377.634857,5625.565159,-5181.441594,306.438199
1377.635186,6957.935855,-4737.318029,383.047749
1377.635515,7772.162391,-7031.956449,1225.752797
1377.635845,7772.162391,-6957.935855,2221.676944
1377.636174,6439.791695,-7254.018232,1455.581446
1377.636503,5329.482782,-6809.894666,76.609550
1377.636833,5181.441594,-6439.791695,383.047749
1377.637162,6513.812290,-8216.285956,995.924147
1377.637491,7105.977043,-7846.182985,995.924147
1377.637820,6439.791695,-7105.977043,536.266849
1377.638150,6291.750507,-6217.729913,612.876398
1377.638479,8290.306550,-4885.359217,459.657299
1377.638808,9104.533087,-5995.668130,2068.457845
1377.639138,8216.285956,-6513.812290,1685.410096
1377.639467,6587.832884,-6587.832884,1072.533697
1377.639796,5773.606348,-6291.750507,612.876398
1377.640126,7031.956449,-5995.668130,612.876398
1377.640455,7328.038826,-6217.729913,1838.629195
1377.640784,7772.162391,-5699.585753,1378.971896
1377.641114,6439.791695,-6217.729913,1072.533697
1377.641443,6143.709319,-4959.379811,536.266849
1377.641772,8142.265362,-5329.482782,919.314598
1377.642102,8586.388927,-6957.935855,1685.410096
1377.642431,7698.141797,-7031.956449,1532.190996
1377.642760,5921.647536,-7920.203579,306.438199
1377.643090,5033.400406,-7920.203579,76.609550
1377.643419,5625.565159,-7254.018232,306.438199
1377.643748,7105.977043,-7994.224174,1608.800546
1377.644078,7698.141797,-7402.059420,1455.581446
1377.644407,7105.977043,-6883.915261,995.924147
1377.644736,6883.915261,-5329.482782,919.314598
1377.645066,7624.121203,-5107.421000,919.314598
1377.645395,7550.100608,-5847.626942,1072.533697
1377.645724,7105.977043,-6217.729913,1072.533697
1377.646053,6439.791695,-5921.647536,1378.971896
1377.646383,7105.977043,-6439.791695,1072.533697
1377.646712,7254.018232,-7254.018232,1149.143247
1377.647041,7476.080014,-7105.977043,1838.629195
1377.647371,7402.059420,-6661.853478,842.705048
1377.647700,6143.709319,-5551.544565,459.657299
1377.648029,6883.915261,-5625.565159,842.705048
1377.648359,8142.265362,-6291.750507,995.924147
1377.648688,8068.244768,-7328.038826,1685.410096
1377.649017,6513.812290,-7624.121203,1608.800546
1377.649347,4811.338623,-7254.018232,229.828649
1377.649676,4441.235652,-6883.915261,0.000000
1377.650005,5847.626942,-7476.080014,919.314598
1377.650335,7105.977043,-7328.038826,1302.362347
1377.650664,7476.080014,-5995.668130,766.095498
1377.650993,7328.038826,-5033.400406,919.314598
1377.651323,8438.347739,-4737.318029,612.876398
1377.651652,9030.512492,-4885.359217,1532.190996
1377.651981,8438.347739,-5551.544565,1991.848295
1377.652311,7624.121203,-6513.812290,1149.143247
1377.652640,6439.791695,-5699.585753,919.314598
1377.652969,6809.894666,-5995.668130,766.095498
1377.653299,8142.265362,-7254.018232,2374.896044
1377.653628,7920.203579,-6587.832884,2298.286494
1377.653957,6069.688724,-6587.832884,919.314598
1377.654286,5329.482782,-5551.544565,306.438199
1377.654616,6587.832884,-5847.626942,306.438199
1377.654945,7550.100608,-6587.832884,1225.752797
1377.655274,7328.038826,-6883.915261,1915.238745
1377.655604,6143.709319,-7179.997637,306.438199
1377.655933,5329.482782,-7402.059420,0.000000
1377.656262,5773.606348,-7698.141797,612.876398
1377.656592,7402.059420,-8512.368333,1838.629195
1377.656921,7476.080014,-7698.141797,1302.362347
1377.657250,6809.894666,-6439.791695,76.609550
1377.657580,7328.038826,-5625.565159,76.609550
1377.657909,8216.285956,-5403.503377,1072.533697
1377.658238,8734.430116,-6217.729913,1685.410096
1377.658568,7624.121203,-6291.750507,2374.896044
1377.658897,6069.688724,-6513.812290,1149.143247
1377.659226,4885.359217,-6587.832884,0.000000
1377.659556,5403.503377,-7105.977043,612.876398
1377.659885,5847.626942,-8068.244768,1455.581446
1377.660214,6217.729913,-7179.997637,1302.362347
1377.660544,6365.771101,-6143.709319,919.314598
1377.660873,7402.059420,-5107.421000,612.876398
1377.661202,9326.594869,-6069.688724,1991.848295
1377.661532,8956.491898,-7031.956449,2757.943793
1377.661861,7550.100608,-7328.038826,1532.190996
1377.662190,5995.668130,-7476.080014,536.266849
1377.662519,5625.565159,-6587.832884,76.609550
1377.662849,7105.977043,-8364.327145,766.095498
1377.663178,7476.080014,-7920.203579,1455.581446
1377.663507,6735.874072,-7402.059420,1455.581446
1377.663837,6217.729913,-7105.977043,153.219100
1377.664166,7254.018232,-2516.700203,383.047749
1377.664495,7846.182985,-5329.482782,919.314598
1377.664825,7846.182985,-7105.977043,842.705048
1377.665154,7031.956449,-6661.853478,1838.629195
1377.665483,6661.853478,-7179.997637,1072.533697
1377.665812,6217.729913,-5995.668130,919.314598
1377.666141,6069.688724,-6809.894666,766.095498
1377.666470,7105.977043,-7179.997637,995.924147
1377.666799,7402.059420,-6143.709319,1225.752797
1377.667128,7254.018232,-6069.688724,1608.800546
1377.667457,7846.182985,-4589.276840,612.876398
1377.667787,8882.471304,-4737.318029,1762.019645
1377.668116,7846.182985,-6069.688724,1838.629195
1377.668445,5995.668130,-6587.832884,842.705048
1377.668774,4737.318029,-7624.121203,76.609550
1377.669103,4959.379811,-7179.997637,689.485948
1377.669432,6069.688724,-8660.409521,995.924147
1377.669761,6957.935855,-7698.141797,1455.581446
1377.670090,6365.771101,-7031.956449,689.485948
1377.670420,5847.626942,-6809.894666,0.000000
1377.670749,6587.832884,-5477.523971,689.485948
1377.671078,7402.059420,-5995.668130,842.705048
1377.671407,7624.121203,-6143.709319,842.705048
1377.671736,7254.018232,-6069.688724,919.314598
1377.672065,6735.874072,-6587.832884,459.657299
1377.672394,8364.327145,-5921.647536,1532.190996
1377.672723,8956.491898,-6439.791695,2757.943793
1377.673053,8734.430116,-5847.626942,1378.971896
1377.673382,7476.080014,-4663.297435,1149.143247
1377.673711,6365.771101,-5699.585753,383.047749
1377.674040,7105.977043,-5921.647536,1225.752797
1377.674369,7550.100608,-7476.080014,1762.019645
1377.674698,6661.853478,-6365.771101,1072.533697
1377.675027,5255.462188,-6661.853478,536.266849
1377.675356,4959.379811,-8364.327145,689.485948
1377.675685,5699.585753,-8734.430116,842.705048
1377.676015,5847.626942,-8290.306550,1302.362347
1377.676344,6143.709319,-7698.141797,1225.752797
1377.676673,6365.771101,-5847.626942,0.000000
1377.677002,7105.977043,-5625.565159,76.609550
1377.677331,8734.430116,-5255.462188,1072.533697
1377.677660,9400.615463,-6365.771101,1608.800546
1377.677989,8660.409521,-6217.729913,1685.410096
1377.678318,7031.956449,-6957.935855,766.095498
1377.678648,6809.894666,-7105.977043,1149.143247
1377.678977,6513.812290,-6291.750507,1072.533697
1377.679306,6661.853478,-7476.080014,1149.143247
1377.679635,7105.977043,-5847.626942,766.095498
1377.679964,6513.812290,-5181.441594,1378.971896
1377.680293,7402.059420,-5329.482782,1455.581446
1377.680622,8364.327145,-5551.544565,1991.848295
1377.680951,7254.018232,-6365.771101,1915.238745
1377.681281,5773.606348,-7179.997637,842.705048
1377.681610,4663.297435,-8142.265362,383.047749
1377.681939,5477.523971,-7105.977043,1378.971896
1377.682268,6883.915261,-7772.162391,1378.971896
1377.682597,8290.306550,-7179.997637,1762.019645
1377.682926,7846.182985,-5033.400406,1608.800546
1377.683255,7105.977043,-5847.626942,919.314598
1377.683584,7328.038826,-5033.400406,459.657299
1377.683913,7624.121203,-5403.503377,1838.629195
1377.684243,7105.977043,-6957.935855,1149.143247
1377.684572,5847.626942,-6735.874072,689.485948
1377.684901,5551.544565,-7179.997637,306.438199
1377.685230,7105.977043,-6957.935855,1149.143247
1377.685559,7772.162391,-7105.977043,1608.800546
1377.685888,7772.162391,-6661.853478,1685.410096
1377.686217,6365.771101,-5255.462188,383.047749
1377.686546,6735.874072,-5551.544565,0.000000
1377.686876,7920.203579,-5995.668130,842.705048
1377.687205,8290.306550,-6439.791695,1991.848295
1377.687534,7920.203579,-7179.997637,1915.238745
1377.687863,6365.771101,-6587.832884,995.924147
1377.688192,5329.482782,-6661.853478,229.828649
1377.688521,6217.729913,-7772.162391,536.266849
1377.688850,6661.853478,-7846.182985,1455.581446
1377.689179,6291.750507,-7031.956449,612.876398
1377.689509,5921.647536,-6291.750507,306.438199
1377.689838,7476.080014,-5403.503377,229.828649
1377.690167,8216.285956,-5255.462188,1455.581446
1377.690496,8660.409521,-7031.956449,1685.410096
1377.690825,7846.182985,-6957.935855,1378.971896
1377.691154,6217.729913,-6809.894666,689.485948
1377.691483,6365.771101,-7179.997637,689.485948
1377.691812,7402.059420,-6439.791695,1302.362347
1377.692142,7476.080014,-7402.059420,1072.533697
1377.692471,6365.771101,-7105.977043,229.828649
1377.692800,5403.503377,-6513.812290,459.657299
1377.693129,6957.935855,-5255.462188,229.828649
1377.693458,8216.285956,-5773.606348,1149.143247
1377.693787,8808.450710,-6957.935855,2221.676944
1377.694116,7772.162391,-5773.606348,1532.190996
1377.694445,6587.832884,-6217.729913,0.000000
1377.694774,6439.791695,-6735.874072,766.095498
1377.695104,7105.977043,-7105.977043,1378.971896
1377.695433,7328.038826,-7254.018232,1225.752797
1377.695762,6291.750507,-6883.915261,1378.971896
1377.696091,6291.750507,-7105.977043,766.095498
1377.696420,7254.018232,-5773.606348,1149.143247
1377.696749,7772.162391,-5995.668130,1149.143247
1377.697078,6809.894666,-7105.977043,1532.190996
1377.697407,5403.503377,-5921.647536,1149.143247
1377.697737,5033.400406,-7105.977043,0.000000
1377.698066,5995.668130,-7254.018232,689.485948
1377.698395,7105.977043,-7328.038826,1762.019645
1377.698724,7402.059420,-7402.059420,1225.752797
1377.699053,6513.812290,-5921.647536,1608.800546
1377.699382,6735.874072,-5921.647536,766.095498
1377.699711,8364.327145,-5625.565159,1378.971896
1377.700040,9178.553681,-5699.585753,2221.676944
1377.700370,7920.203579,-5921.647536,1608.800546
1377.700699,6439.791695,-6069.688724,459.657299
1377.701028,5847.626942,-6217.729913,689.485948
1377.701357,6365.771101,-7402.059420,995.924147
1377.701686,7031.956449,-8438.347739,1838.629195
1377.702015,6735.874072,-7254.018232,1838.629195
1377.702344,6513.812290,-6735.874072,0.000000
1377.702673,5773.606348,-5181.441594,0.000000
1377.703002,7328.038826,-5033.400406,536.266849
1377.703332,8808.450710,-6439.791695,1225.752797
1377.703661,7994.224174,-5995.668130,1685.410096
1377.703990,6513.812290,-7105.977043,919.314598
1377.704319,6513.812290,-7105.977043,995.924147
1377.704648,6957.935855,-6735.874072,1225.752797
1377.704977,7105.977043,-7550.100608,1915.238745
1377.705306,7031.956449,-6587.832884,919.314598
1377.705635,6069.688724,-5329.482782,383.047749
1377.705965,6365.771101,-5033.400406,153.219100
1377.706294,7550.100608,-5995.668130,1608.800546
1377.706623,8142.265362,-5107.421000,1685.410096
1377.706952,7254.018232,-6587.832884,1072.533697
1377.707281,5551.544565,-7624.121203,612.876398
1377.707610,5403.503377,-7402.059420,306.438199
1377.707939,5995.668130,-7698.141797,1072.533697
1377.708268,7105.977043,-7476.080014,1149.143247
1377.708598,7328.038826,-5921.647536,1072.533697
1377.708927,7031.956449,-5551.544565,459.657299
1377.709256,7105.977043,-5625.565159,1225.752797
1377.709585,8142.265362,-4885.359217,1608.800546
1377.709914,8142.265362,-5921.647536,1915.238745
1377.710243,7179.997637,-6217.729913,1072.533697
1377.710572,5773.606348,-6883.915261,459.657299
1377.710901,5551.544565,-8290.306550,1149.143247
1377.711230,7105.977043,-6809.894666,766.095498
1377.711560,7105.977043,-9030.512492,1762.019645
1377.711889,7254.018232,-6661.853478,1072.533697
1377.712218,7031.956449,-5403.503377,306.438199
1377.712547,7698.141797,-5921.647536,766.095498
1377.712876,7994.224174,-6143.709319,1072.533697
1377.713205,7402.059420,-6809.894666,1455.581446
1377.713534,6587.832884,-7105.977043,459.657299
1377.713863,4811.338623,-6957.935855,-306.438199
1377.714193,5107.421000,-7846.182985,0.000000
1377.714522,6143.709319,-8586.388927,459.657299
1377.714851,7179.997637,-7476.080014,1685.410096
1377.715180,7179.997637,-6365.771101,995.924147
1377.715509,7179.997637,-4589.276840,1378.971896
1377.715838,8882.471304,-4811.338623,1532.190996
1377.716167,8068.244768,-5921.647536,1149.143247
1377.716496,7698.141797,-6217.729913,1378.971896
1377.716826,6809.894666,-6661.853478,1072.533697
1377.717155,7402.059420,-6143.709319,1608.800546
1377.717484,7328.038826,-5477.523971,1225.752797
1377.717813,7328.038826,-7772.162391,1991.848295
1377.718142,7105.977043,-6957.935855,1532.190996
1377.718471,6439.791695,-6217.729913,383.047749
1377.718800,5773.606348,-4959.379811,153.219100
1377.719129,6513.812290,-5551.544565,536.266849
1377.719459,7698.141797,-6883.915261,2068.457845
1377.719788,7254.018232,-7254.018232,1685.410096
1377.720117,5995.668130,-6439.791695,536.266849
1377.720446,5773.606348,-6587.832884,76.609550
1377.720775,6809.894666,-6957.935855,919.314598
1377.721104,7994.224174,-7772.162391,2374.896044
1377.721433,7772.162391,-6883.915261,1838.629195
1377.721762,7328.038826,-5477.523971,842.705048
1377.722091,7254.018232,-5033.400406,536.266849
1377.722421,7994.224174,-5107.421000,842.705048
1377.722750,8068.244768,-6217.729913,1378.971896
1377.723079,7031.956449,-5625.565159,153.219100
1377.723408,5255.462188,-6735.874072,153.219100
1377.723737,5477.523971,-7476.080014,306.438199
1377.724066,7031.956449,-7846.182985,1225.752797
1377.724395,7550.100608,-7920.203579,1838.629195
1377.724724,6809.894666,-6883.915261,1608.800546
1377.725054,6291.750507,-4737.318029,229.828649
1377.725383,7550.100608,-5181.441594,383.047749
1377.725712,9178.553681,-6587.832884,2451.505594
1377.726041,9474.636058,-7105.977043,3294.210641
1377.726370,7402.059420,-6661.853478,1378.971896
1377.726699,4441.235652,-5995.668130,229.828649
1377.727028,4293.194464,-7698.141797,-306.438199
1377.727357,5995.668130,-8586.388927,766.095498
1377.727687,6809.894666,-8660.409521,1302.362347
1377.728016,6587.832884,-7179.997637,612.876398
1377.728345,6217.729913,-5477.523971,383.047749
1377.728674,6957.935855,-6143.709319,842.705048
1377.729003,7402.059420,-6291.750507,919.314598
1377.729332,7105.977043,-6735.874072,1149.143247
1377.729661,6291.750507,-6883.915261,229.828649
1377.729990,6143.709319,-7105.977043,229.828649
1377.730319,7476.080014,-6587.832884,1532.190996
1377.730649,9326.594869,-6587.832884,1991.848295
1377.730978,9030.512492,-6587.832884,2681.334243
1377.731307,7105.977043,-4811.338623,1149.143247
1377.731636,6143.709319,-4811.338623,0.000000
1377.731965,6661.853478,-5255.462188,383.047749
1377.732294,7772.162391,-5921.647536,1915.238745
1377.732623,7105.977043,-7105.977043,1072.533697
1377.732952,5477.523971,-7624.121203,995.924147
1377.733282,4515.256246,-8734.430116,383.047749
1377.733611,5477.523971,-8290.306550,1149.143247
1377.733940,6217.729913,-7476.080014,1455.581446
1377.734269,6661.853478,-7105.977043,1149.143247
1377.734598,7254.018232,-5699.585753,1149.143247
1377.734927,7254.018232,-4441.235652,689.485948
1377.735256,8734.430116,-4441.235652,1608.800546
1377.735585,9548.656652,-5107.421000,2451.505594
1377.735915,8364.327145,-5921.647536,2528.115143
1377.736244,6661.853478,-5847.626942,995.924147
1377.736573,4959.379811,-6291.750507,306.438199
1377.736902,5921.647536,-7402.059420,995.924147
1377.737231,7994.224174,-7328.038826,2068.457845
1377.737560,8142.265362,-6291.750507,1838.629195
1377.737889,7402.059420,-5847.626942,1149.143247
1377.738218,7328.038826,-4441.235652,842.705048
1377.738547,7994.224174,-4811.338623,1149.143247
1377.738877,8216.285956,-6217.729913,1608.800546
1377.739206,7105.977043,-6513.812290,1685.410096
1377.739535,6143.709319,-6809.894666,689.485948
1377.739864,5625.565159,-8068.244768,76.609550
1377.740193,6069.688724,-8216.285956,1149.143247
1377.740522,6957.935855,-7624.121203,1685.410096
1377.740851,7031.956449,-7254.018232,919.314598
1377.741180,6365.771101,-6217.729913,1149.143247
1377.741510,6809.894666,-5625.565159,306.438199
1377.741839,7031.956449,-6735.874072,0.000000
1377.742168,6661.853478,-7105.977043,306.438199
1377.742497,5995.668130,-7920.203579,0.000000
1377.742826,5995.668130,-7772.162391,1072.533697
1377.743155,6439.791695,-7994.224174,995.924147
1377.743484,7031.956449,-7698.141797,919.314598
1377.743813,7476.080014,-7698.141797,995.924147
1377.744143,6513.812290,-5995.668130,0.000000
1377.744472,6069.688724,-5551.544565,-383.047749
1377.744801,7105.977043,-5625.565159,459.657299
1377.745130,8512.368333,-5847.626942,842.705048
1377.745459,8290.306550,-6809.894666,1762.019645
1377.745788,7254.018232,-6661.853478,2451.505594
1377.746117,6957.935855,-6587.832884,612.876398
1377.746446,6809.894666,-6587.832884,1072.533697
1377.746776,7105.977043,-7105.977043,1762.019645
1377.747105,7328.038826,-6513.812290,995.924147
1377.747434,6587.832884,-4811.338623,842.705048
1377.747763,6439.791695,-4885.359217,536.266849
1377.748092,7254.018232,-5329.482782,459.657299
1377.748421,7624.121203,-5921.647536,995.924147
1377.748750,7105.977043,-7179.997637,1378.971896
1377.749079,6513.812290,-7105.977043,1225.752797
1377.749408,6587.832884,-6069.688724,459.657299
1377.749738,6809.894666,-6069.688724,919.314598
1377.750067,7550.100608,-7698.141797,1455.581446
1377.750396,8512.368333,-6809.894666,2068.457845
1377.750725,8216.285956,-5847.626942,1072.533697
1377.751054,7624.121203,-5773.606348,1072.533697
1377.751383,8364.327145,-5625.565159,1838.629195
1377.751712,8660.409521,-6513.812290,1455.581446
1377.752041,6513.812290,-7105.977043,1225.752797
1377.752371,4737.318029,-7105.977043,0.000000
1377.752700,4737.318029,-7402.059420,-229.828649
1377.753029,5625.565159,-7698.141797,612.876398
1377.753358,6809.894666,-8956.491898,2068.457845
1377.753687,7105.977043,-7179.997637,1302.362347
1377.754016,6217.729913,-5773.606348,383.047749
1377.754345,6439.791695,-5181.441594,306.438199
1377.754674,8068.244768,-4737.318029,1302.362347
1377.755004,8808.450710,-5995.668130,2451.505594
1377.755333,7994.224174,-5847.626942,1685.410096
1377.755662,6439.791695,-6291.750507,842.705048
1377.755991,6291.750507,-6291.750507,1225.752797
1377.756320,6957.935855,-6661.853478,1378.971896
1377.756649,7031.956449,-7624.121203,1915.238745
1377.756978,6365.771101,-6661.853478,1455.581446
1377.757307,5329.482782,-6587.832884,0.000000
1377.757636,5551.544565,-5551.544565,0.000000
1377.757966,7105.977043,-5847.626942,842.705048
1377.758295,8068.244768,-7920.203579,1915.238745
1377.758624,7624.121203,-6957.935855,1302.362347
1377.758953,5773.606348,-6365.771101,0.000000
1377.759282,5773.606348,-6291.750507,0.000000
1377.759611,7105.977043,-7105.977043,1302.362347
1377.759940,8142.265362,-8142.265362,2298.286494
1377.760269,7920.203579,-6069.688724,1838.629195
1377.760599,6735.874072,-4293.194464,842.705048
1377.760928,8882.471304,-4737.318029,995.924147
1377.761257,8660.409521,-5181.441594,1838.629195
1377.761586,8364.327145,-6291.750507,2145.067394
1377.761915,6957.935855,-6365.771101,995.924147
1377.762244,5625.565159,-6661.853478,459.657299
1377.762573,5477.523971,-7476.080014,0.000000
1377.762902,5995.668130,-8364.327145,1072.533697
1377.763232,6513.812290,-8290.306550,1149.143247
1377.763561,6365.771101,-6661.853478,459.657299
1377.763890,6513.812290,-6735.874072,0.000000
1377.764219,7994.224174,-6069.688724,1072.533697
1377.764548,8586.388927,-6809.894666,1225.752797
1377.764877,7105.977043,-7179.997637,1685.410096
1377.765206,5625.565159,-7179.997637,459.657299
1377.765535,4663.297435,-7624.121203,0.000000
1377.765864,5921.647536,-7402.059420,612.876398
1377.766193,7105.977043,-8216.285956,1762.019645
1377.766522,7698.141797,-7772.162391,2068.457845
1377.766851,7105.977043,-5181.441594,1149.143247
1377.767180,6217.729913,-4663.297435,0.000000
1377.767509,7476.080014,-3997.112087,383.047749
1377.767838,8290.306550,-5477.523971,1455.581446
1377.768167,8216.285956,-5773.606348,1915.238745
1377.768496,7105.977043,-6513.812290,1455.581446
1377.768825,5995.668130,-6365.771101,766.095498
1377.769154,6735.874072,-5625.565159,1149.143247
1377.769483,7476.080014,-7402.059420,1838.629195
1377.769812,7550.100608,-6439.791695,1685.410096
1377.770141,7254.018232,-4885.359217,919.314598
1377.770470,7328.038826,-5329.482782,1302.362347
1377.770799,8364.327145,-5181.441594,1608.800546
1377.771128,8290.306550,-6735.874072,1608.800546
1377.771457,7105.977043,-6809.894666,1378.971896
1377.771786,5033.400406,-7476.080014,0.000000
1377.772115,5033.400406,-7772.162391,306.438199
1377.772445,5847.626942,-7476.080014,842.705048
1377.772774,6439.791695,-8586.388927,689.485948
1377.773103,6513.812290,-6587.832884,306.438199
1377.773432,6587.832884,-6735.874072,459.657299
1377.773761,7846.182985,-5773.606348,689.485948
1377.774090,8290.306550,-5921.647536,1455.581446
1377.774419,7994.224174,-6069.688724,1225.752797
1377.774748,7105.977043,-4959.379811,612.876398
1377.775077,6291.750507,-6587.832884,689.485948
1377.775406,7105.977043,-6587.832884,995.924147
1377.775735,8808.450710,-6143.709319,1532.190996
1377.776064,9178.553681,-6957.935855,2068.457845
1377.776393,7772.162391,-5699.585753,1608.800546
1377.776722,6217.729913,-6883.915261,536.266849
1377.777051,5995.668130,-6217.729913,536.266849
1377.777380,6217.729913,-7624.121203,536.266849
1377.777709,6883.915261,-7994.224174,1225.752797
1377.778038,5625.565159,-7476.080014,1072.533697
1377.778367,4367.215058,-8956.491898,-459.657299
1377.778696,4589.276840,-7698.141797,-229.828649
1377.779025,5921.647536,-8586.388927,842.705048
1377.779354,7105.977043,-7846.182985,1225.752797
1377.779683,7402.059420,-5033.400406,1378.971896
1377.780012,7624.121203,-5699.585753,1149.143247
1377.780341,8808.450710,-3775.050304,1225.752797
1377.780670,9030.512492,-5329.482782,1225.752797
1377.780999,7920.203579,-4959.379811,919.314598
1377.781328,6661.853478,-5847.626942,536.266849
1377.781658,6513.812290,-6291.750507,842.705048
1377.781987,7254.018232,-5995.668130,1072.533697
1377.782316,7328.038826,-7846.182985,2528.115143
1377.782645,7105.977043,-6661.853478,2068.457845
1377.782974,5995.668130,-5625.565159,689.485948
1377.783303,5625.565159,-5329.482782,153.219100
1377.783632,7105.977043,-4959.379811,689.485948
1377.783961,7920.203579,-6587.832884,1838.629195
1377.784290,7031.956449,-7920.203579,2068.457845
1377.784619,5403.503377,-7031.956449,1225.752797
1377.784948,5995.668130,-6661.853478,383.047749
1377.785277,6957.935855,-6661.853478,1991.848295
1377.785606,7254.018232,-8216.285956,1685.410096
1377.785935,7105.977043,-6809.894666,1302.362347
1377.786264,6587.832884,-6069.688724,612.876398
1377.786593,7402.059420,-6217.729913,229.828649
1377.786922,8068.244768,-5329.482782,1302.362347
1377.787251,7846.182985,-6809.894666,1225.752797
1377.787580,7179.997637,-6883.915261,842.705048
1377.787909,5625.565159,-7031.956449,536.266849
1377.788238,6513.812290,-7402.059420,919.314598
1377.788567,7254.018232,-6661.853478,306.438199
1377.788896,7920.203579,-7105.977043,1532.190996
1377.789225,7476.080014,-6069.688724,995.924147
1377.789554,6957.935855,-4959.379811,306.438199
1377.789883,7550.100608,-5107.421000,766.095498
1377.790212,8808.450710,-6143.709319,1532.190996
1377.790541,8512.368333,-6661.853478,2528.115143
1377.790871,6661.853478,-7105.977043,612.876398
1377.791200,5255.462188,-7402.059420,229.828649
1377.791529,5107.421000,-7994.224174,306.438199
1377.791858,5921.647536,-9252.574275,842.705048
1377.792187,6587.832884,-8364.327145,1225.752797
1377.792516,6439.791695,-7031.956449,689.485948
1377.792845,6439.791695,-6217.729913,153.219100
1377.793174,6957.935855,-5551.544565,689.485948
1377.793503,7772.162391,-6143.709319,1455.581446
1377.793832,7772.162391,-6291.750507,1225.752797
1377.794161,6587.832884,-5699.585753,766.095498
1377.794490,5181.441594,-7105.977043,306.438199
1377.794819,6513.812290,-7846.182985,689.485948
1377.795148,7031.956449,-9252.574275,2068.457845
1377.795477,6661.853478,-8734.430116,1302.362347
1377.795806,6291.750507,-7772.162391,536.266849
1377.796135,5403.503377,-7179.997637,306.438199
1377.796464,5699.585753,-7105.977043,229.828649
1377.796793,6217.729913,-7476.080014,842.705048
1377.797122,5847.626942,-7550.100608,1225.752797
1377.797451,5255.462188,-8290.306550,689.485948
1377.797780,4737.318029,-7994.224174,306.438199
1377.798109,4663.297435,-8068.244768,0.000000
1377.798438,5181.441594,-9326.594869,1072.533697
1377.798767,5995.668130,-9622.677246,1149.143247
1377.799096,5773.606348,-8068.244768,1762.019645
1377.799425,6217.729913,-6143.709319,1762.019645
1377.799754,7550.100608,-4589.276840,2221.676944
1377.800084,8956.491898,-3627.009116,2911.162892
1377.800413,8142.265362,-4737.318029,3064.381992
1377.800742,7328.038826,-4959.379811,2298.286494
1377.801071,5921.647536,-6143.709319,1532.190996
1377.801400,5773.606348,-7105.977043,612.876398
1377.801729,4737.318029,-9252.574275,76.609550
1377.802058,3701.029710,-12139.377449,689.485948
1377.802387,2960.823768,-12213.398043,383.047749
1377.802716,2886.803174,-10807.006753,-383.047749
1377.803045,4441.235652,-9252.574275,0.000000
1377.803374,5551.544565,-7994.224174,0.000000
1377.803703,5403.503377,-9770.718434,842.705048
1377.804032,4441.235652,-9918.759623,1685.410096
1377.804361,3404.947333,-10362.883188,1302.362347
1377.804690,3256.906145,-8512.368333,919.314598
1377.805019,3627.009116,-8660.409521,919.314598
1377.805348,4663.297435,-8586.388927,1762.019645
1377.805677,5329.482782,-8808.450710,2834.553343
1377.806006,5699.585753,-8142.265362,3064.381992
1377.806335,5403.503377,-4515.256246,2221.676944
1377.806664,6069.688724,-4219.173869,459.657299
1377.806993,5551.544565,-5921.647536,383.047749
1377.807322,4663.297435,-9326.594869,612.876398
1377.807651,4145.153275,-11251.130318,919.314598
1377.807980,4589.276840,-10584.944971,1762.019645
1377.808309,4663.297435,-9696.697840,383.047749
1377.808638,5477.523971,-9622.677246,842.705048
1377.808967,4737.318029,-9844.739029,689.485948
1377.809297,4515.256246,-11621.233289,612.876398
1377.809626,3256.906145,-10807.006753,306.438199
1377.809955,3108.864956,-9400.615463,0.000000
1377.810284,3997.112087,-8512.368333,0.000000
1377.810613,4885.359217,-8438.347739,1225.752797
1377.810942,5847.626942,-8142.265362,2145.067394
1377.811271,6957.935855,-8142.265362,2374.896044
1377.811600,7105.977043,-6217.729913,2757.943793
1377.811929,7624.121203,-5033.400406,2145.067394
1377.812258,6661.853478,-4885.359217,1838.629195
1377.812587,5551.544565,-7624.121203,842.705048
1377.812916,3997.112087,-10214.842000,1072.533697
1377.813245,3923.091493,-10214.842000,689.485948
1377.813574,4219.173869,-9104.533087,995.924147
1377.813903,3478.967927,-9918.759623,536.266849
1377.814232,3923.091493,-11399.171507,995.924147
1377.814561,3775.050304,-11917.315666,1838.629195
1377.814890,3849.070898,-9252.574275,842.705048
1377.815219,4219.173869,-6513.812290,229.828649
1377.815548,4885.359217,-5847.626942,1149.143247
1377.815877,6365.771101,-5921.647536,1302.362347
1377.816206,6513.812290,-6809.894666,1532.190996
1377.816535,6587.832884,-7624.121203,1149.143247
1377.816864,6883.915261,-8216.285956,689.485948
1377.817193,6217.729913,-8808.450710,1455.581446
1377.817522,5329.482782,-9474.636058,995.924147
1377.817851,4219.173869,-10140.821405,766.095498
1377.818180,3034.844362,-10955.047942,229.828649
1377.818509,2516.700203,-11177.109724,-76.609550
1377.818839,3182.885551,-9918.759623,383.047749
1377.819168,4737.318029,-9252.574275,1532.190996
1377.819497,5847.626942,-8438.347739,1991.848295
1377.819826,5625.565159,-6809.894666,2987.772442
1377.820155,5995.668130,-5699.585753,2604.724693
1377.820484,6143.709319,-4737.318029,1991.848295
1377.820813,6217.729913,-4441.235652,2068.457845
1377.821142,5921.647536,-5625.565159,1225.752797
1377.821471,5773.606348,-7179.997637,306.438199
1377.821800,5255.462188,-8660.409521,536.266849
1377.822129,5107.421000,-10807.006753,459.657299
1377.822458,5181.441594,-10732.986159,0.000000
1377.822787,4367.215058,-11547.212695,1225.752797
1377.823116,4071.132681,-12509.480420,229.828649
1377.823445,3404.947333,-12139.377449,842.705048
1377.823774,2886.803174,-11473.192101,459.657299
1377.824103,2368.659014,-11473.192101,-306.438199
1377.824432,3034.844362,-10584.944971,1149.143247
1377.824761,3330.926739,-9326.594869,1455.581446
1377.825090,4811.338623,-7772.162391,2451.505594
1377.825419,7105.977043,-4589.276840,2604.724693
1377.825748,7920.203579,-3627.009116,2604.724693
1377.826077,7698.141797,-2960.823768,2298.286494
1377.826406,7105.977043,-4071.132681,1455.581446
1377.826735,6217.729913,-5329.482782,459.657299
1377.827064,4441.235652,-8216.285956,229.828649
1377.827393,3849.070898,-11621.233289,1149.143247
1377.827722,3701.029710,-14508.036463,1532.190996
1377.828052,3997.112087,-14434.015869,1455.581446
1377.828381,4145.153275,-13175.665768,1378.971896
1377.828710,3997.112087,-11029.068536,1378.971896
1377.829039,4219.173869,-9326.594869,1225.752797
1377.829368,3034.844362,-7920.203579,536.266849
1377.829697,2886.803174,-7105.977043,229.828649
1377.830026,3404.947333,-6883.915261,842.705048
1377.830355,4219.173869,-6365.771101,919.314598
1377.830684,5773.606348,-5847.626942,919.314598
1377.831013,6883.915261,-5921.647536,1532.190996
1377.831342,7105.977043,-6069.688724,766.095498
1377.831671,6809.894666,-7994.224174,1225.752797
1377.832000,6661.853478,-8142.265362,689.485948
1377.832329,5403.503377,-11103.089130,612.876398
1377.832658,4811.338623,-11769.274478,1455.581446
1377.832987,4885.359217,-12287.418637,2145.067394
1377.833316,4885.359217,-11695.253884,2298.286494
1377.833645,4885.359217,-8808.450710,2221.676944
1377.833974,5477.523971,-7254.018232,2145.067394
1377.834303,5773.606348,-6217.729913,2451.505594
1377.834632,5551.544565,-5477.523971,2757.943793
1377.834961,5847.626942,-5181.441594,2528.115143
1377.835290,5551.544565,-4663.297435,1378.971896
1377.835619,5329.482782,-5181.441594,1685.410096
1377.835948,5255.462188,-7105.977043,1685.410096
1377.836277,5921.647536,-8290.306550,2145.067394
1377.836606,6587.832884,-10362.883188,2451.505594
1377.836935,5403.503377,-10881.027347,2068.457845
1377.837265,4663.297435,-11547.212695,2451.505594
1377.837594,4663.297435,-11251.130318,2374.896044
1377.837923,5403.503377,-9548.656652,2757.943793
1377.838252,6217.729913,-7772.162391,3753.867940
1377.838581,6513.812290,-6439.791695,3600.648841
1377.838910,6661.853478,-5699.585753,3064.381992
1377.839239,6883.915261,-4737.318029,3140.991542
1377.839568,7105.977043,-5033.400406,2145.067394
1377.839897,6217.729913,-5625.565159,1991.848295
1377.840226,5847.626942,-6809.894666,2145.067394
1377.840555,6439.791695,-7402.059420,2834.553343
1377.840884,6439.791695,-7846.182985,3294.210641
1377.841213,6957.935855,-8142.265362,3677.258390
1377.841542,6661.853478,-8512.368333,3753.867940
1377.841871,6291.750507,-8660.409521,4060.306139
1377.842200,6439.791695,-8068.244768,4136.915689
1377.842529,7179.997637,-6513.812290,4749.792088
1377.842858,7846.182985,-5107.421000,4596.572988
1377.843187,7624.121203,-4293.194464,4290.134789
1377.843516,7624.121203,-4441.235652,4596.572988
1377.843845,7476.080014,-4219.173869,4673.182538
1377.844174,7105.977043,-4515.256246,3830.477490
1377.844503,5995.668130,-5551.544565,4136.915689
1377.844832,6217.729913,-6735.874072,3830.477490
1377.845161,6587.832884,-7846.182985,3677.258390
1377.845490,6069.688724,-8142.265362,3753.867940
1377.845819,6143.709319,-9844.739029,4136.915689
1377.846148,5477.523971,-9622.677246,3907.087040
1377.846478,4589.276840,-9992.780217,3447.429741
1377.846807,3997.112087,-9548.656652,3600.648841
1377.847136,4589.276840,-9104.533087,4596.572988
1377.847465,5773.606348,-7254.018232,4519.963438
1377.847794,6883.915261,-5921.647536,4979.620737
1377.848123,8216.285956,-4589.276840,6052.154434
1377.848452,8956.491898,-3701.029710,6205.373534
1377.848781,8438.347739,-3108.864956,5669.106685
1377.849110,7772.162391,-2960.823768,4903.011187
1377.849439,7920.203579,-3923.091493,4596.572988
1377.849768,8660.409521,-4589.276840,4443.353888
1377.850097,9178.553681,-5551.544565,5592.497135
1377.850426,8882.471304,-6143.709319,5439.278036
1377.850755,8808.450710,-7105.977043,4596.572988
1377.851084,7179.997637,-8068.244768,4903.011187
1377.851413,6069.688724,-9030.512492,4290.134789
1377.851742,5033.400406,-9474.636058,3983.696590
1377.852071,3775.050304,-9844.739029,3600.648841
1377.852400,3034.844362,-9474.636058,3217.601092
1377.852729,3108.864956,-9474.636058,3524.039291
1377.853058,3552.988522,-7698.141797,3907.087040
1377.853387,4737.318029,-7105.977043,3217.601092
1377.853716,6883.915261,-5329.482782,4290.134789
1377.854045,8216.285956,-3775.050304,5056.230287
1377.854374,9548.656652,-3775.050304,5209.449386
1377.854703,10140.821405,-2146.597232,5975.544884
1377.855032,10288.862594,-3330.926739,4826.401637
1377.855361,9326.594869,-4515.256246,4366.744339
1377.855691,7846.182985,-6365.771101,4213.525239
1377.856020,7179.997637,-7550.100608,3600.648841
1377.856349,5699.585753,-8290.306550,2681.334243
1377.856678,4811.338623,-9252.574275,2604.724693
1377.857007,4737.318029,-9252.574275,3140.991542
1377.857336,5477.523971,-8882.471304,3677.258390
1377.857665,5551.544565,-7402.059420,4673.182538
1377.857994,6217.729913,-5625.565159,3907.087040
1377.858323,7698.141797,-4367.215058,4213.525239
1377.858652,8882.471304,-4219.173869,4749.792088
1377.858981,9474.636058,-5033.400406,4213.525239
1377.859310,9104.533087,-4441.235652,3600.648841
1377.859639,7476.080014,-6291.750507,2451.505594
1377.859968,6291.750507,-7179.997637,2374.896044
1377.860297,5551.544565,-7994.224174,2604.724693
1377.860626,5625.565159,-8808.450710,2757.943793
1377.860955,6735.874072,-8364.327145,4136.915689
1377.861284,6957.935855,-7994.224174,4596.572988
1377.861613,7550.100608,-6661.853478,4519.963438
1377.861942,7772.162391,-6439.791695,4673.182538
1377.862271,7994.224174,-5847.626942,4826.401637
1377.862600,7624.121203,-4959.379811,3140.991542
1377.862929,7254.018232,-4515.256246,3677.258390
1377.863258,7994.224174,-3330.926739,3677.258390
1377.863587,8438.347739,-3849.070898,3677.258390
1377.863916,8882.471304,-4515.256246,4290.134789
1377.864245,8216.285956,-5847.626942,3907.087040
1377.864574,7254.018232,-7179.997637,3447.429741
1377.864903,6365.771101,-9474.636058,3524.039291
1377.865233,4737.318029,-10658.965565,3524.039291
1377.865562,4071.132681,-10881.027347,3447.429741
1377.865891,3034.844362,-9400.615463,2834.553343
1377.866220,3256.906145,-7846.182985,2451.505594
1377.866549,5033.400406,-5921.647536,3064.381992
1377.866878,7031.956449,-5329.482782,3907.087040
1377.867207,8290.306550,-5181.441594,5132.839837
1377.867536,8808.450710,-4145.153275,5975.544884
1377.867865,9030.512492,-3775.050304,5056.230287
1377.868194,9548.656652,-3034.844362,4903.011187
1377.868523,9918.759623,-2590.720797,4596.572988
1377.868852,9918.759623,-4663.297435,4673.182538
1377.869181,8882.471304,-6069.688724,4213.525239
1377.869510,6883.915261,-7105.977043,3217.601092
1377.869840,4959.379811,-9844.739029,2681.334243
1377.870169,3775.050304,-11325.150913,2528.115143
1377.870498,2960.823768,-11399.171507,4290.134789
1377.870827,2960.823768,-10732.986159,3064.381992
1377.871156,3552.988522,-8586.388927,3677.258390
1377.871485,5033.400406,-6291.750507,2834.553343
1377.871814,7328.038826,-5551.544565,4673.182538
1377.872143,9178.553681,-3997.112087,5745.716235
1377.872472,9918.759623,-3034.844362,5745.716235
1377.872801,9844.739029,-1702.473667,5745.716235
1377.873130,9992.780217,-1850.514855,4903.011187
1377.873459,9252.574275,-3034.844362,4136.915689
1377.873788,7550.100608,-5699.585753,3983.696590
1377.874118,7772.162391,-7698.141797,3677.258390
1377.874447,7476.080014,-8142.265362,3294.210641
1377.874776,7105.977043,-8808.450710,3140.991542
1377.875105,6291.750507,-9548.656652,2681.334243
1377.875434,5033.400406,-9178.553681,1762.019645
1377.875763,3775.050304,-8290.306550,1149.143247
1377.876092,3849.070898,-7698.141797,1225.752797
1377.876421,5625.565159,-6513.812290,2681.334243
1377.876750,7328.038826,-5477.523971,3677.258390
1377.877079,8290.306550,-5181.441594,3294.210641
1377.877408,8290.306550,-4737.318029,4519.963438
1377.877737,8734.430116,-4811.338623,3983.696590
1377.878066,8882.471304,-4885.359217,3907.087040
1377.878395,8660.409521,-4737.318029,3447.429741
1377.878725,7550.100608,-4737.318029,2374.896044
1377.879054,6291.750507,-5181.441594,2221.676944
1377.879383,5847.626942,-7254.018232,1915.238745
1377.879712,6439.791695,-8956.491898,1915.238745
1377.880041,7105.977043,-9252.574275,2451.505594
1377.880370,6809.894666,-7846.182985,2451.505594
1377.880699,5477.523971,-7550.100608,1149.143247
1377.881028,4737.318029,-8068.244768,842.705048
1377.881357,4885.359217,-7105.977043,1225.752797
1377.881686,6513.812290,-6439.791695,1149.143247
1377.882015,7994.224174,-4071.132681,1532.190996
1377.882344,8290.306550,-3701.029710,1762.019645
1377.882673,8512.368333,-4367.215058,919.314598
1377.883003,7846.182985,-5847.626942,1685.410096
1377.883332,8290.306550,-6587.832884,1455.581446
1377.883661,9326.594869,-6809.894666,1532.190996
1377.883990,7846.182985,-7624.121203,919.314598
1377.884319,5329.482782,-8808.450710,0.000000
1377.884648,4071.132681,-10436.903782,0.000000
1377.884977,4663.297435,-10214.842000,1685.410096
1377.885306,6291.750507,-7846.182985,1302.362347
1377.885635,7698.141797,-5477.523971,995.924147
1377.885964,7328.038826,-4515.256246,766.095498
1377.886293,6439.791695,-4589.276840,0.000000
1377.886622,6661.853478,-5181.441594,919.314598
1377.886951,7994.224174,-4293.194464,1072.533697
1377.887280,8734.430116,-5921.647536,1838.629195
1377.887610,8438.347739,-5625.565159,1762.019645
1377.887939,6735.874072,-6883.915261,153.219100
1377.888268,5773.606348,-9252.574275,0.000000
1377.888597,5995.668130,-7402.059420,-306.438199
1377.888926,6809.894666,-7105.977043,-689.485948
1377.889255,6661.853478,-6587.832884,-766.095498
1377.889584,6513.812290,-7698.141797,612.876398
1377.889913,7254.018232,-8660.409521,1149.143247
1377.890242,7476.080014,-8216.285956,1685.410096
1377.890571,7031.956449,-6957.935855,1225.752797
1377.890900,6587.832884,-5847.626942,1149.143247
1377.891229,6217.729913,-5847.626942,842.705048
1377.891558,6513.812290,-6513.812290,2068.457845
1377.891888,7920.203579,-4811.338623,2451.505594
1377.892217,9400.615463,-3404.947333,2068.457845
1377.892546,9622.677246,-2738.761985,1532.190996
1377.892875,8586.388927,-5107.421000,1685.410096
1377.893204,7328.038826,-8068.244768,1762.019645
1377.893533,6513.812290,-7772.162391,995.924147
1377.893862,5699.585753,-7698.141797,-76.609550
1377.894191,5847.626942,-8068.244768,0.000000
1377.894520,5921.647536,-9474.636058,229.828649
1377.894849,5995.668130,-9030.512492,612.876398
1377.895178,6291.750507,-7031.956449,612.876398
1377.895507,6513.812290,-5625.565159,995.924147
1377.895836,7105.977043,-4737.318029,229.828649
1377.896165,7402.059420,-6217.729913,1915.238745
1377.896495,8290.306550,-6143.709319,2528.115143
1377.896824,8364.327145,-4959.379811,2757.943793
1377.897153,7105.977043,-5181.441594,2604.724693
1377.897482,7179.997637,-6143.709319,2145.067394
1377.897811,6809.894666,-7994.224174,1915.238745
1377.898140,6143.709319,-7624.121203,919.314598
1377.898469,5477.523971,-6661.853478,689.485948
1377.898798,6143.709319,-5255.462188,229.828649
1377.899127,7179.997637,-5551.544565,229.828649
1377.899456,6809.894666,-6957.935855,1455.581446
1377.899785,6809.894666,-7031.956449,2374.896044
1377.900114,6883.915261,-7328.038826,1455.581446
1377.900443,6217.729913,-7254.018232,1302.362347
1377.900772,6513.812290,-6883.915261,1685.410096
1377.901102,7624.121203,-7031.956449,1302.362347
1377.901431,7328.038826,-5921.647536,1915.238745
1377.901760,6809.894666,-4589.276840,306.438199
1377.902089,6513.812290,-4885.359217,229.828649
1377.902418,7550.100608,-6069.688724,1225.752797
1377.902747,7476.080014,-7994.224174,1991.848295
1377.903076,6957.935855,-7698.141797,2451.505594
1377.903405,6735.874072,-8808.450710,1455.581446
1377.903734,6439.791695,-7994.224174,1149.143247
1377.904063,6143.709319,-7105.977043,995.924147
1377.904392,6143.709319,-8068.244768,689.485948
1377.904721,5625.565159,-6513.812290,1225.752797
1377.905050,6143.709319,-5181.441594,76.609550
1377.905380,7031.956449,-4589.276840,-153.219100
1377.905709,8068.244768,-4737.318029,1225.752797
1377.906038,8808.450710,-5847.626942,2451.505594
1377.906367,8808.450710,-6291.750507,1838.629195
1377.906696,7772.162391,-6069.688724,1762.019645
1377.907025,7402.059420,-6291.750507,766.095498
1377.907354,7254.018232,-7254.018232,842.705048
1377.907683,6883.915261,-7550.100608,995.924147
1377.908012,6883.915261,-6513.812290,0.000000
1377.908341,6809.894666,-6291.750507,-459.657299
1377.908670,7105.977043,-5773.606348,-306.438199
1377.908999,7031.956449,-7179.997637,383.047749
1377.909328,7328.038826,-8290.306550,1455.581446
1377.909657,7402.059420,-7550.100608,1991.848295
1377.909987,7179.997637,-6957.935855,1149.143247
1377.910316,6365.771101,-6735.874072,689.485948
1377.910645,6069.688724,-6883.915261,995.924147
1377.910974,6217.729913,-6217.729913,76.609550
1377.911303,6217.729913,-4441.235652,306.438199
1377.911632,7179.997637,-4441.235652,995.924147
1377.911961,8364.327145,-4663.297435,536.266849
1377.912290,8142.265362,-6513.812290,2451.505594
1377.912619,7920.203579,-7920.203579,2528.115143
1377.912948,7550.100608,-7698.141797,1608.800546
1377.913277,5921.647536,-6291.750507,-153.219100
1377.913606,5107.421000,-6957.935855,-1072.533697
1377.913935,5329.482782,-7179.997637,0.000000
1377.914265,6587.832884,-7105.977043,153.219100
1377.914594,7179.997637,-6291.750507,689.485948
1377.914923,7328.038826,-5551.544565,995.924147
1377.915252,7402.059420,-6291.750507,1149.143247
1377.915581,7105.977043,-7846.182985,1532.190996
1377.915910,6661.853478,-7772.162391,2068.457845
1377.916239,6587.832884,-7105.977043,1608.800546
1377.916568,6661.853478,-6513.812290,1149.143247
1377.916897,5329.482782,-5625.565159,766.095498
1377.917226,5181.441594,-7105.977043,612.876398
1377.917555,5921.647536,-7105.977043,842.705048
1377.917884,6365.771101,-6365.771101,842.705048
1377.918213,7402.059420,-6217.729913,306.438199
1377.918542,8216.285956,-5847.626942,1225.752797
1377.918872,7994.224174,-7105.977043,1838.629195
1377.919201,7550.100608,-7328.038826,1302.362347
1377.919530,6883.915261,-7179.997637,689.485948
1377.919859,6809.894666,-6365.771101,-536.266849
1377.920188,6883.915261,-7402.059420,0.000000
1377.920517,7402.059420,-7179.997637,536.266849
1377.920846,7772.162391,-6809.894666,766.095498
1377.921175,8216.285956,-5847.626942,1608.800546
1377.921504,8438.347739,-4811.338623,1302.362347
1377.921833,8142.265362,-5033.400406,1455.581446
1377.922162,7550.100608,-6661.853478,1991.848295
1377.922491,7105.977043,-6809.894666,2374.896044
1377.922820,6291.750507,-6735.874072,1302.362347
1377.923150,5773.606348,-5921.647536,383.047749
1377.923479,5699.585753,-7624.121203,766.095498
1377.923808,5921.647536,-7698.141797,1378.971896
1377.924137,6513.812290,-6143.709319,1149.143247
1377.924466,7105.977043,-5625.565159,1455.581446
1377.924795,8364.327145,-4885.359217,766.095498
1377.925124,7920.203579,-6513.812290,1838.629195
1377.925453,7476.080014,-7698.141797,1991.848295
1377.925782,7254.018232,-6809.894666,1838.629195
1377.926111,6291.750507,-5477.523971,306.438199
1377.926440,5995.668130,-5551.544565,-229.828649
1377.926769,6069.688724,-7624.121203,766.095498
1377.927098,6439.791695,-7624.121203,995.924147
1377.927427,6587.832884,-6069.688724,459.657299
1377.927757,7105.977043,-5403.503377,919.314598
1377.928086,8364.327145,-5847.626942,1762.019645
1377.928415,8586.388927,-7254.018232,2298.286494
1377.928744,7254.018232,-7846.182985,3064.381992
1377.929073,5995.668130,-6661.853478,1455.581446
1377.929402,5255.462188,-5181.441594,-306.438199
1377.929731,4441.235652,-5995.668130,-306.438199
1377.930060,4885.359217,-8808.450710,1455.581446
1377.930389,6513.812290,-7698.141797,1685.410096
1377.930718,6809.894666,-6143.709319,1915.238745
1377.931047,6883.915261,-4737.318029,919.314598
1377.931376,7402.059420,-4663.297435,1225.752797
1377.931705,7550.100608,-6661.853478,1838.629195
1377.932035,7031.956449,-7031.956449,842.705048
1377.932364,6217.729913,-6809.894666,689.485948
1377.932693,6365.771101,-6809.894666,0.000000
1377.933022,6661.853478,-7920.203579,0.000000
1377.933351,7402.059420,-8512.368333,1915.238745
1377.933680,7846.182985,-8438.347739,1149.143247
1377.934009,7994.224174,-6291.750507,459.657299
1377.934338,7179.997637,-5625.565159,306.438199
1377.934667,7402.059420,-5995.668130,383.047749
1377.934996,7920.203579,-5699.585753,766.095498
1377.935325,8068.244768,-6291.750507,1608.800546
1377.935654,7105.977043,-6143.709319,536.266849
1377.935983,6735.874072,-6365.771101,842.705048
1377.936312,6957.935855,-6143.709319,766.095498
1377.936642,6587.832884,-7179.997637,1302.362347
1377.936971,7105.977043,-7105.977043,1915.238745
1377.937300,7476.080014,-5033.400406,612.876398
1377.937629,7624.121203,-5699.585753,766.095498
1377.937958,7920.203579,-5847.626942,842.705048
1377.938287,6957.935855,-6513.812290,1378.971896
1377.938616,6957.935855,-7031.956449,1225.752797
1377.938945,6217.729913,-7031.956449,689.485948
1377.939274,6291.750507,-7994.224174,919.314598
1377.939603,7031.956449,-6883.915261,306.438199
1377.939932,6883.915261,-7476.080014,919.314598
1377.940261,6883.915261,-5699.585753,229.828649
1377.940590,7105.977043,-3923.091493,306.438199
1377.940919,7105.977043,-3552.988522,-383.047749
1377.941249,7402.059420,-5181.441594,459.657299
1377.941578,7476.080014,-7105.977043,2451.505594
1377.941907,7476.080014,-7476.080014,1838.629195
1377.942236,6365.771101,-6513.812290,1302.362347
1377.942565,5625.565159,-5773.606348,0.000000
1377.942894,5847.626942,-7846.182985,229.828649
1377.943223,6809.894666,-8438.347739,2374.896044
1377.943552,7179.997637,-6809.894666,2145.067394
1377.943881,7328.038826,-4737.318029,689.485948
1377.944210,7179.997637,-4885.359217,919.314598
1377.944539,7328.038826,-6365.771101,1302.362347
1377.944868,7105.977043,-8290.306550,1532.190996
1377.945197,6513.812290,-7698.141797,1915.238745
1377.945527,6883.915261,-6143.709319,229.828649
1377.945856,6883.915261,-6291.750507,0.000000
1377.946185,6957.935855,-7920.203579,612.876398
1377.946514,6809.894666,-7772.162391,383.047749
1377.946843,6365.771101,-7105.977043,306.438199
1377.947172,6365.771101,-5625.565159,-536.266849
1377.947501,7105.977043,-5995.668130,153.219100
1377.947830,7994.224174,-7402.059420,1838.629195
1377.948159,8290.306550,-8734.430116,2757.943793
1377.948488,7624.121203,-7624.121203,2834.553343
1377.948817,7105.977043,-5921.647536,689.485948
1377.949146,5921.647536,-6217.729913,229.828649
1377.949475,6217.729913,-6809.894666,1455.581446
1377.949804,7031.956449,-5477.523971,1991.848295
1377.950134,7179.997637,-4811.338623,1225.752797
1377.950463,7254.018232,-4293.194464,1455.581446
1377.950792,7624.121203,-4959.379811,1455.581446
1377.951121,7846.182985,-6069.688724,1608.800546
1377.951450,7179.997637,-6217.729913,1608.800546
1377.951779,6291.750507,-7179.997637,612.876398
1377.952108,6365.771101,-7105.977043,0.000000
1377.952437,6661.853478,-7550.100608,1149.143247
1377.952766,7179.997637,-7698.141797,1991.848295
1377.953095,7105.977043,-5995.668130,1532.190996
1377.953424,6809.894666,-5699.585753,919.314598
1377.953753,6883.915261,-5181.441594,383.047749
1377.954082,7624.121203,-6291.750507,1072.533697
1377.954412,7846.182985,-7105.977043,2374.896044
1377.954741,7402.059420,-7402.059420,1915.238745
1377.955070,6217.729913,-6365.771101,1302.362347
1377.955399,5551.544565,-5699.585753,842.705048
1377.955728,5107.421000,-6883.915261,153.219100
1377.956057,5329.482782,-6883.915261,919.314598
1377.956386,5995.668130,-6661.853478,995.924147
1377.956715,7402.059420,-5181.441594,459.657299
1377.957044,8438.347739,-5107.421000,1915.238745
1377.957373,8586.388927,-7105.977043,1838.629195
1377.957702,7994.224174,-7179.997637,2068.457845
1377.958031,6883.915261,-7105.977043,1378.971896
1377.958360,6439.791695,-6735.874072,459.657299
1377.958689,6587.832884,-5625.565159,0.000000
1377.959019,6735.874072,-7179.997637,689.485948
1377.959348,6957.935855,-8586.388927,1149.143247
1377.959677,6883.915261,-6587.832884,612.876398
1377.960006,7105.977043,-5033.400406,459.657299
1377.960335,7402.059420,-5551.544565,383.047749
1377.960664,8290.306550,-7920.203579,2757.943793
1377.960993,7772.162391,-7994.224174,2604.724693
1377.961322,6809.894666,-8142.265362,1149.143247
1377.961651,5847.626942,-6069.688724,229.828649
1377.961980,5625.565159,-5551.544565,-459.657299
1377.962309,5995.668130,-8068.244768,459.657299
1377.962638,6513.812290,-6587.832884,1762.019645
1377.962967,7105.977043,-6069.688724,1149.143247
1377.963297,8216.285956,-4367.215058,766.095498
1377.963626,8068.244768,-4515.256246,1225.752797
1377.963955,7846.182985,-7624.121203,1685.410096
1377.964284,7550.100608,-5921.647536,1532.190996
1377.964613,6513.812290,-6661.853478,383.047749
1377.964942,5699.585753,-6661.853478,0.000000
1377.965271,6365.771101,-6957.935855,306.438199
1377.965600,7105.977043,-8734.430116,842.705048
1377.965929,7328.038826,-6439.791695,1225.752797
1377.966258,7031.956449,-7031.956449,1072.533697
1377.966587,7698.141797,-4959.379811,612.876398
1377.966916,7624.121203,-5033.400406,536.266849
1377.967245,7328.038826,-6735.874072,1685.410096
1377.967575,6957.935855,-5181.441594,1378.971896
1377.967904,5921.647536,-6809.894666,383.047749
1377.968233,5773.606348,-5403.503377,383.047749
1377.968562,5995.668130,-7105.977043,766.095498
1377.968891,6143.709319,-7846.182985,1378.971896
1377.969220,6439.791695,-7031.956449,1762.019645
1377.969549,7698.141797,-7624.121203,1991.848295
1377.969878,9474.636058,-5033.400406,1455.581446
1377.970207,8142.265362,-5921.647536,383.047749
1377.970536,7105.977043,-7254.018232,1608.800546
1377.970866,6957.935855,-6365.771101,459.657299
1377.971195,6587.832884,-6587.832884,-306.438199
1377.971524,6587.832884,-5847.626942,229.828649
1377.971853,6883.915261,-7105.977043,1072.533697
1377.972182,7476.080014,-7105.977043,689.485948
1377.972511,7624.121203,-6661.853478,1455.581446
1377.972840,7550.100608,-5181.441594,1532.190996
1377.973169,8142.265362,-3701.029710,0.000000
1377.973498,6957.935855,-5699.585753,306.438199
1377.973828,6513.812290,-7031.956449,995.924147
1377.974157,7328.038826,-7402.059420,919.314598
1377.974486,7328.038826,-7624.121203,1225.752797
1377.974815,6291.750507,-7105.977043,689.485948
1377.975144,6365.771101,-8586.388927,1149.143247
1377.975473,6883.915261,-9104.533087,1991.848295
1377.975802,7105.977043,-6957.935855,1915.238745
1377.976131,6513.812290,-5033.400406,1072.533697
1377.976460,7105.977043,-4071.132681,459.657299
1377.976790,7105.977043,-5625.565159,0.000000
1377.977119,6513.812290,-6587.832884,1378.971896
1377.977448,6513.812290,-6439.791695,1225.752797
1377.977777,6957.935855,-6661.853478,306.438199
1377.978106,6735.874072,-6883.915261,766.095498
1377.978435,6735.874072,-9104.533087,1302.362347
1377.978764,7550.100608,-7179.997637,2145.067394
1377.979093,7846.182985,-6143.709319,842.705048
1377.979422,7105.977043,-4959.379811,153.219100
1377.979751,6735.874072,-4811.338623,-153.219100
1377.980081,7254.018232,-6735.874072,1149.143247
1377.980410,7402.059420,-6365.771101,2068.457845
1377.980739,6661.853478,-7328.038826,1685.410096
1377.981068,6291.750507,-6291.750507,689.485948
1377.981397,5995.668130,-7402.059420,995.924147
1377.981726,6661.853478,-8216.285956,2145.067394
1377.982055,7031.956449,-6217.729913,2068.457845
1377.982384,6957.935855,-5403.503377,1072.533697
1377.982713,6809.894666,-4145.153275,612.876398
1377.983043,7105.977043,-4145.153275,0.000000
1377.983372,7698.141797,-6809.894666,1225.752797
1377.983701,7105.977043,-7105.977043,1378.971896
1377.984030,6883.915261,-7328.038826,1072.533697
1377.984359,7105.977043,-7105.977043,919.314598
1377.984688,7031.956449,-6809.894666,459.657299
1377.985017,7772.162391,-8364.327145,766.095498
1377.985346,7402.059420,-7254.018232,1225.752797
1377.985675,6661.853478,-5625.565159,-536.266849
1377.986005,7105.977043,-5107.421000,-459.657299
1377.986334,7846.182985,-5625.565159,1149.143247
1377.986663,8216.285956,-7328.038826,1302.362347
1377.986992,8068.244768,-7772.162391,2298.286494
1377.987321,7105.977043,-6587.832884,2145.067394
1377.987650,6957.935855,-5625.565159,766.095498
1377.987979,6291.750507,-6069.688724,919.314598
1377.988308,6661.853478,-7476.080014,1991.848295
1377.988637,7105.977043,-6661.853478,1455.581446
1377.988966,7476.080014,-4811.338623,766.095498
1377.989296,7179.997637,-3923.091493,536.266849
1377.989625,7328.038826,-5995.668130,229.828649
1377.989954,7179.997637,-7624.121203,1915.238745
1377.990283,6957.935855,-8068.244768,2068.457845
1377.990612,6291.750507,-8068.244768,612.876398
1377.990941,6587.832884,-7179.997637,0.000000
1377.991270,6069.688724,-8734.430116,612.876398
1377.991599,6513.812290,-8290.306550,1149.143247
1377.991928,6661.853478,-5921.647536,842.705048
1377.992258,6439.791695,-4811.338623,-229.828649
1377.992587,7031.956449,-4145.153275,-459.657299
1377.992916,7105.977043,-5921.647536,1532.190996
1377.993245,7402.059420,-7254.018232,1915.238745
1377.993574,7624.121203,-6661.853478,2528.115143
1377.993903,7698.141797,-6513.812290,1455.581446
1377.994232,6957.935855,-7105.977043,1302.362347
1377.994561,5773.606348,-7772.162391,995.924147
1377.994890,5477.523971,-6661.853478,306.438199
1377.995220,5551.544565,-6217.729913,0.000000
1377.995549,6957.935855,-4367.215058,-76.609550
1377.995878,7328.038826,-5551.544565,612.876398
1377.996207,7550.100608,-7624.121203,1685.410096
1377.996536,7254.018232,-7105.977043,2451.505594
1377.996865,7105.977043,-7105.977043,1302.362347
1377.997194,6809.894666,-5995.668130,689.485948
1377.997523,6143.709319,-6439.791695,536.266849
1377.997852,6661.853478,-8364.327145,459.657299
1377.998181,6661.853478,-5847.626942,0.000000
1377.998511,6587.832884,-5921.647536,0.000000
1377.998840,7254.018232,-5033.400406,0.000000
1377.999169,7698.141797,-6291.750507,919.314598
1377.999498,7994.224174,-7920.203579,1915.238745
1377.999827,7624.121203,-8290.306550,1991.848295
1378.000156,7105.977043,-7550.100608,1608.800546
1378.000485,6957.935855,-5995.668130,0.000000
1378.000814,6143.709319,-7105.977043,383.047749
1378.001143,6957.935855,-6587.832884,689.485948
1378.001473,7624.121203,-6291.750507,612.876398
1378.001802,7402.059420,-4663.297435,1072.533697
1378.002131,7846.182985,-4293.194464,689.485948
1378.002460,8512.368333,-5403.503377,1762.019645
1378.002789,7846.182985,-6661.853478,1991.848295
1378.003118,6957.935855,-7624.121203,1302.362347
1378.003447,6439.791695,-7179.997637,1149.143247
1378.003776,6587.832884,-6217.729913,229.828649
1378.004105,6587.832884,-7476.080014,459.657299
1378.004435,6143.709319,-7328.038826,1225.752797
1378.004764,6365.771101,-6883.915261,995.924147
1378.005093,5921.647536,-5847.626942,383.047749
1378.005422,6439.791695,-5329.482782,76.609550
1378.005751,7031.956449,-5847.626942,919.314598
1378.006080,7328.038826,-7254.018232,3140.991542
1378.006409,7402.059420,-7402.059420,2604.724693
1378.006738,6735.874072,-6069.688724,1762.019645
1378.007067,6513.812290,-5477.523971,76.609550
1378.007396,6439.791695,-7402.059420,612.876398
1378.007726,6365.771101,-7179.997637,1838.629195
1378.008055,6735.874072,-6513.812290,1608.800546
1378.008384,7105.977043,-4737.318029,1072.533697
1378.008713,7179.997637,-4515.256246,1149.143247
1378.009042,7254.018232,-5995.668130,2068.457845
1378.009371,6809.894666,-6883.915261,1838.629195
