#time,accel_x,accel_y,accel_z
1310.493053,6809.894666,-6587.832884,995.924147
1310.493384,7179.997637,-6217.729913,536.266849
1310.493714,7476.080014,-6291.750507,995.924147
1310.494045,7105.977043,-6069.688724,919.314598
1310.494375,6957.935855,-6143.709319,919.314598
1310.494706,7105.977043,-6587.832884,919.314598
1310.495036,6883.915261,-6365.771101,1072.533697
1310.495367,6439.791695,-6069.688724,1225.752797
1310.495697,6735.874072,-6735.874072,995.924147
1310.496028,6809.894666,-6809.894666,1302.362347
1310.496358,6957.935855,-6661.853478,995.924147
1310.496689,7031.956449,-6587.832884,995.924147
1310.497019,7105.977043,-6291.750507,1225.752797
1310.497350,7031.956449,-6513.812290,919.314598
1310.497680,6735.874072,-6587.832884,995.924147
1310.498011,6587.832884,-7105.977043,1225.752797
1310.498341,7031.956449,-6735.874072,1455.581446
1310.498672,7476.080014,-6587.832884,1455.581446
1310.499002,7328.038826,-6587.832884,1302.362347
1310.499333,7105.977043,-6587.832884,919.314598
1310.499663,7031.956449,-6587.832884,919.314598
1310.499994,7031.956449,-5773.606348,612.876398
1310.500325,6883.915261,-6735.874072,1149.143247
1310.500655,7179.997637,-6291.750507,1302.362347
1310.500986,7328.038826,-6439.791695,995.924147
1310.501316,7402.059420,-5995.668130,1455.581446
1310.501647,7031.956449,-6365.771101,1302.362347
1310.501977,7105.977043,-6143.709319,995.924147
1310.502308,6883.915261,-5921.647536,1225.752797
1310.502638,6661.853478,-6587.832884,995.924147
1310.502969,6587.832884,-5995.668130,1225.752797
1310.503299,6735.874072,-6587.832884,1072.533697
1310.503630,6883.915261,-6809.894666,842.705048
1310.503960,6883.915261,-6809.894666,1072.533697
1310.504291,6513.812290,-7031.956449,1378.971896
1310.504621,6513.812290,-6587.832884,766.095498
1310.504952,6735.874072,-7179.997637,1072.533697
1310.505282,6735.874072,-7105.977043,995.924147
1310.505613,6957.935855,-6883.915261,995.924147
1310.505943,7328.038826,-6365.771101,842.705048
1310.506274,7105.977043,-6291.750507,995.924147
1310.506604,7105.977043,-6661.853478,842.705048
1310.506935,7031.956449,-6143.709319,1302.362347
1310.507265,7105.977043,-6513.812290,766.095498
1310.507596,7105.977043,-6513.812290,1149.143247
1310.507926,7105.977043,-6291.750507,919.314598
1310.508257,7402.059420,-6661.853478,1225.752797
1310.508588,7179.997637,-6513.812290,1149.143247
1310.508918,6661.853478,-5995.668130,1302.362347
1310.509249,7179.997637,-6587.832884,612.876398
1310.509579,7031.956449,-6661.853478,1149.143247
1310.509910,6957.935855,-6439.791695,995.924147
1310.510240,6809.894666,-6661.853478,536.266849
1310.510571,7105.977043,-6587.832884,919.314598
1310.510901,7105.977043,-6365.771101,1072.533697
1310.511232,7105.977043,-6661.853478,1149.143247
1310.511562,6883.915261,-6735.874072,1072.533697
1310.511893,6957.935855,-6883.915261,1149.143247
1310.512223,7031.956449,-6883.915261,1149.143247
1310.512554,6439.791695,-6883.915261,919.314598
1310.512884,6957.935855,-7105.977043,995.924147
1310.513215,7105.977043,-6809.894666,919.314598
1310.513545,7624.121203,-6291.750507,1608.800546
1310.513876,7402.059420,-6439.791695,766.095498
1310.514206,7402.059420,-6513.812290,1302.362347
1310.514537,7328.038826,-6365.771101,919.314598
1310.514867,7254.018232,-6661.853478,1378.971896
1310.515198,7105.977043,-5699.585753,1225.752797
1310.515528,7179.997637,-6439.791695,919.314598
1310.515859,6883.915261,-6365.771101,1149.143247
1310.516190,6735.874072,-6587.832884,1149.143247
1310.516520,7105.977043,-6143.709319,1302.362347
1310.516851,7031.956449,-6587.832884,1225.752797
1310.517181,6439.791695,-6513.812290,919.314598
1310.517512,6217.729913,-6439.791695,842.705048
1310.517842,6809.894666,-6809.894666,1225.752797
1310.518173,7254.018232,-6587.832884,1149.143247
1310.518503,7105.977043,-6291.750507,995.924147
1310.518834,6957.935855,-6439.791695,1149.143247
1310.519164,6513.812290,-6735.874072,995.924147
1310.519495,6587.832884,-7105.977043,536.266849
1310.519825,6365.771101,-7031.956449,842.705048
1310.520156,6365.771101,-7179.997637,689.485948
1310.520486,6809.894666,-6957.935855,919.314598
1310.520817,6957.935855,-6587.832884,1302.362347
1310.521147,7328.038826,-6439.791695,919.314598
1310.521478,7402.059420,-6291.750507,689.485948
1310.521808,7328.038826,-6439.791695,1072.533697
1310.522139,7105.977043,-6439.791695,842.705048
1310.522469,7105.977043,-6217.729913,919.314598
1310.522800,7179.997637,-6291.750507,919.314598
1310.523130,7402.059420,-6513.812290,1302.362347
1310.523461,7105.977043,-6291.750507,1149.143247
1310.523791,7031.956449,-6291.750507,1149.143247
1310.524122,7031.956449,-6291.750507,1225.752797
1310.524453,6883.915261,-6735.874072,995.924147
1310.524783,6735.874072,-6809.894666,689.485948
1310.525114,6809.894666,-6883.915261,995.924147
1310.525444,7105.977043,-6513.812290,995.924147
1310.525775,7105.977043,-6661.853478,1072.533697
1310.526105,6957.935855,-6587.832884,919.314598
1310.526436,6809.894666,-6587.832884,1072.533697
1310.526766,6735.874072,-6809.894666,612.876398
1310.527097,5995.668130,-6217.729913,0.000000
1310.527427,7031.956449,-6735.874072,919.314598
1310.527758,7105.977043,-6957.935855,1225.752797
1310.528088,7402.059420,-6143.709319,1378.971896
1310.528419,7698.141797,-5995.668130,1225.752797
1310.528749,7550.100608,-6439.791695,1378.971896
1310.529080,7328.038826,-6291.750507,919.314598
1310.529410,6957.935855,-6661.853478,919.314598
1310.529741,6809.894666,-6439.791695,1072.533697
1310.530071,7179.997637,-6143.709319,842.705048
1310.530402,7402.059420,-5921.647536,766.095498
1310.530732,6957.935855,-6291.750507,1072.533697
1310.531063,7105.977043,-6513.812290,1455.581446
1310.531393,6883.915261,-6217.729913,1072.533697
1310.531724,6957.935855,-6291.750507,1149.143247
1310.532054,6587.832884,-6069.688724,995.924147
1310.532385,6661.853478,-6587.832884,919.314598
1310.532716,6883.915261,-6883.915261,1302.362347
1310.533046,7031.956449,-6587.832884,919.314598
1310.533377,6957.935855,-6661.853478,766.095498
1310.533707,6809.894666,-6809.894666,1149.143247
1310.534038,6809.894666,-7254.018232,919.314598
1310.534368,6291.750507,-7179.997637,383.047749
1310.534699,6365.771101,-7105.977043,766.095498
1310.535029,6883.915261,-6883.915261,1072.533697
1310.535360,7105.977043,-6587.832884,1225.752797
1310.535690,7105.977043,-6291.750507,1225.752797
1310.536021,7105.977043,-6069.688724,995.924147
1310.536351,7624.121203,-6513.812290,766.095498
1310.536682,7105.977043,-6439.791695,1149.143247
1310.537012,7031.956449,-6513.812290,1302.362347
1310.537343,7105.977043,-6365.771101,689.485948
1310.537673,7254.018232,-6513.812290,536.266849
1310.538004,7328.038826,-6883.915261,1302.362347
1310.538334,6957.935855,-6661.853478,1225.752797
1310.538665,7179.997637,-6587.832884,919.314598
1310.538995,6883.915261,-6439.791695,1149.143247
1310.539326,6735.874072,-6513.812290,1072.533697
1310.539656,6883.915261,-6587.832884,1149.143247
1310.539987,7105.977043,-6439.791695,1302.362347
1310.540317,6587.832884,-6587.832884,1455.581446
1310.540648,7031.956449,-5995.668130,919.314598
1310.540979,7105.977043,-6291.750507,1838.629195
1310.541309,6883.915261,-6661.853478,689.485948
1310.541640,6957.935855,-6587.832884,766.095498
1310.541970,6587.832884,-6957.935855,766.095498
1310.542301,7105.977043,-7031.956449,919.314598
1310.542631,7328.038826,-6439.791695,919.314598
1310.542962,7476.080014,-6661.853478,919.314598
1310.543292,7402.059420,-6735.874072,1072.533697
1310.543623,7550.100608,-6513.812290,1225.752797
1310.543953,7328.038826,-6735.874072,842.705048
1310.544284,6883.915261,-6365.771101,766.095498
1310.544614,7105.977043,-5699.585753,1225.752797
1310.544945,7328.038826,-6291.750507,1378.971896
1310.545275,7031.956449,-5921.647536,1378.971896
1310.545606,7105.977043,-6291.750507,1149.143247
1310.545936,6883.915261,-6439.791695,1149.143247
1310.546267,6809.894666,-6439.791695,1072.533697
1310.546597,6735.874072,-6513.812290,766.095498
1310.546928,6217.729913,-6957.935855,766.095498
1310.547258,6883.915261,-6883.915261,1608.800546
1310.547589,6587.832884,-7254.018232,1225.752797
1310.547919,6883.915261,-6661.853478,1302.362347
1310.548250,6883.915261,-6513.812290,1302.362347
1310.548581,6661.853478,-6809.894666,383.047749
1310.548911,6365.771101,-6661.853478,612.876398
1310.549242,6217.729913,-6809.894666,919.314598
1310.549572,6587.832884,-6439.791695,229.828649
1310.549903,7105.977043,-6069.688724,1302.362347
1310.550233,7105.977043,-6217.729913,1302.362347
1310.550564,6883.915261,-6513.812290,919.314598
1310.550894,7254.018232,-6735.874072,1302.362347
1310.551225,7254.018232,-6809.894666,536.266849
1310.551555,7105.977043,-7031.956449,842.705048
1310.551886,7105.977043,-6291.750507,995.924147
1310.552216,7179.997637,-6439.791695,995.924147
1310.552547,7105.977043,-6513.812290,1225.752797
1310.552877,7105.977043,-6365.771101,1149.143247
1310.553208,7031.956449,-5995.668130,995.924147
1310.553538,7105.977043,-6291.750507,536.266849
1310.553869,6883.915261,-6809.894666,1072.533697
1310.554199,6809.894666,-6439.791695,689.485948
1310.554530,7105.977043,-7105.977043,1608.800546
1310.554860,7105.977043,-6883.915261,1378.971896
1310.555191,7031.956449,-6439.791695,1072.533697
1310.555521,6957.935855,-7031.956449,919.314598
1310.555852,7031.956449,-7031.956449,1149.143247
1310.556182,7105.977043,-6439.791695,229.828649
1310.556513,6809.894666,-7105.977043,919.314598
1310.556844,6809.894666,-6661.853478,995.924147
1310.557174,7105.977043,-6513.812290,1225.752797
1310.557505,7402.059420,-5699.585753,1225.752797
1310.557835,7105.977043,-6587.832884,919.314598
1310.558166,7254.018232,-6069.688724,1149.143247
1310.558496,7105.977043,-6291.750507,919.314598
1310.558826,7105.977043,-6587.832884,536.266849
1310.559155,7031.956449,-6143.709319,1608.800546
1310.559485,7105.977043,-6439.791695,919.314598
1310.559814,7179.997637,-6883.915261,1225.752797
1310.560144,7328.038826,-6365.771101,995.924147
1310.560473,7105.977043,-6365.771101,1072.533697
1310.560803,6957.935855,-6513.812290,1378.971896
1310.561133,6809.894666,-6291.750507,1072.533697
1310.561462,6439.791695,-6439.791695,842.705048
1310.561792,6661.853478,-6439.791695,689.485948
1310.562121,6883.915261,-6513.812290,766.095498
1310.562451,6957.935855,-6661.853478,766.095498
1310.562780,6587.832884,-6661.853478,1149.143247
1310.563110,6587.832884,-6735.874072,995.924147
1310.563439,6735.874072,-7179.997637,842.705048
1310.563769,6587.832884,-7031.956449,766.095498
1310.564099,6661.853478,-7254.018232,536.266849
1310.564428,7031.956449,-7402.059420,995.924147
1310.564758,7179.997637,-6587.832884,1149.143247
1310.565087,6809.894666,-6143.709319,1378.971896
1310.565417,7105.977043,-6883.915261,1378.971896
1310.565746,6735.874072,-6661.853478,1225.752797
1310.566076,6661.853478,-6809.894666,919.314598
1310.566405,6513.812290,-6143.709319,1149.143247
1310.566735,7105.977043,-6143.709319,1149.143247
1310.567065,7105.977043,-6439.791695,1302.362347
1310.567394,7254.018232,-6439.791695,995.924147
1310.567724,7254.018232,-6365.771101,1149.143247
1310.568053,7254.018232,-6365.771101,1072.533697
1310.568383,7476.080014,-6587.832884,1072.533697
1310.568712,6883.915261,-6957.935855,766.095498
1310.569042,6883.915261,-6883.915261,1072.533697
1310.569371,6735.874072,-6957.935855,1072.533697
1310.569701,7254.018232,-6809.894666,1149.143247
1310.570031,7179.997637,-6957.935855,995.924147
1310.570360,6735.874072,-6513.812290,1225.752797
1310.570690,6957.935855,-6957.935855,459.657299
1310.571019,6883.915261,-6513.812290,919.314598
1310.571349,6661.853478,-6143.709319,612.876398
1310.571678,7105.977043,-6513.812290,919.314598
1310.572008,7254.018232,-6291.750507,1302.362347
1310.572337,7476.080014,-6365.771101,1072.533697
1310.572667,7624.121203,-6365.771101,1378.971896
1310.572997,7476.080014,-6513.812290,842.705048
1310.573326,7105.977043,-6957.935855,612.876398
1310.573656,7031.956449,-6587.832884,1225.752797
1310.573985,7328.038826,-6439.791695,1072.533697
1310.574315,7772.162391,-6217.729913,1149.143247
1310.574644,7179.997637,-6069.688724,1149.143247
1310.574974,6809.894666,-6217.729913,1455.581446
1310.575303,6809.894666,-6143.709319,1225.752797
1310.575633,6883.915261,-6217.729913,1072.533697
1310.575963,6809.894666,-6513.812290,1378.971896
1310.576292,6661.853478,-6587.832884,842.705048
1310.576622,6809.894666,-6957.935855,1149.143247
1310.576951,7105.977043,-6735.874072,1072.533697
1310.577281,6661.853478,-6291.750507,1072.533697
1310.577610,6809.894666,-6365.771101,995.924147
1310.577940,6735.874072,-7179.997637,842.705048
1310.578269,6365.771101,-7031.956449,766.095498
1310.578599,6365.771101,-7031.956449,919.314598
1310.578929,6513.812290,-7105.977043,1302.362347
1310.579258,7105.977043,-6439.791695,1149.143247
1310.579588,7105.977043,-6291.750507,1455.581446
1310.579917,7105.977043,-6513.812290,842.705048
1310.580247,6957.935855,-6439.791695,1302.362347
1310.580576,7105.977043,-6661.853478,766.095498
1310.580906,7031.956449,-6587.832884,995.924147
1310.581236,6883.915261,-6217.729913,995.924147
1310.581565,7105.977043,-6439.791695,1149.143247
1310.581895,7179.997637,-6143.709319,995.924147
1310.582224,7105.977043,-6587.832884,1149.143247
1310.582554,7105.977043,-6439.791695,1149.143247
1310.582883,6883.915261,-6661.853478,1072.533697
1310.583213,6217.729913,-5847.626942,842.705048
1310.583542,6883.915261,-6587.832884,1072.533697
1310.583872,6735.874072,-6661.853478,1225.752797
1310.584202,6661.853478,-6439.791695,995.924147
1310.584531,7031.956449,-6217.729913,1072.533697
1310.584861,7328.038826,-6587.832884,1302.362347
1310.585190,6957.935855,-6883.915261,842.705048
1310.585520,6957.935855,-7031.956449,766.095498
1310.585849,6957.935855,-7254.018232,1149.143247
1310.586179,6957.935855,-6957.935855,612.876398
1310.586508,7105.977043,-6439.791695,919.314598
1310.586838,7402.059420,-6587.832884,1072.533697
1310.587168,7698.141797,-6365.771101,766.095498
1310.587497,7254.018232,-6439.791695,1378.971896
1310.587827,7254.018232,-5995.668130,1225.752797
1310.588156,7105.977043,-6069.688724,842.705048
1310.588486,6957.935855,-5699.585753,919.314598
1310.588815,7179.997637,-6217.729913,919.314598
1310.589145,7105.977043,-6143.709319,1455.581446
1310.589474,7105.977043,-6291.750507,1072.533697
1310.589804,6883.915261,-6291.750507,1225.752797
1310.590134,7105.977043,-6365.771101,1149.143247
1310.590463,6735.874072,-6883.915261,995.924147
1310.590793,6809.894666,-6661.853478,1225.752797
1310.591122,7031.956449,-6661.853478,1225.752797
1310.591452,6957.935855,-7105.977043,1302.362347
1310.591781,6957.935855,-6587.832884,1225.752797
1310.592111,6809.894666,-6661.853478,995.924147
1310.592440,6809.894666,-7031.956449,1149.143247
1310.592770,6587.832884,-7031.956449,306.438199
1310.593100,6513.812290,-6957.935855,995.924147
1310.593429,6513.812290,-7254.018232,919.314598
1310.593759,6735.874072,-7179.997637,842.705048
1310.594088,7476.080014,-6217.729913,919.314598
1310.594418,7105.977043,-6883.915261,1149.143247
1310.594747,7105.977043,-6587.832884,1302.362347
1310.595077,7179.997637,-6661.853478,1149.143247
1310.595406,7179.997637,-6661.853478,1762.019645
1310.595736,6809.894666,-6069.688724,1532.190996
1310.596066,7105.977043,-6513.812290,689.485948
1310.596395,6735.874072,-6735.874072,1072.533697
1310.596725,6957.935855,-6661.853478,1225.752797
1310.597054,7179.997637,-6291.750507,1685.410096
1310.597384,6883.915261,-6291.750507,995.924147
1310.597713,6735.874072,-6291.750507,306.438199
1310.598043,6439.791695,-6587.832884,919.314598
1310.598372,6809.894666,-6587.832884,1072.533697
1310.598702,6957.935855,-6587.832884,1149.143247
1310.599032,7105.977043,-6809.894666,1072.533697
1310.599361,6809.894666,-6365.771101,919.314598
1310.599691,6883.915261,-6439.791695,1072.533697
1310.600020,7031.956449,-6883.915261,459.657299
1310.600350,6735.874072,-6735.874072,689.485948
1310.600679,6809.894666,-6439.791695,919.314598
1310.601009,7105.977043,-6883.915261,1072.533697
1310.601338,7105.977043,-6143.709319,1225.752797
1310.601668,7698.141797,-6883.915261,689.485948
1310.601998,7328.038826,-6291.750507,1149.143247
1310.602327,7179.997637,-6513.812290,842.705048
1310.602657,6957.935855,-6587.832884,612.876398
1310.602986,7105.977043,-6661.853478,1072.533697
1310.603316,7328.038826,-6513.812290,766.095498
1310.603645,7179.997637,-6069.688724,1378.971896
1310.603975,7179.997637,-6661.853478,1225.752797
1310.604304,7031.956449,-6217.729913,919.314598
1310.604634,7698.141797,-6069.688724,1532.190996
1310.604964,7105.977043,-6291.750507,1225.752797
1310.605293,6809.894666,-6439.791695,919.314598
1310.605623,6735.874072,-6587.832884,995.924147
1310.605952,6809.894666,-6513.812290,1149.143247
1310.606282,7105.977043,-6661.853478,1072.533697
1310.606611,6439.791695,-6957.935855,919.314598
1310.606941,6661.853478,-7031.956449,1072.533697
1310.607270,6661.853478,-6809.894666,536.266849
1310.607600,6143.709319,-7031.956449,1378.971896
1310.607930,6735.874072,-7328.038826,766.095498
1310.608259,7031.956449,-6217.729913,689.485948
1310.608589,7698.141797,-5403.503377,1302.362347
1310.608918,8290.306550,-5329.482782,1225.752797
1310.609248,8808.450710,-5625.565159,1455.581446
1310.609577,8438.347739,-5921.647536,1608.800546
1310.609907,7476.080014,-6069.688724,383.047749
1310.610236,6143.709319,-6883.915261,0.000000
1310.610566,6143.709319,-7179.997637,459.657299
1310.610896,6587.832884,-6957.935855,306.438199
1310.611225,7550.100608,-6661.853478,1149.143247
1310.611555,8142.265362,-6735.874072,1762.019645
1310.611884,8586.388927,-5699.585753,1608.800546
1310.612214,8512.368333,-3997.112087,1532.190996
1310.612543,7624.121203,-4737.318029,919.314598
1310.612873,7772.162391,-4663.297435,995.924147
1310.613202,8364.327145,-4219.173869,1225.752797
1310.613532,8808.450710,-4737.318029,1838.629195
1310.613862,8216.285956,-3849.070898,1378.971896
1310.614191,7846.182985,-5107.421000,1072.533697
1310.614521,8216.285956,-4663.297435,766.095498
1310.614850,8290.306550,-5107.421000,766.095498
1310.615180,8364.327145,-5773.606348,612.876398
1310.615509,7994.224174,-5255.462188,459.657299
1310.615839,7920.203579,-5773.606348,306.438199
1310.616168,7772.162391,-5329.482782,995.924147
1310.616498,8290.306550,-5403.503377,842.705048
1310.616828,9326.594869,-4663.297435,1302.362347
1310.617157,8512.368333,-4663.297435,1225.752797
1310.617487,8808.450710,-4811.338623,1149.143247
1310.617816,9474.636058,-3034.844362,1225.752797
1310.618146,9474.636058,-4071.132681,1532.190996
1310.618475,9622.677246,-2886.803174,1685.410096
1310.618805,9696.697840,-2886.803174,1455.581446
1310.619134,9992.780217,-3182.885551,1302.362347
1310.619464,9474.636058,-3256.906145,1072.533697
1310.619794,8734.430116,-4441.235652,1608.800546
1310.620123,8956.491898,-4885.359217,1072.533697
1310.620453,9030.512492,-5847.626942,1149.143247
1310.620782,8438.347739,-5847.626942,1378.971896
1310.621112,7846.182985,-5477.523971,842.705048
1310.621441,7920.203579,-5921.647536,1455.581446
1310.621771,7846.182985,-5033.400406,919.314598
1310.622100,7550.100608,-6143.709319,383.047749
1310.622430,7624.121203,-5921.647536,536.266849
1310.622760,7994.224174,-5551.544565,0.000000
1310.623089,7698.141797,-6143.709319,0.000000
1310.623419,7698.141797,-5033.400406,0.000000
1310.623748,9104.533087,-4589.276840,0.000000
1310.624078,10807.006753,-3849.070898,842.705048
1310.624407,11621.233289,-4589.276840,1302.362347
1310.624737,10881.027347,-3701.029710,1302.362347
1310.625066,10214.842000,-2516.700203,306.438199
1310.625396,9622.677246,-3256.906145,689.485948
1310.625726,10140.821405,-3701.029710,1532.190996
1310.626055,9622.677246,-4811.338623,1685.410096
1310.626385,9178.553681,-4293.194464,1838.629195
1310.626714,8660.409521,-3552.988522,1532.190996
1310.627044,8364.327145,-3849.070898,1915.238745
1310.627373,9326.594869,-3923.091493,2068.457845
1310.627703,8882.471304,-4071.132681,1915.238745
1310.628032,8956.491898,-3478.967927,1455.581446
1310.628362,9104.533087,-3627.009116,995.924147
1310.628692,8956.491898,-3478.967927,689.485948
1310.629021,9474.636058,-4441.235652,689.485948
1310.629351,9326.594869,-5033.400406,229.828649
1310.629680,9770.718434,-5033.400406,153.219100
1310.630010,8660.409521,-6069.688724,0.000000
1310.630339,8438.347739,-5773.606348,842.705048
1310.630669,8808.450710,-5847.626942,229.828649
1310.630998,8290.306550,-6513.812290,612.876398
1310.631328,8142.265362,-5329.482782,1225.752797
1310.631658,8512.368333,-5255.462188,1378.971896
1310.631987,8512.368333,-4515.256246,2068.457845
1310.632317,8734.430116,-4219.173869,2451.505594
1310.632646,9326.594869,-3478.967927,1838.629195
1310.632976,9400.615463,-1998.556043,1455.581446
1310.633305,9696.697840,-1554.432478,1685.410096
1310.633635,10658.965565,-1702.473667,919.314598
1310.633965,10732.986159,-1924.535449,612.876398
1310.634294,10584.944971,-1924.535449,229.828649
1310.634624,10214.842000,-2960.823768,76.609550
1310.634953,9252.574275,-4737.318029,0.000000
1310.635283,8216.285956,-6735.874072,612.876398
1310.635612,7105.977043,-8438.347739,689.485948
1310.635942,6365.771101,-8808.450710,689.485948
1310.636271,6439.791695,-9548.656652,76.609550
1310.636601,5921.647536,-9400.615463,842.705048
1310.636931,5329.482782,-8068.244768,0.000000
1310.637260,5551.544565,-7179.997637,229.828649
1310.637590,7179.997637,-5329.482782,919.314598
1310.637919,8956.491898,-4367.215058,1838.629195
1310.638249,9400.615463,-3552.988522,1685.410096
1310.638578,9400.615463,-1850.514855,1149.143247
1310.638908,9400.615463,-1554.432478,459.657299
1310.639237,10362.883188,-1406.391290,919.314598
1310.639567,12065.356855,-1110.308913,1225.752797
1310.639897,12435.459826,-1924.535449,1762.019645
1310.640226,11843.295072,-2664.741391,1532.190996
1310.640556,10436.903782,-3627.009116,1838.629195
1310.640885,9548.656652,-4737.318029,1762.019645
1310.641215,8216.285956,-6217.729913,1915.238745
1310.641544,7105.977043,-6883.915261,1378.971896
1310.641874,5551.544565,-7624.121203,1149.143247
1310.642203,4885.359217,-8290.306550,459.657299
1310.642533,5255.462188,-9104.533087,842.705048
1310.642863,4737.318029,-9326.594869,306.438199
1310.643192,4663.297435,-8290.306550,0.000000
1310.643522,5181.441594,-7402.059420,-306.438199
1310.643851,5847.626942,-6587.832884,-459.657299
1310.644181,7402.059420,-5995.668130,383.047749
1310.644510,8512.368333,-5403.503377,842.705048
1310.644840,10214.842000,-4219.173869,1378.971896
1310.645169,11177.109724,-3701.029710,1685.410096
1310.645499,11177.109724,-3775.050304,1685.410096
1310.645829,11029.068536,-4885.359217,2068.457845
1310.646158,9474.636058,-6291.750507,2221.676944
1310.646488,7328.038826,-6587.832884,2068.457845
1310.646817,5773.606348,-7254.018232,1608.800546
1310.647147,4441.235652,-6365.771101,689.485948
1310.647476,4367.215058,-6957.935855,-229.828649
1310.647806,4441.235652,-7698.141797,306.438199
1310.648135,5181.441594,-7254.018232,919.314598
1310.648465,6957.935855,-6587.832884,153.219100
1310.648795,7179.997637,-5107.421000,1072.533697
1310.649124,7328.038826,-5033.400406,306.438199
1310.649454,7476.080014,-5329.482782,459.657299
1310.649783,8142.265362,-4811.338623,612.876398
1310.650113,9104.533087,-4885.359217,1685.410096
1310.650442,10214.842000,-4737.318029,2221.676944
1310.650772,10584.944971,-5255.462188,2681.334243
1310.651101,9622.677246,-6735.874072,2451.505594
1310.651431,7328.038826,-7254.018232,2298.286494
1310.651761,5181.441594,-7698.141797,995.924147
1310.652090,3997.112087,-8586.388927,459.657299
1310.652420,3256.906145,-8956.491898,766.095498
1310.652749,2960.823768,-8882.471304,612.876398
1310.653079,4219.173869,-7994.224174,1608.800546
1310.653408,5551.544565,-7179.997637,1532.190996
1310.653738,6661.853478,-5329.482782,1225.752797
1310.654067,7402.059420,-3775.050304,919.314598
1310.654397,8142.265362,-2368.659014,153.219100
1310.654727,8660.409521,-2960.823768,0.000000
1310.655056,9474.636058,-4219.173869,1225.752797
1310.655386,10214.842000,-5773.606348,1915.238745
1310.655715,9992.780217,-6143.709319,2374.896044
1310.656045,9326.594869,-7105.977043,2528.115143
1310.656374,6735.874072,-8216.285956,1685.410096
1310.656704,4663.297435,-9104.533087,919.314598
1310.657033,4219.173869,-10066.800811,536.266849
1310.657363,4071.132681,-9770.718434,153.219100
1310.657693,4293.194464,-9696.697840,0.000000
1310.658022,3997.112087,-8438.347739,383.047749
1310.658352,4367.215058,-7624.121203,-383.047749
1310.658681,4663.297435,-6809.894666,153.219100
1310.659011,6439.791695,-4959.379811,-229.828649
1310.659340,8142.265362,-3849.070898,0.000000
1310.659670,9696.697840,-3330.926739,766.095498
1310.659999,10436.903782,-3775.050304,2298.286494
1310.660329,11325.150913,-4737.318029,2451.505594
1310.660659,10362.883188,-5773.606348,2298.286494
1310.660988,8734.430116,-7402.059420,1762.019645
1310.661317,6809.894666,-9400.615463,1762.019645
1310.661646,5403.503377,-9770.718434,1149.143247
1310.661976,4515.256246,-10510.924376,459.657299
1310.662305,3552.988522,-10288.862594,229.828649
1310.662634,3627.009116,-9474.636058,459.657299
1310.662963,4367.215058,-6883.915261,229.828649
1310.663293,4589.276840,-4885.359217,0.000000
1310.663622,5255.462188,-3256.906145,459.657299
1310.663951,7624.121203,-2590.720797,689.485948
1310.664280,9770.718434,-2516.700203,1225.752797
1310.664610,10584.944971,-2886.803174,1685.410096
1310.664939,11029.068536,-3256.906145,1991.848295
1310.665268,10288.862594,-5403.503377,2757.943793
1310.665597,9326.594869,-7031.956449,2145.067394
1310.665927,7476.080014,-8216.285956,1762.019645
1310.666256,6439.791695,-8586.388927,1302.362347
1310.666585,5625.565159,-10584.944971,995.924147
1310.666914,4589.276840,-9918.759623,689.485948
1310.667244,4367.215058,-8882.471304,612.876398
1310.667573,4293.194464,-7698.141797,0.000000
1310.667902,4663.297435,-5773.606348,-383.047749
1310.668231,5181.441594,-5255.462188,-229.828649
1310.668561,6365.771101,-4515.256246,-306.438199
1310.668890,7994.224174,-3330.926739,153.219100
1310.669219,9326.594869,-3849.070898,1225.752797
1310.669548,9992.780217,-3478.967927,1608.800546
1310.669878,10362.883188,-5033.400406,2757.943793
1310.670207,10214.842000,-6661.853478,2681.334243
1310.670536,8660.409521,-7179.997637,1838.629195
1310.670865,6587.832884,-9030.512492,1455.581446
1310.671195,5699.585753,-10140.821405,383.047749
1310.671524,4663.297435,-11103.089130,689.485948
1310.671853,4219.173869,-10066.800811,612.876398
1310.672182,3701.029710,-7920.203579,-459.657299
1310.672512,3849.070898,-6735.874072,-306.438199
1310.672841,5181.441594,-5181.441594,306.438199
1310.673170,6735.874072,-4071.132681,-229.828649
1310.673499,7772.162391,-3182.885551,383.047749
1310.673829,8808.450710,-2960.823768,229.828649
1310.674158,9918.759623,-3330.926739,1378.971896
1310.674487,10436.903782,-4663.297435,2451.505594
1310.674816,10584.944971,-6217.729913,2528.115143
1310.675146,9474.636058,-7031.956449,2374.896044
1310.675475,7994.224174,-8660.409521,1991.848295
1310.675804,6587.832884,-10436.903782,1455.581446
1310.676133,5773.606348,-10066.800811,1225.752797
1310.676463,5329.482782,-9844.739029,919.314598
1310.676792,5255.462188,-7328.038826,383.047749
1310.677121,4885.359217,-5921.647536,1072.533697
1310.677450,5033.400406,-4737.318029,995.924147
1310.677780,5847.626942,-3256.906145,459.657299
1310.678109,6735.874072,-2072.576638,229.828649
1310.678438,7846.182985,-1924.535449,536.266849
1310.678767,9326.594869,-3034.844362,1608.800546
1310.679097,9696.697840,-4441.235652,2604.724693
1310.679426,9992.780217,-5477.523971,2757.943793
1310.679755,7846.182985,-6809.894666,1915.238745
1310.680084,6439.791695,-9696.697840,1915.238745
1310.680414,5181.441594,-11843.295072,919.314598
1310.680743,4515.256246,-12805.562797,1302.362347
1310.681072,4071.132681,-12139.377449,612.876398
1310.681401,3849.070898,-10288.862594,0.000000
1310.681731,4219.173869,-7105.977043,536.266849
1310.682060,5255.462188,-6809.894666,-383.047749
1310.682389,5773.606348,-5329.482782,229.828649
1310.682718,6735.874072,-2960.823768,0.000000
1310.683048,7476.080014,-2664.741391,0.000000
1310.683377,8512.368333,-1850.514855,1532.190996
1310.683706,9918.759623,-3034.844362,1608.800546
1310.684035,10510.924376,-4737.318029,2528.115143
1310.684365,9474.636058,-6069.688724,2145.067394
1310.684694,7920.203579,-8364.327145,1455.581446
1310.685023,6587.832884,-9918.759623,1225.752797
1310.685352,5699.585753,-11843.295072,1225.752797
1310.685682,4885.359217,-11251.130318,1455.581446
1310.686011,5181.441594,-9104.533087,612.876398
1310.686340,5403.503377,-7624.121203,153.219100
1310.686669,5403.503377,-5477.523971,766.095498
1310.686999,5995.668130,-3108.864956,766.095498
1310.687328,7179.997637,-1702.473667,229.828649
1310.687657,7920.203579,-1628.453072,229.828649
1310.687986,8586.388927,-2220.617826,842.705048
1310.688316,8956.491898,-3627.009116,1532.190996
1310.688645,9548.656652,-4737.318029,1838.629195
1310.688974,9104.533087,-6365.771101,1762.019645
1310.689303,8216.285956,-8660.409521,2145.067394
1310.689633,6587.832884,-11029.068536,1455.581446
1310.689962,5551.544565,-12879.583391,766.095498
1310.690291,4811.338623,-12583.501014,766.095498
1310.690620,4959.379811,-9992.780217,383.047749
1310.690950,5625.565159,-7402.059420,0.000000
1310.691279,5255.462188,-7031.956449,459.657299
1310.691608,5625.565159,-4811.338623,0.000000
1310.691937,6365.771101,-3108.864956,76.609550
1310.692267,8512.368333,-1554.432478,306.438199
1310.692596,9104.533087,-1184.329507,919.314598
1310.692925,9400.615463,-2146.597232,1455.581446
1310.693254,9770.718434,-3923.091493,2068.457845
1310.693584,9992.780217,-5699.585753,2298.286494
1310.693913,8882.471304,-7772.162391,2451.505594
1310.694242,7254.018232,-9770.718434,1685.410096
1310.694571,5921.647536,-11547.212695,1378.971896
1310.694901,5181.441594,-12583.501014,766.095498
1310.695230,4441.235652,-11251.130318,612.876398
1310.695559,4293.194464,-8586.388927,0.000000
1310.695888,4293.194464,-6217.729913,0.000000
1310.696218,5033.400406,-4737.318029,-459.657299
1310.696547,6143.709319,-3701.029710,76.609550
1310.696876,7476.080014,-2664.741391,306.438199
1310.697205,8512.368333,-2220.617826,1302.362347
1310.697535,9548.656652,-2368.659014,1608.800546
1310.697864,10732.986159,-2664.741391,2221.676944
1310.698193,10362.883188,-4811.338623,2145.067394
1310.698522,8808.450710,-7920.203579,2451.505594
1310.698852,6217.729913,-10436.903782,1455.581446
1310.699181,4441.235652,-12213.398043,383.047749
1310.699510,3849.070898,-12805.562797,76.609550
1310.699839,4293.194464,-11621.233289,919.314598
1310.700169,5551.544565,-9696.697840,1838.629195
1310.700498,5847.626942,-6809.894666,1608.800546
1310.700827,5403.503377,-4367.215058,1532.190996
1310.701156,5995.668130,-1110.308913,766.095498
1310.701486,7179.997637,-222.061783,153.219100
1310.701815,8364.327145,-518.144159,0.000000
1310.702144,8660.409521,-2664.741391,1225.752797
1310.702473,9474.636058,-4515.256246,1378.971896
1310.702803,9770.718434,-6217.729913,2068.457845
1310.703132,9178.553681,-7920.203579,1838.629195
1310.703461,7105.977043,-11251.130318,1455.581446
1310.703790,5995.668130,-11917.315666,842.705048
1310.704120,4959.379811,-12805.562797,229.828649
1310.704449,4885.359217,-11621.233289,459.657299
1310.704778,4367.215058,-9030.512492,-229.828649
1310.705107,4441.235652,-7846.182985,-229.828649
1310.705437,4737.318029,-6217.729913,-689.485948
1310.705766,5181.441594,-4885.359217,383.047749
1310.706095,7105.977043,-3552.988522,919.314598
1310.706424,8660.409521,-2590.720797,1225.752797
1310.706754,9844.739029,-1628.453072,1915.238745
1310.707083,10584.944971,-1850.514855,2374.896044
1310.707412,10362.883188,-2960.823768,1608.800546
1310.707741,8882.471304,-5403.503377,1608.800546
1310.708071,7031.956449,-9326.594869,1302.362347
1310.708400,5847.626942,-11399.171507,919.314598
1310.708729,5107.421000,-13619.789333,1532.190996
1310.709058,4367.215058,-11547.212695,1685.410096
1310.709388,4811.338623,-9252.574275,306.438199
1310.709717,5181.441594,-7328.038826,1532.190996
1310.710046,5551.544565,-4441.235652,536.266849
1310.710375,5995.668130,-2442.679609,229.828649
1310.710705,7031.956449,-740.205942,0.000000
1310.711034,7994.224174,-962.267725,0.000000
1310.711363,9030.512492,-3182.885551,1072.533697
1310.711692,9548.656652,-4145.153275,2451.505594
1310.712022,10510.924376,-5107.421000,2221.676944
1310.712351,9844.739029,-6439.791695,1838.629195
1310.712680,8512.368333,-7920.203579,2298.286494
1310.713009,7105.977043,-11769.274478,1225.752797
1310.713339,6217.729913,-10732.986159,1149.143247
1310.713668,5551.544565,-12139.377449,0.000000
1310.713997,4441.235652,-9030.512492,-229.828649
1310.714326,4071.132681,-7624.121203,-383.047749
1310.714656,3627.009116,-8068.244768,0.000000
1310.714985,4367.215058,-4811.338623,-306.438199
1310.715314,5477.523971,-4737.318029,-689.485948
1310.715643,7550.100608,-2368.659014,459.657299
1310.715973,9696.697840,-2886.803174,1685.410096
1310.716302,10955.047942,-3108.864956,3064.381992
1310.716631,10807.006753,-3478.967927,2757.943793
1310.716960,9400.615463,-5329.482782,1915.238745
1310.717290,7624.121203,-5995.668130,1149.143247
1310.717619,6143.709319,-10362.883188,919.314598
1310.717948,5995.668130,-12509.480420,1532.190996
1310.718277,5773.606348,-11917.315666,1455.581446
1310.718607,4959.379811,-9844.739029,842.705048
1310.718936,4737.318029,-7105.977043,0.000000
1310.719265,4959.379811,-5625.565159,0.000000
1310.719594,5995.668130,-4145.153275,153.219100
1310.719924,7031.956449,-2368.659014,536.266849
1310.720253,8142.265362,-2664.741391,536.266849
1310.720582,8660.409521,-2072.576638,229.828649
1310.720911,8882.471304,-3552.988522,1608.800546
1310.721241,9844.739029,-4737.318029,2911.162892
1310.721570,9622.677246,-5995.668130,2451.505594
1310.721899,8512.368333,-6957.935855,2374.896044
1310.722228,7105.977043,-9030.512492,1762.019645
1310.722558,5995.668130,-10955.047942,1455.581446
1310.722887,4959.379811,-11547.212695,689.485948
1310.723216,4293.194464,-10584.944971,153.219100
1310.723545,4811.338623,-8364.327145,306.438199
1310.723875,5699.585753,-7105.977043,459.657299
1310.724204,5699.585753,-5921.647536,306.438199
1310.724533,6291.750507,-4219.173869,995.924147
1310.724862,7624.121203,-3108.864956,459.657299
1310.725192,8364.327145,-2664.741391,842.705048
1310.725521,8586.388927,-2590.720797,1072.533697
1310.725850,9326.594869,-4145.153275,2068.457845
1310.726179,8956.491898,-4885.359217,1762.019645
1310.726509,7624.121203,-7328.038826,1532.190996
1310.726838,6069.688724,-9400.615463,766.095498
1310.727167,5107.421000,-12361.439231,2298.286494
1310.727496,5255.462188,-12731.542202,995.924147
1310.727826,5033.400406,-9844.739029,766.095498
1310.728155,5329.482782,-8438.347739,612.876398
1310.728484,7031.956449,-6439.791695,1838.629195
1310.728813,7550.100608,-4737.318029,1225.752797
1310.729143,7031.956449,-3256.906145,1149.143247
1310.729472,6957.935855,-666.185348,153.219100
1310.729801,6957.935855,-2516.700203,0.000000
1310.730130,7994.224174,-2960.823768,2145.067394
1310.730460,8512.368333,-5551.544565,1838.629195
1310.730789,8290.306550,-5995.668130,2145.067394
1310.731118,7254.018232,-6661.853478,1225.752797
1310.731447,5995.668130,-10584.944971,1685.410096
1310.731777,6365.771101,-11399.171507,1685.410096
1310.732106,5625.565159,-12361.439231,1532.190996
1310.732435,5329.482782,-11473.192101,459.657299
1310.732764,5181.441594,-8142.265362,0.000000
1310.733094,5847.626942,-7624.121203,-459.657299
1310.733423,6143.709319,-6365.771101,229.828649
1310.733752,6661.853478,-4737.318029,766.095498
1310.734081,7624.121203,-3034.844362,229.828649
1310.734411,7994.224174,-2146.597232,536.266849
1310.734740,8142.265362,-2590.720797,1225.752797
1310.735069,8660.409521,-3701.029710,1455.581446
1310.735398,8438.347739,-4737.318029,1685.410096
1310.735728,8586.388927,-6217.729913,1762.019645
1310.736057,7031.956449,-8956.491898,1838.629195
1310.736386,6513.812290,-10362.883188,1838.629195
1310.736715,6439.791695,-11547.212695,1455.581446
1310.737045,6217.729913,-10362.883188,1225.752797
1310.737374,6365.771101,-8438.347739,1072.533697
1310.737703,6513.812290,-6661.853478,459.657299
1310.738032,6661.853478,-4589.276840,306.438199
1310.738362,7105.977043,-2664.741391,383.047749
1310.738691,7624.121203,-2442.679609,0.000000
1310.739020,7846.182985,-1924.535449,766.095498
1310.739349,8216.285956,-2886.803174,766.095498
1310.739679,8364.327145,-3627.009116,1762.019645
1310.740008,8808.450710,-4145.153275,1532.190996
1310.740337,8216.285956,-6439.791695,1302.362347
1310.740666,7179.997637,-8660.409521,1532.190996
1310.740996,6957.935855,-11399.171507,1378.971896
1310.741325,5625.565159,-12361.439231,766.095498
1310.741654,4885.359217,-11547.212695,459.657299
1310.741983,4811.338623,-9696.697840,0.000000
1310.742313,5847.626942,-7179.997637,383.047749
1310.742642,6365.771101,-6291.750507,842.705048
1310.742971,7105.977043,-4737.318029,842.705048
1310.743300,7402.059420,-2886.803174,536.266849
1310.743630,7624.121203,-2146.597232,383.047749
1310.743959,7254.018232,-2220.617826,995.924147
1310.744288,7698.141797,-3997.112087,1302.362347
1310.744617,8438.347739,-4959.379811,1915.238745
1310.744947,8290.306550,-7031.956449,1915.238745
1310.745276,7328.038826,-8882.471304,2221.676944
1310.745605,6143.709319,-10732.986159,1378.971896
1310.745934,4885.359217,-12879.583391,919.314598
1310.746264,4293.194464,-12139.377449,536.266849
1310.746593,4663.297435,-10214.842000,0.000000
1310.746922,5107.421000,-8068.244768,1072.533697
1310.747251,6587.832884,-5551.544565,995.924147
1310.747581,7105.977043,-3923.091493,1991.848295
1310.747910,7328.038826,-2220.617826,1072.533697
1310.748239,8512.368333,-296.082377,1378.971896
1310.748568,8808.450710,74.020594,766.095498
1310.748898,9770.718434,-1628.453072,1838.629195
1310.749227,9992.780217,-3627.009116,1685.410096
1310.749556,9030.512492,-5477.523971,1915.238745
1310.749885,7920.203579,-7772.162391,689.485948
1310.750215,6143.709319,-11251.130318,689.485948
1310.750544,5255.462188,-13101.645173,1532.190996
1310.750873,5329.482782,-13027.624579,1455.581446
1310.751202,5107.421000,-10362.883188,919.314598
1310.751532,5107.421000,-7920.203579,-153.219100
1310.751861,4515.256246,-6439.791695,0.000000
1310.752190,4959.379811,-4885.359217,229.828649
1310.752519,6069.688724,-4145.153275,383.047749
1310.752849,7105.977043,-1628.453072,919.314598
1310.753178,8290.306550,-1554.432478,842.705048
1310.753507,8808.450710,-3034.844362,1532.190996
1310.753836,9474.636058,-4589.276840,2221.676944
1310.754166,9178.553681,-6587.832884,1685.410096
1310.754495,7698.141797,-7550.100608,995.924147
1310.754824,5625.565159,-11251.130318,689.485948
1310.755153,5033.400406,-12879.583391,766.095498
1310.755483,5699.585753,-12583.501014,919.314598
1310.755812,5625.565159,-10732.986159,459.657299
1310.756141,5477.523971,-8068.244768,689.485948
1310.756470,5995.668130,-5847.626942,1302.362347
1310.756800,6883.915261,-3923.091493,766.095498
1310.757129,7105.977043,-2368.659014,1072.533697
1310.757458,7698.141797,-1184.329507,459.657299
1310.757787,7920.203579,-1702.473667,766.095498
1310.758117,8512.368333,-3330.926739,995.924147
1310.758446,9030.512492,-4145.153275,2145.067394
1310.758775,9622.677246,-5403.503377,1532.190996
1310.759104,8956.491898,-7254.018232,1072.533697
1310.759434,7328.038826,-10140.821405,2221.676944
1310.759763,6661.853478,-12139.377449,1378.971896
1310.760092,6143.709319,-11473.192101,1302.362347
1310.760421,5773.606348,-10066.800811,383.047749
1310.760751,4589.276840,-8068.244768,0.000000
1310.761080,3849.070898,-6513.812290,-383.047749
1310.761409,4737.318029,-5181.441594,-383.047749
1310.761738,5625.565159,-4071.132681,0.000000
1310.762068,7402.059420,-2960.823768,306.438199
1310.762397,8142.265362,-3182.885551,842.705048
1310.762726,8586.388927,-3701.029710,1685.410096
1310.763055,9252.574275,-4367.215058,1838.629195
1310.763385,9474.636058,-5329.482782,2221.676944
1310.763714,8438.347739,-7105.977043,1915.238745
1310.764043,7105.977043,-8956.491898,1378.971896
1310.764373,6069.688724,-11251.130318,1072.533697
1310.764702,5329.482782,-11547.212695,1072.533697
1310.765031,5551.544565,-11029.068536,536.266849
1310.765361,5921.647536,-8216.285956,766.095498
1310.765690,5995.668130,-5921.647536,76.609550
1310.766019,6365.771101,-4219.173869,0.000000
1310.766348,6883.915261,-2442.679609,459.657299
1310.766678,7105.977043,-2590.720797,229.828649
1310.767007,7772.162391,-3256.906145,612.876398
1310.767336,8660.409521,-3552.988522,1608.800546
1310.767666,9622.677246,-4515.256246,1915.238745
1310.767995,9548.656652,-5329.482782,2528.115143
1310.768324,9104.533087,-6513.812290,2145.067394
1310.768654,7994.224174,-8290.306550,1532.190996
1310.768983,6513.812290,-9696.697840,1072.533697
1310.769312,4737.318029,-10881.027347,919.314598
1310.769641,4737.318029,-10140.821405,0.000000
1310.769971,5107.421000,-8438.347739,306.438199
1310.770300,5625.565159,-7402.059420,459.657299
1310.770629,5995.668130,-5625.565159,306.438199
1310.770959,6883.915261,-3627.009116,0.000000
1310.771288,7624.121203,-3256.906145,612.876398
1310.771617,8068.244768,-2886.803174,536.266849
1310.771947,8142.265362,-3997.112087,995.924147
1310.772276,8586.388927,-4663.297435,1302.362347
1310.772605,8660.409521,-6439.791695,2068.457845
1310.772935,8142.265362,-7031.956449,1915.238745
1310.773264,7031.956449,-8956.491898,1608.800546
1310.773593,5995.668130,-11621.233289,1378.971896
1310.773922,5033.400406,-11769.274478,1838.629195
1310.774252,4441.235652,-11177.109724,536.266849
1310.774581,4441.235652,-9326.594869,-383.047749
1310.774910,4811.338623,-7254.018232,306.438199
1310.775240,5625.565159,-5625.565159,383.047749
1310.775569,6143.709319,-3849.070898,536.266849
1310.775898,7031.956449,-3182.885551,229.828649
1310.776228,8216.285956,-2960.823768,919.314598
1310.776557,8734.430116,-2886.803174,1838.629195
1310.776886,8882.471304,-4367.215058,1991.848295
1310.777215,9474.636058,-4441.235652,2451.505594
1310.777545,9326.594869,-5255.462188,2221.676944
1310.777874,7920.203579,-7994.224174,1225.752797
1310.778203,6513.812290,-10066.800811,1685.410096
1310.778533,4885.359217,-11177.109724,1455.581446
1310.778862,5551.544565,-10214.842000,383.047749
1310.779191,5403.503377,-9030.512492,1302.362347
1310.779521,6217.729913,-7772.162391,1915.238745
1310.779850,6513.812290,-5181.441594,1072.533697
1310.780179,5773.606348,-2072.576638,995.924147
1310.780508,5921.647536,-1702.473667,229.828649
1310.780838,7031.956449,-2294.638420,612.876398
1310.781167,7476.080014,-3552.988522,1532.190996
1310.781496,8512.368333,-5107.421000,2374.896044
1310.781826,8734.430116,-6069.688724,2068.457845
1310.782155,8142.265362,-6513.812290,1762.019645
1310.782484,7402.059420,-8882.471304,1532.190996
1310.782814,6513.812290,-10955.047942,1838.629195
1310.783143,5551.544565,-12065.356855,1685.410096
1310.783472,4811.338623,-11769.274478,459.657299
1310.783801,4515.256246,-9548.656652,0.000000
1310.784131,4959.379811,-7550.100608,-229.828649
1310.784460,6069.688724,-6439.791695,153.219100
1310.784789,6809.894666,-5255.462188,689.485948
1310.785119,7402.059420,-3701.029710,612.876398
1310.785448,8068.244768,-1776.494261,459.657299
1310.785777,7994.224174,-1628.453072,689.485948
1310.786107,8734.430116,-2590.720797,1608.800546
1310.786436,9326.594869,-4663.297435,1915.238745
1310.786765,9400.615463,-5773.606348,1838.629195
1310.787094,8660.409521,-7402.059420,1838.629195
1310.787424,7624.121203,-9104.533087,1762.019645
1310.787753,6809.894666,-11177.109724,1915.238745
1310.788082,5921.647536,-11917.315666,1455.581446
1310.788412,5403.503377,-10140.821405,459.657299
1310.788741,4811.338623,-7846.182985,-306.438199
1310.789070,4959.379811,-5773.606348,0.000000
1310.789400,5773.606348,-3997.112087,-306.438199
1310.789729,6513.812290,-3627.009116,-689.485948
1310.790058,7105.977043,-3256.906145,153.219100
1310.790387,7920.203579,-3478.967927,766.095498
1310.790717,9252.574275,-3627.009116,1378.971896
1310.791046,9326.594869,-4145.153275,2068.457845
1310.791375,9178.553681,-5699.585753,1838.629195
1310.791705,8660.409521,-7994.224174,2068.457845
1310.792034,7105.977043,-10584.944971,1225.752797
1310.792363,5995.668130,-12361.439231,1225.752797
1310.792693,4811.338623,-12065.356855,766.095498
1310.793022,4737.318029,-10214.842000,0.000000
1310.793351,5033.400406,-8438.347739,0.000000
1310.793680,5551.544565,-6809.894666,1072.533697
1310.794010,6143.709319,-5181.441594,0.000000
1310.794339,6809.894666,-3108.864956,0.000000
1310.794668,7179.997637,-1702.473667,0.000000
1310.794998,8142.265362,-1332.370696,306.438199
1310.795327,9474.636058,-2664.741391,1838.629195
1310.795656,10140.821405,-3849.070898,2451.505594
1310.795986,10658.965565,-4663.297435,2757.943793
1310.796315,9622.677246,-7031.956449,2528.115143
1310.796644,8068.244768,-8734.430116,2068.457845
1310.796973,7031.956449,-11029.068536,1838.629195
1310.797303,4811.338623,-11695.253884,919.314598
1310.797632,4441.235652,-9844.739029,0.000000
1310.797961,4589.276840,-8586.388927,-383.047749
1310.798291,5403.503377,-6883.915261,766.095498
1310.798620,5329.482782,-5403.503377,306.438199
1310.798949,5995.668130,-4441.235652,229.828649
1310.799279,6883.915261,-2886.803174,76.609550
1310.799608,7624.121203,-2886.803174,766.095498
1310.799937,8216.285956,-3108.864956,1838.629195
1310.800267,9474.636058,-4219.173869,1838.629195
1310.800596,9104.533087,-5181.441594,1991.848295
1310.800925,8290.306550,-6735.874072,2068.457845
1310.801254,7179.997637,-10066.800811,1302.362347
1310.801584,5625.565159,-11917.315666,1532.190996
1310.801913,5033.400406,-12583.501014,1762.019645
1310.802242,4293.194464,-10436.903782,536.266849
1310.802572,4145.153275,-8290.306550,1149.143247
1310.802901,4737.318029,-6439.791695,1991.848295
1310.803230,5625.565159,-4515.256246,919.314598
1310.803560,6587.832884,-1776.494261,1455.581446
1310.803889,7994.224174,-148.041188,1072.533697
1310.804218,9178.553681,222.061783,766.095498
1310.804547,8882.471304,-2886.803174,1302.362347
1310.804877,9104.533087,-4293.194464,1762.019645
1310.805206,8734.430116,-6661.853478,1225.752797
1310.805535,7624.121203,-7920.203579,1532.190996
1310.805865,6809.894666,-10214.842000,1838.629195
1310.806194,6217.729913,-12361.439231,1838.629195
1310.806523,5921.647536,-12435.459826,1455.581446
1310.806853,5255.462188,-11251.130318,766.095498
1310.807182,4737.318029,-8142.265362,0.000000
1310.807511,4293.194464,-6809.894666,-536.266849
1310.807840,4663.297435,-5625.565159,-1072.533697
1310.808170,5551.544565,-5107.421000,76.609550
1310.808499,7105.977043,-3849.070898,229.828649
1310.808828,8660.409521,-3256.906145,842.705048
1310.809158,9474.636058,-3923.091493,1991.848295
1310.809487,9622.677246,-3330.926739,2145.067394
1310.809816,9326.594869,-4737.318029,1838.629195
1310.810146,8438.347739,-6587.832884,1762.019645
1310.810475,7772.162391,-8734.430116,1608.800546
1310.810804,6143.709319,-11695.253884,1838.629195
1310.811133,5551.544565,-12361.439231,1762.019645
1310.811463,4589.276840,-10955.047942,919.314598
1310.811792,4441.235652,-7624.121203,995.924147
1310.812121,4737.318029,-6439.791695,229.828649
1310.812451,6143.709319,-4441.235652,459.657299
1310.812780,7476.080014,-2664.741391,229.828649
1310.813109,8142.265362,-1184.329507,229.828649
1310.813439,9326.594869,-1184.329507,459.657299
1310.813768,9474.636058,-2146.597232,995.924147
1310.814097,10732.986159,-3182.885551,2221.676944
1310.814426,10584.944971,-4811.338623,2911.162892
1310.814756,10066.800811,-5477.523971,2374.896044
1310.815085,8290.306550,-8068.244768,2068.457845
1310.815414,6661.853478,-10436.903782,1225.752797
1310.815744,5255.462188,-11325.150913,689.485948
1310.816073,4515.256246,-11547.212695,612.876398
1310.816402,3923.091493,-9622.677246,-229.828649
1310.816732,4071.132681,-7550.100608,0.000000
1310.817061,4145.153275,-6069.688724,-383.047749
1310.817390,5033.400406,-4959.379811,-153.219100
1310.817719,6143.709319,-4515.256246,-153.219100
1310.818049,8216.285956,-2886.803174,153.219100
1310.818378,9474.636058,-3330.926739,1685.410096
1310.818707,10362.883188,-3552.988522,2145.067394
1310.819037,10066.800811,-4737.318029,1991.848295
1310.819366,9178.553681,-6365.771101,1915.238745
1310.819695,7550.100608,-8882.471304,1532.190996
1310.820025,5551.544565,-10955.047942,766.095498
1310.820354,4219.173869,-13175.665768,842.705048
1310.820683,3701.029710,-12509.480420,306.438199
1310.821012,4219.173869,-10807.006753,383.047749
1310.821342,4811.338623,-8142.265362,306.438199
1310.821671,5625.565159,-5773.606348,0.000000
1310.822000,6439.791695,-3923.091493,306.438199
1310.822330,7105.977043,-1998.556043,306.438199
1310.822659,8216.285956,-1184.329507,229.828649
1310.822988,8808.450710,-1924.535449,995.924147
1310.823318,10140.821405,-2960.823768,2145.067394
1310.823647,11177.109724,-5107.421000,2911.162892
1310.823976,10362.883188,-4737.318029,2757.943793
1310.824305,8808.450710,-7105.977043,2451.505594
1310.824635,7105.977043,-9622.677246,2145.067394
1310.824964,5551.544565,-11029.068536,1072.533697
1310.825293,4663.297435,-11917.315666,306.438199
1310.825623,4885.359217,-10362.883188,0.000000
1310.825952,4589.276840,-8068.244768,229.828649
1310.826281,4959.379811,-7105.977043,229.828649
1310.826611,5255.462188,-5033.400406,153.219100
1310.826940,6439.791695,-3404.947333,459.657299
1310.827269,7105.977043,-3923.091493,459.657299
1310.827599,7846.182985,-2812.782580,1149.143247
1310.827928,8808.450710,-3404.947333,1991.848295
1310.828257,9326.594869,-4367.215058,2374.896044
1310.828586,8956.491898,-5033.400406,2757.943793
1310.828916,7698.141797,-7031.956449,1532.190996
1310.829245,6365.771101,-10214.842000,1532.190996
1310.829574,5403.503377,-11399.171507,1072.533697
1310.829904,4959.379811,-11991.336260,1072.533697
1310.830233,4737.318029,-10140.821405,766.095498
1310.830562,5181.441594,-7550.100608,536.266849
1310.830892,5921.647536,-6217.729913,536.266849
1310.831221,6883.915261,-4589.276840,1072.533697
1310.831550,7402.059420,-2516.700203,153.219100
1310.831879,7328.038826,-1406.391290,919.314598
1310.832209,8216.285956,-1110.308913,459.657299
1310.832538,8290.306550,-2812.782580,1225.752797
1310.832867,8808.450710,-4589.276840,2298.286494
1310.833197,8882.471304,-5107.421000,2911.162892
1310.833526,8216.285956,-6883.915261,1378.971896
1310.833855,7105.977043,-9178.553681,1991.848295
1310.834185,6439.791695,-11547.212695,1762.019645
1310.834514,6439.791695,-11991.336260,919.314598
1310.834843,5773.606348,-10807.006753,1072.533697
1310.835172,5551.544565,-8512.368333,0.000000
1310.835502,5329.482782,-7031.956449,-459.657299
1310.835831,5699.585753,-5625.565159,-689.485948
1310.836160,6217.729913,-4663.297435,383.047749
1310.836490,7179.997637,-4145.153275,306.438199
1310.836819,7698.141797,-3034.844362,306.438199
1310.837148,8142.265362,-4145.153275,995.924147
1310.837478,8438.347739,-4737.318029,2068.457845
1310.837807,8216.285956,-5329.482782,1072.533697
1310.838136,7624.121203,-6883.915261,1302.362347
1310.838465,6735.874072,-9104.533087,1532.190996
1310.838795,6439.791695,-11769.274478,1762.019645
1310.839124,5551.544565,-11769.274478,1915.238745
1310.839453,5477.523971,-10362.883188,1378.971896
1310.839783,5181.441594,-8586.388927,153.219100
1310.840112,4737.318029,-6957.935855,-229.828649
1310.840441,5551.544565,-5181.441594,459.657299
1310.840771,7328.038826,-3330.926739,76.609550
1310.841100,7698.141797,-2072.576638,306.438199
1310.841429,7920.203579,-1554.432478,536.266849
1310.841758,8808.450710,-2516.700203,1225.752797
1310.842088,9474.636058,-3182.885551,1762.019645
1310.842417,9474.636058,-4589.276840,2298.286494
1310.842746,9178.553681,-5847.626942,1838.629195
1310.843076,8216.285956,-7846.182985,1685.410096
1310.843405,7179.997637,-10362.883188,1225.752797
1310.843734,6809.894666,-11769.274478,2068.457845
1310.844064,6513.812290,-10510.924376,995.924147
1310.844393,6217.729913,-8142.265362,536.266849
1310.844722,5699.585753,-6883.915261,766.095498
1310.845051,5847.626942,-5107.421000,0.000000
1310.845381,6069.688724,-4515.256246,153.219100
1310.845710,6365.771101,-3256.906145,76.609550
1310.846039,6365.771101,-2960.823768,-536.266849
1310.846369,7476.080014,-3627.009116,766.095498
1310.846698,8512.368333,-5107.421000,2681.334243
1310.847027,8512.368333,-5921.647536,2451.505594
1310.847357,7920.203579,-6809.894666,1991.848295
1310.847686,7105.977043,-8364.327145,1455.581446
1310.848015,5921.647536,-11029.068536,995.924147
1310.848344,4589.276840,-12435.459826,689.485948
1310.848674,4071.132681,-11917.315666,459.657299
1310.849003,4737.318029,-9548.656652,76.609550
1310.849332,5403.503377,-8216.285956,842.705048
1310.849662,5995.668130,-5773.606348,1455.581446
1310.849991,6809.894666,-4219.173869,612.876398
1310.850320,7105.977043,-2442.679609,1149.143247
1310.850650,8068.244768,-1480.411884,536.266849
1310.850979,8808.450710,-2146.597232,1149.143247
1310.851308,9696.697840,-1628.453072,2068.457845
1310.851637,9770.718434,-3923.091493,1532.190996
1310.851967,8734.430116,-5773.606348,2145.067394
1310.852296,7920.203579,-7846.182985,1378.971896
1310.852625,7550.100608,-10214.842000,1378.971896
1310.852955,6957.935855,-10658.965565,1762.019645
1310.853284,6217.729913,-11103.089130,1455.581446
1310.853613,5551.544565,-9252.574275,459.657299
1310.853943,5181.441594,-7476.080014,536.266849
1310.854272,5477.523971,-5551.544565,153.219100
1310.854601,5847.626942,-4737.318029,229.828649
1310.854931,6513.812290,-4293.194464,766.095498
1310.855260,7254.018232,-3182.885551,536.266849
1310.855589,7994.224174,-3775.050304,1149.143247
1310.855918,8586.388927,-4293.194464,1915.238745
1310.856248,8956.491898,-5403.503377,1915.238745
1310.856577,8290.306550,-5477.523971,1455.581446
1310.856906,6439.791695,-7476.080014,612.876398
1310.857236,5847.626942,-10807.006753,536.266849
1310.857565,5255.462188,-12139.377449,536.266849
1310.857894,4811.338623,-12435.459826,842.705048
1310.858224,4737.318029,-10658.965565,536.266849
1310.858553,5033.400406,-7698.141797,0.000000
1310.858882,5847.626942,-5551.544565,153.219100
1310.859211,6587.832884,-4441.235652,995.924147
1310.859541,7698.141797,-3034.844362,1072.533697
1310.859870,8364.327145,-962.267725,842.705048
1310.860199,8956.491898,-1184.329507,153.219100
1310.860529,8660.409521,-2664.741391,1455.581446
1310.860858,8808.450710,-4589.276840,1915.238745
1310.861187,9400.615463,-6291.750507,2374.896044
1310.861517,8882.471304,-6883.915261,2068.457845
1310.861846,7994.224174,-9178.553681,1378.971896
1310.862175,6809.894666,-10807.006753,1378.971896
1310.862504,5477.523971,-11621.233289,1225.752797
1310.862833,4441.235652,-9992.780217,76.609550
1310.863162,3849.070898,-8068.244768,-76.609550
1310.863491,4885.359217,-6291.750507,-536.266849
1310.863820,5995.668130,-5551.544565,76.609550
1310.864149,7254.018232,-3923.091493,1378.971896
1310.864478,8364.327145,-2886.803174,1149.143247
1310.864807,8882.471304,-2146.597232,1225.752797
1310.865136,9030.512492,-3478.967927,1608.800546
1310.865465,8808.450710,-4441.235652,1225.752797
1310.865794,8290.306550,-5255.462188,689.485948
1310.866123,7624.121203,-7550.100608,1149.143247
1310.866452,6513.812290,-10510.924376,1455.581446
1310.866781,5255.462188,-12287.418637,1455.581446
1310.867111,4959.379811,-12139.377449,842.705048
1310.867440,4737.318029,-11473.192101,153.219100
1310.867769,4145.153275,-9104.533087,536.266849
1310.868098,4441.235652,-7179.997637,-383.047749
1310.868427,4811.338623,-5699.585753,-153.219100
1310.868756,6291.750507,-3108.864956,76.609550
1310.869085,7698.141797,-2664.741391,459.657299
1310.869414,9104.533087,-1258.350101,1302.362347
1310.869743,10066.800811,-2220.617826,1838.629195
1310.870072,10362.883188,-4515.256246,2298.286494
1310.870401,10066.800811,-4737.318029,2374.896044
1310.870730,9030.512492,-5995.668130,1838.629195
1310.871059,7105.977043,-7772.162391,995.924147
1310.871388,5847.626942,-10584.944971,1149.143247
1310.871717,5255.462188,-11547.212695,919.314598
1310.872046,4737.318029,-10436.903782,459.657299
1310.872376,4737.318029,-8512.368333,229.828649
1310.872705,5255.462188,-6365.771101,153.219100
1310.873034,5477.523971,-5773.606348,229.828649
1310.873363,6661.853478,-3775.050304,689.485948
1310.873692,7920.203579,-2368.659014,919.314598
1310.874021,9400.615463,-2294.638420,1532.190996
1310.874350,9474.636058,-2368.659014,1762.019645
1310.874679,9252.574275,-4293.194464,2221.676944
1310.875008,8586.388927,-5107.421000,1991.848295
1310.875337,7624.121203,-6735.874072,1608.800546
1310.875666,6661.853478,-9326.594869,1685.410096
1310.875995,6291.750507,-11473.192101,1532.190996
1310.876324,5699.585753,-11991.336260,1225.752797
1310.876653,4737.318029,-11251.130318,689.485948
1310.876982,3923.091493,-8660.409521,612.876398
1310.877311,4367.215058,-7698.141797,-229.828649
1310.877640,5033.400406,-6365.771101,0.000000
1310.877970,6365.771101,-4737.318029,459.657299
1310.878299,7550.100608,-3182.885551,306.438199
1310.878628,8882.471304,-1850.514855,919.314598
1310.878957,9474.636058,-2516.700203,1225.752797
1310.879286,9548.656652,-3849.070898,2221.676944
1310.879615,9326.594869,-4219.173869,2068.457845
1310.879944,8068.244768,-5847.626942,842.705048
1310.880273,7254.018232,-7920.203579,1455.581446
1310.880602,6513.812290,-9844.739029,1455.581446
1310.880931,6809.894666,-10732.986159,1608.800546
1310.881260,6365.771101,-9918.759623,1378.971896
1310.881589,6143.709319,-7846.182985,536.266849
1310.881918,6365.771101,-6661.853478,536.266849
1310.882247,6143.709319,-5477.523971,612.876398
1310.882576,6143.709319,-4071.132681,0.000000
1310.882905,6143.709319,-3034.844362,536.266849
1310.883234,7402.059420,-2516.700203,1072.533697
1310.883564,8586.388927,-3330.926739,1455.581446
1310.883893,9030.512492,-4885.359217,2834.553343
1310.884222,9474.636058,-4441.235652,2528.115143
1310.884551,8438.347739,-5921.647536,2068.457845
1310.884880,6217.729913,-8586.388927,919.314598
1310.885209,4959.379811,-11251.130318,1072.533697
1310.885538,4959.379811,-12657.521608,842.705048
1310.885867,5255.462188,-11991.336260,1072.533697
1310.886196,4663.297435,-9918.759623,536.266849
1310.886525,5181.441594,-8290.306550,459.657299
1310.886854,6069.688724,-6143.709319,306.438199
1310.887183,7105.977043,-4737.318029,536.266849
1310.887512,7402.059420,-3478.967927,229.828649
1310.887841,8216.285956,-2220.617826,689.485948
1310.888170,8142.265362,-2590.720797,383.047749
1310.888499,7994.224174,-3997.112087,1762.019645
1310.888829,8364.327145,-5477.523971,1608.800546
1310.889158,7920.203579,-5847.626942,1455.581446
1310.889487,7105.977043,-7846.182985,1302.362347
1310.889816,7031.956449,-10066.800811,1455.581446
1310.890145,6735.874072,-11251.130318,1838.629195
1310.890474,6291.750507,-11399.171507,1838.629195
1310.890803,5847.626942,-8660.409521,1072.533697
1310.891132,5773.606348,-7179.997637,919.314598
1310.891461,5773.606348,-5625.565159,919.314598
1310.891790,6143.709319,-4367.215058,689.485948
1310.892119,7179.997637,-2368.659014,1149.143247
1310.892448,7920.203579,-1850.514855,689.485948
1310.892777,8216.285956,-2738.761985,995.924147
1310.893106,8216.285956,-3775.050304,1762.019645
1310.893435,8216.285956,-4811.338623,1532.190996
1310.893764,7402.059420,-6217.729913,995.924147
1310.894093,7031.956449,-8216.285956,1532.190996
1310.894423,5995.668130,-11547.212695,1149.143247
1310.894752,5403.503377,-13175.665768,1378.971896
1310.895081,5255.462188,-11769.274478,536.266849
1310.895410,4811.338623,-10436.903782,229.828649
1310.895739,5033.400406,-8142.265362,536.266849
1310.896068,5921.647536,-6587.832884,536.266849
1310.896397,6809.894666,-5107.421000,536.266849
1310.896726,7402.059420,-2738.761985,842.705048
1310.897055,7105.977043,-2220.617826,153.219100
1310.897384,7772.162391,-2368.659014,689.485948
1310.897713,8290.306550,-4219.173869,1072.533697
1310.898042,9178.553681,-4959.379811,2221.676944
1310.898371,8364.327145,-5329.482782,1608.800546
1310.898700,8142.265362,-6735.874072,1378.971896
1310.899029,7920.203579,-8882.471304,1838.629195
1310.899358,7179.997637,-10881.027347,1455.581446
1310.899687,6439.791695,-10658.965565,1378.971896
1310.900017,5403.503377,-9104.533087,612.876398
1310.900346,5107.421000,-7402.059420,0.000000
1310.900675,6143.709319,-5625.565159,536.266849
1310.901004,6661.853478,-4737.318029,766.095498
1310.901333,7550.100608,-3108.864956,536.266849
1310.901662,7624.121203,-2664.741391,383.047749
1310.901991,8142.265362,-2886.803174,1149.143247
1310.902320,9178.553681,-2738.761985,1685.410096
1310.902649,9696.697840,-3775.050304,1915.238745
1310.902978,9030.512492,-4885.359217,2068.457845
1310.903307,7994.224174,-7179.997637,1762.019645
1310.903636,7179.997637,-9474.636058,1455.581446
1310.903965,6217.729913,-11399.171507,1532.190996
1310.904294,5773.606348,-12361.439231,1302.362347
1310.904623,5033.400406,-10510.924376,536.266849
1310.904952,4441.235652,-8660.409521,0.000000
1310.905282,4293.194464,-7105.977043,306.438199
1310.905611,4959.379811,-5033.400406,153.219100
1310.905940,6069.688724,-4145.153275,0.000000
1310.906269,6883.915261,-3108.864956,0.000000
1310.906598,7624.121203,-3997.112087,306.438199
1310.906927,7994.224174,-4293.194464,1532.190996
1310.907256,8660.409521,-5033.400406,2604.724693
1310.907585,8808.450710,-5329.482782,1838.629195
1310.907914,8734.430116,-6365.771101,1915.238745
1310.908243,7994.224174,-9326.594869,1838.629195
1310.908572,7105.977043,-10584.944971,1685.410096
1310.908901,5699.585753,-11251.130318,1225.752797
1310.909230,5329.482782,-9474.636058,76.609550
1310.909559,4737.318029,-7920.203579,0.000000
1310.909888,5329.482782,-6809.894666,153.219100
1310.910217,6217.729913,-5107.421000,0.000000
1310.910546,6735.874072,-4219.173869,612.876398
1310.910876,7772.162391,-2960.823768,995.924147
1310.911205,8364.327145,-2516.700203,995.924147
1310.911534,8586.388927,-3256.906145,1838.629195
1310.911863,9326.594869,-4293.194464,2068.457845
1310.912192,9030.512492,-5625.565159,2298.286494
1310.912521,8438.347739,-6735.874072,2221.676944
1310.912850,7179.997637,-9474.636058,1762.019645
1310.913179,6143.709319,-10881.027347,1378.971896
1310.913508,4737.318029,-11621.233289,1149.143247
1310.913837,4663.297435,-11103.089130,0.000000
1310.914166,4367.215058,-8438.347739,76.609550
1310.914495,4811.338623,-7402.059420,229.828649
1310.914824,6143.709319,-5181.441594,536.266849
1310.915153,6809.894666,-3552.988522,842.705048
1310.915482,7550.100608,-3034.844362,689.485948
1310.915811,7846.182985,-2442.679609,995.924147
1310.916140,8512.368333,-3478.967927,1455.581446
1310.916470,8882.471304,-4737.318029,1991.848295
1310.916799,8512.368333,-6291.750507,1915.238745
1310.917128,7846.182985,-6883.915261,1685.410096
1310.917457,7031.956449,-9252.574275,1302.362347
1310.917786,6513.812290,-10362.883188,2374.896044
1310.918115,6365.771101,-10732.986159,1608.800546
1310.918444,5847.626942,-9918.759623,1302.362347
1310.918773,5403.503377,-7772.162391,919.314598
1310.919102,5181.441594,-6587.832884,229.828649
1310.919431,5773.606348,-5033.400406,536.266849
1310.919760,5625.565159,-5107.421000,689.485948
1310.920089,6513.812290,-3552.988522,-153.219100
1310.920418,7624.121203,-3256.906145,842.705048
1310.920747,8882.471304,-3997.112087,1685.410096
1310.921076,9548.656652,-4515.256246,2221.676944
1310.921405,9474.636058,-5107.421000,2604.724693
1310.921735,8734.430116,-5403.503377,1685.410096
1310.922064,7179.997637,-8142.265362,766.095498
1310.922393,5625.565159,-10732.986159,1608.800546
1310.922722,5033.400406,-11843.295072,689.485948
1310.923051,5181.441594,-10732.986159,766.095498
1310.923380,5181.441594,-8660.409521,842.705048
1310.923709,5699.585753,-7105.977043,383.047749
1310.924038,6513.812290,-4737.318029,766.095498
1310.924367,7105.977043,-3552.988522,536.266849
1310.924696,7698.141797,-2738.761985,229.828649
1310.925025,8142.265362,-1702.473667,76.609550
1310.925354,8216.285956,-2664.741391,1072.533697
1310.925683,9400.615463,-4293.194464,1532.190996
1310.926012,9178.553681,-5403.503377,2145.067394
1310.926341,8438.347739,-6069.688724,2068.457845
1310.926670,7254.018232,-8142.265362,1608.800546
1310.926999,6809.894666,-10214.842000,2068.457845
1310.927329,5847.626942,-11325.150913,1455.581446
1310.927658,4959.379811,-11177.109724,995.924147
1310.927987,4737.318029,-8586.388927,306.438199
1310.928316,4959.379811,-6957.935855,-612.876398
1310.928645,5329.482782,-5847.626942,0.000000
1310.928974,6291.750507,-4515.256246,689.485948
1310.929303,7254.018232,-3997.112087,689.485948
1310.929632,8142.265362,-2664.741391,995.924147
1310.929961,8808.450710,-3256.906145,1149.143247
1310.930290,9474.636058,-3552.988522,1685.410096
1310.930619,9474.636058,-4441.235652,2298.286494
1310.930948,9030.512492,-5625.565159,1455.581446
1310.931277,7698.141797,-7698.141797,2221.676944
1310.931606,5921.647536,-10066.800811,1378.971896
1310.931935,5181.441594,-11695.253884,766.095498
1310.932264,4737.318029,-11251.130318,689.485948
1310.932593,5255.462188,-9918.759623,842.705048
1310.932923,5773.606348,-8216.285956,383.047749
1310.933252,6143.709319,-6143.709319,536.266849
1310.933581,6291.750507,-4071.132681,0.000000
1310.933910,6735.874072,-3404.947333,-229.828649
1310.934239,7402.059420,-3182.885551,383.047749
1310.934568,7846.182985,-3552.988522,842.705048
1310.934897,9178.553681,-3997.112087,1685.410096
1310.935226,9252.574275,-4515.256246,2451.505594
1310.935555,8586.388927,-6069.688724,2145.067394
1310.935884,7624.121203,-7698.141797,1608.800546
1310.936213,6439.791695,-9252.574275,1302.362347
1310.936542,5033.400406,-11621.233289,536.266849
1310.936871,4663.297435,-11843.295072,459.657299
1310.937200,4885.359217,-10288.862594,306.438199
1310.937529,5329.482782,-8586.388927,919.314598
1310.937858,5921.647536,-6291.750507,689.485948
1310.938188,6291.750507,-4737.318029,0.000000
1310.938517,6809.894666,-3627.009116,0.000000
1310.938846,8290.306550,-2664.741391,766.095498
1310.939175,8882.471304,-3034.844362,1685.410096
1310.939504,9622.677246,-3330.926739,2068.457845
1310.939833,9252.574275,-3775.050304,2451.505594
1310.940162,9178.553681,-5329.482782,2221.676944
1310.940491,7994.224174,-6587.832884,1915.238745
1310.940820,6291.750507,-9400.615463,1762.019645
1310.941149,5625.565159,-11103.089130,1532.190996
1310.941478,5181.441594,-11029.068536,1378.971896
1310.941807,5107.421000,-10140.821405,1149.143247
1310.942136,5033.400406,-8216.285956,0.000000
1310.942465,5033.400406,-6069.688724,306.438199
1310.942794,5995.668130,-4737.318029,0.000000
1310.943123,6809.894666,-3849.070898,383.047749
1310.943452,7772.162391,-2368.659014,1378.971896
1310.943782,8734.430116,-2960.823768,1072.533697
1310.944111,8808.450710,-3404.947333,1685.410096
1310.944440,8216.285956,-4737.318029,1991.848295
1310.944769,8068.244768,-6143.709319,1455.581446
1310.945098,7624.121203,-6439.791695,1991.848295
1310.945427,7179.997637,-9548.656652,1455.581446
1310.945756,6809.894666,-11325.150913,2145.067394
1310.946085,5625.565159,-11547.212695,1532.190996
1310.946414,5329.482782,-10066.800811,536.266849
1310.946743,4737.318029,-7846.182985,306.438199
1310.947072,4885.359217,-6513.812290,76.609550
1310.947401,5625.565159,-5181.441594,0.000000
1310.947730,6439.791695,-3923.091493,306.438199
1310.948059,7105.977043,-3256.906145,76.609550
1310.948388,7994.224174,-2590.720797,0.000000
1310.948717,9030.512492,-3552.988522,1915.238745
1310.949046,9474.636058,-4219.173869,2604.724693
1310.949376,9252.574275,-5551.544565,2221.676944
1310.949705,8808.450710,-6217.729913,2374.896044
1310.950034,6883.915261,-8586.388927,1455.581446
1310.950363,5773.606348,-10658.965565,1149.143247
1310.950692,5551.544565,-11473.192101,1149.143247
1310.951021,5477.523971,-11029.068536,1302.362347
1310.951350,5181.441594,-9326.594869,536.266849
1310.951679,4959.379811,-7031.956449,229.828649
1310.952008,5551.544565,-5625.565159,-306.438199
1310.952337,6883.915261,-4071.132681,306.438199
1310.952666,7328.038826,-2220.617826,842.705048
1310.952995,8364.327145,-2220.617826,459.657299
1310.953324,8956.491898,-2516.700203,1378.971896
1310.953653,9030.512492,-3849.070898,1915.238745
1310.953982,9400.615463,-5181.441594,2145.067394
1310.954311,9030.512492,-6217.729913,1991.848295
1310.954641,8290.306550,-8808.450710,1608.800546
1310.954970,7105.977043,-10584.944971,1915.238745
1310.955299,6217.729913,-11177.109724,1455.581446
1310.955628,6069.688724,-10658.965565,229.828649
1310.955957,4959.379811,-8956.491898,-153.219100
1310.956286,3997.112087,-8290.306550,-383.047749
1310.956615,4219.173869,-7179.997637,-306.438199
1310.956944,5033.400406,-5033.400406,-306.438199
1310.957273,5921.647536,-3256.906145,0.000000
1310.957602,7624.121203,-3108.864956,459.657299
1310.957931,9252.574275,-3330.926739,2221.676944
1310.958260,9992.780217,-3849.070898,2451.505594
1310.958589,9622.677246,-4663.297435,2681.334243
1310.958918,8438.347739,-4959.379811,1455.581446
1310.959247,7105.977043,-8438.347739,995.924147
1310.959576,5921.647536,-11251.130318,1225.752797
1310.959905,5329.482782,-12879.583391,1225.752797
1310.960235,5255.462188,-11473.192101,1302.362347
1310.960564,5551.544565,-9104.533087,919.314598
1310.960893,5551.544565,-7105.977043,612.876398
1310.961222,5551.544565,-4885.359217,229.828649
1310.961551,5847.626942,-3256.906145,383.047749
1310.961880,7105.977043,-2294.638420,76.609550
1310.962209,7994.224174,-1554.432478,383.047749
1310.962538,8808.450710,-2294.638420,1302.362347
1310.962867,9474.636058,-3330.926739,2068.457845
1310.963196,9474.636058,-5329.482782,3370.820191
1310.963525,9696.697840,-5847.626942,2451.505594
1310.963854,8882.471304,-7846.182985,2068.457845
1310.964183,7105.977043,-9844.739029,1608.800546
1310.964512,5477.523971,-11029.068536,1225.752797
1310.964841,5107.421000,-11769.274478,306.438199
1310.965170,4219.173869,-10436.903782,76.609550
1310.965499,3182.885551,-9178.553681,-459.657299
1310.965828,3552.988522,-7328.038826,-383.047749
1310.966157,4811.338623,-5033.400406,-306.438199
1310.966486,6735.874072,-4737.318029,229.828649
1310.966815,8734.430116,-2590.720797,1225.752797
1310.967144,9252.574275,-3034.844362,1762.019645
1310.967473,9622.677246,-2886.803174,1762.019645
1310.967802,9696.697840,-3404.947333,1685.410096
1310.968131,8734.430116,-5255.462188,1991.848295
1310.968460,8142.265362,-7476.080014,1685.410096
1310.968789,6957.935855,-10807.006753,1915.238745
1310.969118,5699.585753,-11695.253884,1685.410096
1310.969447,5847.626942,-11251.130318,1225.752797
1310.969776,5551.544565,-9918.759623,1072.533697
1310.970105,4441.235652,-7328.038826,76.609550
1310.970434,3997.112087,-6513.812290,-383.047749
1310.970763,4959.379811,-4663.297435,-383.047749
1310.971092,6365.771101,-3478.967927,383.047749
1310.971421,8216.285956,-3108.864956,766.095498
1310.971750,9104.533087,-2368.659014,1455.581446
1310.972079,9400.615463,-3478.967927,1991.848295
1310.972408,9548.656652,-3478.967927,1915.238745
1310.972737,9178.553681,-4737.318029,1915.238745
1310.973066,8512.368333,-7031.956449,1302.362347
1310.973395,7254.018232,-9326.594869,1149.143247
1310.973724,5033.400406,-11547.212695,1149.143247
1310.974053,5033.400406,-12435.459826,995.924147
1310.974382,4959.379811,-10436.903782,766.095498
1310.974711,4811.338623,-8956.491898,76.609550
1310.975040,5181.441594,-6957.935855,76.609550
1310.975369,6069.688724,-4737.318029,153.219100
1310.975698,6957.935855,-3849.070898,229.828649
1310.976027,7402.059420,-2590.720797,612.876398
1310.976356,8512.368333,-2886.803174,995.924147
1310.976685,8882.471304,-3330.926739,1455.581446
1310.977014,8956.491898,-4515.256246,2145.067394
1310.977343,8216.285956,-5403.503377,2145.067394
1310.977672,8068.244768,-6735.874072,1838.629195
1310.978001,7031.956449,-9844.739029,1838.629195
1310.978330,6143.709319,-11177.109724,1762.019645
1310.978659,5403.503377,-11103.089130,1225.752797
1310.978988,5403.503377,-9622.677246,1072.533697
1310.979317,5477.523971,-8068.244768,229.828649
1310.979646,5033.400406,-6735.874072,536.266849
1310.979975,5625.565159,-5033.400406,459.657299
1310.980304,6661.853478,-3849.070898,229.828649
1310.980633,7624.121203,-2590.720797,306.438199
1310.980962,8216.285956,-2886.803174,689.485948
1310.981291,9030.512492,-3404.947333,842.705048
1310.981620,8956.491898,-3923.091493,1991.848295
1310.981949,8882.471304,-5181.441594,1378.971896
1310.982278,8512.368333,-6735.874072,1838.629195
1310.982607,7328.038826,-9252.574275,1302.362347
1310.982936,6365.771101,-10807.006753,766.095498
1310.983265,5625.565159,-11695.253884,1149.143247
1310.983594,5625.565159,-10658.965565,919.314598
1310.983923,5551.544565,-8660.409521,383.047749
1310.984252,4885.359217,-6735.874072,842.705048
1310.984581,5107.421000,-5921.647536,0.000000
1310.984910,5699.585753,-4959.379811,0.000000
1310.985239,6883.915261,-3923.091493,612.876398
1310.985568,7476.080014,-3182.885551,842.705048
1310.985897,8660.409521,-3256.906145,1608.800546
1310.986226,8882.471304,-4737.318029,2068.457845
1310.986555,8438.347739,-5699.585753,2145.067394
1310.986884,7476.080014,-6587.832884,1762.019645
1310.987213,6291.750507,-8956.491898,842.705048
1310.987542,4959.379811,-11177.109724,1072.533697
1310.987871,4811.338623,-12065.356855,1072.533697
1310.988200,5847.626942,-10807.006753,1302.362347
1310.988529,6883.915261,-8290.306550,1455.581446
1310.988858,7772.162391,-5255.462188,536.266849
1310.989187,7179.997637,-4367.215058,459.657299
1310.989516,7328.038826,-3182.885551,536.266849
1310.989845,7698.141797,-1924.535449,306.438199
1310.990174,7698.141797,-1850.514855,536.266849
1310.990503,7920.203579,-3034.844362,1149.143247
1310.990832,8290.306550,-3701.029710,1838.629195
1310.991161,7994.224174,-5773.606348,2145.067394
1310.991490,7254.018232,-6883.915261,1378.971896
1310.991819,7550.100608,-7846.182985,1455.581446
1310.992148,6809.894666,-10288.862594,1838.629195
1310.992477,6439.791695,-11473.192101,1608.800546
1310.992806,5773.606348,-10214.842000,1378.971896
1310.993135,6217.729913,-8586.388927,612.876398
1310.993464,6143.709319,-5995.668130,689.485948
1310.993793,6143.709319,-5403.503377,536.266849
1310.994122,6217.729913,-4811.338623,0.000000
1310.994451,7031.956449,-3182.885551,76.609550
1310.994780,7624.121203,-3182.885551,689.485948
1310.995109,8438.347739,-3330.926739,1685.410096
1310.995438,8290.306550,-3923.091493,2298.286494
1310.995767,7402.059420,-5403.503377,1685.410096
1310.996096,6587.832884,-7031.956449,612.876398
1310.996425,5995.668130,-8808.450710,459.657299
1310.996754,5625.565159,-11917.315666,1455.581446
1310.997083,5847.626942,-12583.501014,1838.629195
1310.997412,6217.729913,-10881.027347,1378.971896
1310.997741,6513.812290,-8882.471304,919.314598
1310.998070,6957.935855,-6513.812290,1532.190996
1310.998399,6883.915261,-5477.523971,919.314598
1310.998728,7328.038826,-3256.906145,1225.752797
1310.999057,7698.141797,-1184.329507,153.219100
1310.999386,8142.265362,-1258.350101,919.314598
1310.999715,8216.285956,-2146.597232,1455.581446
1311.000044,8882.471304,-3997.112087,2145.067394
1311.000373,8512.368333,-4737.318029,2221.676944
1311.000702,7698.141797,-5329.482782,1455.581446
1311.001031,6587.832884,-7846.182985,612.876398
1311.001360,5699.585753,-10807.006753,689.485948
1311.001689,5181.441594,-13397.727550,842.705048
1311.002018,5107.421000,-12435.459826,919.314598
1311.002347,5699.585753,-9474.636058,459.657299
1311.002676,6217.729913,-7105.977043,536.266849
1311.003005,6439.791695,-6513.812290,536.266849
1311.003334,6957.935855,-5107.421000,536.266849
1311.003663,7328.038826,-3182.885551,0.000000
1311.003992,8142.265362,-2146.597232,0.000000
1311.004321,8512.368333,-2368.659014,1378.971896
1311.004650,8882.471304,-3775.050304,1532.190996
1311.004979,7994.224174,-5329.482782,1608.800546
1311.005308,6735.874072,-7254.018232,1225.752797
1311.005637,6439.791695,-8660.409521,1302.362347
1311.005966,6291.750507,-10807.006753,1455.581446
1311.006295,5625.565159,-11547.212695,1455.581446
1311.006624,5403.503377,-11103.089130,919.314598
1311.006953,5699.585753,-9104.533087,766.095498
1311.007282,5847.626942,-6587.832884,306.438199
1311.007611,5921.647536,-5995.668130,689.485948
1311.007940,7105.977043,-3849.070898,919.314598
1311.008269,7994.224174,-2960.823768,766.095498
1311.008598,8734.430116,-2886.803174,536.266849
1311.008927,8364.327145,-2072.576638,1225.752797
1311.009256,8882.471304,-2960.823768,1378.971896
1311.009585,9178.553681,-3478.967927,1915.238745
1311.009914,8438.347739,-4885.359217,1762.019645
1311.010243,7624.121203,-7550.100608,995.924147
1311.010572,6217.729913,-10214.842000,1072.533697
1311.010901,5403.503377,-12065.356855,1149.143247
1311.011231,5033.400406,-12361.439231,1072.533697
1311.011560,5107.421000,-10140.821405,1532.190996
1311.011889,5551.544565,-7624.121203,229.828649
1311.012218,5773.606348,-5995.668130,0.000000
1311.012547,6809.894666,-4737.318029,689.485948
1311.012876,7550.100608,-3478.967927,536.266849
1311.013205,8216.285956,-3034.844362,153.219100
1311.013534,7624.121203,-2516.700203,612.876398
1311.013863,7994.224174,-4071.132681,1455.581446
1311.014192,8364.327145,-5995.668130,1991.848295
1311.014521,8068.244768,-7105.977043,3217.601092
1311.014850,7179.997637,-8512.368333,1225.752797
1311.015179,5847.626942,-9918.759623,995.924147
1311.015508,4663.297435,-11769.274478,1072.533697
1311.015837,4293.194464,-11843.295072,842.705048
1311.016166,4515.256246,-10066.800811,229.828649
1311.016495,5329.482782,-7920.203579,76.609550
1311.016824,6143.709319,-6587.832884,383.047749
1311.017153,7328.038826,-4145.153275,842.705048
1311.017482,8512.368333,-2590.720797,536.266849
1311.017811,9104.533087,-1332.370696,1608.800546
1311.018140,9030.512492,-1110.308913,919.314598
1311.018469,9400.615463,-2146.597232,1532.190996
1311.018798,9918.759623,-3404.947333,2604.724693
1311.019127,9178.553681,-4515.256246,2221.676944
1311.019456,8142.265362,-6587.832884,1838.629195
1311.019785,6809.894666,-9104.533087,995.924147
1311.020114,5477.523971,-12213.398043,1072.533697
1311.020443,4959.379811,-11621.233289,536.266849
1311.020772,4589.276840,-10584.944971,689.485948
1311.021101,4663.297435,-8956.491898,-536.266849
1311.021430,4811.338623,-7254.018232,0.000000
1311.021759,5329.482782,-7031.956449,229.828649
1311.022088,7105.977043,-3997.112087,153.219100
1311.022417,7254.018232,-4071.132681,306.438199
1311.022746,7698.141797,-3923.091493,919.314598
1311.023075,8364.327145,-3552.988522,1685.410096
1311.023404,8734.430116,-4959.379811,2068.457845
1311.023733,8882.471304,-4737.318029,2681.334243
1311.024062,7772.162391,-6291.750507,1225.752797
1311.024391,6809.894666,-8290.306550,1225.752797
1311.024720,6217.729913,-11177.109724,1838.629195
1311.025049,5255.462188,-12435.459826,1378.971896
1311.025378,5181.441594,-9770.718434,383.047749
1311.025707,4515.256246,-8956.491898,229.828649
1311.026036,5033.400406,-7772.162391,459.657299
1311.026365,6735.874072,-4737.318029,766.095498
1311.026694,7994.224174,-3552.988522,1225.752797
1311.027023,8142.265362,-1628.453072,383.047749
1311.027352,8364.327145,-1702.473667,536.266849
1311.027681,8586.388927,-2146.597232,1302.362347
1311.028010,9104.533087,-3627.009116,2068.457845
1311.028339,10288.862594,-4219.173869,2451.505594
1311.028668,9474.636058,-5551.544565,2298.286494
1311.028997,8290.306550,-8216.285956,2298.286494
1311.029326,7254.018232,-9770.718434,1915.238745
1311.029655,6365.771101,-11103.089130,1225.752797
1311.029984,4959.379811,-10955.047942,842.705048
1311.030313,4441.235652,-9622.677246,-306.438199
1311.030642,4219.173869,-8290.306550,-689.485948
1311.030971,4441.235652,-6661.853478,-536.266849
1311.031300,5625.565159,-6143.709319,76.609550
1311.031629,6809.894666,-4441.235652,76.609550
1311.031958,7402.059420,-4219.173869,459.657299
1311.032287,8068.244768,-3849.070898,766.095498
1311.032616,8438.347739,-3775.050304,1762.019645
1311.032945,8734.430116,-5625.565159,1762.019645
1311.033274,8142.265362,-6291.750507,1608.800546
1311.033603,6957.935855,-8882.471304,1838.629195
1311.033932,6439.791695,-10658.965565,1072.533697
1311.034261,5847.626942,-11547.212695,1608.800546
1311.034590,5699.585753,-11325.150913,1302.362347
1311.034919,5625.565159,-9178.553681,766.095498
1311.035248,6365.771101,-6883.915261,459.657299
1311.035577,6439.791695,-5181.441594,229.828649
1311.035906,6513.812290,-2590.720797,306.438199
1311.036235,7105.977043,-2812.782580,536.266849
1311.036564,7772.162391,-2072.576638,459.657299
1311.036893,8290.306550,-2368.659014,1225.752797
1311.037222,9696.697840,-2960.823768,2374.896044
1311.037551,9992.780217,-4145.153275,2528.115143
1311.037880,9252.574275,-4811.338623,2145.067394
1311.038209,7550.100608,-6069.688724,1225.752797
1311.038538,6069.688724,-9104.533087,536.266849
1311.038867,6217.729913,-11251.130318,1302.362347
1311.039196,5625.565159,-11621.233289,1149.143247
1311.039525,5181.441594,-10214.842000,536.266849
1311.039854,5255.462188,-7994.224174,-153.219100
1311.040183,5255.462188,-6735.874072,-306.438199
1311.040512,6143.709319,-5329.482782,0.000000
1311.040841,7698.141797,-4293.194464,536.266849
1311.041170,8586.388927,-2368.659014,153.219100
1311.041499,8290.306550,-2442.679609,459.657299
1311.041828,8512.368333,-4515.256246,1532.190996
1311.042157,8512.368333,-5403.503377,2221.676944
1311.042486,7328.038826,-6809.894666,1762.019645
1311.042815,5551.544565,-8216.285956,1072.533697
1311.043144,4885.359217,-10436.903782,842.705048
1311.043473,4811.338623,-12065.356855,1302.362347
1311.043802,5329.482782,-12435.459826,1762.019645
1311.044131,5403.503377,-9770.718434,1072.533697
1311.044460,5625.565159,-6809.894666,383.047749
1311.044789,6809.894666,-5699.585753,383.047749
1311.045118,7105.977043,-4515.256246,306.438199
1311.045447,7994.224174,-3478.967927,995.924147
1311.045776,8438.347739,-2220.617826,536.266849
1311.046105,8808.450710,-2072.576638,842.705048
1311.046434,9400.615463,-2072.576638,1838.629195
1311.046763,9474.636058,-3701.029710,1915.238745
1311.047092,8734.430116,-4959.379811,2068.457845
1311.047421,7254.018232,-6365.771101,1302.362347
1311.047750,6439.791695,-9474.636058,842.705048
1311.048079,5847.626942,-10658.965565,1072.533697
1311.048408,5995.668130,-11399.171507,1225.752797
1311.048737,6439.791695,-10140.821405,1149.143247
1311.049066,6513.812290,-7476.080014,689.485948
1311.049395,7550.100608,-6661.853478,1302.362347
1311.049724,7254.018232,-4589.276840,689.485948
1311.050053,7105.977043,-3552.988522,229.828649
1311.050382,6513.812290,-3256.906145,-383.047749
1311.050711,6661.853478,-3627.009116,919.314598
1311.051040,7402.059420,-4441.235652,1838.629195
1311.051369,8068.244768,-5699.585753,2374.896044
1311.051698,7254.018232,-5921.647536,2451.505594
1311.052027,6365.771101,-7772.162391,1532.190996
1311.052356,5255.462188,-9770.718434,612.876398
1311.052685,4441.235652,-11843.295072,766.095498
1311.053014,4811.338623,-12435.459826,919.314598
1311.053343,5995.668130,-11103.089130,766.095498
1311.053672,5847.626942,-8734.430116,919.314598
1311.054001,6291.750507,-6883.915261,76.609550
1311.054330,7402.059420,-4663.297435,229.828649
1311.054659,7772.162391,-2960.823768,612.876398
1311.054988,8734.430116,-1924.535449,842.705048
1311.055317,8882.471304,-962.267725,1302.362347
1311.055646,9326.594869,-1554.432478,1838.629195
1311.055975,8586.388927,-3256.906145,1455.581446
1311.056304,7550.100608,-4885.359217,1838.629195
1311.056633,7105.977043,-6661.853478,1302.362347
1311.056962,6957.935855,-9326.594869,1532.190996
1311.057291,6217.729913,-10584.944971,1149.143247
1311.057620,5625.565159,-11547.212695,1149.143247
1311.057949,5847.626942,-10658.965565,1072.533697
1311.058278,5921.647536,-8734.430116,689.485948
1311.058607,6439.791695,-7179.997637,536.266849
1311.058936,5995.668130,-5477.523971,536.266849
1311.059265,6513.812290,-4737.318029,383.047749
1311.059594,7105.977043,-3627.009116,153.219100
1311.059923,7402.059420,-3330.926739,919.314598
1311.060252,7994.224174,-3849.070898,1072.533697
1311.060581,8586.388927,-4589.276840,1685.410096
1311.060910,8216.285956,-5477.523971,1838.629195
1311.061239,7031.956449,-6513.812290,1149.143247
1311.061568,6291.750507,-8364.327145,153.219100
1311.061897,5403.503377,-11177.109724,689.485948
1311.062226,5329.482782,-12731.542202,1378.971896
1311.062556,5625.565159,-11621.233289,1378.971896
1311.062885,6143.709319,-8512.368333,995.924147
1311.063214,6069.688724,-6883.915261,459.657299
1311.063543,6957.935855,-5033.400406,842.705048
1311.063872,8512.368333,-3404.947333,995.924147
1311.064201,8586.388927,-1628.453072,689.485948
1311.064530,9178.553681,-1110.308913,153.219100
1311.064860,8660.409521,-1554.432478,1149.143247
1311.065189,9178.553681,-3627.009116,1838.629195
1311.065518,9030.512492,-5551.544565,2451.505594
1311.065847,7920.203579,-6513.812290,1915.238745
1311.066176,6883.915261,-7994.224174,689.485948
1311.066505,6143.709319,-10436.903782,1608.800546
1311.066834,6291.750507,-11843.295072,1762.019645
1311.067163,5921.647536,-10955.047942,1685.410096
1311.067493,5181.441594,-8882.471304,229.828649
1311.067822,5181.441594,-7402.059420,0.000000
1311.068151,5625.565159,-5625.565159,306.438199
1311.068480,6661.853478,-4663.297435,536.266849
1311.068809,7698.141797,-3997.112087,459.657299
1311.069138,8512.368333,-2442.679609,0.000000
1311.069467,8364.327145,-3478.967927,919.314598
1311.069797,8808.450710,-4441.235652,1838.629195
1311.070126,8290.306550,-5255.462188,1762.019645
1311.070455,6143.709319,-7402.059420,995.924147
1311.070784,5329.482782,-9104.533087,459.657299
1311.071113,4515.256246,-12065.356855,459.657299
1311.071442,4737.318029,-13249.686362,919.314598
1311.071771,5033.400406,-11621.233289,1838.629195
1311.072100,5329.482782,-9548.656652,1225.752797
1311.072430,6069.688724,-7402.059420,612.876398
1311.072759,6735.874072,-5329.482782,689.485948
1311.073088,7402.059420,-3627.009116,919.314598
1311.073417,8438.347739,-2368.659014,842.705048
1311.073746,8808.450710,-1332.370696,1149.143247
1311.074075,9178.553681,-1776.494261,1225.752797
1311.074404,9474.636058,-2664.741391,2221.676944
1311.074734,9474.636058,-4441.235652,2145.067394
1311.075063,7994.224174,-5773.606348,1378.971896
1311.075392,6365.771101,-7254.018232,536.266849
1311.075721,5477.523971,-10732.986159,766.095498
1311.076050,5995.668130,-11917.315666,1532.190996
1311.076379,5921.647536,-11399.171507,1838.629195
1311.076708,5773.606348,-9104.533087,689.485948
1311.077037,5773.606348,-7105.977043,459.657299
1311.077367,6513.812290,-5403.503377,612.876398
1311.077696,7772.162391,-4145.153275,459.657299
1311.078025,8364.327145,-2812.782580,1072.533697
1311.078354,8586.388927,-1924.535449,1149.143247
1311.078683,8290.306550,-2960.823768,919.314598
1311.079012,7920.203579,-3997.112087,1455.581446
1311.079341,7179.997637,-5329.482782,1455.581446
1311.079671,6957.935855,-6883.915261,1225.752797
1311.080000,5403.503377,-9104.533087,612.876398
1311.080329,4737.318029,-11547.212695,766.095498
1311.080658,4293.194464,-13027.624579,919.314598
1311.080987,4145.153275,-12583.501014,1302.362347
1311.081316,4071.132681,-10584.944971,306.438199
1311.081645,4737.318029,-7698.141797,0.000000
1311.081974,6291.750507,-6217.729913,536.266849
1311.082304,8660.409521,-4145.153275,1302.362347
1311.082633,9770.718434,-1480.411884,1838.629195
1311.082962,9844.739029,-740.205942,995.924147
1311.083291,9696.697840,-444.123565,919.314598
1311.083620,9548.656652,-2220.617826,1225.752797
1311.083949,9326.594869,-3997.112087,1762.019645
1311.084278,8512.368333,-5699.585753,1991.848295
1311.084608,6587.832884,-7328.038826,919.314598
1311.084937,5699.585753,-10288.862594,536.266849
1311.085266,5403.503377,-11843.295072,1225.752797
1311.085595,5477.523971,-11251.130318,1455.581446
1311.085924,5773.606348,-10288.862594,689.485948
1311.086253,5551.544565,-7846.182985,383.047749
1311.086582,5699.585753,-5847.626942,0.000000
1311.086911,7105.977043,-4589.276840,229.828649
1311.087241,8290.306550,-3404.947333,1225.752797
1311.087570,8734.430116,-2960.823768,919.314598
1311.087899,8734.430116,-2368.659014,1302.362347
1311.088228,8734.430116,-2960.823768,1762.019645
1311.088557,8290.306550,-4441.235652,2068.457845
1311.088886,7624.121203,-5995.668130,919.314598
1311.089215,5847.626942,-8142.265362,1072.533697
1311.089545,4663.297435,-11029.068536,229.828649
1311.089874,4293.194464,-12361.439231,536.266849
1311.090203,3997.112087,-12805.562797,842.705048
1311.090532,4589.276840,-11843.295072,459.657299
1311.090861,5033.400406,-8956.491898,459.657299
1311.091190,5403.503377,-6661.853478,229.828649
1311.091519,6883.915261,-4219.173869,306.438199
1311.091848,7994.224174,-2368.659014,1072.533697
1311.092178,9400.615463,-1406.391290,919.314598
1311.092507,9400.615463,-592.164754,995.924147
1311.092836,9696.697840,-2072.576638,1915.238745
1311.093165,10066.800811,-3330.926739,1838.629195
1311.093494,8956.491898,-4885.359217,2374.896044
1311.093823,7402.059420,-6809.894666,1685.410096
1311.094152,6439.791695,-8956.491898,766.095498
1311.094482,5773.606348,-10955.047942,1072.533697
1311.094811,5921.647536,-11991.336260,1149.143247
1311.095140,5847.626942,-11029.068536,995.924147
1311.095469,5699.585753,-8734.430116,766.095498
1311.095798,5995.668130,-7105.977043,0.000000
1311.096127,5921.647536,-5255.462188,536.266849
1311.096456,6365.771101,-4219.173869,229.828649
1311.096785,7105.977043,-3256.906145,0.000000
1311.097115,7254.018232,-2368.659014,0.000000
1311.097444,8364.327145,-2960.823768,1608.800546
1311.097773,9178.553681,-3997.112087,3524.039291
1311.098102,9400.615463,-5625.565159,2604.724693
1311.098431,7772.162391,-7031.956449,1608.800546
1311.098760,5625.565159,-9770.718434,919.314598
1311.099089,4589.276840,-11621.233289,919.314598
1311.099419,4441.235652,-11991.336260,536.266849
1311.099748,4737.318029,-11843.295072,612.876398
1311.100077,5181.441594,-9104.533087,383.047749
1311.100406,5847.626942,-7550.100608,459.657299
1311.100735,6439.791695,-6365.771101,1378.971896
1311.101064,6957.935855,-3478.967927,383.047749
1311.101393,7105.977043,-2368.659014,-536.266849
1311.101722,7328.038826,-2368.659014,612.876398
1311.102052,8438.347739,-2664.741391,1608.800546
1311.102381,10140.821405,-4145.153275,2834.553343
1311.102710,9548.656652,-4145.153275,2451.505594
1311.103039,8216.285956,-5625.565159,1915.238745
1311.103368,6957.935855,-7846.182985,1225.752797
1311.103697,6217.729913,-10288.862594,1455.581446
1311.104026,5551.544565,-11621.233289,1762.019645
1311.104356,5477.523971,-10807.006753,612.876398
1311.104685,4959.379811,-9400.615463,459.657299
1311.105014,5773.606348,-7105.977043,76.609550
1311.105343,6957.935855,-5995.668130,-229.828649
1311.105672,7476.080014,-3775.050304,229.828649
1311.106001,8068.244768,-3404.947333,766.095498
1311.106330,8512.368333,-1998.556043,536.266849
1311.106659,8660.409521,-1924.535449,1302.362347
1311.106989,8808.450710,-4589.276840,2298.286494
1311.107318,8216.285956,-5033.400406,2068.457845
1311.107647,7105.977043,-7328.038826,1915.238745
1311.107976,5847.626942,-9178.553681,842.705048
1311.108305,5033.400406,-10288.862594,1149.143247
1311.108634,4737.318029,-11917.315666,1532.190996
1311.108963,5255.462188,-11621.233289,1072.533697
1311.109293,5699.585753,-10288.862594,1455.581446
1311.109622,5847.626942,-7994.224174,229.828649
1311.109951,5995.668130,-5773.606348,459.657299
1311.110280,6587.832884,-3849.070898,229.828649
1311.110609,7402.059420,-3478.967927,0.000000
1311.110938,8142.265362,-2516.700203,612.876398
1311.111267,8660.409521,-2146.597232,766.095498
1311.111596,8660.409521,-3552.988522,1838.629195
1311.111926,8808.450710,-4145.153275,2145.067394
1311.112255,7846.182985,-5551.544565,1608.800546
1311.112584,7105.977043,-7105.977043,1225.752797
1311.112913,6439.791695,-9992.780217,1149.143247
1311.113242,5995.668130,-11843.295072,1072.533697
1311.113571,6143.709319,-10881.027347,1532.190996
1311.113900,6439.791695,-9104.533087,536.266849
1311.114230,6735.874072,-7402.059420,229.828649
1311.114559,7254.018232,-5403.503377,383.047749
1311.114888,7772.162391,-5107.421000,919.314598
1311.115217,8364.327145,-3552.988522,995.924147
1311.115546,7994.224174,-2738.761985,995.924147
1311.115875,7624.121203,-2294.638420,689.485948
1311.116204,7550.100608,-3627.009116,1378.971896
1311.116533,8068.244768,-5255.462188,2145.067394
1311.116863,7550.100608,-6217.729913,1838.629195
1311.117192,6883.915261,-8734.430116,1838.629195
1311.117521,5551.544565,-9770.718434,1455.581446
1311.117850,4811.338623,-11991.336260,995.924147
1311.118179,4589.276840,-12953.603985,919.314598
1311.118508,4367.215058,-11251.130318,459.657299
1311.118837,4959.379811,-9474.636058,536.266849
1311.119167,5551.544565,-6809.894666,229.828649
1311.119496,7105.977043,-4959.379811,536.266849
1311.119825,7846.182985,-3404.947333,919.314598
1311.120154,8808.450710,-2368.659014,536.266849
1311.120483,8438.347739,-1850.514855,919.314598
1311.120812,8586.388927,-2368.659014,1608.800546
1311.121141,8734.430116,-3997.112087,1532.190996
1311.121470,7550.100608,-5477.523971,1455.581446
1311.121800,6365.771101,-7105.977043,1762.019645
1311.122129,6513.812290,-9178.553681,1455.581446
1311.122458,7105.977043,-10584.944971,1991.848295
1311.122787,7105.977043,-10066.800811,2221.676944
1311.123116,6735.874072,-8438.347739,995.924147
1311.123445,6291.750507,-6883.915261,229.828649
1311.123774,6143.709319,-6661.853478,612.876398
1311.124104,6513.812290,-5699.585753,612.876398
1311.124433,7846.182985,-4367.215058,995.924147
1311.124762,7698.141797,-2516.700203,842.705048
1311.125091,8068.244768,-2812.782580,919.314598
1311.125420,7772.162391,-4071.132681,1302.362347
1311.125749,7624.121203,-4515.256246,1685.410096
1311.126078,7105.977043,-5773.606348,1149.143247
1311.126407,6217.729913,-7031.956449,1149.143247
1311.126737,5255.462188,-9918.759623,1225.752797
1311.127066,5107.421000,-12657.521608,1149.143247
1311.127395,4737.318029,-12657.521608,1532.190996
1311.127724,5181.441594,-10658.965565,689.485948
1311.128053,5995.668130,-8586.388927,842.705048
1311.128382,6513.812290,-6439.791695,612.876398
1311.128711,7105.977043,-5033.400406,612.876398
1311.129041,7846.182985,-2812.782580,766.095498
1311.129370,8142.265362,-2516.700203,766.095498
1311.129699,8660.409521,-2220.617826,229.828649
1311.130028,8512.368333,-3034.844362,1149.143247
1311.130357,8734.430116,-4441.235652,1838.629195
1311.130686,8216.285956,-5847.626942,1838.629195
1311.131015,7328.038826,-7476.080014,1762.019645
1311.131344,6439.791695,-8882.471304,1225.752797
1311.131674,6143.709319,-10214.842000,1455.581446
1311.132003,5921.647536,-10288.862594,1532.190996
1311.132332,6365.771101,-9770.718434,919.314598
1311.132661,6217.729913,-8068.244768,612.876398
1311.132990,6513.812290,-6587.832884,919.314598
1311.133319,7254.018232,-5625.565159,306.438199
1311.133648,7846.182985,-3034.844362,612.876398
1311.133978,8216.285956,-2664.741391,306.438199
1311.134307,8216.285956,-3404.947333,459.657299
1311.134636,8660.409521,-3404.947333,1378.971896
1311.134965,8586.388927,-4737.318029,1532.190996
1311.135294,7994.224174,-5403.503377,1532.190996
1311.135623,6957.935855,-6661.853478,1302.362347
1311.135952,6143.709319,-9992.780217,1378.971896
1311.136281,5403.503377,-11029.068536,1915.238745
1311.136611,5329.482782,-11621.233289,1762.019645
1311.136940,5551.544565,-10362.883188,1838.629195
1311.137269,5551.544565,-7994.224174,995.924147
1311.137598,6291.750507,-6587.832884,689.485948
1311.137927,6587.832884,-4737.318029,383.047749
1311.138256,6883.915261,-3997.112087,459.657299
1311.138585,7031.956449,-3108.864956,0.000000
1311.138915,7476.080014,-3775.050304,306.438199
1311.139244,8290.306550,-3775.050304,1149.143247
1311.139573,8364.327145,-4737.318029,1225.752797
1311.139902,8068.244768,-6217.729913,1608.800546
1311.140231,7772.162391,-6217.729913,2374.896044
1311.140560,7254.018232,-8290.306550,1455.581446
1311.140889,6439.791695,-9696.697840,1838.629195
1311.141218,5477.523971,-10436.903782,1225.752797
1311.141548,5255.462188,-10140.821405,612.876398
1311.141877,5625.565159,-8438.347739,612.876398
1311.142206,6143.709319,-6661.853478,919.314598
1311.142535,7105.977043,-4811.338623,612.876398
1311.142864,7994.224174,-3108.864956,842.705048
1311.143193,8808.450710,-2368.659014,536.266849
1311.143522,8438.347739,-2368.659014,612.876398
1311.143852,8660.409521,-3478.967927,1455.581446
1311.144181,9178.553681,-4071.132681,1685.410096
1311.144510,8512.368333,-5773.606348,1378.971896
1311.144839,7402.059420,-6735.874072,1915.238745
1311.145168,6291.750507,-9400.615463,1149.143247
1311.145497,5477.523971,-11029.068536,1685.410096
1311.145826,4811.338623,-11843.295072,1608.800546
1311.146155,4367.215058,-11399.171507,1225.752797
1311.146485,4367.215058,-9474.636058,689.485948
1311.146814,5033.400406,-7624.121203,459.657299
1311.147143,5995.668130,-5847.626942,76.609550
1311.147472,7476.080014,-3997.112087,229.828649
1311.147801,8586.388927,-3182.885551,766.095498
1311.148130,8808.450710,-2886.803174,612.876398
1311.148459,8734.430116,-2664.741391,842.705048
1311.148789,8438.347739,-4441.235652,1225.752797
1311.149118,8364.327145,-5477.523971,2374.896044
1311.149447,7402.059420,-7105.977043,1378.971896
1311.149776,6143.709319,-8660.409521,1378.971896
1311.150105,5921.647536,-10066.800811,1532.190996
1311.150434,5477.523971,-11029.068536,1149.143247
1311.150763,5329.482782,-10362.883188,1991.848295
1311.151092,5625.565159,-8438.347739,842.705048
1311.151422,6439.791695,-6587.832884,612.876398
1311.151751,7031.956449,-4737.318029,842.705048
1311.152080,7772.162391,-3404.947333,842.705048
1311.152409,8216.285956,-2294.638420,383.047749
1311.152738,8216.285956,-2886.803174,842.705048
1311.153067,8438.347739,-3478.967927,1225.752797
1311.153396,8956.491898,-4441.235652,1532.190996
1311.153726,8364.327145,-5477.523971,2757.943793
1311.154055,6809.894666,-7031.956449,1149.143247
1311.154384,4885.359217,-8586.388927,536.266849
1311.154713,4219.173869,-10807.006753,995.924147
1311.155042,4145.153275,-12583.501014,995.924147
1311.155371,4293.194464,-11399.171507,1072.533697
1311.155700,4737.318029,-9474.636058,612.876398
1311.156029,5403.503377,-7476.080014,229.828649
1311.156359,7031.956449,-5033.400406,689.485948
1311.156688,8808.450710,-3849.070898,2068.457845
1311.157017,9918.759623,-2146.597232,1149.143247
1311.157346,9918.759623,-1110.308913,1225.752797
1311.157675,9474.636058,-1628.453072,766.095498
1311.158004,8882.471304,-3182.885551,1149.143247
1311.158333,8290.306550,-5699.585753,1838.629195
1311.158663,6809.894666,-7105.977043,1532.190996
1311.158992,5699.585753,-8216.285956,919.314598
1311.159321,5255.462188,-9770.718434,1072.533697
1311.159650,5107.421000,-11103.089130,1072.533697
1311.159979,4959.379811,-10955.047942,1455.581446
1311.160308,5625.565159,-9474.636058,1149.143247
1311.160637,6143.709319,-7624.121203,459.657299
1311.160966,6735.874072,-6143.709319,612.876398
1311.161302,7402.059420,-4737.318029,229.828649
1311.161631,7846.182985,-4145.153275,612.876398
1311.161960,7920.203579,-3256.906145,842.705048
1311.162289,8734.430116,-2664.741391,842.705048
1311.162619,9474.636058,-3552.988522,1915.238745
1311.162948,9474.636058,-3404.947333,1991.848295
1311.163277,7698.141797,-5995.668130,1685.410096
1311.163606,6513.812290,-7105.977043,995.924147
1311.163935,5403.503377,-9770.718434,1455.581446
1311.164264,4737.318029,-11917.315666,1072.533697
1311.164593,4737.318029,-12065.356855,1149.143247
1311.164922,4737.318029,-10881.027347,459.657299
1311.165251,4885.359217,-9178.553681,306.438199
1311.165581,5921.647536,-6291.750507,766.095498
1311.165910,7402.059420,-4811.338623,842.705048
1311.166239,8216.285956,-3330.926739,536.266849
1311.166568,8290.306550,-1924.535449,689.485948
1311.166897,8142.265362,-2220.617826,153.219100
1311.167226,7994.224174,-3997.112087,383.047749
1311.167555,7846.182985,-5329.482782,1762.019645
1311.167884,7772.162391,-6217.729913,1685.410096
1311.168214,7105.977043,-7031.956449,1838.629195
1311.168543,6661.853478,-9326.594869,1838.629195
1311.168872,5847.626942,-10510.924376,1608.800546
1311.169201,5329.482782,-11103.089130,1149.143247
1311.169530,4441.235652,-10584.944971,229.828649
1311.169859,4885.359217,-8290.306550,-536.266849
1311.170188,6069.688724,-6735.874072,0.000000
1311.170517,7105.977043,-4737.318029,459.657299
1311.170846,8512.368333,-4219.173869,842.705048
1311.171176,8660.409521,-2442.679609,536.266849
1311.171505,8586.388927,-2220.617826,153.219100
1311.171834,9400.615463,-2590.720797,766.095498
1311.172163,9326.594869,-3034.844362,1532.190996
1311.172492,8364.327145,-5033.400406,1455.581446
1311.172821,7254.018232,-6957.935855,1608.800546
1311.173150,6291.750507,-9400.615463,919.314598
1311.173479,6217.729913,-11177.109724,1072.533697
1311.173808,4885.359217,-12287.418637,1225.752797
1311.174138,4515.256246,-11547.212695,612.876398
1311.174467,4885.359217,-9326.594869,459.657299
1311.174796,5403.503377,-6661.853478,383.047749
1311.175125,6513.812290,-4737.318029,306.438199
1311.175454,7920.203579,-3404.947333,536.266849
1311.175783,8364.327145,-2590.720797,919.314598
1311.176112,8290.306550,-2664.741391,153.219100
1311.176441,8586.388927,-2368.659014,919.314598
1311.176771,8512.368333,-3701.029710,1532.190996
1311.177100,8586.388927,-5255.462188,1455.581446
1311.177429,7624.121203,-5847.626942,1838.629195
1311.177758,6957.935855,-8660.409521,1762.019645
1311.178087,6439.791695,-10214.842000,1455.581446
1311.178416,5403.503377,-11399.171507,1149.143247
1311.178745,4737.318029,-11399.171507,919.314598
1311.179074,5033.400406,-9104.533087,459.657299
1311.179403,6143.709319,-6957.935855,766.095498
1311.179733,6957.935855,-5329.482782,1072.533697
1311.180062,7698.141797,-3997.112087,612.876398
1311.180391,7994.224174,-3108.864956,766.095498
1311.180720,8142.265362,-2368.659014,153.219100
1311.181049,7994.224174,-2442.679609,689.485948
1311.181378,8512.368333,-3849.070898,1302.362347
1311.181707,9104.533087,-5625.565159,1991.848295
1311.182036,8364.327145,-6661.853478,2451.505594
1311.182366,7624.121203,-8364.327145,2068.457845
1311.182695,5921.647536,-10584.944971,2298.286494
1311.183024,4663.297435,-11769.274478,1302.362347
1311.183353,3923.091493,-11843.295072,76.609550
1311.183682,4293.194464,-10066.800811,-229.828649
1311.184011,5255.462188,-7476.080014,919.314598
1311.184340,6513.812290,-5995.668130,459.657299
1311.184669,7254.018232,-3997.112087,919.314598
1311.184998,8290.306550,-2960.823768,229.828649
1311.185328,8808.450710,-2368.659014,536.266849
1311.185657,8512.368333,-2368.659014,1149.143247
1311.185986,8364.327145,-3552.988522,1072.533697
1311.186315,8512.368333,-4959.379811,1455.581446
1311.186644,7920.203579,-6069.688724,1532.190996
1311.186973,6661.853478,-8364.327145,2068.457845
1311.187302,6365.771101,-10362.883188,1838.629195
1311.187631,5921.647536,-11251.130318,1838.629195
1311.187960,5477.523971,-11547.212695,1532.190996
1311.188290,5551.544565,-8808.450710,1149.143247
1311.188619,6439.791695,-6513.812290,919.314598
1311.188948,6957.935855,-5255.462188,306.438199
1311.189277,6809.894666,-4219.173869,536.266849
1311.189606,7328.038826,-3775.050304,612.876398
1311.189935,7698.141797,-2516.700203,229.828649
1311.190264,7920.203579,-2886.803174,842.705048
1311.190593,8586.388927,-4441.235652,1302.362347
1311.190923,8586.388927,-5329.482782,1991.848295
1311.191252,7920.203579,-6661.853478,1762.019645
1311.191581,6365.771101,-8142.265362,306.438199
1311.191910,4737.318029,-9474.636058,1225.752797
1311.192239,4737.318029,-11695.253884,766.095498
1311.192568,4811.338623,-12509.480420,1455.581446
1311.192897,5625.565159,-10436.903782,1838.629195
1311.193226,6291.750507,-7254.018232,919.314598
1311.193555,7031.956449,-5403.503377,842.705048
1311.193885,8142.265362,-3552.988522,995.924147
1311.194214,8882.471304,-2294.638420,842.705048
1311.194543,8586.388927,-1110.308913,229.828649
1311.194872,7920.203579,-2146.597232,383.047749
1311.195201,7994.224174,-3552.988522,842.705048
1311.195530,8290.306550,-5181.441594,1378.971896
1311.195859,7624.121203,-6587.832884,1838.629195
1311.196188,6069.688724,-7476.080014,1072.533697
1311.196518,5995.668130,-10066.800811,995.924147
1311.196847,5921.647536,-11325.150913,1838.629195
1311.197176,5699.585753,-11695.253884,1838.629195
1311.197505,5699.585753,-9770.718434,1149.143247
1311.197834,5107.421000,-7698.141797,229.828649
1311.198163,5551.544565,-6291.750507,0.000000
1311.198492,6809.894666,-5107.421000,612.876398
1311.198821,8068.244768,-3923.091493,689.485948
1311.199150,9030.512492,-2664.741391,842.705048
1311.199480,8956.491898,-2442.679609,1149.143247
1311.199809,8808.450710,-3997.112087,1532.190996
1311.200138,8142.265362,-4959.379811,1455.581446
1311.200467,6513.812290,-6143.709319,1455.581446
1311.200796,5921.647536,-7476.080014,0.000000
1311.201125,5255.462188,-10066.800811,766.095498
1311.201454,5255.462188,-12213.398043,1532.190996
1311.201783,5403.503377,-12287.418637,1302.362347
1311.202112,4959.379811,-10436.903782,1608.800546
1311.202442,6217.729913,-7624.121203,1149.143247
1311.202771,7254.018232,-5477.523971,842.705048
1311.203100,8290.306550,-3478.967927,995.924147
1311.203429,7994.224174,-2590.720797,1072.533697
1311.203758,7994.224174,-2368.659014,1149.143247
1311.204087,8734.430116,-1776.494261,842.705048
1311.204416,9030.512492,-3108.864956,1378.971896
1311.204745,8882.471304,-4589.276840,2451.505594
1311.205075,8512.368333,-5625.565159,1762.019645
1311.205404,6291.750507,-6735.874072,229.828649
1311.205733,4885.359217,-7920.203579,0.000000
1311.206062,4885.359217,-11251.130318,689.485948
1311.206391,5551.544565,-11991.336260,1072.533697
1311.206720,5255.462188,-11399.171507,842.705048
1311.207049,5329.482782,-9474.636058,612.876398
1311.207378,6735.874072,-6957.935855,995.924147
1311.207707,7328.038826,-5107.421000,1302.362347
1311.208037,7846.182985,-3108.864956,1378.971896
1311.208366,8438.347739,-1850.514855,383.047749
1311.208695,8290.306550,-1850.514855,306.438199
1311.209024,8660.409521,-3034.844362,1072.533697
1311.209353,8882.471304,-4959.379811,1991.848295
1311.209682,8290.306550,-6217.729913,1915.238745
1311.210011,6217.729913,-7254.018232,766.095498
1311.210340,4737.318029,-9400.615463,76.609550
1311.210670,5329.482782,-12361.439231,1378.971896
1311.210999,5255.462188,-11991.336260,1378.971896
1311.211328,5477.523971,-10881.027347,1149.143247
1311.211657,5847.626942,-8142.265362,76.609550
1311.211986,7105.977043,-6587.832884,1302.362347
1311.212315,8142.265362,-5033.400406,1455.581446
1311.212644,8364.327145,-2442.679609,1378.971896
1311.212973,7994.224174,-1480.411884,459.657299
1311.213302,7920.203579,-2516.700203,0.000000
1311.213632,7624.121203,-3775.050304,1149.143247
1311.213961,7772.162391,-4367.215058,1762.019645
1311.214290,8512.368333,-4737.318029,1991.848295
1311.214619,7920.203579,-5625.565159,1455.581446
1311.214948,6661.853478,-8586.388927,1072.533697
1311.215277,6069.688724,-10584.944971,612.876398
1311.215606,5847.626942,-11991.336260,1302.362347
1311.215935,5551.544565,-11843.295072,1302.362347
1311.216264,5477.523971,-9918.759623,919.314598
1311.216594,6069.688724,-7994.224174,995.924147
1311.216923,6809.894666,-5699.585753,919.314598
1311.217252,7328.038826,-4441.235652,766.095498
1311.217581,7698.141797,-2664.741391,383.047749
1311.217910,7846.182985,-2072.576638,0.000000
1311.218239,7772.162391,-3923.091493,1225.752797
1311.218568,8438.347739,-4515.256246,1762.019645
1311.218897,8068.244768,-6143.709319,1455.581446
1311.219227,6809.894666,-6735.874072,1378.971896
1311.219556,5625.565159,-8290.306550,612.876398
1311.219885,5181.441594,-11029.068536,306.438199
1311.220214,5625.565159,-11769.274478,1378.971896
1311.220543,4959.379811,-11251.130318,1225.752797
1311.220872,5107.421000,-9400.615463,612.876398
1311.221201,5773.606348,-7105.977043,842.705048
1311.221530,6809.894666,-4885.359217,689.485948
1311.221859,8216.285956,-2590.720797,1378.971896
1311.222189,8808.450710,-2368.659014,1302.362347
1311.222518,9178.553681,-1480.411884,612.876398
1311.222847,8808.450710,-1924.535449,1072.533697
1311.223176,8882.471304,-3775.050304,1991.848295
1311.223505,9326.594869,-4885.359217,1532.190996
1311.223834,7994.224174,-6291.750507,1608.800546
1311.224163,6513.812290,-7698.141797,995.924147
1311.224492,5921.647536,-9696.697840,919.314598
1311.224822,6217.729913,-10881.027347,1608.800546
1311.225151,5477.523971,-11843.295072,766.095498
1311.225480,4589.276840,-9992.780217,689.485948
1311.225809,4811.338623,-8068.244768,306.438199
1311.226138,5329.482782,-6513.812290,306.438199
1311.226467,6587.832884,-4959.379811,842.705048
1311.226796,7179.997637,-3849.070898,689.485948
1311.227125,8216.285956,-2516.700203,76.609550
1311.227454,8290.306550,-2886.803174,689.485948
1311.227784,8956.491898,-3775.050304,2298.286494
1311.228113,9696.697840,-5329.482782,1762.019645
1311.228442,8216.285956,-5847.626942,1608.800546
1311.228771,6217.729913,-7402.059420,689.485948
1311.229100,5921.647536,-10288.862594,766.095498
1311.229429,5773.606348,-11621.233289,1915.238745
1311.229758,5625.565159,-12139.377449,1455.581446
1311.230087,5329.482782,-10066.800811,1149.143247
1311.230416,5551.544565,-7031.956449,383.047749
1311.230746,5625.565159,-6587.832884,766.095498
1311.231075,6661.853478,-4293.194464,612.876398
1311.231404,8216.285956,-2146.597232,1149.143247
1311.231733,8734.430116,-1184.329507,0.000000
1311.232062,8438.347739,-1480.411884,842.705048
1311.232391,8734.430116,-2664.741391,2451.505594
1311.232720,9178.553681,-4811.338623,2298.286494
1311.233049,8956.491898,-5403.503377,2681.334243
1311.233379,8142.265362,-6365.771101,1762.019645
1311.233708,6809.894666,-8660.409521,1455.581446
1311.234037,5625.565159,-10584.944971,1532.190996
1311.234366,5625.565159,-11547.212695,689.485948
1311.234695,4737.318029,-10732.986159,383.047749
1311.235024,4219.173869,-9474.636058,229.828649
1311.235353,4737.318029,-8216.285956,612.876398
1311.235682,5477.523971,-5921.647536,842.705048
1311.236011,6513.812290,-4441.235652,612.876398
1311.236341,7328.038826,-3182.885551,383.047749
1311.236670,7994.224174,-2960.823768,536.266849
1311.236999,9326.594869,-3849.070898,1225.752797
1311.237328,9548.656652,-4515.256246,2298.286494
1311.237657,8808.450710,-4959.379811,2221.676944
1311.237986,6957.935855,-6587.832884,689.485948
1311.238315,5477.523971,-9104.533087,842.705048
1311.238644,5921.647536,-11695.253884,919.314598
1311.238974,6217.729913,-11325.150913,1455.581446
1311.239303,5847.626942,-9696.697840,1455.581446
1311.239632,5255.462188,-7846.182985,689.485948
1311.239961,5551.544565,-6439.791695,919.314598
1311.240290,5995.668130,-4959.379811,459.657299
1311.240619,6735.874072,-3849.070898,536.266849
1311.240948,7402.059420,-2886.803174,612.876398
1311.241277,8068.244768,-2960.823768,1532.190996
1311.241606,8364.327145,-3034.844362,689.485948
1311.241936,8882.471304,-4145.153275,1991.848295
1311.242265,9178.553681,-5033.400406,2145.067394
1311.242594,8290.306550,-6291.750507,1838.629195
1311.242923,7179.997637,-7402.059420,1608.800546
1311.243252,6957.935855,-9622.677246,1225.752797
1311.243581,6661.853478,-11029.068536,1072.533697
1311.243910,6365.771101,-10510.924376,1225.752797
1311.244239,5625.565159,-8808.450710,459.657299
1311.244568,5625.565159,-7476.080014,76.609550
1311.244898,5699.585753,-5699.585753,0.000000
1311.245227,6069.688724,-4811.338623,-76.609550
1311.245556,6513.812290,-4145.153275,459.657299
1311.245885,7624.121203,-3552.988522,383.047749
1311.246214,7994.224174,-3775.050304,689.485948
1311.246543,8364.327145,-4515.256246,1991.848295
1311.246872,8364.327145,-5551.544565,1991.848295
1311.247201,7550.100608,-6957.935855,1915.238745
1311.247531,6439.791695,-8512.368333,2068.457845
1311.247860,6069.688724,-10214.842000,1225.752797
1311.248189,5773.606348,-11177.109724,1608.800546
1311.248518,5551.544565,-10510.924376,1532.190996
1311.248847,5551.544565,-9252.574275,766.095498
1311.249176,6513.812290,-7550.100608,766.095498
1311.249505,6143.709319,-5773.606348,459.657299
1311.249834,6661.853478,-5329.482782,459.657299
1311.250163,7105.977043,-2960.823768,0.000000
1311.250493,7328.038826,-2590.720797,-306.438199
1311.250822,7994.224174,-3108.864956,306.438199
1311.251151,8956.491898,-3478.967927,1378.971896
1311.251480,9696.697840,-4811.338623,2374.896044
1311.251809,9326.594869,-5625.565159,1991.848295
1311.252138,8068.244768,-6661.853478,2145.067394
1311.252467,7698.141797,-8512.368333,1685.410096
1311.252796,6883.915261,-10140.821405,1915.238745
1311.253126,6143.709319,-10066.800811,1455.581446
1311.253455,5699.585753,-8882.471304,689.485948
1311.253784,5551.544565,-7772.162391,536.266849
1311.254113,5921.647536,-6217.729913,612.876398
1311.254442,5625.565159,-5477.523971,0.000000
1311.254771,6217.729913,-4663.297435,0.000000
1311.255100,6883.915261,-3627.009116,0.000000
1311.255429,7402.059420,-4219.173869,383.047749
1311.255758,8216.285956,-4441.235652,1685.410096
1311.256088,7994.224174,-5255.462188,1532.190996
1311.256417,7328.038826,-6291.750507,1302.362347
1311.256746,6439.791695,-7772.162391,1225.752797
1311.257075,5921.647536,-10658.965565,1225.752797
1311.257404,6143.709319,-11473.192101,1915.238745
1311.257733,6069.688724,-10658.965565,1838.629195
1311.258062,6291.750507,-9548.656652,766.095498
1311.258391,5995.668130,-7402.059420,612.876398
1311.258720,6291.750507,-6069.688724,306.438199
1311.259050,6735.874072,-4737.318029,153.219100
1311.259379,7550.100608,-2812.782580,153.219100
1311.259708,8438.347739,-2590.720797,0.000000
1311.260037,8438.347739,-2368.659014,612.876398
1311.260366,8586.388927,-3775.050304,1455.581446
1311.260695,9178.553681,-4737.318029,1915.238745
1311.261024,8882.471304,-4959.379811,2374.896044
1311.261353,7920.203579,-6957.935855,1685.410096
1311.261683,7328.038826,-8290.306550,1455.581446
1311.262012,7105.977043,-10214.842000,2068.457845
1311.262341,6957.935855,-11177.109724,1915.238745
1311.262670,5921.647536,-9030.512492,1915.238745
1311.262999,5329.482782,-8068.244768,689.485948
1311.263328,5329.482782,-7105.977043,383.047749
1311.263657,5477.523971,-6143.709319,0.000000
1311.263987,5551.544565,-4663.297435,-306.438199
1311.264316,6365.771101,-3775.050304,-612.876398
1311.264645,7402.059420,-4737.318029,536.266849
1311.264974,7624.121203,-4663.297435,1378.971896
1311.265303,8142.265362,-5403.503377,1762.019645
1311.265632,7920.203579,-6365.771101,1608.800546
1311.265962,7105.977043,-7846.182985,1532.190996
1311.266291,6217.729913,-9992.780217,1455.581446
1311.266620,5921.647536,-11029.068536,2145.067394
1311.266949,5995.668130,-10955.047942,1685.410096
1311.267278,5329.482782,-8734.430116,1149.143247
1311.267607,5107.421000,-7328.038826,459.657299
1311.267937,5995.668130,-6365.771101,842.705048
1311.268266,6661.853478,-5181.441594,689.485948
1311.268595,7105.977043,-2738.761985,995.924147
1311.268924,7624.121203,-2146.597232,0.000000
1311.269253,7772.162391,-3034.844362,842.705048
1311.269583,8512.368333,-3330.926739,1762.019645
1311.269912,9104.533087,-4515.256246,1838.629195
1311.270241,9178.553681,-4293.194464,1838.629195
1311.270570,8068.244768,-6291.750507,2068.457845
1311.270899,7624.121203,-8438.347739,1455.581446
1311.271228,7105.977043,-9770.718434,2068.457845
1311.271558,5995.668130,-10584.944971,1762.019645
1311.271887,5107.421000,-9474.636058,229.828649
1311.272216,4737.318029,-7920.203579,306.438199
1311.272545,4811.338623,-7254.018232,76.609550
1311.272874,6069.688724,-5699.585753,536.266849
1311.273203,6883.915261,-4663.297435,919.314598
1311.273533,7402.059420,-3997.112087,76.609550
1311.273862,7772.162391,-3404.947333,306.438199
1311.274191,8216.285956,-3627.009116,995.924147
1311.274520,8882.471304,-4515.256246,1455.581446
1311.274849,7994.224174,-5847.626942,2221.676944
1311.275179,7031.956449,-7624.121203,1072.533697
1311.275508,5847.626942,-9474.636058,689.485948
1311.275837,5551.544565,-11029.068536,1225.752797
1311.276166,5995.668130,-11029.068536,1225.752797
1311.276495,5699.585753,-10288.862594,1455.581446
1311.276824,5477.523971,-8216.285956,919.314598
1311.277154,5625.565159,-6883.915261,383.047749
1311.277483,6587.832884,-4737.318029,766.095498
1311.277812,7105.977043,-2590.720797,306.438199
1311.278141,7846.182985,-2960.823768,153.219100
1311.278470,8142.265362,-2442.679609,842.705048
1311.278799,8512.368333,-3849.070898,1225.752797
1311.279129,9104.533087,-4589.276840,1455.581446
1311.279458,9252.574275,-5033.400406,2068.457845
1311.279787,8882.471304,-6365.771101,995.924147
1311.280116,8290.306550,-7698.141797,1072.533697
1311.280445,7328.038826,-10140.821405,1608.800546
1311.280775,6587.832884,-9992.780217,2068.457845
1311.281104,5033.400406,-9622.677246,1455.581446
1311.281433,5255.462188,-8142.265362,306.438199
1311.281762,5255.462188,-6291.750507,306.438199
1311.282091,5773.606348,-5551.544565,383.047749
1311.282420,6809.894666,-5329.482782,1072.533697
1311.282750,7328.038826,-3478.967927,536.266849
1311.283079,7920.203579,-3034.844362,689.485948
1311.283408,8364.327145,-2960.823768,919.314598
1311.283737,9030.512492,-5477.523971,1302.362347
1311.284066,8808.450710,-5995.668130,2068.457845
1311.284395,7846.182985,-7698.141797,1838.629195
1311.284725,6883.915261,-9178.553681,1225.752797
1311.285054,5995.668130,-11029.068536,1532.190996
1311.285383,5181.441594,-12361.439231,995.924147
1311.285712,3701.029710,-11325.150913,459.657299
1311.286041,3034.844362,-9770.718434,0.000000
1311.286370,3997.112087,-8364.327145,306.438199
1311.286700,5477.523971,-5773.606348,919.314598
1311.287029,6957.935855,-3923.091493,612.876398
1311.287358,7772.162391,-2590.720797,766.095498
1311.287687,8512.368333,-2072.576638,0.000000
1311.288016,9104.533087,-2368.659014,766.095498
1311.288346,10140.821405,-3182.885551,2298.286494
1311.288675,10140.821405,-3552.988522,2145.067394
1311.289004,9770.718434,-5477.523971,2068.457845
1311.289333,7920.203579,-7402.059420,1685.410096
1311.289662,6735.874072,-9622.677246,1302.362347
1311.289991,6809.894666,-10807.006753,1991.848295
1311.290321,5551.544565,-10066.800811,1532.190996
1311.290650,4737.318029,-8734.430116,459.657299
1311.290979,4515.256246,-7846.182985,306.438199
1311.291308,4737.318029,-6513.812290,0.000000
1311.291637,5625.565159,-6143.709319,306.438199
1311.291966,6439.791695,-4219.173869,536.266849
1311.292296,7254.018232,-3404.947333,383.047749
1311.292625,8142.265362,-3775.050304,383.047749
1311.292954,8290.306550,-4811.338623,1685.410096
1311.293283,8660.409521,-5477.523971,1915.238745
1311.293612,8438.347739,-6365.771101,1225.752797
1311.293942,7328.038826,-7550.100608,1532.190996
1311.294271,6587.832884,-10288.862594,1685.410096
1311.294600,5625.565159,-12213.398043,1762.019645
1311.294929,4589.276840,-11325.150913,1072.533697
1311.295258,3775.050304,-9918.759623,0.000000
1311.295587,4959.379811,-8290.306550,1072.533697
1311.295917,5995.668130,-6365.771101,1072.533697
1311.296246,6957.935855,-4737.318029,842.705048
1311.296575,7624.121203,-2738.761985,919.314598
1311.296904,8290.306550,-1332.370696,383.047749
1311.297233,8882.471304,-1258.350101,689.485948
1311.297562,9400.615463,-2294.638420,1455.581446
1311.297892,10288.862594,-3701.029710,2298.286494
1311.298221,10140.821405,-5255.462188,2374.896044
1311.298550,8956.491898,-5995.668130,2145.067394
1311.298879,7476.080014,-8512.368333,612.876398
1311.299208,6365.771101,-10881.027347,1762.019645
1311.299538,5773.606348,-10658.965565,919.314598
1311.299867,4737.318029,-10732.986159,612.876398
1311.300196,3997.112087,-7920.203579,-229.828649
1311.300525,4515.256246,-7846.182985,689.485948
1311.300854,5107.421000,-6957.935855,0.000000
1311.301183,5995.668130,-4885.359217,0.000000
1311.301513,7328.038826,-3701.029710,229.828649
1311.301842,8438.347739,-2442.679609,689.485948
1311.302171,9770.718434,-4219.173869,1685.410096
1311.302500,10214.842000,-4219.173869,2374.896044
1311.302829,9178.553681,-5625.565159,1225.752797
1311.303158,7402.059420,-7031.956449,919.314598
1311.303488,5625.565159,-8808.450710,1149.143247
1311.303817,5477.523971,-11695.253884,1532.190996
1311.304146,5625.565159,-11325.150913,1378.971896
1311.304475,4811.338623,-10436.903782,995.924147
1311.304804,4145.153275,-8586.388927,536.266849
1311.305134,5625.565159,-7105.977043,0.000000
1311.305463,5255.462188,-5773.606348,153.219100
