#time,accel_x,accel_y,accel_z
1167.992269,7328.038826,-7031.956449,1149.143247
1167.992599,6883.915261,-6587.832884,919.314598
1167.992929,6957.935855,-6809.894666,1072.533697
1167.993260,6957.935855,-6513.812290,1225.752797
1167.993590,6883.915261,-6513.812290,1072.533697
1167.993921,7105.977043,-6365.771101,842.705048
1167.994251,6735.874072,-6735.874072,1225.752797
1167.994582,7031.956449,-6513.812290,842.705048
1167.994912,6883.915261,-6587.832884,1149.143247
1167.995243,6735.874072,-6661.853478,1225.752797
1167.995573,6587.832884,-6439.791695,842.705048
1167.995904,6513.812290,-6439.791695,919.314598
1167.996234,6809.894666,-6883.915261,995.924147
1167.996564,6957.935855,-6661.853478,766.095498
1167.996895,6809.894666,-6587.832884,995.924147
1167.997225,6957.935855,-6513.812290,1225.752797
1167.997556,6883.915261,-6439.791695,1225.752797
1167.997886,6957.935855,-6513.812290,1225.752797
1167.998217,6883.915261,-6439.791695,919.314598
1167.998547,7105.977043,-6439.791695,536.266849
1167.998878,6883.915261,-6587.832884,1149.143247
1167.999208,7031.956449,-6735.874072,1149.143247
1167.999539,6883.915261,-6217.729913,919.314598
1167.999869,6883.915261,-6513.812290,995.924147
1168.000200,7031.956449,-6587.832884,766.095498
1168.000530,6957.935855,-6809.894666,1149.143247
1168.000860,7031.956449,-6661.853478,1072.533697
1168.001191,6957.935855,-6513.812290,1225.752797
1168.001521,7179.997637,-5773.606348,1608.800546
1168.001852,6809.894666,-6661.853478,1072.533697
1168.002182,7105.977043,-6513.812290,842.705048
1168.002513,7105.977043,-6291.750507,1149.143247
1168.002843,6957.935855,-6069.688724,1532.190996
1168.003174,7179.997637,-6513.812290,995.924147
1168.003504,7179.997637,-6587.832884,1149.143247
1168.003835,6957.935855,-6661.853478,919.314598
1168.004165,7105.977043,-6661.853478,919.314598
1168.004495,7476.080014,-6217.729913,1302.362347
1168.004826,6957.935855,-6661.853478,995.924147
1168.005156,7105.977043,-6809.894666,842.705048
1168.005487,7105.977043,-6365.771101,1225.752797
1168.005817,7476.080014,-6217.729913,1072.533697
1168.006148,7105.977043,-6661.853478,1302.362347
1168.006478,7105.977043,-6735.874072,1225.752797
1168.006809,6809.894666,-6291.750507,842.705048
1168.007139,7031.956449,-6735.874072,1225.752797
1168.007470,7031.956449,-5995.668130,1838.629195
1168.007800,6883.915261,-6661.853478,1149.143247
1168.008130,6809.894666,-6217.729913,995.924147
1168.008461,6957.935855,-6661.853478,919.314598
1168.008791,6883.915261,-6587.832884,1225.752797
1168.009122,6883.915261,-6513.812290,1225.752797
1168.009452,6735.874072,-6661.853478,1685.410096
1168.009783,6513.812290,-6661.853478,1149.143247
1168.010113,6735.874072,-6513.812290,766.095498
1168.010444,6883.915261,-6957.935855,1685.410096
1168.010774,7031.956449,-6587.832884,919.314598
1168.011105,6661.853478,-6661.853478,919.314598
1168.011435,7031.956449,-6587.832884,842.705048
1168.011765,6809.894666,-6439.791695,1072.533697
1168.012096,6883.915261,-6217.729913,1149.143247
1168.012426,6883.915261,-6439.791695,1149.143247
1168.012757,6883.915261,-6661.853478,612.876398
1168.013087,7031.956449,-6439.791695,1072.533697
1168.013418,6735.874072,-7179.997637,995.924147
1168.013748,6809.894666,-6513.812290,1302.362347
1168.014079,7031.956449,-6809.894666,1149.143247
1168.014409,6957.935855,-6587.832884,1149.143247
1168.014740,6883.915261,-6735.874072,995.924147
1168.015070,7105.977043,-6809.894666,1149.143247
1168.015401,7105.977043,-6809.894666,1149.143247
1168.015731,7031.956449,-6587.832884,1072.533697
1168.016061,7031.956449,-6291.750507,842.705048
1168.016392,6809.894666,-6735.874072,1149.143247
1168.016722,7105.977043,-6439.791695,842.705048
1168.017053,7031.956449,-6587.832884,1149.143247
1168.017383,7031.956449,-6291.750507,1072.533697
1168.017714,7105.977043,-6513.812290,995.924147
1168.018044,6735.874072,-6587.832884,1532.190996
1168.018375,7254.018232,-6661.853478,1149.143247
1168.018705,7105.977043,-6217.729913,1455.581446
1168.019036,7105.977043,-6439.791695,766.095498
1168.019366,7031.956449,-6661.853478,919.314598
1168.019696,7105.977043,-5995.668130,995.924147
1168.020027,6809.894666,-6291.750507,995.924147
1168.020357,6957.935855,-6439.791695,1072.533697
1168.020688,7105.977043,-6587.832884,919.314598
1168.021018,7105.977043,-6291.750507,536.266849
1168.021349,7105.977043,-6809.894666,766.095498
1168.021679,7254.018232,-6735.874072,842.705048
1168.022010,7105.977043,-6587.832884,1149.143247
1168.022340,6883.915261,-6661.853478,766.095498
1168.022671,7179.997637,-6291.750507,1762.019645
1168.023001,6809.894666,-6439.791695,689.485948
1168.023331,6957.935855,-6809.894666,1225.752797
1168.023662,7105.977043,-6513.812290,1149.143247
1168.023992,7031.956449,-6439.791695,1149.143247
1168.024323,6661.853478,-6587.832884,536.266849
1168.024653,6661.853478,-6365.771101,995.924147
1168.024984,6661.853478,-6587.832884,919.314598
1168.025314,6809.894666,-6661.853478,1072.533697
1168.025645,6661.853478,-6587.832884,1225.752797
1168.025975,7031.956449,-6365.771101,919.314598
1168.026306,6883.915261,-6883.915261,919.314598
1168.026636,7328.038826,-7105.977043,1225.752797
1168.026967,6809.894666,-7105.977043,919.314598
1168.027297,7031.956449,-6143.709319,1225.752797
1168.027627,6883.915261,-6587.832884,919.314598
1168.027958,6883.915261,-6661.853478,1149.143247
1168.028288,6809.894666,-6661.853478,995.924147
1168.028619,7254.018232,-6661.853478,766.095498
1168.028949,6587.832884,-6291.750507,1225.752797
1168.029280,6957.935855,-6291.750507,842.705048
1168.029610,6957.935855,-6661.853478,919.314598
1168.029941,6809.894666,-6661.853478,842.705048
1168.030271,7402.059420,-6735.874072,919.314598
1168.030602,6957.935855,-6513.812290,1149.143247
1168.030932,7031.956449,-6883.915261,995.924147
1168.031262,6957.935855,-6883.915261,1149.143247
1168.031593,7105.977043,-6513.812290,842.705048
1168.031923,7179.997637,-6587.832884,459.657299
1168.032254,7105.977043,-6513.812290,689.485948
1168.032584,7105.977043,-6661.853478,995.924147
1168.032915,6809.894666,-6513.812290,919.314598
1168.033245,6883.915261,-6513.812290,1762.019645
1168.033576,7402.059420,-6217.729913,1149.143247
1168.033906,7105.977043,-6365.771101,1072.533697
1168.034237,7031.956449,-6143.709319,1149.143247
1168.034567,7105.977043,-6513.812290,995.924147
1168.034897,7624.121203,-6587.832884,842.705048
1168.035228,7105.977043,-6661.853478,1072.533697
1168.035558,7105.977043,-6587.832884,1225.752797
1168.035889,7105.977043,-6439.791695,842.705048
1168.036219,7254.018232,-6661.853478,766.095498
1168.036550,7105.977043,-6439.791695,689.485948
1168.036880,7031.956449,-6809.894666,1072.533697
1168.037211,7031.956449,-6291.750507,842.705048
1168.037541,6957.935855,-6439.791695,1072.533697
1168.037872,6587.832884,-6217.729913,1762.019645
1168.038202,6883.915261,-6291.750507,919.314598
1168.038532,7105.977043,-6513.812290,1072.533697
1168.038863,7105.977043,-6439.791695,1149.143247
1168.039193,7031.956449,-6291.750507,766.095498
1168.039524,7105.977043,-6587.832884,689.485948
1168.039854,6883.915261,-6809.894666,1072.533697
1168.040185,7031.956449,-6809.894666,1072.533697
1168.040515,6957.935855,-6735.874072,1149.143247
1168.040846,6439.791695,-6513.812290,1685.410096
1168.041176,6809.894666,-6735.874072,1149.143247
1168.041507,6809.894666,-6735.874072,919.314598
1168.041837,6661.853478,-6513.812290,766.095498
1168.042168,6957.935855,-6513.812290,766.095498
1168.042498,7031.956449,-6661.853478,995.924147
1168.042828,7105.977043,-6587.832884,842.705048
1168.043159,6809.894666,-6513.812290,919.314598
1168.043489,6957.935855,-6661.853478,1149.143247
1168.043820,6883.915261,-7031.956449,1378.971896
1168.044150,7105.977043,-6957.935855,1302.362347
1168.044481,7105.977043,-6883.915261,1225.752797
1168.044811,6883.915261,-6587.832884,1225.752797
1168.045142,6957.935855,-6439.791695,1072.533697
1168.045472,6883.915261,-5921.647536,842.705048
1168.045803,6735.874072,-6439.791695,1225.752797
1168.046133,6957.935855,-6587.832884,842.705048
1168.046463,6883.915261,-6735.874072,919.314598
1168.046794,6957.935855,-6365.771101,919.314598
1168.047124,7105.977043,-6513.812290,1149.143247
1168.047455,6957.935855,-6587.832884,1149.143247
1168.047785,7031.956449,-6735.874072,919.314598
1168.048116,7105.977043,-6661.853478,1149.143247
1168.048446,7105.977043,-6291.750507,919.314598
1168.048777,6957.935855,-6513.812290,1225.752797
1168.049107,6809.894666,-6365.771101,995.924147
1168.049438,7031.956449,-6735.874072,995.924147
1168.049768,6809.894666,-6439.791695,1302.362347
1168.050098,6735.874072,-6365.771101,1072.533697
1168.050429,6957.935855,-6365.771101,919.314598
1168.050759,7105.977043,-6513.812290,919.314598
1168.051090,7105.977043,-6513.812290,842.705048
1168.051420,6957.935855,-6809.894666,1608.800546
1168.051751,7254.018232,-6513.812290,536.266849
1168.052081,6809.894666,-6957.935855,536.266849
1168.052412,7031.956449,-6735.874072,1072.533697
1168.052742,7105.977043,-6735.874072,612.876398
1168.053073,7254.018232,-6587.832884,1685.410096
1168.053403,6883.915261,-6661.853478,919.314598
1168.053734,6957.935855,-6439.791695,1072.533697
1168.054064,6809.894666,-6143.709319,919.314598
1168.054394,6957.935855,-6291.750507,689.485948
1168.054725,6957.935855,-6513.812290,1302.362347
1168.055055,6883.915261,-6735.874072,1072.533697
1168.055386,6587.832884,-6587.832884,766.095498
1168.055716,6809.894666,-6439.791695,1072.533697
1168.056047,6587.832884,-6883.915261,1302.362347
1168.056377,7105.977043,-6883.915261,995.924147
1168.056708,7105.977043,-6809.894666,1149.143247
1168.057038,7105.977043,-6735.874072,919.314598
1168.057369,6957.935855,-6439.791695,766.095498
1168.057699,6735.874072,-6217.729913,1225.752797
1168.058029,6957.935855,-6587.832884,1149.143247
1168.058360,6957.935855,-6513.812290,1149.143247
1168.058690,7031.956449,-6069.688724,842.705048
1168.059021,6957.935855,-6513.812290,536.266849
1168.059351,7105.977043,-6513.812290,766.095498
1168.059682,7105.977043,-7105.977043,766.095498
1168.060012,6809.894666,-6883.915261,919.314598
1168.060342,7105.977043,-6883.915261,842.705048
1168.060672,6661.853478,-6587.832884,1762.019645
1168.061001,6883.915261,-6735.874072,1149.143247
1168.061331,7179.997637,-6661.853478,1149.143247
1168.061661,7254.018232,-6513.812290,766.095498
1168.061990,6809.894666,-6365.771101,1302.362347
1168.062320,7031.956449,-6439.791695,1149.143247
1168.062650,7105.977043,-6587.832884,1225.752797
1168.062979,6735.874072,-6587.832884,1149.143247
1168.063309,6735.874072,-6587.832884,1225.752797
1168.063639,6809.894666,-5995.668130,1225.752797
1168.063968,7105.977043,-6513.812290,1225.752797
1168.064298,6883.915261,-6661.853478,919.314598
1168.064628,7105.977043,-6587.832884,919.314598
1168.064958,7328.038826,-6883.915261,766.095498
1168.065287,7179.997637,-6587.832884,995.924147
1168.065617,7105.977043,-6291.750507,1072.533697
1168.065947,6957.935855,-6365.771101,995.924147
1168.066276,6809.894666,-6587.832884,689.485948
1168.066606,7031.956449,-6217.729913,1149.143247
1168.066936,6883.915261,-6143.709319,995.924147
1168.067265,6513.812290,-6365.771101,612.876398
1168.067595,6735.874072,-6291.750507,1225.752797
1168.067925,6957.935855,-6587.832884,919.314598
1168.068254,7031.956449,-6513.812290,1455.581446
1168.068584,7105.977043,-6587.832884,995.924147
1168.068914,6809.894666,-6217.729913,1072.533697
1168.069244,7105.977043,-6439.791695,919.314598
1168.069573,6883.915261,-7105.977043,1762.019645
1168.069903,7105.977043,-6587.832884,995.924147
1168.070233,6957.935855,-6587.832884,919.314598
1168.070562,6809.894666,-6735.874072,995.924147
1168.070892,6735.874072,-6661.853478,919.314598
1168.071222,6735.874072,-6513.812290,995.924147
1168.071551,6439.791695,-6587.832884,1302.362347
1168.071881,6957.935855,-6587.832884,842.705048
1168.072211,6883.915261,-6291.750507,1149.143247
1168.072540,7105.977043,-6735.874072,612.876398
1168.072870,7402.059420,-6439.791695,536.266849
1168.073200,7254.018232,-6587.832884,766.095498
1168.073530,7105.977043,-6513.812290,1149.143247
1168.073859,6957.935855,-6735.874072,995.924147
1168.074189,6809.894666,-6513.812290,919.314598
1168.074519,7105.977043,-6661.853478,1072.533697
1168.074848,7402.059420,-6439.791695,1149.143247
1168.075178,6957.935855,-6661.853478,1149.143247
1168.075508,7031.956449,-6661.853478,766.095498
1168.075837,6735.874072,-6587.832884,1915.238745
1168.076167,7105.977043,-6587.832884,1149.143247
1168.076497,6809.894666,-6587.832884,1225.752797
1168.076826,6883.915261,-6291.750507,1072.533697
1168.077156,7105.977043,-6809.894666,1302.362347
1168.077486,7105.977043,-6513.812290,1149.143247
1168.077816,7105.977043,-6439.791695,1149.143247
1168.078145,7105.977043,-6217.729913,1149.143247
1168.078475,7105.977043,-6587.832884,919.314598
1168.078805,6957.935855,-6291.750507,1838.629195
1168.079134,7031.956449,-6587.832884,1072.533697
1168.079464,6661.853478,-6661.853478,1072.533697
1168.079794,6957.935855,-6291.750507,919.314598
1168.080123,6957.935855,-6439.791695,1149.143247
1168.080453,6957.935855,-6513.812290,842.705048
1168.080783,7105.977043,-6439.791695,995.924147
1168.081112,7105.977043,-6513.812290,1149.143247
1168.081442,7031.956449,-6661.853478,995.924147
1168.081772,7105.977043,-6365.771101,536.266849
1168.082102,6957.935855,-6439.791695,766.095498
1168.082431,7031.956449,-6809.894666,612.876398
1168.082761,7031.956449,-6735.874072,995.924147
1168.083091,7105.977043,-6661.853478,995.924147
1168.083420,6957.935855,-6661.853478,1532.190996
1168.083750,6957.935855,-6587.832884,995.924147
1168.084080,6809.894666,-6439.791695,1072.533697
1168.084409,6809.894666,-6735.874072,1225.752797
1168.084739,7328.038826,-6735.874072,995.924147
1168.085069,7105.977043,-6217.729913,766.095498
1168.085398,6883.915261,-6587.832884,919.314598
1168.085728,6957.935855,-6661.853478,995.924147
1168.086058,7105.977043,-6661.853478,919.314598
1168.086388,7254.018232,-6809.894666,995.924147
1168.086717,7031.956449,-6513.812290,766.095498
1168.087047,6957.935855,-6439.791695,919.314598
1168.087377,6957.935855,-6661.853478,1072.533697
1168.087706,6587.832884,-7254.018232,1532.190996
1168.088036,7105.977043,-6883.915261,995.924147
1168.088366,6809.894666,-6143.709319,1149.143247
1168.088695,7031.956449,-6513.812290,919.314598
1168.089025,6735.874072,-6661.853478,919.314598
1168.089355,7105.977043,-6143.709319,995.924147
1168.089684,7105.977043,-6365.771101,459.657299
1168.090014,7105.977043,-6439.791695,919.314598
1168.090344,7105.977043,-6587.832884,842.705048
1168.090674,7105.977043,-6883.915261,842.705048
1168.091003,7031.956449,-6587.832884,1455.581446
1168.091333,6957.935855,-6513.812290,842.705048
1168.091663,6143.709319,-6439.791695,842.705048
1168.091992,7254.018232,-6661.853478,995.924147
1168.092322,7105.977043,-6809.894666,1378.971896
1168.092652,7105.977043,-6513.812290,689.485948
1168.092981,7031.956449,-6365.771101,995.924147
1168.093311,7105.977043,-6587.832884,1072.533697
1168.093641,7105.977043,-7105.977043,1302.362347
1168.093970,7402.059420,-6217.729913,842.705048
1168.094300,7031.956449,-6883.915261,1072.533697
1168.094630,7105.977043,-6513.812290,1072.533697
1168.094960,6957.935855,-6809.894666,1072.533697
1168.095289,7105.977043,-6513.812290,1608.800546
1168.095619,7031.956449,-6587.832884,0.000000
1168.095949,6883.915261,-6439.791695,1072.533697
1168.096278,6883.915261,-6291.750507,1072.533697
1168.096608,6957.935855,-6587.832884,1149.143247
1168.096938,6883.915261,-6143.709319,612.876398
1168.097267,6957.935855,-6587.832884,995.924147
1168.097597,6957.935855,-6513.812290,919.314598
1168.097927,6809.894666,-6513.812290,919.314598
1168.098256,6735.874072,-6513.812290,842.705048
1168.098586,7031.956449,-6143.709319,689.485948
1168.098916,7105.977043,-6883.915261,1225.752797
1168.099246,6735.874072,-6735.874072,1072.533697
1168.099575,6809.894666,-6809.894666,1072.533697
1168.099905,6957.935855,-6365.771101,766.095498
1168.100235,7031.956449,-6661.853478,1149.143247
1168.100564,7031.956449,-6661.853478,1149.143247
1168.100894,6957.935855,-6661.853478,1225.752797
1168.101224,7105.977043,-6661.853478,1225.752797
1168.101553,7328.038826,-6661.853478,459.657299
1168.101883,7031.956449,-6735.874072,842.705048
1168.102213,7031.956449,-6809.894666,919.314598
1168.102542,6957.935855,-6883.915261,842.705048
1168.102872,6809.894666,-6661.853478,995.924147
1168.103202,6957.935855,-6661.853478,842.705048
1168.103532,7031.956449,-6587.832884,1072.533697
1168.103861,7105.977043,-6587.832884,919.314598
1168.104191,7105.977043,-6661.853478,919.314598
1168.104521,7105.977043,-6809.894666,1149.143247
1168.104850,7105.977043,-6217.729913,1225.752797
1168.105180,7105.977043,-6439.791695,1072.533697
1168.105510,7105.977043,-6661.853478,1302.362347
1168.105839,6957.935855,-6365.771101,1302.362347
1168.106169,7179.997637,-6069.688724,995.924147
1168.106499,6735.874072,-6513.812290,842.705048
1168.106828,7105.977043,-6957.935855,842.705048
1168.107158,7031.956449,-6661.853478,1149.143247
1168.107488,7254.018232,-6513.812290,766.095498
1168.107818,7105.977043,-6513.812290,995.924147
1168.108147,7179.997637,-6513.812290,1149.143247
1168.108477,6883.915261,-6365.771101,995.924147
1168.108807,7105.977043,-6291.750507,1149.143247
1168.109136,7179.997637,-6291.750507,842.705048
1168.109466,7105.977043,-6735.874072,766.095498
1168.109796,7105.977043,-6365.771101,689.485948
1168.110125,6883.915261,-6513.812290,995.924147
1168.110455,7105.977043,-5551.544565,1225.752797
1168.110785,7698.141797,-4811.338623,1455.581446
1168.111114,8290.306550,-5329.482782,1149.143247
1168.111444,8512.368333,-5107.421000,1149.143247
1168.111774,8512.368333,-6069.688724,1302.362347
1168.112104,7920.203579,-6217.729913,306.438199
1168.112433,6439.791695,-6883.915261,306.438199
1168.112763,5847.626942,-7550.100608,0.000000
1168.113093,6217.729913,-7254.018232,383.047749
1168.113422,7179.997637,-7254.018232,919.314598
1168.113752,7698.141797,-6809.894666,1915.238745
1168.114082,7994.224174,-5921.647536,1455.581446
1168.114411,8142.265362,-4441.235652,842.705048
1168.114741,7920.203579,-5181.441594,1225.752797
1168.115071,8290.306550,-4293.194464,766.095498
1168.115400,8882.471304,-3849.070898,1149.143247
1168.115730,9104.533087,-4515.256246,1302.362347
1168.116060,8660.409521,-3997.112087,1149.143247
1168.116390,7994.224174,-5255.462188,689.485948
1168.116719,7994.224174,-4367.215058,1608.800546
1168.117049,8512.368333,-5255.462188,995.924147
1168.117379,8438.347739,-5551.544565,1225.752797
1168.117708,8808.450710,-5551.544565,995.924147
1168.118038,7846.182985,-5921.647536,1149.143247
1168.118368,7994.224174,-4811.338623,1302.362347
1168.118697,7920.203579,-5255.462188,919.314598
1168.119027,8290.306550,-5107.421000,919.314598
1168.119357,8734.430116,-4589.276840,1915.238745
1168.119686,9104.533087,-4811.338623,1685.410096
1168.120016,8956.491898,-3701.029710,1762.019645
1168.120346,9178.553681,-4219.173869,1838.629195
1168.120676,9474.636058,-3552.988522,1225.752797
1168.121005,9104.533087,-3775.050304,1072.533697
1168.121335,8734.430116,-4293.194464,1302.362347
1168.121665,8808.450710,-4959.379811,1149.143247
1168.121994,8734.430116,-6069.688724,919.314598
1168.122324,8142.265362,-6217.729913,612.876398
1168.122654,8216.285956,-6365.771101,995.924147
1168.122983,7846.182985,-6809.894666,842.705048
1168.123313,7328.038826,-6217.729913,536.266849
1168.123643,7105.977043,-6439.791695,766.095498
1168.123972,7698.141797,-5995.668130,842.705048
1168.124302,8142.265362,-4589.276840,1225.752797
1168.124632,8438.347739,-4885.359217,1225.752797
1168.124962,8660.409521,-4737.318029,1072.533697
1168.125291,8512.368333,-4959.379811,689.485948
1168.125621,8734.430116,-4589.276840,842.705048
1168.125951,8882.471304,-4367.215058,1072.533697
1168.126280,9178.553681,-5403.503377,612.876398
1168.126610,8808.450710,-6069.688724,689.485948
1168.126940,7698.141797,-6513.812290,459.657299
1168.127269,7402.059420,-6439.791695,0.000000
1168.127599,7328.038826,-5403.503377,766.095498
1168.127929,7476.080014,-6883.915261,536.266849
1168.128258,7550.100608,-5995.668130,995.924147
1168.128588,7328.038826,-5921.647536,919.314598
1168.128918,8216.285956,-5329.482782,306.438199
1168.129248,7920.203579,-5033.400406,1455.581446
1168.129577,7772.162391,-5403.503377,1685.410096
1168.129907,7994.224174,-5107.421000,1455.581446
1168.130237,7846.182985,-4441.235652,1762.019645
1168.130566,8290.306550,-4885.359217,1225.752797
1168.130896,8364.327145,-5551.544565,1838.629195
1168.131226,8364.327145,-6143.709319,1685.410096
1168.131555,7550.100608,-6957.935855,1225.752797
1168.131885,6735.874072,-6587.832884,1455.581446
1168.132215,6069.688724,-7254.018232,383.047749
1168.132544,5329.482782,-7920.203579,0.000000
1168.132874,5255.462188,-8068.244768,0.000000
1168.133204,5403.503377,-7920.203579,0.000000
1168.133534,5773.606348,-7846.182985,0.000000
1168.133863,5477.523971,-7254.018232,0.000000
1168.134193,5995.668130,-7105.977043,0.000000
1168.134523,7105.977043,-6661.853478,612.876398
1168.134852,7402.059420,-6143.709319,1838.629195
1168.135182,8142.265362,-6143.709319,1455.581446
1168.135512,8438.347739,-5921.647536,1685.410096
1168.135841,8586.388927,-5847.626942,1608.800546
1168.136171,8660.409521,-6217.729913,1991.848295
1168.136501,7994.224174,-5551.544565,2068.457845
1168.136830,7698.141797,-5773.606348,1762.019645
1168.137160,7179.997637,-5773.606348,1685.410096
1168.137490,6735.874072,-5699.585753,1532.190996
1168.137820,6365.771101,-5625.565159,1302.362347
1168.138149,6069.688724,-5847.626942,919.314598
1168.138479,6217.729913,-5551.544565,612.876398
1168.138809,6661.853478,-5551.544565,612.876398
1168.139138,6513.812290,-6217.729913,689.485948
1168.139468,7105.977043,-6217.729913,995.924147
1168.139798,7550.100608,-5181.441594,459.657299
1168.140127,8364.327145,-5403.503377,766.095498
1168.140457,8438.347739,-6217.729913,1149.143247
1168.140787,8290.306550,-7105.977043,1072.533697
1168.141116,7550.100608,-7476.080014,1149.143247
1168.141446,7105.977043,-7476.080014,1302.362347
1168.141776,6809.894666,-7772.162391,1378.971896
1168.142106,6365.771101,-8068.244768,1532.190996
1168.142435,6291.750507,-7920.203579,1378.971896
1168.142765,5847.626942,-7698.141797,1455.581446
1168.143095,5551.544565,-7105.977043,1149.143247
1168.143424,5477.523971,-6439.791695,1072.533697
1168.143754,5773.606348,-6587.832884,1149.143247
1168.144084,6143.709319,-5699.585753,306.438199
1168.144413,5773.606348,-5847.626942,459.657299
1168.144743,6217.729913,-5847.626942,306.438199
1168.145073,6809.894666,-6365.771101,766.095498
1168.145402,7550.100608,-5847.626942,919.314598
1168.145732,7624.121203,-6587.832884,1072.533697
1168.146062,7698.141797,-7031.956449,995.924147
1168.146392,7476.080014,-7402.059420,842.705048
1168.146721,7254.018232,-7994.224174,1532.190996
1168.147051,7254.018232,-7328.038826,1838.629195
1168.147381,7254.018232,-6809.894666,1378.971896
1168.147710,7105.977043,-7179.997637,1149.143247
1168.148040,6957.935855,-6957.935855,1685.410096
1168.148370,6735.874072,-6439.791695,1762.019645
1168.148699,6661.853478,-5033.400406,1302.362347
1168.149029,6365.771101,-4737.318029,842.705048
1168.149359,6143.709319,-5403.503377,995.924147
1168.149688,6069.688724,-5329.482782,919.314598
1168.150018,7031.956449,-5477.523971,0.000000
1168.150348,7031.956449,-5033.400406,229.828649
1168.150678,7402.059420,-5921.647536,766.095498
1168.151007,7698.141797,-6513.812290,689.485948
1168.151337,7402.059420,-6513.812290,459.657299
1168.151667,7920.203579,-6587.832884,995.924147
1168.151996,7772.162391,-7105.977043,689.485948
1168.152326,7624.121203,-7772.162391,1225.752797
1168.152656,7105.977043,-7994.224174,1455.581446
1168.152985,7031.956449,-7105.977043,1685.410096
1168.153315,6883.915261,-7031.956449,1532.190996
1168.153645,7254.018232,-6661.853478,1608.800546
1168.153974,7179.997637,-6217.729913,1685.410096
1168.154304,7550.100608,-6143.709319,1685.410096
1168.154634,7920.203579,-4885.359217,1149.143247
1168.154964,7328.038826,-4959.379811,919.314598
1168.155293,7179.997637,-5403.503377,1149.143247
1168.155623,7105.977043,-5921.647536,919.314598
1168.155953,7031.956449,-5921.647536,153.219100
1168.156282,6513.812290,-6291.750507,995.924147
1168.156612,6365.771101,-6809.894666,229.828649
1168.156942,6439.791695,-7328.038826,536.266849
1168.157271,6291.750507,-7550.100608,536.266849
1168.157601,6587.832884,-7105.977043,0.000000
1168.157931,6069.688724,-7105.977043,306.438199
1168.158260,6439.791695,-7772.162391,536.266849
1168.158590,6513.812290,-7772.162391,842.705048
1168.158920,7105.977043,-7994.224174,1225.752797
1168.159250,7105.977043,-7105.977043,1838.629195
1168.159579,7328.038826,-7031.956449,1685.410096
1168.159909,7328.038826,-6809.894666,1838.629195
1168.160239,7624.121203,-6587.832884,1915.238745
1168.160568,7179.997637,-6069.688724,2145.067394
1168.160898,7328.038826,-5847.626942,1685.410096
1168.161228,6513.812290,-5995.668130,1225.752797
1168.161557,6291.750507,-6587.832884,1149.143247
1168.161887,5921.647536,-6513.812290,995.924147
1168.162217,5847.626942,-6143.709319,689.485948
1168.162546,6143.709319,-5625.565159,612.876398
1168.162875,6587.832884,-6217.729913,766.095498
1168.163205,7105.977043,-5995.668130,459.657299
1168.163534,6883.915261,-5477.523971,229.828649
1168.163864,7920.203579,-5921.647536,536.266849
1168.164193,8068.244768,-5995.668130,995.924147
1168.164522,8290.306550,-6883.915261,1378.971896
1168.164852,8660.409521,-7105.977043,1225.752797
1168.165181,8290.306550,-6957.935855,2451.505594
1168.165510,7624.121203,-7920.203579,1685.410096
1168.165840,7179.997637,-8364.327145,1762.019645
1168.166169,7105.977043,-7772.162391,1455.581446
1168.166498,7105.977043,-7402.059420,1685.410096
1168.166828,7328.038826,-6957.935855,1378.971896
1168.167157,6143.709319,-6217.729913,919.314598
1168.167486,5773.606348,-5773.606348,306.438199
1168.167816,5773.606348,-5551.544565,-536.266849
1168.168145,5773.606348,-5477.523971,229.828649
1168.168474,6587.832884,-6069.688724,0.000000
1168.168804,6809.894666,-6439.791695,612.876398
1168.169133,6883.915261,-5995.668130,383.047749
1168.169463,7105.977043,-6513.812290,689.485948
1168.169792,7846.182985,-6439.791695,995.924147
1168.170121,7698.141797,-7105.977043,1072.533697
1168.170451,7624.121203,-7772.162391,1302.362347
1168.170780,7772.162391,-7179.997637,1532.190996
1168.171109,7994.224174,-6883.915261,1762.019645
1168.171439,7772.162391,-6439.791695,1915.238745
1168.171768,7994.224174,-6809.894666,2145.067394
1168.172097,7624.121203,-6883.915261,2145.067394
1168.172427,7328.038826,-5477.523971,1685.410096
1168.172756,6661.853478,-5403.503377,1072.533697
1168.173085,6365.771101,-5255.462188,612.876398
1168.173415,6069.688724,-5255.462188,306.438199
1168.173744,6291.750507,-4811.338623,612.876398
1168.174073,6439.791695,-4885.359217,76.609550
1168.174403,6365.771101,-5921.647536,153.219100
1168.174732,6587.832884,-6513.812290,459.657299
1168.175061,6809.894666,-7105.977043,306.438199
1168.175391,7328.038826,-7550.100608,689.485948
1168.175720,7105.977043,-7772.162391,1378.971896
1168.176050,7105.977043,-8438.347739,766.095498
1168.176379,6291.750507,-8438.347739,612.876398
1168.176708,6735.874072,-8290.306550,995.924147
1168.177038,7254.018232,-7476.080014,1608.800546
1168.177367,8216.285956,-6291.750507,2451.505594
1168.177696,8142.265362,-6439.791695,2221.676944
1168.178026,8068.244768,-5255.462188,1915.238745
1168.178355,7550.100608,-4737.318029,2145.067394
1168.178684,7994.224174,-4367.215058,1762.019645
1168.179014,7179.997637,-4737.318029,1225.752797
1168.179343,6513.812290,-4885.359217,306.438199
1168.179672,5773.606348,-5625.565159,0.000000
1168.180002,5699.585753,-6661.853478,383.047749
1168.180331,6143.709319,-7105.977043,536.266849
1168.180660,5995.668130,-8438.347739,383.047749
1168.180990,5921.647536,-7698.141797,0.000000
1168.181319,5995.668130,-7698.141797,0.000000
1168.181648,6217.729913,-8068.244768,536.266849
1168.181978,7105.977043,-7624.121203,995.924147
1168.182307,7550.100608,-7698.141797,1915.238745
1168.182637,7846.182985,-5921.647536,1991.848295
1168.182966,7550.100608,-5477.523971,1762.019645
1168.183295,7846.182985,-5699.585753,2451.505594
1168.183625,7550.100608,-5551.544565,1685.410096
1168.183954,7698.141797,-5995.668130,1762.019645
1168.184283,7402.059420,-5773.606348,1991.848295
1168.184613,6661.853478,-5921.647536,919.314598
1168.184942,5847.626942,-6365.771101,612.876398
1168.185271,5255.462188,-7031.956449,153.219100
1168.185601,5477.523971,-7772.162391,229.828649
1168.185930,6217.729913,-6661.853478,383.047749
1168.186259,6291.750507,-6587.832884,536.266849
1168.186589,6513.812290,-6513.812290,689.485948
1168.186918,6661.853478,-5995.668130,229.828649
1168.187247,7105.977043,-6513.812290,536.266849
1168.187577,7624.121203,-5403.503377,842.705048
1168.187906,8216.285956,-5847.626942,919.314598
1168.188236,8660.409521,-6143.709319,1762.019645
1168.188565,8438.347739,-6365.771101,1762.019645
1168.188894,8142.265362,-6883.915261,1762.019645
1168.189224,7624.121203,-6661.853478,1455.581446
1168.189553,7328.038826,-7105.977043,1685.410096
1168.189882,7105.977043,-7179.997637,1378.971896
1168.190212,7179.997637,-7698.141797,1608.800546
1168.190541,7105.977043,-7550.100608,766.095498
1168.190870,6661.853478,-6661.853478,0.000000
1168.191200,5773.606348,-6291.750507,306.438199
1168.191529,5551.544565,-5847.626942,76.609550
1168.191858,5773.606348,-5921.647536,0.000000
1168.192188,5773.606348,-6513.812290,153.219100
1168.192517,6439.791695,-5847.626942,612.876398
1168.192846,6661.853478,-6143.709319,459.657299
1168.193176,7105.977043,-6143.709319,612.876398
1168.193505,7624.121203,-6809.894666,919.314598
1168.193834,7402.059420,-7772.162391,1225.752797
1168.194164,7698.141797,-7328.038826,1149.143247
1168.194493,7624.121203,-7624.121203,1302.362347
1168.194823,7846.182985,-7179.997637,1762.019645
1168.195152,7772.162391,-7328.038826,1378.971896
1168.195481,7920.203579,-7179.997637,2068.457845
1168.195811,7624.121203,-6587.832884,2068.457845
1168.196140,7105.977043,-5477.523971,1685.410096
1168.196469,6883.915261,-5403.503377,1149.143247
1168.196799,6143.709319,-4737.318029,766.095498
1168.197128,6069.688724,-5329.482782,1225.752797
1168.197457,5699.585753,-5329.482782,612.876398
1168.197787,5551.544565,-5403.503377,0.000000
1168.198116,5995.668130,-6143.709319,0.000000
1168.198445,6513.812290,-6439.791695,153.219100
1168.198775,7105.977043,-7254.018232,306.438199
1168.199104,7254.018232,-8068.244768,1072.533697
1168.199433,7476.080014,-8290.306550,1302.362347
1168.199763,7550.100608,-9252.574275,1455.581446
1168.200092,7105.977043,-7624.121203,1532.190996
1168.200421,6809.894666,-7624.121203,1685.410096
1168.200751,7550.100608,-6735.874072,1991.848295
1168.201080,8142.265362,-5773.606348,2221.676944
1168.201410,7994.224174,-5625.565159,1991.848295
1168.201739,8068.244768,-5033.400406,1608.800546
1168.202068,7994.224174,-4515.256246,1915.238745
1168.202398,7328.038826,-5329.482782,1532.190996
1168.202727,6439.791695,-5699.585753,612.876398
1168.203056,5921.647536,-5699.585753,229.828649
1168.203386,5551.544565,-6513.812290,0.000000
1168.203715,6069.688724,-7105.977043,153.219100
1168.204044,6217.729913,-7698.141797,0.000000
1168.204374,5921.647536,-7698.141797,-306.438199
1168.204703,6143.709319,-8068.244768,459.657299
1168.205032,6217.729913,-7920.203579,76.609550
1168.205362,6809.894666,-7920.203579,842.705048
1168.205691,7105.977043,-7846.182985,1608.800546
1168.206020,7179.997637,-6809.894666,1915.238745
1168.206350,7402.059420,-5921.647536,2145.067394
1168.206679,7994.224174,-5403.503377,2068.457845
1168.207009,8512.368333,-4737.318029,2145.067394
1168.207338,8438.347739,-5403.503377,2145.067394
1168.207667,7920.203579,-6143.709319,1915.238745
1168.207997,7105.977043,-6143.709319,995.924147
1168.208326,6291.750507,-6587.832884,612.876398
1168.208655,5847.626942,-7105.977043,229.828649
1168.208985,5403.503377,-7402.059420,766.095498
1168.209314,5773.606348,-7105.977043,536.266849
1168.209643,6439.791695,-6513.812290,383.047749
1168.209973,6809.894666,-5921.647536,306.438199
1168.210302,7031.956449,-6439.791695,612.876398
1168.210631,6957.935855,-6735.874072,76.609550
1168.210961,7031.956449,-6291.750507,612.876398
1168.211290,7402.059420,-6217.729913,689.485948
1168.211619,8290.306550,-6735.874072,1762.019645
1168.211949,8290.306550,-6513.812290,2221.676944
1168.212278,8586.388927,-6957.935855,1991.848295
1168.212607,7994.224174,-6439.791695,1608.800546
1168.212937,7624.121203,-6661.853478,1302.362347
1168.213266,7624.121203,-7476.080014,1225.752797
1168.213596,7179.997637,-7846.182985,1685.410096
1168.213925,6661.853478,-7254.018232,1455.581446
1168.214254,5773.606348,-6661.853478,612.876398
1168.214584,5107.421000,-6513.812290,76.609550
1168.214913,5403.503377,-6365.771101,689.485948
1168.215242,5699.585753,-5773.606348,536.266849
1168.215572,5921.647536,-5773.606348,153.219100
1168.215901,6143.709319,-6069.688724,0.000000
1168.216230,6661.853478,-5625.565159,459.657299
1168.216560,7105.977043,-6735.874072,1302.362347
1168.216889,8142.265362,-6365.771101,1302.362347
1168.217218,7846.182985,-6661.853478,1455.581446
1168.217548,7846.182985,-7031.956449,1532.190996
1168.217877,7698.141797,-6883.915261,1378.971896
1168.218206,8068.244768,-7031.956449,1225.752797
1168.218536,8142.265362,-6513.812290,1532.190996
1168.218865,7920.203579,-6661.853478,1608.800546
1168.219194,7476.080014,-6587.832884,1915.238745
1168.219524,6883.915261,-6365.771101,1762.019645
1168.219853,6513.812290,-6143.709319,1149.143247
1168.220183,6143.709319,-5625.565159,1072.533697
1168.220512,6217.729913,-5847.626942,459.657299
1168.220841,5847.626942,-6069.688724,306.438199
1168.221171,5847.626942,-5403.503377,0.000000
1168.221500,5847.626942,-6217.729913,153.219100
1168.221829,6513.812290,-5921.647536,383.047749
1168.222159,7105.977043,-6883.915261,383.047749
1168.222488,7846.182985,-7105.977043,1225.752797
1168.222817,8290.306550,-7179.997637,1455.581446
1168.223147,7550.100608,-7994.224174,1225.752797
1168.223476,7105.977043,-7624.121203,1455.581446
1168.223805,6809.894666,-8290.306550,1685.410096
1168.224135,7179.997637,-7254.018232,1225.752797
1168.224464,7105.977043,-6587.832884,1072.533697
1168.224793,7402.059420,-6809.894666,1532.190996
1168.225123,7994.224174,-5699.585753,1915.238745
1168.225452,7994.224174,-5699.585753,2298.286494
1168.225781,7624.121203,-5107.421000,2221.676944
1168.226111,7105.977043,-5033.400406,1225.752797
1168.226440,6217.729913,-5255.462188,459.657299
1168.226770,6217.729913,-5921.647536,459.657299
1168.227099,6439.791695,-6809.894666,612.876398
1168.227428,6661.853478,-7031.956449,153.219100
1168.227758,5847.626942,-7624.121203,-76.609550
1168.228087,5773.606348,-7402.059420,0.000000
1168.228416,6069.688724,-7698.141797,0.000000
1168.228746,6439.791695,-8142.265362,1072.533697
1168.229075,6809.894666,-7920.203579,1225.752797
1168.229404,6809.894666,-7624.121203,1455.581446
1168.229734,6587.832884,-6735.874072,1225.752797
1168.230063,7105.977043,-6069.688724,1455.581446
1168.230392,7328.038826,-6291.750507,1991.848295
1168.230722,8142.265362,-5699.585753,1915.238745
1168.231051,8438.347739,-6217.729913,2451.505594
1168.231380,8068.244768,-5699.585753,2221.676944
1168.231710,7105.977043,-5107.421000,1915.238745
1168.232039,6513.812290,-5847.626942,842.705048
1168.232369,5995.668130,-6513.812290,306.438199
1168.232698,5847.626942,-6587.832884,153.219100
1168.233027,6069.688724,-6513.812290,153.219100
1168.233357,6439.791695,-6661.853478,689.485948
1168.233686,6735.874072,-7105.977043,0.000000
1168.234015,6587.832884,-6957.935855,0.000000
1168.234345,6587.832884,-7402.059420,229.828649
1168.234674,7105.977043,-6883.915261,536.266849
1168.235003,7179.997637,-6883.915261,459.657299
1168.235333,7624.121203,-6957.935855,1455.581446
1168.235662,7772.162391,-6439.791695,1762.019645
1168.235991,7698.141797,-6883.915261,1685.410096
1168.236321,7772.162391,-5921.647536,1455.581446
1168.236650,8068.244768,-6513.812290,1762.019645
1168.236979,7920.203579,-6735.874072,1838.629195
1168.237309,7550.100608,-6809.894666,1762.019645
1168.237638,6883.915261,-6661.853478,1455.581446
1168.237967,6143.709319,-6291.750507,536.266849
1168.238297,5625.565159,-5921.647536,0.000000
1168.238626,5625.565159,-6069.688724,0.000000
1168.238956,5847.626942,-6069.688724,153.219100
1168.239285,5921.647536,-6735.874072,153.219100
1168.239614,6217.729913,-6365.771101,0.000000
1168.239944,6513.812290,-6143.709319,229.828649
1168.240273,7105.977043,-6809.894666,459.657299
1168.240602,7624.121203,-6661.853478,766.095498
1168.240932,7550.100608,-6883.915261,1532.190996
1168.241261,7994.224174,-6291.750507,1532.190996
1168.241590,7846.182985,-6735.874072,1608.800546
1168.241920,7994.224174,-6735.874072,1838.629195
1168.242249,7920.203579,-6513.812290,1685.410096
1168.242578,7846.182985,-6809.894666,1915.238745
1168.242908,7550.100608,-6883.915261,1762.019645
1168.243237,7105.977043,-6957.935855,1532.190996
1168.243566,6513.812290,-6365.771101,1072.533697
1168.243896,5403.503377,-5181.441594,459.657299
1168.244225,5625.565159,-5551.544565,0.000000
1168.244554,5773.606348,-5403.503377,0.000000
1168.244884,6069.688724,-6143.709319,229.828649
1168.245213,6217.729913,-5921.647536,76.609550
1168.245543,6365.771101,-6217.729913,612.876398
1168.245872,6735.874072,-7550.100608,383.047749
1168.246201,7624.121203,-7328.038826,1149.143247
1168.246531,7624.121203,-7772.162391,1915.238745
1168.246860,8068.244768,-7994.224174,1762.019645
1168.247189,7550.100608,-6957.935855,1532.190996
1168.247519,7179.997637,-7624.121203,1685.410096
1168.247848,7772.162391,-7105.977043,1378.971896
1168.248177,7772.162391,-6587.832884,1991.848295
1168.248507,8290.306550,-6217.729913,2834.553343
1168.248836,8216.285956,-5107.421000,2221.676944
1168.249165,7698.141797,-5181.441594,1915.238745
1168.249495,7105.977043,-5107.421000,1685.410096
1168.249824,6513.812290,-5181.441594,536.266849
1168.250153,5921.647536,-5181.441594,153.219100
1168.250483,5477.523971,-6217.729913,0.000000
1168.250812,5625.565159,-6957.935855,0.000000
1168.251142,5255.462188,-7772.162391,-229.828649
1168.251471,5699.585753,-8364.327145,229.828649
1168.251800,6661.853478,-8142.265362,766.095498
1168.252130,7031.956449,-8216.285956,995.924147
1168.252459,7179.997637,-7105.977043,1455.581446
1168.252788,7328.038826,-7179.997637,1532.190996
1168.253118,7328.038826,-6513.812290,2145.067394
1168.253447,7476.080014,-5699.585753,1762.019645
1168.253776,7328.038826,-5403.503377,1378.971896
1168.254106,7550.100608,-5477.523971,1762.019645
1168.254435,7920.203579,-6439.791695,2068.457845
1168.254764,7550.100608,-6587.832884,1991.848295
1168.255094,6883.915261,-6365.771101,1302.362347
1168.255423,6143.709319,-6069.688724,383.047749
1168.255752,5847.626942,-6291.750507,766.095498
1168.256082,5921.647536,-6661.853478,766.095498
1168.256411,6217.729913,-7031.956449,153.219100
1168.256740,6439.791695,-6365.771101,612.876398
1168.257070,6513.812290,-6661.853478,0.000000
1168.257399,6661.853478,-6661.853478,459.657299
1168.257729,6809.894666,-6883.915261,919.314598
1168.258058,7476.080014,-6883.915261,766.095498
1168.258387,7698.141797,-5995.668130,689.485948
1168.258717,7920.203579,-6809.894666,1225.752797
1168.259046,8364.327145,-7254.018232,1838.629195
1168.259375,7994.224174,-7105.977043,1608.800546
1168.259705,7920.203579,-6957.935855,1455.581446
1168.260034,7550.100608,-6809.894666,1302.362347
1168.260363,7105.977043,-7254.018232,1149.143247
1168.260693,7328.038826,-7624.121203,1455.581446
1168.261022,6883.915261,-7402.059420,1302.362347
1168.261351,6217.729913,-6513.812290,383.047749
1168.261681,5477.523971,-6069.688724,306.438199
1168.262010,5107.421000,-6069.688724,766.095498
1168.262339,5847.626942,-5921.647536,459.657299
1168.262669,5921.647536,-5699.585753,536.266849
1168.262998,6365.771101,-5551.544565,229.828649
1168.263327,6735.874072,-6217.729913,459.657299
1168.263657,7328.038826,-6365.771101,1378.971896
1168.263986,7624.121203,-6587.832884,842.705048
1168.264316,7772.162391,-7328.038826,919.314598
1168.264645,7772.162391,-7105.977043,1455.581446
1168.264974,7402.059420,-7179.997637,1685.410096
1168.265303,7550.100608,-7476.080014,1991.848295
1168.265632,7624.121203,-6661.853478,1608.800546
1168.265961,7328.038826,-6957.935855,1762.019645
1168.266290,7031.956449,-6365.771101,2068.457845
1168.266620,7179.997637,-5551.544565,1762.019645
1168.266949,6957.935855,-5921.647536,1149.143247
1168.267278,6217.729913,-5181.441594,1072.533697
1168.267607,5921.647536,-5699.585753,689.485948
1168.267936,5847.626942,-6217.729913,536.266849
1168.268265,5773.606348,-5699.585753,766.095498
1168.268594,5699.585753,-5847.626942,0.000000
1168.268923,6217.729913,-6661.853478,383.047749
1168.269253,7031.956449,-7179.997637,766.095498
1168.269582,7772.162391,-7698.141797,995.924147
1168.269911,7846.182985,-7105.977043,1225.752797
1168.270240,7624.121203,-7254.018232,1149.143247
1168.270569,7328.038826,-7328.038826,1149.143247
1168.270898,7105.977043,-7402.059420,1762.019645
1168.271227,7994.224174,-7105.977043,1991.848295
1168.271557,7550.100608,-5699.585753,1302.362347
1168.271886,7624.121203,-5625.565159,1685.410096
1168.272215,8216.285956,-5847.626942,1915.238745
1168.272544,8882.471304,-6217.729913,2528.115143
1168.272873,7772.162391,-5699.585753,1455.581446
1168.273202,6661.853478,-5403.503377,919.314598
1168.273531,5921.647536,-5625.565159,612.876398
1168.273861,5551.544565,-6291.750507,76.609550
1168.274190,5551.544565,-6217.729913,842.705048
1168.274519,5847.626942,-7476.080014,229.828649
1168.274848,5847.626942,-7254.018232,-153.219100
1168.275177,6217.729913,-7698.141797,0.000000
1168.275506,6735.874072,-7772.162391,153.219100
1168.275835,7254.018232,-7624.121203,1149.143247
1168.276165,6735.874072,-7624.121203,1072.533697
1168.276494,6957.935855,-7698.141797,1225.752797
1168.276823,6883.915261,-7031.956449,1302.362347
1168.277152,7476.080014,-6217.729913,1838.629195
1168.277481,7994.224174,-5773.606348,1991.848295
1168.277810,7550.100608,-5403.503377,1915.238745
1168.278139,7994.224174,-6143.709319,2145.067394
1168.278469,7920.203579,-5699.585753,1685.410096
1168.278798,7105.977043,-5033.400406,1225.752797
1168.279127,6291.750507,-6217.729913,689.485948
1168.279456,5699.585753,-6439.791695,153.219100
1168.279785,5329.482782,-6661.853478,0.000000
1168.280114,5403.503377,-6587.832884,459.657299
1168.280443,6217.729913,-6217.729913,306.438199
1168.280773,6365.771101,-6809.894666,306.438199
1168.281102,6957.935855,-7105.977043,536.266849
1168.281431,7105.977043,-6957.935855,842.705048
1168.281760,7698.141797,-6513.812290,689.485948
1168.282089,7846.182985,-5921.647536,1072.533697
1168.282418,8290.306550,-6587.832884,1455.581446
1168.282747,8438.347739,-6513.812290,1915.238745
1168.283076,8068.244768,-6883.915261,1915.238745
1168.283406,7920.203579,-6069.688724,1072.533697
1168.283735,7402.059420,-7179.997637,1762.019645
1168.284064,7328.038826,-7476.080014,1915.238745
1168.284393,7328.038826,-7179.997637,1608.800546
1168.284722,7031.956449,-6513.812290,1455.581446
1168.285051,5625.565159,-6143.709319,459.657299
1168.285380,5255.462188,-6587.832884,383.047749
1168.285710,5107.421000,-6883.915261,229.828649
1168.286039,5551.544565,-5477.523971,0.000000
1168.286368,6365.771101,-6439.791695,383.047749
1168.286697,6735.874072,-6217.729913,612.876398
1168.287026,6883.915261,-6587.832884,459.657299
1168.287355,7328.038826,-6735.874072,842.705048
1168.287684,7476.080014,-6291.750507,919.314598
1168.288014,7920.203579,-7105.977043,1302.362347
1168.288343,7624.121203,-6809.894666,1762.019645
1168.288672,7624.121203,-7105.977043,1532.190996
1168.289001,7698.141797,-7105.977043,1532.190996
1168.289330,7772.162391,-6291.750507,1378.971896
1168.289659,7624.121203,-7254.018232,1838.629195
1168.289988,7624.121203,-6735.874072,1915.238745
1168.290318,6957.935855,-6439.791695,1378.971896
1168.290647,6365.771101,-6291.750507,919.314598
1168.290976,5921.647536,-5033.400406,1072.533697
1168.291305,5847.626942,-5403.503377,306.438199
1168.291634,6069.688724,-5033.400406,0.000000
1168.291963,6365.771101,-4737.318029,0.000000
1168.292292,6661.853478,-5477.523971,153.219100
1168.292622,6809.894666,-5847.626942,842.705048
1168.292951,7476.080014,-7105.977043,689.485948
1168.293280,7550.100608,-7402.059420,919.314598
1168.293609,7476.080014,-7402.059420,689.485948
1168.293938,7550.100608,-8142.265362,1302.362347
1168.294267,7105.977043,-8068.244768,1302.362347
1168.294596,7105.977043,-8068.244768,1149.143247
1168.294926,7402.059420,-7328.038826,1302.362347
1168.295255,7698.141797,-7105.977043,1455.581446
1168.295584,7328.038826,-6365.771101,1302.362347
1168.295913,7402.059420,-6513.812290,2145.067394
1168.296242,7402.059420,-5625.565159,1685.410096
1168.296571,7031.956449,-5181.441594,1072.533697
1168.296900,6217.729913,-5477.523971,919.314598
1168.297229,5995.668130,-5181.441594,306.438199
1168.297559,6217.729913,-5847.626942,76.609550
1168.297888,6217.729913,-6439.791695,76.609550
1168.298217,6217.729913,-7254.018232,306.438199
1168.298546,6217.729913,-7328.038826,383.047749
1168.298875,6143.709319,-7772.162391,612.876398
1168.299204,6735.874072,-7920.203579,612.876398
1168.299533,6587.832884,-8142.265362,919.314598
1168.299863,7105.977043,-7920.203579,1378.971896
1168.300192,6883.915261,-7254.018232,1302.362347
1168.300521,7105.977043,-6661.853478,1455.581446
1168.300850,7402.059420,-6217.729913,2068.457845
1168.301179,7846.182985,-5477.523971,1991.848295
1168.301508,7994.224174,-5403.503377,3140.991542
1168.301837,7994.224174,-5625.565159,2221.676944
1168.302167,7476.080014,-4885.359217,1532.190996
1168.302496,6883.915261,-5329.482782,919.314598
1168.302825,6513.812290,-5255.462188,766.095498
1168.303154,5921.647536,-6143.709319,383.047749
1168.303483,6143.709319,-7105.977043,383.047749
1168.303812,6365.771101,-6069.688724,536.266849
1168.304141,6217.729913,-6513.812290,0.000000
1168.304471,6883.915261,-6809.894666,919.314598
1168.304800,7328.038826,-6809.894666,459.657299
1168.305129,7105.977043,-7402.059420,842.705048
1168.305458,7105.977043,-6217.729913,766.095498
1168.305787,7254.018232,-7105.977043,1302.362347
1168.306116,7772.162391,-6957.935855,1762.019645
1168.306445,7698.141797,-6883.915261,1608.800546
1168.306775,7476.080014,-7031.956449,1762.019645
1168.307104,8216.285956,-6661.853478,2145.067394
1168.307433,7698.141797,-7254.018232,1915.238745
1168.307762,7920.203579,-6883.915261,1915.238745
1168.308091,7624.121203,-6661.853478,1685.410096
1168.308420,6809.894666,-6439.791695,842.705048
1168.308749,6217.729913,-6365.771101,919.314598
1168.309079,5921.647536,-6365.771101,766.095498
1168.309408,5477.523971,-5921.647536,153.219100
1168.309737,5699.585753,-6217.729913,76.609550
1168.310066,6143.709319,-6439.791695,0.000000
1168.310395,6735.874072,-6217.729913,383.047749
1168.310724,7105.977043,-6809.894666,1149.143247
1168.311053,7179.997637,-6661.853478,842.705048
1168.311382,7624.121203,-6957.935855,842.705048
1168.311712,7328.038826,-7254.018232,1455.581446
1168.312041,7105.977043,-7031.956449,1762.019645
1168.312370,7624.121203,-7402.059420,1838.629195
1168.312699,8142.265362,-6957.935855,2068.457845
1168.313028,8290.306550,-6365.771101,2145.067394
1168.313357,7476.080014,-6809.894666,2298.286494
1168.313686,6809.894666,-6217.729913,1608.800546
1168.314016,6587.832884,-6217.729913,1225.752797
1168.314345,6069.688724,-5255.462188,995.924147
1168.314674,5699.585753,-4959.379811,459.657299
1168.315003,5625.565159,-5403.503377,0.000000
1168.315332,5921.647536,-5107.421000,0.000000
1168.315661,5995.668130,-5773.606348,0.000000
1168.315990,6291.750507,-5847.626942,306.438199
1168.316320,7179.997637,-6883.915261,459.657299
1168.316649,7698.141797,-7994.224174,1149.143247
1168.316978,7328.038826,-7920.203579,1072.533697
1168.317307,6957.935855,-8068.244768,919.314598
1168.317636,7031.956449,-7994.224174,1072.533697
1168.317965,7772.162391,-7402.059420,1532.190996
1168.318294,7994.224174,-7476.080014,2221.676944
1168.318624,8364.327145,-6513.812290,2145.067394
1168.318953,7846.182985,-5625.565159,1915.238745
1168.319282,7402.059420,-5847.626942,1685.410096
1168.319611,7698.141797,-5477.523971,2451.505594
1168.319940,7698.141797,-5403.503377,1455.581446
1168.320269,6957.935855,-5329.482782,1455.581446
1168.320598,6069.688724,-5255.462188,153.219100
1168.320928,5329.482782,-5995.668130,-229.828649
1168.321257,5699.585753,-6365.771101,-229.828649
1168.321586,5847.626942,-7402.059420,-306.438199
1168.321915,6217.729913,-7920.203579,153.219100
1168.322244,6217.729913,-8068.244768,459.657299
1168.322573,7105.977043,-8438.347739,536.266849
1168.322902,7179.997637,-7476.080014,1072.533697
1168.323232,7105.977043,-7476.080014,1302.362347
1168.323561,7402.059420,-7179.997637,1302.362347
1168.323890,7179.997637,-6291.750507,1762.019645
1168.324219,7772.162391,-6513.812290,1838.629195
1168.324548,7476.080014,-5699.585753,1991.848295
1168.324877,7624.121203,-5847.626942,1608.800546
1168.325206,7254.018232,-6439.791695,1378.971896
1168.325535,6957.935855,-5995.668130,1455.581446
1168.325865,6513.812290,-5847.626942,1455.581446
1168.326194,6513.812290,-5625.565159,459.657299
1168.326523,5921.647536,-5699.585753,459.657299
1168.326852,6291.750507,-6439.791695,76.609550
1168.327181,6513.812290,-5995.668130,76.609550
1168.327510,6513.812290,-5921.647536,306.438199
1168.327839,6809.894666,-6513.812290,0.000000
1168.328169,7328.038826,-6143.709319,842.705048
1168.328498,7476.080014,-6217.729913,1302.362347
1168.328827,8364.327145,-6513.812290,1608.800546
1168.329156,7624.121203,-6291.750507,1302.362347
1168.329485,7920.203579,-6809.894666,1455.581446
1168.329814,7624.121203,-6143.709319,1532.190996
1168.330143,7402.059420,-6587.832884,2068.457845
1168.330473,7254.018232,-6883.915261,1149.143247
1168.330802,7105.977043,-7031.956449,1149.143247
1168.331131,7254.018232,-7624.121203,1532.190996
1168.331460,7328.038826,-7402.059420,1762.019645
1168.331789,7105.977043,-7105.977043,1608.800546
1168.332118,5921.647536,-6513.812290,536.266849
1168.332447,5329.482782,-6809.894666,229.828649
1168.332777,5329.482782,-6365.771101,-229.828649
1168.333106,5403.503377,-5477.523971,-459.657299
1168.333435,5995.668130,-6365.771101,306.438199
1168.333764,6957.935855,-5625.565159,153.219100
1168.334093,7105.977043,-6735.874072,536.266849
1168.334422,7550.100608,-7031.956449,1225.752797
1168.334751,7920.203579,-6957.935855,1455.581446
1168.335081,7772.162391,-7105.977043,1149.143247
1168.335410,7624.121203,-6587.832884,1302.362347
1168.335739,7328.038826,-6883.915261,1225.752797
1168.336068,7698.141797,-7254.018232,1532.190996
1168.336397,7772.162391,-6439.791695,1378.971896
1168.336726,7328.038826,-7031.956449,1685.410096
1168.337055,7105.977043,-6661.853478,2068.457845
1168.337385,7105.977043,-6143.709319,1378.971896
1168.337714,6217.729913,-5699.585753,1455.581446
1168.338043,5847.626942,-5551.544565,459.657299
1168.338372,5403.503377,-6217.729913,76.609550
1168.338701,5551.544565,-5625.565159,76.609550
1168.339030,5773.606348,-5551.544565,-76.609550
1168.339359,6291.750507,-5625.565159,459.657299
1168.339688,6809.894666,-6217.729913,536.266849
1168.340018,7550.100608,-7105.977043,842.705048
1168.340347,7698.141797,-7105.977043,1225.752797
1168.340676,7920.203579,-6883.915261,1685.410096
1168.341005,7624.121203,-7550.100608,1072.533697
1168.341334,7254.018232,-7624.121203,1685.410096
1168.341663,7254.018232,-7328.038826,1378.971896
1168.341992,7328.038826,-6513.812290,1072.533697
1168.342322,7328.038826,-6217.729913,1915.238745
1168.342651,7698.141797,-6661.853478,1762.019645
1168.342980,7920.203579,-6217.729913,2298.286494
1168.343309,7550.100608,-5773.606348,1838.629195
1168.343638,6957.935855,-5477.523971,1455.581446
1168.343967,6365.771101,-5107.421000,842.705048
1168.344296,5847.626942,-5847.626942,306.438199
1168.344626,5921.647536,-6217.729913,306.438199
1168.344955,6143.709319,-6513.812290,229.828649
1168.345284,6291.750507,-6735.874072,536.266849
1168.345613,6217.729913,-7550.100608,153.219100
1168.345942,6217.729913,-8068.244768,229.828649
1168.346271,6661.853478,-8364.327145,536.266849
1168.346600,6809.894666,-8068.244768,995.924147
1168.346930,7254.018232,-7550.100608,919.314598
1168.347259,6809.894666,-7105.977043,1225.752797
1168.347588,7105.977043,-6735.874072,1378.971896
1168.347917,7402.059420,-6291.750507,1685.410096
1168.348246,7476.080014,-6217.729913,2068.457845
1168.348575,7402.059420,-5551.544565,2221.676944
1168.348904,7624.121203,-5847.626942,1838.629195
1168.349234,7254.018232,-5477.523971,1225.752797
1168.349563,6661.853478,-5403.503377,766.095498
1168.349892,6439.791695,-5107.421000,995.924147
1168.350221,6069.688724,-5625.565159,383.047749
1168.350550,6217.729913,-5403.503377,306.438199
1168.350879,6587.832884,-5477.523971,229.828649
1168.351208,7031.956449,-5551.544565,153.219100
1168.351538,7105.977043,-6217.729913,766.095498
1168.351867,7328.038826,-6513.812290,1072.533697
1168.352196,7550.100608,-7179.997637,919.314598
1168.352525,7179.997637,-7105.977043,689.485948
1168.352854,7402.059420,-7624.121203,766.095498
1168.353183,7402.059420,-7328.038826,1302.362347
1168.353512,7772.162391,-7772.162391,1762.019645
1168.353841,7772.162391,-7031.956449,1991.848295
1168.354171,7550.100608,-6661.853478,1532.190996
1168.354500,7328.038826,-6735.874072,1991.848295
1168.354829,7179.997637,-7105.977043,1762.019645
1168.355158,6957.935855,-6957.935855,1378.971896
1168.355487,6291.750507,-6217.729913,689.485948
1168.355816,5699.585753,-6217.729913,306.438199
1168.356145,5625.565159,-6513.812290,459.657299
1168.356475,5847.626942,-6217.729913,76.609550
1168.356804,6069.688724,-6365.771101,153.219100
1168.357133,6365.771101,-6513.812290,153.219100
1168.357462,7105.977043,-6143.709319,0.000000
1168.357791,7031.956449,-7402.059420,536.266849
1168.358120,7105.977043,-6883.915261,1455.581446
1168.358449,7328.038826,-7402.059420,1455.581446
1168.358779,7402.059420,-6883.915261,1532.190996
1168.359108,7550.100608,-6513.812290,1455.581446
1168.359437,7698.141797,-7179.997637,1838.629195
1168.359766,7994.224174,-6439.791695,2221.676944
1168.360095,7994.224174,-6069.688724,1608.800546
1168.360424,7772.162391,-5477.523971,2298.286494
1168.360753,7624.121203,-5329.482782,1455.581446
1168.361083,7254.018232,-5995.668130,1072.533697
1168.361412,6809.894666,-5699.585753,995.924147
1168.361741,5699.585753,-5921.647536,76.609550
1168.362070,5477.523971,-6365.771101,153.219100
1168.362399,5329.482782,-6587.832884,229.828649
1168.362728,5921.647536,-6735.874072,0.000000
1168.363057,6217.729913,-6513.812290,153.219100
1168.363386,6661.853478,-6809.894666,995.924147
1168.363715,6809.894666,-7254.018232,689.485948
1168.364045,7328.038826,-7105.977043,995.924147
1168.364374,7698.141797,-7476.080014,1455.581446
1168.364703,7772.162391,-7105.977043,1532.190996
1168.365032,7105.977043,-6883.915261,2221.676944
1168.365361,7476.080014,-6587.832884,1762.019645
1168.365690,7698.141797,-5773.606348,1685.410096
1168.366019,7698.141797,-6291.750507,1685.410096
1168.366348,8216.285956,-6661.853478,1685.410096
1168.366677,8068.244768,-6143.709319,2221.676944
1168.367006,7402.059420,-5699.585753,1455.581446
1168.367335,6661.853478,-5403.503377,919.314598
1168.367664,5847.626942,-5625.565159,306.438199
1168.367993,5699.585753,-6291.750507,0.000000
1168.368322,5255.462188,-6587.832884,-229.828649
1168.368651,5773.606348,-6957.935855,0.000000
1168.368980,6217.729913,-7105.977043,0.000000
1168.369309,6809.894666,-7179.997637,612.876398
1168.369638,7254.018232,-7698.141797,1072.533697
1168.369967,7402.059420,-7105.977043,919.314598
1168.370296,7179.997637,-7476.080014,1225.752797
1168.370625,7105.977043,-7476.080014,1302.362347
1168.370954,7402.059420,-7031.956449,1532.190996
1168.371283,7254.018232,-7105.977043,1532.190996
1168.371612,7920.203579,-6513.812290,1608.800546
1168.371941,7994.224174,-6587.832884,2298.286494
1168.372270,7994.224174,-6661.853478,2068.457845
1168.372599,7476.080014,-5847.626942,2374.896044
1168.372928,6513.812290,-5625.565159,1072.533697
1168.373258,5921.647536,-5477.523971,536.266849
1168.373587,5551.544565,-5699.585753,536.266849
1168.373916,6069.688724,-6291.750507,536.266849
1168.374245,5847.626942,-5773.606348,689.485948
1168.374574,6513.812290,-5625.565159,459.657299
1168.374903,7254.018232,-5921.647536,536.266849
1168.375232,7402.059420,-6735.874072,842.705048
1168.375561,7994.224174,-6957.935855,766.095498
1168.375890,7105.977043,-6661.853478,766.095498
1168.376219,7328.038826,-6661.853478,1072.533697
1168.376548,7328.038826,-7105.977043,1072.533697
1168.376877,7624.121203,-7624.121203,1608.800546
1168.377206,7179.997637,-7402.059420,1532.190996
1168.377535,7105.977043,-7254.018232,1455.581446
1168.377864,7179.997637,-7179.997637,1455.581446
1168.378193,6883.915261,-7328.038826,1685.410096
1168.378522,7328.038826,-7254.018232,1149.143247
1168.378851,6291.750507,-7031.956449,1455.581446
1168.379180,5625.565159,-5995.668130,842.705048
1168.379509,5255.462188,-5699.585753,76.609550
1168.379838,5773.606348,-5551.544565,-306.438199
1168.380167,6439.791695,-5921.647536,306.438199
1168.380496,6513.812290,-6069.688724,153.219100
1168.380825,7105.977043,-5921.647536,536.266849
1168.381154,7105.977043,-6217.729913,612.876398
1168.381483,7476.080014,-6587.832884,1072.533697
1168.381812,7179.997637,-6661.853478,1302.362347
1168.382141,7402.059420,-7105.977043,1225.752797
1168.382471,7105.977043,-7402.059420,1378.971896
1168.382800,7550.100608,-6957.935855,1378.971896
1168.383129,7698.141797,-6513.812290,2068.457845
1168.383458,7772.162391,-6513.812290,1838.629195
1168.383787,8216.285956,-6587.832884,2451.505594
1168.384116,7550.100608,-6587.832884,2298.286494
1168.384445,6883.915261,-6587.832884,1762.019645
1168.384774,6291.750507,-5625.565159,612.876398
1168.385103,6069.688724,-5329.482782,459.657299
1168.385432,6069.688724,-5551.544565,306.438199
1168.385761,6439.791695,-6069.688724,306.438199
1168.386090,6513.812290,-5847.626942,-306.438199
1168.386419,6513.812290,-5921.647536,153.219100
1168.386748,6809.894666,-6439.791695,229.828649
1168.387077,7254.018232,-7179.997637,612.876398
1168.387406,7328.038826,-7994.224174,1072.533697
1168.387735,7031.956449,-7846.182985,689.485948
1168.388064,6809.894666,-7254.018232,995.924147
1168.388393,7179.997637,-7402.059420,1149.143247
1168.388722,7328.038826,-7550.100608,1532.190996
1168.389051,8142.265362,-7031.956449,2221.676944
1168.389380,7772.162391,-6365.771101,2221.676944
1168.389709,7550.100608,-5773.606348,1838.629195
1168.390038,7846.182985,-5403.503377,1762.019645
1168.390367,8068.244768,-5329.482782,1991.848295
1168.390696,7624.121203,-5329.482782,1608.800546
1168.391025,6513.812290,-5255.462188,1072.533697
1168.391354,5551.544565,-5625.565159,0.000000
1168.391684,5699.585753,-7031.956449,0.000000
1168.392013,5847.626942,-7105.977043,229.828649
1168.392342,6069.688724,-7994.224174,0.000000
1168.392671,5995.668130,-7624.121203,0.000000
1168.393000,6217.729913,-7846.182985,306.438199
1168.393329,6883.915261,-8068.244768,919.314598
1168.393658,7105.977043,-7328.038826,1838.629195
1168.393987,7179.997637,-7476.080014,1838.629195
1168.394316,7031.956449,-6513.812290,1532.190996
1168.394645,7254.018232,-6069.688724,1608.800546
1168.394974,7920.203579,-5551.544565,1532.190996
1168.395303,8364.327145,-4663.297435,2451.505594
1168.395632,8364.327145,-5995.668130,2221.676944
1168.395961,7772.162391,-6291.750507,2145.067394
1168.396290,6883.915261,-5921.647536,1455.581446
1168.396619,5773.606348,-5995.668130,766.095498
1168.396948,5477.523971,-6513.812290,229.828649
1168.397277,5477.523971,-6735.874072,76.609550
1168.397606,5921.647536,-6439.791695,459.657299
1168.397935,6735.874072,-5995.668130,153.219100
1168.398264,6809.894666,-5625.565159,459.657299
1168.398593,6809.894666,-6143.709319,383.047749
1168.398922,6883.915261,-6957.935855,459.657299
1168.399251,7179.997637,-6883.915261,842.705048
1168.399580,7698.141797,-6883.915261,1149.143247
1168.399909,8216.285956,-7105.977043,1608.800546
1168.400238,8068.244768,-6809.894666,1608.800546
1168.400568,7772.162391,-6809.894666,1532.190996
1168.400897,7698.141797,-6957.935855,1225.752797
1168.401226,7402.059420,-7031.956449,766.095498
1168.401555,7624.121203,-7254.018232,1762.019645
1168.401884,7772.162391,-6809.894666,1532.190996
1168.402213,7476.080014,-6735.874072,1302.362347
1168.402542,6587.832884,-6291.750507,612.876398
1168.402871,5551.544565,-6217.729913,76.609550
1168.403200,5329.482782,-6069.688724,-306.438199
1168.403529,5551.544565,-5847.626942,0.000000
1168.403858,6143.709319,-6587.832884,383.047749
1168.404187,6365.771101,-6143.709319,153.219100
1168.404516,6439.791695,-6809.894666,306.438199
1168.404845,7105.977043,-7105.977043,536.266849
1168.405174,7402.059420,-7402.059420,536.266849
1168.405503,7846.182985,-7476.080014,1378.971896
1168.405832,7550.100608,-7031.956449,1149.143247
1168.406161,7476.080014,-7254.018232,1072.533697
1168.406490,7698.141797,-6957.935855,1532.190996
1168.406819,8068.244768,-6513.812290,1762.019645
1168.407148,8216.285956,-5921.647536,1991.848295
1168.407477,8290.306550,-6143.709319,2374.896044
1168.407806,7846.182985,-5477.523971,1608.800546
1168.408135,7105.977043,-5699.585753,1532.190996
1168.408464,6513.812290,-5403.503377,1302.362347
1168.408793,6143.709319,-5107.421000,1532.190996
1168.409122,5625.565159,-5625.565159,306.438199
1168.409451,5773.606348,-5773.606348,229.828649
1168.409781,5847.626942,-5551.544565,-383.047749
1168.410110,6291.750507,-6809.894666,536.266849
1168.410439,6809.894666,-6957.935855,919.314598
1168.410768,7254.018232,-7179.997637,612.876398
1168.411097,7402.059420,-7254.018232,995.924147
1168.411426,7328.038826,-7994.224174,1225.752797
1168.411755,7105.977043,-7179.997637,1225.752797
1168.412084,7476.080014,-7254.018232,1685.410096
1168.412413,7550.100608,-6513.812290,1378.971896
1168.412742,7402.059420,-5773.606348,1608.800546
1168.413071,7624.121203,-6587.832884,2145.067394
1168.413400,8438.347739,-6365.771101,2528.115143
1168.413729,7550.100608,-6069.688724,1838.629195
1168.414058,6809.894666,-5847.626942,1302.362347
1168.414387,6143.709319,-5847.626942,459.657299
1168.414716,5477.523971,-6587.832884,306.438199
1168.415045,5551.544565,-6661.853478,459.657299
1168.415374,5477.523971,-6883.915261,0.000000
1168.415703,5773.606348,-6883.915261,0.000000
1168.416032,6143.709319,-7328.038826,383.047749
1168.416361,6957.935855,-7476.080014,153.219100
1168.416690,7550.100608,-7624.121203,919.314598
1168.417019,7402.059420,-7105.977043,1149.143247
1168.417348,7179.997637,-6957.935855,1072.533697
1168.417677,7254.018232,-6587.832884,1455.581446
1168.418006,7254.018232,-5995.668130,1378.971896
1168.418335,7476.080014,-6513.812290,1608.800546
1168.418664,7698.141797,-5995.668130,1762.019645
1168.418994,8216.285956,-5773.606348,1762.019645
1168.419323,8142.265362,-6587.832884,1991.848295
1168.419652,7179.997637,-6587.832884,1915.238745
1168.419981,6365.771101,-6143.709319,919.314598
1168.420310,5699.585753,-6217.729913,459.657299
1168.420639,5625.565159,-6069.688724,383.047749
1168.420968,6439.791695,-5995.668130,76.609550
1168.421297,6439.791695,-5847.626942,229.828649
1168.421626,5995.668130,-5995.668130,383.047749
1168.421955,6883.915261,-6217.729913,536.266849
1168.422284,7105.977043,-6883.915261,842.705048
1168.422613,7624.121203,-6957.935855,919.314598
1168.422942,7698.141797,-6439.791695,842.705048
1168.423271,7550.100608,-6661.853478,1072.533697
1168.423600,7698.141797,-7105.977043,1608.800546
1168.423929,7476.080014,-7031.956449,1455.581446
1168.424258,7846.182985,-6513.812290,1225.752797
1168.424587,7179.997637,-6661.853478,1378.971896
1168.424916,7402.059420,-6735.874072,1915.238745
1168.425245,7698.141797,-7254.018232,1685.410096
1168.425574,7698.141797,-6439.791695,1838.629195
1168.425903,6513.812290,-6365.771101,1302.362347
1168.426232,5847.626942,-5921.647536,766.095498
1168.426561,5329.482782,-5995.668130,0.000000
1168.426890,5699.585753,-6143.709319,-459.657299
1168.427219,5625.565159,-6735.874072,0.000000
1168.427548,5995.668130,-6513.812290,0.000000
1168.427877,6587.832884,-6809.894666,229.828649
1168.428207,6883.915261,-6957.935855,383.047749
1168.428536,7772.162391,-7105.977043,1072.533697
1168.428865,7476.080014,-7031.956449,1225.752797
1168.429194,7402.059420,-7105.977043,1532.190996
1168.429523,7402.059420,-6883.915261,1072.533697
1168.429852,7328.038826,-6587.832884,1072.533697
1168.430181,7846.182985,-5995.668130,1915.238745
1168.430510,7698.141797,-6291.750507,1455.581446
1168.430839,7920.203579,-6809.894666,1838.629195
1168.431168,7920.203579,-6661.853478,2068.457845
1168.431497,7402.059420,-6143.709319,2068.457845
1168.431826,6957.935855,-5773.606348,1149.143247
1168.432155,5995.668130,-5551.544565,536.266849
1168.432484,5403.503377,-5847.626942,153.219100
1168.432813,5773.606348,-5921.647536,76.609550
1168.433142,5921.647536,-5107.421000,0.000000
1168.433471,6217.729913,-6069.688724,0.000000
1168.433800,6661.853478,-6587.832884,919.314598
1168.434129,7179.997637,-7402.059420,1149.143247
1168.434458,7624.121203,-6661.853478,995.924147
1168.434787,7624.121203,-7328.038826,1149.143247
1168.435116,7254.018232,-7772.162391,995.924147
1168.435445,7105.977043,-7624.121203,1225.752797
1168.435774,6883.915261,-7624.121203,1455.581446
1168.436103,7328.038826,-6365.771101,1225.752797
1168.436432,7624.121203,-6439.791695,1532.190996
1168.436761,7994.224174,-6957.935855,1685.410096
1168.437091,8142.265362,-6217.729913,2068.457845
1168.437420,8068.244768,-5699.585753,1378.971896
1168.437749,6809.894666,-5329.482782,1762.019645
1168.438078,6513.812290,-5255.462188,919.314598
1168.438407,5847.626942,-5847.626942,383.047749
1168.438736,5255.462188,-6291.750507,0.000000
1168.439065,6069.688724,-6883.915261,76.609550
1168.439394,5847.626942,-7402.059420,153.219100
1168.439723,6291.750507,-7179.997637,-306.438199
1168.440052,6439.791695,-8068.244768,459.657299
1168.440381,6587.832884,-7920.203579,459.657299
1168.440710,6957.935855,-8142.265362,766.095498
1168.441039,6809.894666,-7624.121203,1302.362347
1168.441368,7105.977043,-7179.997637,995.924147
1168.441697,7254.018232,-6513.812290,1762.019645
1168.442026,7698.141797,-5995.668130,2298.286494
1168.442355,8364.327145,-6217.729913,1991.848295
1168.442684,8438.347739,-6069.688724,2298.286494
1168.443013,8290.306550,-5699.585753,2604.724693
1168.443342,7328.038826,-5403.503377,1532.190996
1168.443671,6365.771101,-5181.441594,689.485948
1168.444000,5403.503377,-5847.626942,229.828649
1168.444329,5403.503377,-6661.853478,76.609550
1168.444658,5921.647536,-6069.688724,76.609550
1168.444987,6143.709319,-6069.688724,842.705048
1168.445316,6957.935855,-6439.791695,153.219100
1168.445645,7105.977043,-6587.832884,689.485948
1168.445974,7105.977043,-6809.894666,842.705048
1168.446304,7328.038826,-6587.832884,612.876398
1168.446633,7105.977043,-5551.544565,1072.533697
1168.446962,7179.997637,-7179.997637,1149.143247
1168.447291,7920.203579,-7031.956449,1685.410096
1168.447620,7846.182985,-6883.915261,1532.190996
1168.447949,7402.059420,-7031.956449,1991.848295
1168.448278,7254.018232,-6439.791695,2451.505594
1168.448607,7476.080014,-7179.997637,1838.629195
1168.448936,7624.121203,-6957.935855,2145.067394
1168.449265,7105.977043,-6883.915261,1532.190996
1168.449594,6365.771101,-5921.647536,995.924147
1168.449923,5625.565159,-6069.688724,459.657299
1168.450252,5477.523971,-6513.812290,229.828649
1168.450581,5699.585753,-5921.647536,0.000000
1168.450910,5921.647536,-6661.853478,76.609550
1168.451239,6291.750507,-6217.729913,383.047749
1168.451568,6809.894666,-6513.812290,842.705048
1168.451897,7105.977043,-7328.038826,1072.533697
1168.452226,7254.018232,-7105.977043,1072.533697
1168.452555,7179.997637,-7328.038826,1072.533697
1168.452884,7624.121203,-7179.997637,1302.362347
1168.453213,7624.121203,-6809.894666,1225.752797
1168.453542,7920.203579,-6439.791695,1455.581446
1168.453871,7994.224174,-6069.688724,1685.410096
1168.454200,7920.203579,-6291.750507,2221.676944
1168.454529,7994.224174,-6217.729913,2604.724693
1168.454858,7328.038826,-6365.771101,1532.190996
1168.455187,6587.832884,-6143.709319,1455.581446
1168.455517,5921.647536,-6143.709319,536.266849
1168.455846,5329.482782,-6143.709319,0.000000
1168.456175,5329.482782,-6069.688724,153.219100
1168.456504,5625.565159,-5773.606348,0.000000
1168.456833,5995.668130,-6365.771101,0.000000
1168.457162,5921.647536,-6883.915261,383.047749
1168.457491,6735.874072,-7031.956449,536.266849
1168.457820,6809.894666,-7624.121203,306.438199
1168.458149,7624.121203,-6883.915261,1225.752797
1168.458478,7254.018232,-7105.977043,1225.752797
1168.458807,7994.224174,-6735.874072,2145.067394
1168.459136,7920.203579,-6883.915261,1455.581446
1168.459465,7994.224174,-6217.729913,1685.410096
1168.459794,8438.347739,-5551.544565,1455.581446
1168.460123,8586.388927,-6365.771101,2068.457845
1168.460452,8290.306550,-6439.791695,2681.334243
1168.460781,7994.224174,-6069.688724,1915.238745
1168.461110,7031.956449,-5477.523971,1302.362347
1168.461439,6365.771101,-5773.606348,689.485948
1168.461768,6069.688724,-5921.647536,0.000000
1168.462097,5625.565159,-6587.832884,0.000000
1168.462426,5551.544565,-7105.977043,0.000000
1168.462755,5773.606348,-7031.956449,0.000000
1168.463084,5921.647536,-7105.977043,-153.219100
1168.463413,6365.771101,-7402.059420,76.609550
1168.463742,7254.018232,-7254.018232,919.314598
1168.464071,7328.038826,-7476.080014,919.314598
1168.464400,7550.100608,-7254.018232,1455.581446
1168.464730,7846.182985,-7031.956449,1685.410096
1168.465059,7476.080014,-6365.771101,1455.581446
1168.465388,7846.182985,-6587.832884,1608.800546
1168.465717,7624.121203,-6439.791695,1991.848295
1168.466046,7624.121203,-6291.750507,1762.019645
1168.466375,7624.121203,-6957.935855,1762.019645
1168.466704,6883.915261,-6291.750507,1685.410096
1168.467033,6291.750507,-5921.647536,1149.143247
1168.467362,6217.729913,-5699.585753,536.266849
1168.467691,5551.544565,-5921.647536,459.657299
1168.468020,5847.626942,-5625.565159,383.047749
1168.468349,6439.791695,-5107.421000,383.047749
1168.468679,6513.812290,-5551.544565,383.047749
1168.469008,6883.915261,-5773.606348,459.657299
1168.469337,7402.059420,-6587.832884,536.266849
1168.469666,7624.121203,-6661.853478,1149.143247
1168.469995,7772.162391,-6587.832884,995.924147
1168.470324,7698.141797,-7254.018232,1455.581446
1168.470653,7920.203579,-7179.997637,1762.019645
1168.470982,7772.162391,-7031.956449,1149.143247
1168.471311,7254.018232,-7254.018232,1378.971896
1168.471640,7031.956449,-7254.018232,1302.362347
1168.471969,7254.018232,-7624.121203,1455.581446
1168.472299,7328.038826,-6957.935855,1608.800546
1168.472628,7179.997637,-6735.874072,1455.581446
1168.472957,6661.853478,-6439.791695,995.924147
1168.473286,6365.771101,-6217.729913,1149.143247
1168.473615,5773.606348,-6143.709319,459.657299
1168.473944,5847.626942,-4885.359217,0.000000
1168.474273,6143.709319,-5625.565159,0.000000
1168.474602,6365.771101,-6439.791695,229.828649
1168.474931,6735.874072,-7031.956449,612.876398
1168.475260,7031.956449,-6957.935855,383.047749
1168.475589,7402.059420,-7105.977043,1149.143247
1168.475918,7328.038826,-7105.977043,1149.143247
1168.476248,7328.038826,-7698.141797,1149.143247
1168.476577,7105.977043,-7328.038826,1225.752797
1168.476906,7624.121203,-7105.977043,1302.362347
1168.477235,7254.018232,-6883.915261,1532.190996
1168.477564,7624.121203,-6439.791695,1991.848295
1168.477893,7328.038826,-6587.832884,1838.629195
1168.478222,7624.121203,-6291.750507,1915.238745
1168.478551,6587.832884,-5625.565159,2068.457845
1168.478880,5921.647536,-5995.668130,1072.533697
1168.479209,5699.585753,-5477.523971,459.657299
1168.479538,5921.647536,-5255.462188,306.438199
1168.479868,6365.771101,-5921.647536,536.266849
1168.480197,6365.771101,-5477.523971,995.924147
1168.480526,6439.791695,-6069.688724,383.047749
1168.480855,7031.956449,-6291.750507,383.047749
1168.481184,7920.203579,-6883.915261,612.876398
1168.481513,7994.224174,-6809.894666,689.485948
1168.481842,7772.162391,-7328.038826,1072.533697
1168.482171,7105.977043,-8216.285956,1072.533697
1168.482500,6957.935855,-7698.141797,1225.752797
1168.482829,6957.935855,-7105.977043,1225.752797
1168.483158,8068.244768,-7105.977043,1762.019645
1168.483488,7402.059420,-6735.874072,1608.800546
1168.483817,7550.100608,-6513.812290,1915.238745
1168.484146,7550.100608,-5773.606348,1838.629195
1168.484475,7920.203579,-5329.482782,2911.162892
1168.484804,7179.997637,-5181.441594,1455.581446
1168.485133,6661.853478,-5551.544565,1072.533697
1168.485462,6069.688724,-5699.585753,459.657299
1168.485791,5551.544565,-6513.812290,306.438199
1168.486120,5773.606348,-6883.915261,0.000000
1168.486449,5773.606348,-7105.977043,0.000000
1168.486778,5995.668130,-7254.018232,0.000000
1168.487107,6735.874072,-7920.203579,766.095498
1168.487437,7105.977043,-8364.327145,842.705048
1168.487766,7031.956449,-7624.121203,1378.971896
1168.488095,7031.956449,-7476.080014,1302.362347
1168.488424,7031.956449,-6883.915261,1149.143247
1168.488753,7179.997637,-6809.894666,1608.800546
1168.489082,7772.162391,-6291.750507,1378.971896
1168.489411,7994.224174,-6217.729913,1838.629195
1168.489740,7920.203579,-5699.585753,1762.019645
1168.490069,7772.162391,-5921.647536,1991.848295
1168.490398,7105.977043,-5921.647536,2068.457845
1168.490727,5847.626942,-5403.503377,842.705048
1168.491057,5403.503377,-5625.565159,229.828649
1168.491386,5625.565159,-5773.606348,0.000000
1168.491715,5477.523971,-6217.729913,459.657299
1168.492044,6661.853478,-5995.668130,306.438199
1168.492373,7031.956449,-6143.709319,153.219100
1168.492702,6735.874072,-6069.688724,383.047749
1168.493031,6957.935855,-6883.915261,536.266849
1168.493360,7254.018232,-6883.915261,1072.533697
1168.493689,8142.265362,-6587.832884,1532.190996
1168.494018,8068.244768,-6661.853478,1378.971896
1168.494347,7402.059420,-6735.874072,1378.971896
1168.494676,7105.977043,-7254.018232,1302.362347
1168.495006,7772.162391,-6735.874072,1072.533697
1168.495335,7772.162391,-7105.977043,1608.800546
1168.495664,7994.224174,-6883.915261,1302.362347
1168.495993,7550.100608,-6735.874072,1915.238745
1168.496322,7105.977043,-6661.853478,1378.971896
1168.496651,6661.853478,-6291.750507,1072.533697
1168.496980,5551.544565,-5995.668130,306.438199
1168.497309,5477.523971,-5995.668130,0.000000
1168.497638,5551.544565,-6069.688724,76.609550
1168.497967,5847.626942,-5847.626942,0.000000
1168.498296,6291.750507,-6291.750507,0.000000
1168.498626,6883.915261,-6587.832884,612.876398
1168.498955,7254.018232,-7105.977043,1149.143247
1168.499284,7476.080014,-7179.997637,1072.533697
1168.499613,7105.977043,-7105.977043,1532.190996
1168.499942,7179.997637,-7402.059420,1149.143247
1168.500271,7402.059420,-7328.038826,1225.752797
1168.500600,7994.224174,-7179.997637,1762.019645
1168.500929,7994.224174,-6883.915261,1685.410096
1168.501258,7994.224174,-6217.729913,2145.067394
1168.501587,7772.162391,-6883.915261,2068.457845
1168.501916,7328.038826,-6661.853478,2068.457845
1168.502246,6957.935855,-6291.750507,1762.019645
1168.502575,5847.626942,-5033.400406,766.095498
1168.502904,5625.565159,-4737.318029,0.000000
1168.503233,6143.709319,-5107.421000,0.000000
1168.503562,6217.729913,-5477.523971,229.828649
1168.503891,6735.874072,-5551.544565,459.657299
1168.504220,7105.977043,-5921.647536,153.219100
1168.504549,7179.997637,-6809.894666,536.266849
1168.504878,7476.080014,-7328.038826,842.705048
1168.505207,7402.059420,-7698.141797,919.314598
1168.505536,7105.977043,-7772.162391,1608.800546
1168.505865,7105.977043,-7846.182985,1455.581446
1168.506195,7105.977043,-7550.100608,1378.971896
1168.506524,7105.977043,-7254.018232,1455.581446
1168.506853,7254.018232,-6735.874072,1608.800546
1168.507182,7550.100608,-6735.874072,1762.019645
1168.507511,7624.121203,-5847.626942,2145.067394
1168.507840,7328.038826,-5551.544565,1838.629195
1168.508169,7105.977043,-4737.318029,1378.971896
1168.508498,6513.812290,-5181.441594,766.095498
1168.508827,6217.729913,-6069.688724,76.609550
1168.509156,5625.565159,-6291.750507,0.000000
1168.509485,5773.606348,-6809.894666,-306.438199
1168.509815,6143.709319,-7031.956449,-306.438199
1168.510144,5995.668130,-7772.162391,306.438199
1168.510473,6513.812290,-7994.224174,383.047749
1168.510802,6735.874072,-8290.306550,612.876398
1168.511131,6883.915261,-7624.121203,919.314598
1168.511460,7254.018232,-7476.080014,1149.143247
1168.511789,7920.203579,-7031.956449,1378.971896
1168.512118,7402.059420,-6291.750507,1608.800546
1168.512447,7328.038826,-5921.647536,1608.800546
1168.512776,7846.182985,-5773.606348,2068.457845
1168.513105,7994.224174,-5551.544565,2221.676944
1168.513435,8734.430116,-5699.585753,2068.457845
1168.513764,7550.100608,-5551.544565,1685.410096
1168.514093,6513.812290,-5551.544565,766.095498
1168.514422,5995.668130,-6143.709319,459.657299
1168.514751,5921.647536,-6069.688724,383.047749
1168.515080,6217.729913,-6439.791695,0.000000
1168.515409,6143.709319,-5995.668130,76.609550
1168.515738,6291.750507,-6439.791695,306.438199
1168.516067,6735.874072,-6587.832884,383.047749
1168.516396,6809.894666,-6661.853478,689.485948
1168.516725,7402.059420,-7105.977043,842.705048
1168.517054,7550.100608,-5995.668130,842.705048
1168.517384,7624.121203,-6735.874072,1149.143247
1168.517713,7624.121203,-7031.956449,1455.581446
1168.518042,7846.182985,-7031.956449,1608.800546
1168.518371,7772.162391,-6735.874072,1532.190996
1168.518700,7254.018232,-6661.853478,1532.190996
1168.519029,7402.059420,-7328.038826,1302.362347
1168.519358,7254.018232,-7328.038826,2451.505594
1168.519687,7254.018232,-6735.874072,1532.190996
1168.520016,6809.894666,-6587.832884,995.924147
1168.520345,5921.647536,-5995.668130,459.657299
1168.520674,5403.503377,-6069.688724,536.266849
1168.521004,5551.544565,-5847.626942,153.219100
1168.521333,5773.606348,-6291.750507,459.657299
1168.521662,5995.668130,-6439.791695,536.266849
1168.521991,6513.812290,-6365.771101,383.047749
1168.522320,7031.956449,-7254.018232,536.266849
1168.522649,7179.997637,-7031.956449,919.314598
1168.522978,7476.080014,-7105.977043,1378.971896
1168.523307,7476.080014,-7476.080014,1072.533697
1168.523636,7550.100608,-7105.977043,1225.752797
1168.523965,8068.244768,-6957.935855,1685.410096
1168.524294,7994.224174,-6735.874072,1991.848295
1168.524624,7846.182985,-6365.771101,1608.800546
1168.524953,7772.162391,-6587.832884,1991.848295
1168.525282,7772.162391,-5477.523971,1685.410096
1168.525611,6957.935855,-6291.750507,1455.581446
1168.525940,6217.729913,-4589.276840,1225.752797
1168.526269,5625.565159,-5329.482782,306.438199
1168.526598,5625.565159,-5995.668130,0.000000
1168.526927,5773.606348,-5403.503377,842.705048
1168.527256,6217.729913,-5773.606348,153.219100
1168.527585,6439.791695,-6143.709319,229.828649
1168.527914,6513.812290,-7254.018232,689.485948
1168.528243,7328.038826,-7402.059420,995.924147
1168.528573,7624.121203,-7179.997637,1149.143247
1168.528902,7476.080014,-7550.100608,1149.143247
1168.529231,7179.997637,-7994.224174,1378.971896
1168.529560,7402.059420,-7402.059420,1455.581446
1168.529889,7624.121203,-7179.997637,1762.019645
1168.530218,7328.038826,-6217.729913,1225.752797
1168.530547,7624.121203,-6587.832884,1685.410096
1168.530876,7846.182985,-6661.853478,2068.457845
1168.531205,7994.224174,-6513.812290,1991.848295
1168.531534,7254.018232,-5625.565159,1838.629195
1168.531863,7105.977043,-5255.462188,1149.143247
1168.532193,6513.812290,-5625.565159,766.095498
1168.532522,6143.709319,-6439.791695,459.657299
1168.532851,5921.647536,-6069.688724,459.657299
1168.533180,5847.626942,-6439.791695,0.000000
1168.533509,5847.626942,-7254.018232,612.876398
1168.533838,6439.791695,-7476.080014,383.047749
1168.534167,6809.894666,-8068.244768,766.095498
1168.534496,7624.121203,-7846.182985,919.314598
1168.534825,7328.038826,-7402.059420,1072.533697
1168.535154,6883.915261,-7476.080014,1302.362347
1168.535483,7105.977043,-7105.977043,1149.143247
1168.535812,7254.018232,-6439.791695,1149.143247
1168.536142,7772.162391,-6735.874072,1455.581446
1168.536471,7994.224174,-6291.750507,1991.848295
1168.536800,7994.224174,-6291.750507,2221.676944
1168.537129,7698.141797,-5847.626942,1532.190996
1168.537458,6735.874072,-5403.503377,1685.410096
1168.537787,5921.647536,-5995.668130,612.876398
1168.538116,5773.606348,-5995.668130,153.219100
1168.538445,5699.585753,-6365.771101,0.000000
1168.538774,5699.585753,-5699.585753,306.438199
1168.539103,6439.791695,-5921.647536,306.438199
1168.539432,6735.874072,-6291.750507,689.485948
1168.539762,7254.018232,-6957.935855,689.485948
1168.540091,7476.080014,-6883.915261,1149.143247
1168.540420,7624.121203,-5995.668130,766.095498
1168.540749,7254.018232,-6365.771101,766.095498
1168.541078,7698.141797,-7031.956449,1378.971896
1168.541407,8142.265362,-6957.935855,1532.190996
1168.541736,7920.203579,-6217.729913,1608.800546
1168.542065,7402.059420,-6143.709319,1915.238745
1168.542394,7328.038826,-6735.874072,1838.629195
1168.542723,7772.162391,-7254.018232,1838.629195
1168.543052,7698.141797,-7105.977043,2298.286494
1168.543382,6513.812290,-6735.874072,766.095498
1168.543711,5995.668130,-6069.688724,1072.533697
1168.544040,5699.585753,-6587.832884,76.609550
1168.544369,5403.503377,-6217.729913,306.438199
1168.544698,5921.647536,-6439.791695,383.047749
1168.545027,5625.565159,-6587.832884,306.438199
1168.545356,6217.729913,-6957.935855,459.657299
1168.545685,7031.956449,-6735.874072,689.485948
1168.546014,7105.977043,-6809.894666,919.314598
1168.546343,7402.059420,-6809.894666,1302.362347
1168.546672,7031.956449,-7328.038826,1072.533697
1168.547001,7105.977043,-6587.832884,1455.581446
1168.547331,7328.038826,-6883.915261,1378.971896
1168.547660,8290.306550,-6809.894666,1991.848295
1168.547989,8364.327145,-6587.832884,2528.115143
1168.548318,8068.244768,-6661.853478,2374.896044
1168.548647,7920.203579,-6217.729913,1915.238745
1168.548976,7254.018232,-6365.771101,1685.410096
1168.549305,6809.894666,-5921.647536,1455.581446
1168.549634,5995.668130,-4811.338623,1302.362347
1168.549963,5773.606348,-5477.523971,306.438199
1168.550292,5625.565159,-5403.503377,76.609550
1168.550621,5995.668130,-5625.565159,76.609550
1168.550951,6143.709319,-5921.647536,306.438199
1168.551280,6735.874072,-6291.750507,76.609550
1168.551609,6883.915261,-6957.935855,536.266849
1168.551938,7402.059420,-7179.997637,1072.533697
1168.552267,7476.080014,-7920.203579,919.314598
1168.552596,7105.977043,-7920.203579,842.705048
1168.552925,6957.935855,-7994.224174,1608.800546
1168.553254,7179.997637,-8068.244768,1149.143247
1168.553583,7476.080014,-7105.977043,1532.190996
1168.553912,7105.977043,-6587.832884,1838.629195
1168.554241,7994.224174,-6661.853478,1608.800546
1168.554571,7994.224174,-6217.729913,2145.067394
1168.554900,8068.244768,-5699.585753,1915.238745
1168.555229,7476.080014,-4885.359217,1378.971896
1168.555558,6439.791695,-5033.400406,842.705048
1168.555887,5625.565159,-5329.482782,229.828649
1168.556216,5699.585753,-5921.647536,229.828649
1168.556545,6217.729913,-6513.812290,612.876398
1168.556874,5995.668130,-6957.935855,383.047749
1168.557203,6587.832884,-7328.038826,-306.438199
1168.557532,6217.729913,-7698.141797,306.438199
1168.557861,6661.853478,-7994.224174,919.314598
1168.558190,7105.977043,-8068.244768,1225.752797
1168.558520,7105.977043,-7254.018232,1455.581446
1168.558849,7031.956449,-7105.977043,919.314598
1168.559178,7254.018232,-6809.894666,1378.971896
1168.559507,7550.100608,-6291.750507,1532.190996
1168.559836,7476.080014,-6291.750507,1302.362347
1168.560165,7846.182985,-6143.709319,2451.505594
1168.560494,7179.997637,-5921.647536,1838.629195
1168.560823,6957.935855,-5847.626942,1685.410096
1168.561152,6143.709319,-5625.565159,919.314598
1168.561481,5773.606348,-5995.668130,766.095498
1168.561810,6069.688724,-6143.709319,536.266849
1168.562140,6143.709319,-6143.709319,536.266849
1168.562469,6143.709319,-5699.585753,76.609550
1168.562798,6661.853478,-6069.688724,0.000000
1168.563127,7105.977043,-7031.956449,306.438199
1168.563456,7698.141797,-6587.832884,689.485948
1168.563785,7994.224174,-6957.935855,1225.752797
1168.564114,7772.162391,-6291.750507,1072.533697
1168.564443,7328.038826,-6661.853478,1149.143247
1168.564772,7550.100608,-6809.894666,919.314598
1168.565101,7846.182985,-7105.977043,1991.848295
1168.565430,7994.224174,-6957.935855,1608.800546
1168.565760,7179.997637,-6883.915261,1838.629195
1168.566089,7920.203579,-7254.018232,1302.362347
1168.566418,7179.997637,-6957.935855,2145.067394
1168.566747,7179.997637,-6513.812290,1608.800546
1168.567076,6735.874072,-5921.647536,995.924147
1168.567405,5995.668130,-5921.647536,689.485948
1168.567734,5921.647536,-5995.668130,0.000000
1168.568063,5551.544565,-5625.565159,-383.047749
1168.568392,6143.709319,-6143.709319,0.000000
1168.568721,6365.771101,-6883.915261,306.438199
1168.569050,6883.915261,-6735.874072,536.266849
1168.569380,6809.894666,-7031.956449,459.657299
1168.569709,7105.977043,-6883.915261,306.438199
1168.570038,7328.038826,-7846.182985,1302.362347
1168.570367,7550.100608,-7698.141797,1225.752797
1168.570696,6957.935855,-7254.018232,1532.190996
1168.571025,7105.977043,-7328.038826,1532.190996
1168.571354,7550.100608,-6661.853478,1378.971896
1168.571683,7105.977043,-7105.977043,1915.238745
1168.572012,7476.080014,-6883.915261,2528.115143
1168.572341,7402.059420,-5921.647536,2221.676944
1168.572671,7179.997637,-5033.400406,1455.581446
1168.573000,6513.812290,-4737.318029,1072.533697
1168.573329,6217.729913,-5033.400406,459.657299
1168.573658,6587.832884,-5329.482782,383.047749
1168.573987,6735.874072,-5107.421000,459.657299
1168.574316,6809.894666,-5255.462188,0.000000
1168.574645,6809.894666,-6143.709319,459.657299
1168.574974,6957.935855,-6661.853478,536.266849
1168.575303,7179.997637,-7550.100608,689.485948
1168.575632,7105.977043,-7476.080014,459.657299
1168.575961,7402.059420,-7550.100608,1149.143247
1168.576291,7105.977043,-7994.224174,919.314598
1168.576620,6439.791695,-7328.038826,1532.190996
1168.576949,7031.956449,-8068.244768,1608.800546
1168.577278,7328.038826,-6661.853478,1532.190996
1168.577607,7179.997637,-6809.894666,1762.019645
1168.577936,7476.080014,-6143.709319,1762.019645
1168.578265,8068.244768,-5551.544565,1838.629195
1168.578594,7550.100608,-5255.462188,1608.800546
1168.578923,7031.956449,-5033.400406,1225.752797
1168.579252,6365.771101,-5551.544565,766.095498
1168.579582,6439.791695,-5551.544565,306.438199
1168.579911,6735.874072,-6291.750507,0.000000
1168.580240,6069.688724,-6883.915261,76.609550
1168.580569,5921.647536,-7254.018232,229.828649
1168.580898,6069.688724,-7550.100608,0.000000
1168.581227,6365.771101,-7846.182985,919.314598
1168.581556,7031.956449,-7994.224174,919.314598
1168.581885,7476.080014,-8364.327145,1302.362347
1168.582214,7105.977043,-7846.182985,1378.971896
1168.582543,6809.894666,-6735.874072,1302.362347
1168.582872,6735.874072,-6143.709319,919.314598
1168.583202,7476.080014,-6365.771101,1608.800546
1168.583531,8290.306550,-6069.688724,1991.848295
1168.583860,8068.244768,-5625.565159,2068.457845
1168.584189,7550.100608,-5181.441594,1378.971896
1168.584518,6661.853478,-5107.421000,1072.533697
1168.584847,6143.709319,-5773.606348,229.828649
1168.585176,6143.709319,-6143.709319,306.438199
1168.585505,5995.668130,-6513.812290,229.828649
1168.585834,5995.668130,-6069.688724,0.000000
1168.586163,6365.771101,-6513.812290,383.047749
1168.586493,6291.750507,-7105.977043,153.219100
1168.586822,6587.832884,-7624.121203,383.047749
1168.587151,6587.832884,-7179.997637,766.095498
1168.587480,6883.915261,-6957.935855,689.485948
1168.587809,7402.059420,-6957.935855,1302.362347
1168.588138,8068.244768,-6883.915261,1455.581446
1168.588467,8512.368333,-6439.791695,1685.410096
1168.588796,8142.265362,-6069.688724,1838.629195
1168.589125,7550.100608,-5995.668130,1608.800546
1168.589454,7624.121203,-6143.709319,1378.971896
1168.589783,7994.224174,-6957.935855,1838.629195
1168.590113,7698.141797,-6735.874072,1762.019645
1168.590442,7105.977043,-6439.791695,1302.362347
1168.590771,6217.729913,-6291.750507,766.095498
1168.591100,5551.544565,-6587.832884,153.219100
1168.591429,5255.462188,-7031.956449,153.219100
1168.591758,5107.421000,-6439.791695,76.609550
1168.592087,5403.503377,-6513.812290,-842.705048
1168.592416,5847.626942,-6661.853478,-229.828649
1168.592745,6661.853478,-6587.832884,383.047749
1168.593074,7105.977043,-7179.997637,919.314598
1168.593403,8142.265362,-6587.832884,1455.581446
1168.593733,7994.224174,-6661.853478,1838.629195
1168.594062,7846.182985,-6365.771101,1608.800546
1168.594391,8216.285956,-6809.894666,1915.238745
1168.594720,7624.121203,-6291.750507,1915.238745
1168.595049,8068.244768,-6513.812290,1762.019645
1168.595378,7402.059420,-7105.977043,1915.238745
1168.595707,7105.977043,-6587.832884,2451.505594
1168.596036,7328.038826,-6143.709319,2145.067394
1168.596365,7031.956449,-5477.523971,1685.410096
1168.596694,6069.688724,-5181.441594,919.314598
1168.597024,5699.585753,-5255.462188,0.000000
1168.597353,5773.606348,-5551.544565,383.047749
1168.597682,6439.791695,-5699.585753,0.000000
1168.598011,6143.709319,-5625.565159,76.609550
1168.598340,6809.894666,-6439.791695,459.657299
1168.598669,7105.977043,-7328.038826,842.705048
1168.598998,7698.141797,-7550.100608,1149.143247
1168.599327,7698.141797,-7254.018232,1149.143247
1168.599656,7624.121203,-7476.080014,306.438199
1168.599985,6957.935855,-8068.244768,1302.362347
1168.600314,7179.997637,-7772.162391,1302.362347
1168.600644,7624.121203,-7402.059420,1685.410096
1168.600973,7994.224174,-5551.544565,1685.410096
1168.601302,8216.285956,-6291.750507,1915.238745
1168.601631,7846.182985,-5773.606348,2374.896044
1168.601960,7698.141797,-5107.421000,1378.971896
1168.602289,7031.956449,-5921.647536,1685.410096
1168.602618,6513.812290,-4589.276840,612.876398
1168.602947,6291.750507,-5625.565159,229.828649
1168.603276,5477.523971,-6069.688724,153.219100
1168.603605,5329.482782,-6883.915261,-306.438199
1168.603935,6069.688724,-8068.244768,-766.095498
1168.604264,5847.626942,-8216.285956,0.000000
1168.604593,6513.812290,-8882.471304,306.438199
1168.604922,7328.038826,-8438.347739,919.314598
1168.605251,7179.997637,-7624.121203,1149.143247
1168.605580,7328.038826,-7698.141797,612.876398
1168.605909,7105.977043,-7105.977043,1225.752797
1168.606238,7179.997637,-6957.935855,1608.800546
1168.606567,7698.141797,-6143.709319,1838.629195
1168.606896,7476.080014,-5255.462188,1915.238745
1168.607225,7624.121203,-6291.750507,1532.190996
1168.607555,7402.059420,-6365.771101,1838.629195
1168.607884,7254.018232,-6217.729913,1455.581446
1168.608213,6513.812290,-5329.482782,919.314598
1168.608542,5921.647536,-5403.503377,1072.533697
1168.608871,5773.606348,-5847.626942,0.000000
1168.609200,5921.647536,-6143.709319,0.000000
1168.609529,6439.791695,-6291.750507,459.657299
1168.609858,6809.894666,-6143.709319,536.266849
1168.610187,7105.977043,-6069.688724,612.876398
1168.610516,6809.894666,-6365.771101,689.485948
1168.610846,7328.038826,-6439.791695,459.657299
1168.611175,7624.121203,-6661.853478,1072.533697
1168.611504,7994.224174,-6735.874072,1225.752797
1168.611833,7994.224174,-6587.832884,1762.019645
1168.612162,7624.121203,-6513.812290,2068.457845
1168.612491,7402.059420,-6735.874072,1225.752797
1168.612820,7772.162391,-7105.977043,1455.581446
1168.613149,7476.080014,-7179.997637,1762.019645
1168.613478,7550.100608,-7179.997637,1455.581446
1168.613807,7179.997637,-6365.771101,1685.410096
1168.614136,6587.832884,-6513.812290,919.314598
1168.614466,6143.709319,-5995.668130,383.047749
1168.614795,5847.626942,-6513.812290,0.000000
1168.615124,5921.647536,-5847.626942,0.000000
1168.615453,5773.606348,-5921.647536,153.219100
1168.615782,6069.688724,-6587.832884,76.609550
1168.616111,7031.956449,-6957.935855,0.000000
1168.616440,6883.915261,-7105.977043,919.314598
1168.616769,7179.997637,-6883.915261,766.095498
1168.617098,7402.059420,-6883.915261,1378.971896
1168.617427,7698.141797,-6957.935855,1838.629195
1168.617756,7994.224174,-7031.956449,1838.629195
1168.618086,7994.224174,-7254.018232,2145.067394
1168.618415,7846.182985,-6587.832884,1762.019645
1168.618744,7550.100608,-6735.874072,1608.800546
1168.619073,8068.244768,-6587.832884,2298.286494
1168.619402,7254.018232,-5921.647536,1991.848295
1168.619731,7105.977043,-5773.606348,1072.533697
1168.620060,6217.729913,-5107.421000,1225.752797
1168.620389,5921.647536,-5329.482782,459.657299
1168.620718,5847.626942,-5181.441594,0.000000
1168.621047,5847.626942,-5773.606348,0.000000
1168.621377,5847.626942,-6513.812290,-306.438199
1168.621706,5921.647536,-5921.647536,76.609550
1168.622035,7179.997637,-6809.894666,689.485948
1168.622364,7328.038826,-7031.956449,842.705048
1168.622693,7994.224174,-7254.018232,1302.362347
1168.623022,7772.162391,-8512.368333,1532.190996
1168.623351,7179.997637,-7846.182985,1378.971896
1168.623680,7105.977043,-7920.203579,1225.752797
1168.624009,7254.018232,-7624.121203,1302.362347
1168.624338,7402.059420,-6883.915261,1532.190996
1168.624667,7328.038826,-7254.018232,2068.457845
1168.624997,7624.121203,-6143.709319,1915.238745
1168.625326,7476.080014,-5699.585753,1608.800546
1168.625655,7179.997637,-4885.359217,1532.190996
1168.625984,6587.832884,-5403.503377,842.705048
1168.626313,6217.729913,-5033.400406,689.485948
1168.626642,6069.688724,-5329.482782,919.314598
1168.626971,6069.688724,-6291.750507,0.000000
1168.627300,6217.729913,-6439.791695,229.828649
1168.627629,6143.709319,-6735.874072,306.438199
1168.627958,6661.853478,-7179.997637,76.609550
1168.628288,6883.915261,-7179.997637,1072.533697
1168.628617,7698.141797,-7920.203579,1378.971896
1168.628946,7550.100608,-7550.100608,1532.190996
1168.629275,7179.997637,-7105.977043,919.314598
1168.629604,7328.038826,-6735.874072,536.266849
1168.629933,7179.997637,-6883.915261,919.314598
1168.630262,7328.038826,-7105.977043,1608.800546
1168.630591,7550.100608,-6143.709319,1532.190996
1168.630920,7476.080014,-6069.688724,1608.800546
1168.631249,7550.100608,-5551.544565,1455.581446
1168.631578,6735.874072,-5699.585753,995.924147
1168.631908,5847.626942,-6217.729913,536.266849
1168.632237,5773.606348,-6143.709319,306.438199
1168.632566,5477.523971,-5255.462188,0.000000
1168.632895,6217.729913,-5699.585753,306.438199
1168.633224,6809.894666,-6217.729913,383.047749
1168.633553,6883.915261,-6513.812290,306.438199
1168.633882,7031.956449,-6439.791695,689.485948
1168.634211,8142.265362,-6883.915261,766.095498
1168.634540,7772.162391,-6735.874072,995.924147
1168.634869,7698.141797,-6809.894666,1225.752797
1168.635198,7550.100608,-7254.018232,1455.581446
1168.635528,7772.162391,-6513.812290,1608.800546
1168.635857,7328.038826,-6809.894666,1455.581446
1168.636186,7698.141797,-6513.812290,1608.800546
1168.636515,7328.038826,-6587.832884,1378.971896
1168.636844,7328.038826,-7179.997637,1685.410096
1168.637173,7550.100608,-7179.997637,2298.286494
1168.637502,7031.956449,-6883.915261,1225.752797
1168.637831,5921.647536,-6513.812290,459.657299
1168.638160,5403.503377,-6217.729913,383.047749
1168.638489,5625.565159,-6143.709319,0.000000
1168.638819,5551.544565,-5995.668130,536.266849
1168.639148,6069.688724,-6291.750507,383.047749
1168.639477,6439.791695,-6513.812290,153.219100
1168.639806,6809.894666,-6587.832884,383.047749
1168.640135,6957.935855,-6735.874072,1149.143247
1168.640464,7105.977043,-7476.080014,919.314598
1168.640793,7105.977043,-7476.080014,1072.533697
1168.641122,7031.956449,-7476.080014,1302.362347
1168.641451,7254.018232,-7402.059420,1455.581446
1168.641780,7624.121203,-6661.853478,1762.019645
1168.642109,7920.203579,-6809.894666,1762.019645
1168.642439,7624.121203,-6735.874072,2145.067394
1168.642768,7328.038826,-6069.688724,2145.067394
1168.643097,7179.997637,-5921.647536,2145.067394
1168.643426,7179.997637,-5403.503377,1149.143247
1168.643755,6661.853478,-4811.338623,1072.533697
1168.644084,6513.812290,-5107.421000,689.485948
1168.644413,6513.812290,-5107.421000,612.876398
1168.644742,6513.812290,-5181.441594,0.000000
1168.645071,6735.874072,-5625.565159,153.219100
1168.645400,7031.956449,-6365.771101,689.485948
1168.645730,6957.935855,-7550.100608,842.705048
1168.646059,7105.977043,-8068.244768,995.924147
1168.646388,7254.018232,-7846.182985,1149.143247
1168.646717,6809.894666,-8364.327145,919.314598
1168.647046,7105.977043,-8364.327145,1378.971896
1168.647375,7624.121203,-8216.285956,1991.848295
1168.647704,8290.306550,-7328.038826,2145.067394
1168.648033,7698.141797,-6069.688724,2451.505594
1168.648362,7550.100608,-6291.750507,1225.752797
1168.648691,7105.977043,-6069.688724,1991.848295
1168.649020,6957.935855,-5625.565159,2145.067394
1168.649350,7179.997637,-5403.503377,1762.019645
1168.649679,6513.812290,-4589.276840,153.219100
1168.650008,6143.709319,-5181.441594,383.047749
1168.650337,5995.668130,-6143.709319,306.438199
1168.650666,6661.853478,-6439.791695,536.266849
1168.650995,5921.647536,-7254.018232,0.000000
1168.651324,5847.626942,-7550.100608,0.000000
1168.651653,5921.647536,-8068.244768,153.219100
1168.651982,6587.832884,-8216.285956,536.266849
1168.652311,6883.915261,-7846.182985,1915.238745
1168.652641,7105.977043,-7994.224174,1532.190996
1168.652970,7179.997637,-7105.977043,1149.143247
1168.653299,7179.997637,-6883.915261,1225.752797
1168.653628,7402.059420,-6513.812290,1302.362347
1168.653957,7624.121203,-6513.812290,1685.410096
1168.654286,7846.182985,-6513.812290,2068.457845
1168.654615,7476.080014,-6217.729913,1608.800546
1168.654944,6957.935855,-5551.544565,1532.190996
1168.655273,5921.647536,-5699.585753,612.876398
1168.655602,5847.626942,-5847.626942,612.876398
1168.655931,5921.647536,-6217.729913,306.438199
1168.656261,5921.647536,-5773.606348,0.000000
1168.656590,6661.853478,-5625.565159,306.438199
1168.656919,7105.977043,-6439.791695,76.609550
1168.657248,6883.915261,-7105.977043,612.876398
1168.657577,7031.956449,-6513.812290,612.876398
1168.657906,7624.121203,-6661.853478,842.705048
1168.658235,7772.162391,-5995.668130,1072.533697
1168.658564,8068.244768,-7179.997637,1991.848295
1168.658893,7994.224174,-7179.997637,1685.410096
1168.659222,7698.141797,-6661.853478,1685.410096
1168.659551,7476.080014,-6735.874072,1378.971896
1168.659881,7476.080014,-6661.853478,1378.971896
1168.660210,7402.059420,-7328.038826,1532.190996
1168.660539,7254.018232,-6735.874072,1532.190996
1168.660868,7105.977043,-6513.812290,1378.971896
1168.661197,6661.853478,-5995.668130,842.705048
1168.661526,6365.771101,-6143.709319,766.095498
1168.661855,5625.565159,-5921.647536,153.219100
1168.662184,5847.626942,-6365.771101,-153.219100
1168.662513,5847.626942,-6291.750507,0.000000
1168.662842,6365.771101,-6587.832884,766.095498
1168.663172,6587.832884,-6661.853478,383.047749
1168.663501,6809.894666,-6883.915261,612.876398
1168.663830,7179.997637,-7105.977043,919.314598
1168.664159,7328.038826,-7179.997637,1072.533697
1168.664488,7476.080014,-7402.059420,1991.848295
1168.664817,7476.080014,-6587.832884,2221.676944
1168.665146,7698.141797,-6957.935855,1532.190996
1168.665475,7920.203579,-6291.750507,1838.629195
1168.665804,7846.182985,-6291.750507,2068.457845
1168.666133,7920.203579,-6365.771101,2068.457845
1168.666462,7846.182985,-4959.379811,1991.848295
1168.666791,7402.059420,-5033.400406,1225.752797
1168.667120,6661.853478,-4737.318029,689.485948
1168.667450,6143.709319,-5181.441594,306.438199
1168.667779,5773.606348,-6365.771101,0.000000
1168.668108,5773.606348,-5699.585753,0.000000
1168.668437,5847.626942,-6513.812290,0.000000
1168.668766,6217.729913,-7031.956449,842.705048
1168.669095,6513.812290,-7772.162391,842.705048
1168.669424,7105.977043,-7994.224174,995.924147
1168.669753,7550.100608,-6957.935855,459.657299
1168.670082,7105.977043,-7698.141797,1149.143247
1168.670411,7476.080014,-7920.203579,1608.800546
1168.670740,7105.977043,-7179.997637,1378.971896
1168.671069,7402.059420,-7476.080014,1532.190996
1168.671398,7328.038826,-6439.791695,1455.581446
1168.671727,7476.080014,-6291.750507,1762.019645
1168.672056,7624.121203,-6365.771101,1608.800546
1168.672385,7846.182985,-5921.647536,1608.800546
1168.672714,7254.018232,-5329.482782,1532.190996
1168.673043,6809.894666,-5107.421000,1072.533697
1168.673372,6513.812290,-5847.626942,842.705048
1168.673702,5995.668130,-6217.729913,766.095498
1168.674031,5847.626942,-6291.750507,536.266849
1168.674360,5995.668130,-6809.894666,153.219100
1168.674689,6069.688724,-7179.997637,306.438199
1168.675018,6365.771101,-7179.997637,383.047749
1168.675347,7105.977043,-7550.100608,995.924147
1168.675676,7179.997637,-7624.121203,1532.190996
1168.676005,7254.018232,-6957.935855,1149.143247
1168.676334,7105.977043,-6809.894666,1225.752797
1168.676663,6957.935855,-6957.935855,1225.752797
1168.676992,7105.977043,-6365.771101,1455.581446
1168.677321,7846.182985,-6291.750507,2068.457845
1168.677650,8216.285956,-6439.791695,1455.581446
1168.677979,7920.203579,-6069.688724,1991.848295
1168.678308,6883.915261,-6439.791695,1608.800546
1168.678637,6291.750507,-6143.709319,919.314598
1168.678966,5625.565159,-6217.729913,536.266849
1168.679295,5477.523971,-6809.894666,536.266849
1168.679624,5847.626942,-6587.832884,229.828649
1168.679953,6143.709319,-6217.729913,306.438199
1168.680283,6809.894666,-5921.647536,612.876398
1168.680612,7105.977043,-5921.647536,689.485948
1168.680941,7476.080014,-6217.729913,229.828649
1168.681270,7328.038826,-6439.791695,842.705048
1168.681599,7550.100608,-6291.750507,1149.143247
1168.681928,8290.306550,-6143.709319,1608.800546
1168.682257,8142.265362,-7105.977043,1915.238745
1168.682586,8068.244768,-6957.935855,2374.896044
1168.682915,7550.100608,-7031.956449,1378.971896
1168.683244,7476.080014,-6661.853478,1608.800546
1168.683573,7254.018232,-7105.977043,1608.800546
1168.683902,7772.162391,-7698.141797,2374.896044
1168.684231,8068.244768,-6513.812290,1378.971896
1168.684560,6735.874072,-6513.812290,1072.533697
1168.684889,5625.565159,-5847.626942,459.657299
1168.685218,5477.523971,-6513.812290,306.438199
1168.685547,5625.565159,-6735.874072,459.657299
1168.685876,5625.565159,-6069.688724,-229.828649
1168.686205,5921.647536,-6513.812290,-229.828649
1168.686534,6439.791695,-6661.853478,153.219100
1168.686864,6661.853478,-7105.977043,459.657299
1168.687193,6735.874072,-7031.956449,689.485948
1168.687522,7105.977043,-6735.874072,919.314598
1168.687851,7624.121203,-7624.121203,1378.971896
1168.688180,7698.141797,-6957.935855,1915.238745
1168.688509,7624.121203,-6809.894666,1915.238745
1168.688838,7920.203579,-6661.853478,1685.410096
1168.689167,7772.162391,-5773.606348,1685.410096
1168.689496,7846.182985,-6439.791695,1838.629195
1168.689825,7994.224174,-5477.523971,1915.238745
1168.690154,7550.100608,-5107.421000,1838.629195
1168.690483,6661.853478,-5329.482782,1072.533697
1168.690812,6069.688724,-4959.379811,612.876398
1168.691141,5477.523971,-5773.606348,459.657299
1168.691470,6143.709319,-5551.544565,612.876398
1168.691799,6217.729913,-6143.709319,0.000000
1168.692128,5995.668130,-6883.915261,0.000000
1168.692457,6365.771101,-6883.915261,229.828649
1168.692786,7031.956449,-7772.162391,536.266849
1168.693115,7402.059420,-6809.894666,1302.362347
1168.693445,7772.162391,-7550.100608,842.705048
1168.693774,7402.059420,-7846.182985,1685.410096
1168.694103,7328.038826,-7179.997637,1532.190996
1168.694432,7476.080014,-7698.141797,1302.362347
1168.694761,7476.080014,-6069.688724,2145.067394
1168.695090,7698.141797,-6735.874072,1915.238745
1168.695419,7698.141797,-6439.791695,1685.410096
1168.695748,7402.059420,-6143.709319,1915.238745
1168.696077,7476.080014,-6069.688724,1838.629195
1168.696406,7105.977043,-5033.400406,1149.143247
1168.696735,6513.812290,-5699.585753,612.876398
1168.697064,6365.771101,-6069.688724,383.047749
1168.697393,6143.709319,-6439.791695,0.000000
1168.697722,6365.771101,-6809.894666,536.266849
1168.698051,5847.626942,-7105.977043,153.219100
1168.698380,6069.688724,-7254.018232,153.219100
1168.698709,6809.894666,-7105.977043,306.438199
1168.699038,7328.038826,-7476.080014,536.266849
1168.699367,7550.100608,-7105.977043,1225.752797
1168.699696,7402.059420,-7179.997637,1072.533697
1168.700026,7328.038826,-7328.038826,1225.752797
1168.700355,7402.059420,-6735.874072,842.705048
1168.700684,7254.018232,-6883.915261,1378.971896
1168.701013,7402.059420,-6883.915261,1532.190996
1168.701342,7550.100608,-6513.812290,1455.581446
1168.701671,7476.080014,-6143.709319,1915.238745
1168.702000,7254.018232,-5403.503377,1302.362347
1168.702329,6809.894666,-6143.709319,459.657299
1168.702658,5699.585753,-6365.771101,536.266849
1168.702987,5477.523971,-6291.750507,229.828649
1168.703316,5921.647536,-6143.709319,383.047749
1168.703645,5995.668130,-5551.544565,536.266849
1168.703974,6439.791695,-5921.647536,536.266849
1168.704303,7179.997637,-6365.771101,919.314598
1168.704632,7254.018232,-6587.832884,153.219100
1168.704961,7254.018232,-7031.956449,612.876398
1168.705290,7328.038826,-6365.771101,995.924147
1168.705619,7920.203579,-6365.771101,1302.362347
1168.705948,7624.121203,-7402.059420,1302.362347
1168.706277,7624.121203,-7105.977043,1608.800546
1168.706607,7402.059420,-6883.915261,2145.067394
1168.706936,7994.224174,-6809.894666,2068.457845
1168.707265,7624.121203,-7254.018232,2145.067394
1168.707594,7179.997637,-6809.894666,1608.800546
1168.707923,7105.977043,-6439.791695,1455.581446
1168.708252,6439.791695,-5921.647536,995.924147
1168.708581,5773.606348,-5847.626942,842.705048
1168.708910,5773.606348,-5699.585753,536.266849
1168.709239,6069.688724,-6143.709319,229.828649
1168.709568,5847.626942,-6217.729913,0.000000
1168.709897,5921.647536,-6661.853478,0.000000
1168.710226,6439.791695,-6957.935855,76.609550
1168.710555,7105.977043,-7402.059420,842.705048
1168.710884,7920.203579,-7031.956449,919.314598
1168.711213,8068.244768,-7105.977043,1685.410096
1168.711542,7254.018232,-7031.956449,1532.190996
1168.711871,7105.977043,-7402.059420,1455.581446
1168.712200,7105.977043,-7105.977043,1455.581446
1168.712529,7254.018232,-7105.977043,1685.410096
1168.712858,7476.080014,-6661.853478,1685.410096
1168.713188,7179.997637,-6143.709319,2145.067394
1168.713517,7624.121203,-5995.668130,2145.067394
1168.713846,7328.038826,-5625.565159,1762.019645
1168.714175,6661.853478,-4811.338623,1378.971896
1168.714504,5847.626942,-4737.318029,229.828649
1168.714833,6365.771101,-5181.441594,306.438199
1168.715162,6365.771101,-5699.585753,536.266849
1168.715491,6439.791695,-5995.668130,229.828649
1168.715820,6809.894666,-6291.750507,-383.047749
1168.716149,6587.832884,-6809.894666,76.609550
1168.716478,7105.977043,-7698.141797,459.657299
1168.716807,7179.997637,-7920.203579,919.314598
1168.717136,7031.956449,-7550.100608,1532.190996
1168.717465,7105.977043,-7846.182985,842.705048
1168.717794,7105.977043,-7772.162391,1302.362347
1168.718123,7624.121203,-7254.018232,1838.629195
1168.718452,8068.244768,-6587.832884,2068.457845
1168.718781,8586.388927,-5847.626942,2451.505594
1168.719110,7772.162391,-5625.565159,2068.457845
1168.719440,7772.162391,-5329.482782,1762.019645
1168.719769,7772.162391,-4959.379811,1225.752797
1168.720098,6957.935855,-5255.462188,919.314598
1168.720427,6143.709319,-4737.318029,995.924147
1168.720756,6069.688724,-5699.585753,383.047749
1168.721085,5625.565159,-6809.894666,0.000000
1168.721414,5403.503377,-7402.059420,-306.438199
1168.721743,5551.544565,-7846.182985,-536.266849
1168.722072,5625.565159,-7994.224174,0.000000
1168.722401,6365.771101,-8142.265362,229.828649
1168.722730,6957.935855,-8068.244768,919.314598
1168.723059,7254.018232,-7920.203579,1225.752797
1168.723388,7550.100608,-7328.038826,1378.971896
1168.723717,7031.956449,-6587.832884,1378.971896
1168.724046,6957.935855,-6661.853478,1225.752797
1168.724375,7476.080014,-6587.832884,1915.238745
1168.724704,7846.182985,-5921.647536,1608.800546
1168.725033,8142.265362,-6069.688724,2221.676944
1168.725362,7624.121203,-5403.503377,1838.629195
1168.725691,6587.832884,-5255.462188,1072.533697
1168.726021,6217.729913,-5995.668130,612.876398
1168.726350,6143.709319,-5699.585753,1225.752797
1168.726679,6069.688724,-6217.729913,153.219100
1168.727008,6069.688724,-6143.709319,383.047749
1168.727337,6069.688724,-6365.771101,153.219100
1168.727666,6291.750507,-7031.956449,229.828649
1168.727995,7031.956449,-6883.915261,536.266849
1168.728324,7772.162391,-6883.915261,919.314598
1168.728653,7476.080014,-6809.894666,1378.971896
1168.728982,7624.121203,-6661.853478,1149.143247
1168.729311,8068.244768,-7031.956449,1532.190996
1168.729640,7772.162391,-6365.771101,1532.190996
1168.729969,8068.244768,-6957.935855,1225.752797
1168.730298,7920.203579,-6513.812290,1302.362347
1168.730627,7550.100608,-6513.812290,1608.800546
1168.730956,7254.018232,-6809.894666,1302.362347
1168.731285,7254.018232,-6809.894666,1455.581446
1168.731614,5995.668130,-6883.915261,1149.143247
1168.731943,5625.565159,-6587.832884,383.047749
1168.732272,5329.482782,-6217.729913,76.609550
1168.732602,5181.441594,-6587.832884,153.219100
1168.732931,5403.503377,-6883.915261,76.609550
1168.733260,5551.544565,-7031.956449,229.828649
1168.733589,6513.812290,-6513.812290,76.609550
1168.733918,6809.894666,-6587.832884,383.047749
1168.734247,7105.977043,-7105.977043,919.314598
1168.734576,7328.038826,-7698.141797,1225.752797
1168.734905,7550.100608,-7105.977043,1225.752797
1168.735234,7624.121203,-6365.771101,1455.581446
1168.735563,8216.285956,-6513.812290,689.485948
1168.735892,8068.244768,-6513.812290,1685.410096
1168.736221,8512.368333,-6513.812290,1685.410096
1168.736550,8068.244768,-6291.750507,1915.238745
1168.736879,7624.121203,-5329.482782,1915.238745
1168.737208,6957.935855,-5847.626942,1225.752797
1168.737537,6513.812290,-5847.626942,1455.581446
1168.737866,5699.585753,-6217.729913,612.876398
1168.738195,5477.523971,-6217.729913,383.047749
1168.738524,5255.462188,-5477.523971,842.705048
1168.738853,5921.647536,-6217.729913,229.828649
1168.739183,6069.688724,-6439.791695,229.828649
1168.739512,6291.750507,-6809.894666,76.609550
1168.739841,7031.956449,-7254.018232,306.438199
1168.740170,7328.038826,-7105.977043,459.657299
1168.740499,7698.141797,-7402.059420,995.924147
1168.740828,7772.162391,-7698.141797,1532.190996
1168.741157,7105.977043,-7105.977043,1378.971896
1168.741486,7550.100608,-6809.894666,1072.533697
1168.741815,7994.224174,-6587.832884,1532.190996
1168.742144,8290.306550,-6069.688724,2068.457845
1168.742473,8290.306550,-6587.832884,2451.505594
1168.742802,8068.244768,-5329.482782,2068.457845
1168.743131,7476.080014,-4885.359217,1532.190996
1168.743460,6439.791695,-5551.544565,1302.362347
1168.743789,6439.791695,-5403.503377,842.705048
1168.744118,6143.709319,-5921.647536,76.609550
1168.744447,6217.729913,-6217.729913,766.095498
1168.744776,5625.565159,-7031.956449,0.000000
1168.745105,5477.523971,-7254.018232,-153.219100
1168.745434,5847.626942,-7624.121203,-229.828649
1168.745764,6587.832884,-7920.203579,459.657299
1168.746093,7624.121203,-7624.121203,842.705048
1168.746422,7402.059420,-7624.121203,1149.143247
1168.746751,7328.038826,-7328.038826,1532.190996
1168.747080,7105.977043,-6439.791695,1532.190996
1168.747409,7476.080014,-6883.915261,1991.848295
1168.747738,7698.141797,-6291.750507,2374.896044
1168.748067,7994.224174,-5921.647536,1838.629195
1168.748396,7550.100608,-6291.750507,1838.629195
1168.748725,7254.018232,-6217.729913,1685.410096
1168.749054,6883.915261,-6365.771101,1149.143247
1168.749383,6439.791695,-6217.729913,766.095498
1168.749712,6143.709319,-6217.729913,153.219100
1168.750041,5329.482782,-6217.729913,153.219100
1168.750370,5477.523971,-6365.771101,0.000000
1168.750699,6217.729913,-5625.565159,-612.876398
1168.751028,6661.853478,-6439.791695,459.657299
1168.751357,6957.935855,-6143.709319,842.705048
1168.751686,7105.977043,-5921.647536,689.485948
1168.752015,7624.121203,-6069.688724,1378.971896
1168.752345,7698.141797,-6217.729913,1149.143247
1168.752674,8364.327145,-7031.956449,1838.629195
1168.753003,8216.285956,-7105.977043,1532.190996
1168.753332,7920.203579,-6365.771101,1762.019645
1168.753661,8068.244768,-6661.853478,2068.457845
1168.753990,7624.121203,-7254.018232,1762.019645
1168.754319,7179.997637,-7846.182985,1762.019645
1168.754648,7105.977043,-7698.141797,1378.971896
1168.754977,6661.853478,-7031.956449,1072.533697
1168.755306,5995.668130,-6735.874072,766.095498
1168.755635,5107.421000,-6735.874072,383.047749
1168.755964,5181.441594,-6143.709319,76.609550
1168.756293,5551.544565,-5995.668130,0.000000
1168.756622,6291.750507,-6069.688724,383.047749
1168.756951,6513.812290,-6587.832884,76.609550
1168.757280,6735.874072,-6587.832884,0.000000
1168.757609,7476.080014,-7179.997637,1225.752797
1168.757938,7476.080014,-7031.956449,1072.533697
1168.758267,7698.141797,-7105.977043,1378.971896
1168.758596,8142.265362,-7179.997637,1608.800546
1168.758926,7846.182985,-7105.977043,1685.410096
1168.759255,7920.203579,-6735.874072,1378.971896
1168.759584,8290.306550,-5995.668130,1608.800546
1168.759913,7772.162391,-6735.874072,1762.019645
1168.760242,7402.059420,-6069.688724,1991.848295
1168.760571,7105.977043,-5625.565159,1685.410096
1168.760900,6587.832884,-5033.400406,1225.752797
1168.761229,6291.750507,-4737.318029,1149.143247
1168.761558,6143.709319,-5847.626942,1149.143247
1168.761887,5921.647536,-5995.668130,306.438199
1168.762216,5921.647536,-5921.647536,76.609550
1168.762545,5921.647536,-6439.791695,383.047749
1168.762874,6365.771101,-6513.812290,229.828649
1168.763203,6809.894666,-7698.141797,766.095498
1168.763532,7254.018232,-7402.059420,536.266849
1168.763861,7254.018232,-7624.121203,689.485948
1168.764190,7772.162391,-7698.141797,919.314598
1168.764519,7402.059420,-7698.141797,1685.410096
1168.764848,7550.100608,-7698.141797,1455.581446
1168.765178,7105.977043,-6735.874072,1608.800546
1168.765507,7105.977043,-6513.812290,1455.581446
1168.765836,7179.997637,-6883.915261,1991.848295
1168.766165,7254.018232,-6439.791695,1991.848295
1168.766494,7624.121203,-5995.668130,2145.067394
1168.766823,7624.121203,-4959.379811,1455.581446
1168.767152,7105.977043,-4737.318029,995.924147
1168.767481,6661.853478,-5551.544565,766.095498
1168.767810,6217.729913,-5625.565159,536.266849
1168.768139,6217.729913,-5847.626942,0.000000
1168.768468,6069.688724,-6661.853478,0.000000
1168.768797,5995.668130,-7179.997637,1378.971896
1168.769127,6217.729913,-7476.080014,306.438199
1168.769456,6513.812290,-7698.141797,612.876398
1168.769785,6809.894666,-7624.121203,1149.143247
1168.770114,7105.977043,-7846.182985,1149.143247
1168.770443,6661.853478,-7624.121203,1225.752797
1168.770772,6883.915261,-7476.080014,1149.143247
1168.771102,7031.956449,-6809.894666,919.314598
1168.771431,7254.018232,-6809.894666,1685.410096
1168.771760,7402.059420,-7105.977043,2374.896044
1168.772089,8068.244768,-6957.935855,2145.067394
1168.772418,7772.162391,-5699.585753,1302.362347
1168.772747,6661.853478,-5403.503377,612.876398
1168.773077,5995.668130,-6143.709319,536.266849
1168.773406,5921.647536,-6365.771101,689.485948
1168.773735,6143.709319,-5995.668130,306.438199
1168.774064,6439.791695,-5477.523971,229.828649
1168.774393,6513.812290,-5477.523971,153.219100
1168.774722,6809.894666,-6957.935855,842.705048
1168.775052,7105.977043,-6809.894666,689.485948
1168.775381,7624.121203,-7179.997637,536.266849
1168.775710,7698.141797,-6439.791695,842.705048
1168.776039,7476.080014,-6809.894666,1072.533697
1168.776368,7920.203579,-7328.038826,995.924147
1168.776697,8068.244768,-6957.935855,1762.019645
1168.777027,7772.162391,-7105.977043,1532.190996
1168.777356,7550.100608,-6587.832884,1838.629195
1168.777685,7328.038826,-6957.935855,1685.410096
1168.778014,7772.162391,-6883.915261,2374.896044
1168.778343,7698.141797,-6513.812290,2145.067394
1168.778672,7105.977043,-6217.729913,1149.143247
1168.779002,5995.668130,-5847.626942,459.657299
1168.779331,5477.523971,-6365.771101,383.047749
1168.779660,5255.462188,-6069.688724,0.000000
1168.779989,5625.565159,-6365.771101,153.219100
1168.780318,5995.668130,-6661.853478,229.828649
1168.780647,6291.750507,-6587.832884,383.047749
1168.780977,6513.812290,-6735.874072,536.266849
1168.781306,7179.997637,-6883.915261,842.705048
1168.781635,7624.121203,-6661.853478,1225.752797
1168.781964,7550.100608,-7476.080014,1532.190996
1168.782293,7402.059420,-6883.915261,2298.286494
1168.782622,7624.121203,-6365.771101,1302.362347
1168.782952,7772.162391,-6661.853478,1455.581446
1168.783281,7846.182985,-6439.791695,1991.848295
1168.783610,7698.141797,-6735.874072,2681.334243
1168.783939,7772.162391,-5847.626942,1915.238745
1168.784268,6957.935855,-5921.647536,1225.752797
1168.784597,6365.771101,-6291.750507,995.924147
1168.784927,5773.606348,-6143.709319,612.876398
1168.785256,5181.441594,-6587.832884,229.828649
1168.785585,6069.688724,-5921.647536,536.266849
1168.785914,5847.626942,-5995.668130,0.000000
1168.786243,6143.709319,-6365.771101,459.657299
1168.786572,6735.874072,-6809.894666,766.095498
1168.786902,7550.100608,-7402.059420,1072.533697
1168.787231,7179.997637,-6661.853478,1149.143247
1168.787560,7105.977043,-6883.915261,919.314598
1168.787889,7031.956449,-7698.141797,842.705048
1168.788218,7105.977043,-7476.080014,1302.362347
1168.788547,7254.018232,-7328.038826,612.876398
1168.788877,7698.141797,-6957.935855,1608.800546
1168.789206,8068.244768,-6439.791695,1915.238745
1168.789535,8216.285956,-6143.709319,2221.676944
1168.789864,8142.265362,-5847.626942,2068.457845
1168.790193,7402.059420,-5255.462188,1608.800546
1168.790522,7105.977043,-5181.441594,1149.143247
1168.790852,6513.812290,-4959.379811,919.314598
1168.791181,6291.750507,-5699.585753,689.485948
1168.791510,5995.668130,-6217.729913,306.438199
1168.791839,5773.606348,-5847.626942,-229.828649
1168.792168,5921.647536,-7254.018232,0.000000
1168.792497,6217.729913,-7254.018232,153.219100
1168.792827,6735.874072,-8068.244768,229.828649
1168.793156,7772.162391,-7328.038826,612.876398
1168.793485,7328.038826,-7772.162391,995.924147
1168.793814,7328.038826,-8142.265362,1149.143247
1168.794143,7402.059420,-7772.162391,1149.143247
1168.794472,7476.080014,-6957.935855,842.705048
1168.794802,7328.038826,-6883.915261,1378.971896
1168.795131,7328.038826,-6069.688724,1762.019645
1168.795460,7698.141797,-6735.874072,2221.676944
1168.795789,7624.121203,-6217.729913,1915.238745
1168.796118,6735.874072,-5773.606348,1225.752797
1168.796447,5403.503377,-5107.421000,383.047749
1168.796777,5551.544565,-5921.647536,689.485948
1168.797106,5699.585753,-7105.977043,229.828649
1168.797435,6365.771101,-5921.647536,689.485948
1168.797764,6513.812290,-5847.626942,76.609550
1168.798093,7105.977043,-6217.729913,459.657299
1168.798422,7624.121203,-6069.688724,842.705048
1168.798752,7624.121203,-7031.956449,689.485948
1168.799081,7105.977043,-6587.832884,842.705048
1168.799410,7105.977043,-6069.688724,612.876398
1168.799739,7105.977043,-6883.915261,995.924147
1168.800068,7920.203579,-7105.977043,1838.629195
1168.800397,7920.203579,-7105.977043,1838.629195
1168.800727,7402.059420,-5921.647536,1532.190996
1168.801056,7105.977043,-6291.750507,1685.410096
1168.801385,7550.100608,-7624.121203,2068.457845
1168.801714,7846.182985,-7105.977043,2298.286494
1168.802043,7179.997637,-7031.956449,1378.971896
1168.802372,6365.771101,-6587.832884,919.314598
1168.802702,5773.606348,-6291.750507,383.047749
1168.803031,5403.503377,-7105.977043,0.000000
1168.803360,5181.441594,-6587.832884,76.609550
1168.803689,6143.709319,-6661.853478,-229.828649
1168.804018,5921.647536,-6587.832884,229.828649
1168.804347,6439.791695,-6957.935855,689.485948
1168.804677,6735.874072,-7031.956449,842.705048
1168.805006,6809.894666,-5773.606348,919.314598
1168.805335,7105.977043,-6661.853478,842.705048
1168.805664,7624.121203,-7179.997637,1762.019645
1168.805993,8290.306550,-6883.915261,1838.629195
1168.806322,8438.347739,-6587.832884,2145.067394
1168.806652,8290.306550,-6069.688724,1608.800546
1168.806981,7994.224174,-6143.709319,1915.238745
1168.807310,8364.327145,-6587.832884,2221.676944
1168.807639,7624.121203,-6513.812290,2298.286494
1168.807968,7402.059420,-5995.668130,1302.362347
