#time,accel_x,accel_y,accel_z
1459.553358,7031.956449,-6365.771101,1378.971896
1459.553689,6735.874072,-6809.894666,919.314598
1459.554019,6735.874072,-6513.812290,1072.533697
1459.554350,7105.977043,-6661.853478,919.314598
1459.554680,7031.956449,-6661.853478,1149.143247
1459.555011,6809.894666,-6587.832884,1532.190996
1459.555341,6809.894666,-6587.832884,1685.410096
1459.555672,6735.874072,-6883.915261,842.705048
1459.556002,6661.853478,-6883.915261,612.876398
1459.556333,6735.874072,-6883.915261,919.314598
1459.556663,7105.977043,-6735.874072,612.876398
1459.556994,7328.038826,-6069.688724,1225.752797
1459.557324,7179.997637,-6291.750507,1455.581446
1459.557655,7179.997637,-6217.729913,689.485948
1459.557985,7328.038826,-5921.647536,689.485948
1459.558316,6957.935855,-6365.771101,1149.143247
1459.558646,6957.935855,-6217.729913,1072.533697
1459.558977,7402.059420,-5995.668130,919.314598
1459.559308,7179.997637,-6365.771101,1072.533697
1459.559638,7624.121203,-6217.729913,1378.971896
1459.559969,7105.977043,-6143.709319,1455.581446
1459.560299,7179.997637,-6661.853478,766.095498
1459.560630,6735.874072,-6587.832884,1378.971896
1459.560960,6587.832884,-6143.709319,612.876398
1459.561291,6587.832884,-6587.832884,1072.533697
1459.561621,6809.894666,-6957.935855,1378.971896
1459.561952,6957.935855,-6661.853478,1302.362347
1459.562282,6735.874072,-6735.874072,1149.143247
1459.562613,6735.874072,-6957.935855,842.705048
1459.562943,6291.750507,-7031.956449,1072.533697
1459.563274,6587.832884,-7031.956449,1149.143247
1459.563604,6587.832884,-6883.915261,919.314598
1459.563935,6587.832884,-7105.977043,842.705048
1459.564265,7179.997637,-7105.977043,1532.190996
1459.564596,7254.018232,-6217.729913,1302.362347
1459.564926,7105.977043,-6587.832884,919.314598
1459.565257,7105.977043,-6291.750507,1149.143247
1459.565587,7179.997637,-6735.874072,612.876398
1459.565918,6809.894666,-6809.894666,919.314598
1459.566248,6735.874072,-6439.791695,1149.143247
1459.566579,7105.977043,-6365.771101,919.314598
1459.566909,7105.977043,-6439.791695,1072.533697
1459.567240,7031.956449,-6217.729913,1302.362347
1459.567570,7105.977043,-6069.688724,689.485948
1459.567901,6883.915261,-6291.750507,1378.971896
1459.568231,6957.935855,-6291.750507,919.314598
1459.568562,6587.832884,-6365.771101,995.924147
1459.568893,6957.935855,-6661.853478,995.924147
1459.569223,7105.977043,-6809.894666,1455.581446
1459.569554,7179.997637,-6439.791695,1072.533697
1459.569884,6809.894666,-6661.853478,995.924147
1459.570215,6661.853478,-6291.750507,1455.581446
1459.570545,6809.894666,-7031.956449,689.485948
1459.570876,6809.894666,-6883.915261,766.095498
1459.571206,7105.977043,-6957.935855,995.924147
1459.571537,7105.977043,-6661.853478,689.485948
1459.571867,7031.956449,-6513.812290,1532.190996
1459.572198,7105.977043,-6513.812290,1072.533697
1459.572528,7328.038826,-6661.853478,766.095498
1459.572859,7476.080014,-6661.853478,919.314598
1459.573189,7105.977043,-7179.997637,919.314598
1459.573520,7105.977043,-6291.750507,1149.143247
1459.573850,7402.059420,-6365.771101,1149.143247
1459.574181,7476.080014,-6217.729913,1072.533697
1459.574511,7476.080014,-6365.771101,1302.362347
1459.574842,6513.812290,-6365.771101,1685.410096
1459.575172,7105.977043,-6217.729913,1072.533697
1459.575503,6809.894666,-6217.729913,842.705048
1459.575833,6587.832884,-6365.771101,995.924147
1459.576164,6587.832884,-6957.935855,995.924147
1459.576494,6883.915261,-6661.853478,1302.362347
1459.576825,6957.935855,-6735.874072,1225.752797
1459.577155,6513.812290,-6291.750507,995.924147
1459.577486,6735.874072,-6513.812290,1225.752797
1459.577816,6809.894666,-6809.894666,919.314598
1459.578147,6587.832884,-6957.935855,842.705048
1459.578478,6291.750507,-6735.874072,1072.533697
1459.578808,6587.832884,-7031.956449,766.095498
1459.579139,7105.977043,-6809.894666,1225.752797
1459.579469,7179.997637,-6513.812290,1608.800546
1459.579800,6735.874072,-6587.832884,842.705048
1459.580130,6957.935855,-6217.729913,1225.752797
1459.580461,7031.956449,-6809.894666,995.924147
1459.580791,7105.977043,-6587.832884,1838.629195
1459.581122,7105.977043,-6143.709319,842.705048
1459.581452,7328.038826,-6143.709319,1225.752797
1459.581783,7402.059420,-6513.812290,1378.971896
1459.582113,7105.977043,-6291.750507,1302.362347
1459.582444,7402.059420,-6809.894666,919.314598
1459.582774,6809.894666,-6735.874072,1149.143247
1459.583105,6735.874072,-6365.771101,842.705048
1459.583435,6513.812290,-6365.771101,766.095498
1459.583766,6735.874072,-7105.977043,1072.533697
1459.584096,6883.915261,-6883.915261,1378.971896
1459.584427,7105.977043,-6809.894666,919.314598
1459.584757,7105.977043,-7105.977043,1149.143247
1459.585088,6587.832884,-6587.832884,1302.362347
1459.585418,7031.956449,-7031.956449,919.314598
1459.585749,6957.935855,-6809.894666,689.485948
1459.586079,6809.894666,-6883.915261,842.705048
1459.586410,7476.080014,-6439.791695,766.095498
1459.586740,7624.121203,-6661.853478,1762.019645
1459.587071,7698.141797,-6291.750507,1455.581446
1459.587401,7476.080014,-6661.853478,1225.752797
1459.587732,6957.935855,-6291.750507,919.314598
1459.588063,7031.956449,-6809.894666,766.095498
1459.588393,7402.059420,-6217.729913,995.924147
1459.588724,7476.080014,-5995.668130,1072.533697
1459.589054,7402.059420,-6291.750507,1225.752797
1459.589385,7105.977043,-6143.709319,1072.533697
1459.589715,7031.956449,-5995.668130,1072.533697
1459.590046,7105.977043,-6439.791695,1302.362347
1459.590376,6957.935855,-6291.750507,1149.143247
1459.590707,6809.894666,-6809.894666,995.924147
1459.591037,6809.894666,-6661.853478,919.314598
1459.591368,6809.894666,-6661.853478,1532.190996
1459.591698,7105.977043,-6439.791695,1225.752797
1459.592029,6957.935855,-6883.915261,1149.143247
1459.592359,6513.812290,-7105.977043,1149.143247
1459.592690,6735.874072,-7031.956449,689.485948
1459.593020,7105.977043,-7254.018232,766.095498
1459.593351,6439.791695,-6735.874072,995.924147
1459.593681,6735.874072,-6587.832884,842.705048
1459.594012,7105.977043,-6809.894666,842.705048
1459.594342,7031.956449,-6735.874072,1608.800546
1459.594673,7624.121203,-6587.832884,842.705048
1459.595003,7105.977043,-6957.935855,1072.533697
1459.595334,6809.894666,-6809.894666,919.314598
1459.595664,6883.915261,-6735.874072,919.314598
1459.595995,7328.038826,-6439.791695,1225.752797
1459.596325,6957.935855,-6439.791695,842.705048
1459.596656,7105.977043,-6661.853478,1149.143247
1459.596986,7105.977043,-6365.771101,1378.971896
1459.597317,7105.977043,-6217.729913,1455.581446
1459.597648,7328.038826,-6143.709319,1532.190996
1459.597978,6513.812290,-6217.729913,842.705048
1459.598309,6587.832884,-6365.771101,995.924147
1459.598639,6809.894666,-6661.853478,1072.533697
1459.598970,6957.935855,-6143.709319,1149.143247
1459.599300,6957.935855,-6809.894666,1149.143247
1459.599631,6513.812290,-7031.956449,1455.581446
1459.599961,7105.977043,-6883.915261,1225.752797
1459.600292,6735.874072,-6735.874072,536.266849
1459.600622,6513.812290,-6143.709319,1532.190996
1459.600953,6735.874072,-7031.956449,1072.533697
1459.601283,7402.059420,-6587.832884,1149.143247
1459.601614,7476.080014,-6513.812290,1149.143247
1459.601944,7328.038826,-6365.771101,995.924147
1459.602275,7254.018232,-5921.647536,995.924147
1459.602605,7179.997637,-6587.832884,842.705048
1459.602936,6883.915261,-6513.812290,842.705048
1459.603266,7031.956449,-6217.729913,995.924147
1459.603597,7328.038826,-6365.771101,612.876398
1459.603927,7179.997637,-6735.874072,1149.143247
1459.604258,7105.977043,-6291.750507,1455.581446
1459.604588,7254.018232,-6513.812290,1302.362347
1459.604919,7179.997637,-6217.729913,995.924147
1459.605249,6957.935855,-6661.853478,1149.143247
1459.605580,6513.812290,-6291.750507,1072.533697
1459.605910,6439.791695,-6661.853478,766.095498
1459.606241,6883.915261,-6735.874072,1072.533697
1459.606571,7179.997637,-6587.832884,612.876398
1459.606902,6883.915261,-6735.874072,1455.581446
1459.607233,6587.832884,-6587.832884,1225.752797
1459.607563,7031.956449,-6957.935855,1455.581446
1459.607894,6661.853478,-6883.915261,1149.143247
1459.608224,6365.771101,-6291.750507,995.924147
1459.608555,6957.935855,-6957.935855,689.485948
1459.608885,7105.977043,-6809.894666,1455.581446
1459.609216,7105.977043,-6661.853478,1225.752797
1459.609546,7254.018232,-6661.853478,1378.971896
1459.609877,7105.977043,-5773.606348,1149.143247
1459.610207,6883.915261,-6217.729913,919.314598
1459.610538,6809.894666,-6661.853478,1149.143247
1459.610868,7031.956449,-6291.750507,1378.971896
1459.611199,7031.956449,-6143.709319,995.924147
1459.611529,6957.935855,-6291.750507,1455.581446
1459.611860,7179.997637,-6513.812290,1378.971896
1459.612190,7105.977043,-6291.750507,995.924147
1459.612521,6735.874072,-6661.853478,995.924147
1459.612851,6661.853478,-6439.791695,1072.533697
1459.613182,6661.853478,-6735.874072,995.924147
1459.613512,7031.956449,-6809.894666,1378.971896
1459.613843,7105.977043,-6661.853478,1302.362347
1459.614173,6735.874072,-6661.853478,766.095498
1459.614504,6735.874072,-7105.977043,1225.752797
1459.614834,6735.874072,-6809.894666,919.314598
1459.615165,6809.894666,-6957.935855,919.314598
1459.615495,6809.894666,-6883.915261,919.314598
1459.615826,6587.832884,-7105.977043,1302.362347
1459.616156,7179.997637,-6809.894666,766.095498
1459.616487,7179.997637,-6143.709319,1149.143247
1459.616818,7328.038826,-6069.688724,919.314598
1459.617148,7179.997637,-6217.729913,995.924147
1459.617479,7105.977043,-6883.915261,1225.752797
1459.617809,7179.997637,-6587.832884,689.485948
1459.618140,7179.997637,-6217.729913,842.705048
1459.618469,7179.997637,-6217.729913,919.314598
1459.618799,7179.997637,-6217.729913,1532.190996
1459.619128,7179.997637,-6513.812290,995.924147
1459.619458,7105.977043,-6291.750507,689.485948
1459.619787,7254.018232,-6661.853478,1072.533697
1459.620117,7031.956449,-6217.729913,1072.533697
1459.620446,6735.874072,-6439.791695,1149.143247
1459.620776,6735.874072,-6587.832884,1072.533697
1459.621105,6957.935855,-6587.832884,1149.143247
1459.621435,6957.935855,-6439.791695,766.095498
1459.621765,7105.977043,-6587.832884,1072.533697
1459.622094,6957.935855,-6883.915261,995.924147
1459.622424,6957.935855,-7179.997637,766.095498
1459.622753,6513.812290,-6883.915261,995.924147
1459.623083,6587.832884,-7105.977043,995.924147
1459.623412,6883.915261,-6735.874072,536.266849
1459.623742,7105.977043,-6291.750507,766.095498
1459.624071,7105.977043,-6809.894666,1378.971896
1459.624401,7254.018232,-6217.729913,1149.143247
1459.624730,6661.853478,-5773.606348,1455.581446
1459.625060,6661.853478,-6661.853478,1149.143247
1459.625390,6661.853478,-6143.709319,919.314598
1459.625719,7105.977043,-6069.688724,1072.533697
1459.626049,7031.956449,-6513.812290,1225.752797
1459.626378,7328.038826,-6439.791695,1455.581446
1459.626708,6957.935855,-6365.771101,1149.143247
1459.627037,7031.956449,-6809.894666,1149.143247
1459.627367,6735.874072,-6513.812290,842.705048
1459.627696,6439.791695,-6661.853478,1149.143247
1459.628026,6735.874072,-6883.915261,919.314598
1459.628355,6661.853478,-6735.874072,1072.533697
1459.628685,6883.915261,-6513.812290,1302.362347
1459.629015,6809.894666,-6735.874072,919.314598
1459.629344,6957.935855,-6513.812290,1915.238745
1459.629674,7105.977043,-7476.080014,612.876398
1459.630003,6809.894666,-6809.894666,766.095498
1459.630333,6661.853478,-7031.956449,919.314598
1459.630662,7105.977043,-7105.977043,1302.362347
1459.630992,7105.977043,-5995.668130,689.485948
1459.631321,7402.059420,-6365.771101,995.924147
1459.631651,7476.080014,-6439.791695,459.657299
1459.631980,7328.038826,-6513.812290,1072.533697
1459.632310,7328.038826,-6439.791695,536.266849
1459.632640,7031.956449,-6661.853478,1302.362347
1459.632969,7105.977043,-6143.709319,842.705048
1459.633299,7328.038826,-6439.791695,766.095498
1459.633628,7105.977043,-6513.812290,1225.752797
1459.633958,7624.121203,-6661.853478,1302.362347
1459.634287,7179.997637,-6143.709319,842.705048
1459.634617,7105.977043,-6365.771101,1302.362347
1459.634946,7105.977043,-6217.729913,919.314598
1459.635276,6735.874072,-6513.812290,842.705048
1459.635605,7105.977043,-6661.853478,1149.143247
1459.635935,7105.977043,-6587.832884,1225.752797
1459.636265,7105.977043,-6587.832884,1149.143247
1459.636594,6439.791695,-7031.956449,1225.752797
1459.636924,6809.894666,-6439.791695,995.924147
1459.637253,6661.853478,-6661.853478,536.266849
1459.637583,6513.812290,-6957.935855,1225.752797
1459.637912,6661.853478,-6883.915261,995.924147
1459.638242,7402.059420,-6883.915261,995.924147
1459.638571,7846.182985,-6513.812290,1149.143247
1459.638901,7031.956449,-6587.832884,1149.143247
1459.639230,7105.977043,-6291.750507,1149.143247
1459.639560,7105.977043,-6513.812290,1072.533697
1459.639890,7179.997637,-6365.771101,919.314598
1459.640219,7105.977043,-6809.894666,842.705048
1459.640549,7105.977043,-6513.812290,1149.143247
1459.640878,7105.977043,-6809.894666,1072.533697
1459.641208,7031.956449,-6439.791695,1225.752797
1459.641537,6439.791695,-6217.729913,1378.971896
1459.641867,6957.935855,-6217.729913,995.924147
1459.642196,6957.935855,-6809.894666,1072.533697
1459.642526,6735.874072,-6587.832884,1072.533697
1459.642855,6513.812290,-6439.791695,306.438199
1459.643185,6735.874072,-6587.832884,1455.581446
1459.643514,6735.874072,-6809.894666,919.314598
1459.643844,6809.894666,-7031.956449,995.924147
1459.644174,7031.956449,-6587.832884,1532.190996
1459.644503,7105.977043,-7254.018232,1838.629195
1459.644833,6883.915261,-6957.935855,766.095498
1459.645162,6587.832884,-6883.915261,995.924147
1459.645492,7031.956449,-6883.915261,689.485948
1459.645821,7031.956449,-6735.874072,919.314598
1459.646151,7328.038826,-6291.750507,995.924147
1459.646480,7254.018232,-6661.853478,1072.533697
1459.646810,7328.038826,-6365.771101,1149.143247
1459.647139,7179.997637,-6957.935855,1149.143247
1459.647469,7031.956449,-6439.791695,1225.752797
1459.647799,7179.997637,-5847.626942,995.924147
1459.648128,7179.997637,-6291.750507,995.924147
1459.648458,7179.997637,-6143.709319,995.924147
1459.648787,7105.977043,-6217.729913,1149.143247
1459.649117,7254.018232,-6143.709319,766.095498
1459.649446,7031.956449,-6291.750507,842.705048
1459.649776,6883.915261,-6069.688724,842.705048
1459.650105,6587.832884,-6735.874072,842.705048
1459.650435,6661.853478,-6661.853478,1072.533697
1459.650764,7254.018232,-6661.853478,536.266849
1459.651094,7105.977043,-6587.832884,1072.533697
1459.651424,6809.894666,-6439.791695,995.924147
1459.651753,6883.915261,-6587.832884,1378.971896
1459.652083,6735.874072,-6365.771101,766.095498
1459.652412,6735.874072,-6439.791695,1149.143247
1459.652742,6883.915261,-6883.915261,766.095498
1459.653071,7105.977043,-6809.894666,766.095498
1459.653401,7179.997637,-6143.709319,1149.143247
1459.653730,7179.997637,-6291.750507,1378.971896
1459.654060,7105.977043,-6513.812290,1072.533697
1459.654389,7031.956449,-6661.853478,1149.143247
1459.654719,7105.977043,-6883.915261,1072.533697
1459.655049,6587.832884,-6291.750507,1225.752797
1459.655378,6735.874072,-6439.791695,1302.362347
1459.655708,6735.874072,-7105.977043,995.924147
1459.656037,6513.812290,-6513.812290,1072.533697
1459.656367,7179.997637,-6291.750507,995.924147
1459.656696,7328.038826,-5921.647536,995.924147
1459.657026,6883.915261,-6365.771101,1378.971896
1459.657355,6661.853478,-6365.771101,1225.752797
1459.657685,6809.894666,-6587.832884,536.266849
1459.658014,6883.915261,-6587.832884,1149.143247
1459.658344,6809.894666,-6661.853478,1149.143247
1459.658674,6883.915261,-7031.956449,1149.143247
1459.659003,6883.915261,-6809.894666,1378.971896
1459.659333,6587.832884,-6809.894666,919.314598
1459.659662,6365.771101,-6957.935855,689.485948
1459.659992,6513.812290,-6735.874072,842.705048
1459.660321,7031.956449,-7105.977043,689.485948
1459.660651,7328.038826,-6513.812290,1302.362347
1459.660980,7402.059420,-6661.853478,1149.143247
1459.661310,7698.141797,-6365.771101,1225.752797
1459.661639,7328.038826,-6513.812290,1072.533697
1459.661969,7105.977043,-6513.812290,689.485948
1459.662299,7031.956449,-6439.791695,995.924147
1459.662628,7550.100608,-6513.812290,919.314598
1459.662958,7328.038826,-6069.688724,1455.581446
1459.663287,7328.038826,-6291.750507,1225.752797
1459.663617,7031.956449,-6291.750507,1225.752797
1459.663946,6883.915261,-6291.750507,1532.190996
1459.664276,7031.956449,-5921.647536,1072.533697
1459.664605,6587.832884,-6365.771101,1072.533697
1459.664935,6957.935855,-6439.791695,995.924147
1459.665264,6883.915261,-6809.894666,1455.581446
1459.665594,7031.956449,-6735.874072,1455.581446
1459.665924,7031.956449,-6587.832884,1149.143247
1459.666253,6883.915261,-6957.935855,1149.143247
1459.666583,6661.853478,-6883.915261,919.314598
1459.666912,6735.874072,-6957.935855,1149.143247
1459.667242,6735.874072,-6513.812290,459.657299
1459.667571,6735.874072,-6883.915261,842.705048
1459.667901,7105.977043,-6439.791695,842.705048
1459.668230,6883.915261,-6587.832884,1225.752797
1459.668560,7031.956449,-6587.832884,1149.143247
1459.668889,7254.018232,-6291.750507,689.485948
1459.669219,6883.915261,-6439.791695,919.314598
1459.669548,7105.977043,-6365.771101,842.705048
1459.669878,7031.956449,-5995.668130,919.314598
1459.670208,7624.121203,-5181.441594,1072.533697
1459.670537,7698.141797,-5329.482782,919.314598
1459.670867,8068.244768,-5699.585753,1455.581446
1459.671196,8438.347739,-5995.668130,1455.581446
1459.671526,7994.224174,-6143.709319,1302.362347
1459.671855,6957.935855,-6439.791695,689.485948
1459.672185,5699.585753,-7402.059420,0.000000
1459.672514,5847.626942,-7179.997637,76.609550
1459.672844,6883.915261,-6957.935855,1225.752797
1459.673173,7550.100608,-6661.853478,1685.410096
1459.673503,8068.244768,-6069.688724,1762.019645
1459.673833,8068.244768,-4811.338623,1532.190996
1459.674162,7994.224174,-4885.359217,612.876398
1459.674492,7328.038826,-5107.421000,1072.533697
1459.674821,7624.121203,-4515.256246,1378.971896
1459.675151,8734.430116,-4959.379811,1149.143247
1459.675480,8956.491898,-4737.318029,1302.362347
1459.675810,8216.285956,-5181.441594,459.657299
1459.676139,8142.265362,-5403.503377,459.657299
1459.676469,8364.327145,-4737.318029,536.266849
1459.676798,8586.388927,-6661.853478,1225.752797
1459.677128,8290.306550,-5921.647536,919.314598
1459.677458,7994.224174,-5403.503377,306.438199
1459.677787,7920.203579,-5403.503377,76.609550
1459.678117,8438.347739,-4589.276840,1225.752797
1459.678446,8956.491898,-4589.276840,995.924147
1459.678776,9252.574275,-3701.029710,1762.019645
1459.679105,9252.574275,-4219.173869,1608.800546
1459.679435,9474.636058,-3182.885551,1072.533697
1459.679764,9104.533087,-3478.967927,1685.410096
1459.680094,9178.553681,-3849.070898,1455.581446
1459.680423,9918.759623,-2812.782580,1302.362347
1459.680753,9844.739029,-3330.926739,1685.410096
1459.681083,9548.656652,-2738.761985,1838.629195
1459.681412,9992.780217,-3997.112087,1302.362347
1459.681742,9252.574275,-4663.297435,1838.629195
1459.682071,8734.430116,-4441.235652,919.314598
1459.682401,8364.327145,-5773.606348,1149.143247
1459.682730,7994.224174,-5033.400406,1072.533697
1459.683060,7698.141797,-5995.668130,612.876398
1459.683389,7846.182985,-5403.503377,1149.143247
1459.683719,8068.244768,-5403.503377,1072.533697
1459.684048,9326.594869,-5255.462188,1302.362347
1459.684378,8512.368333,-4959.379811,766.095498
1459.684708,8068.244768,-5625.565159,0.000000
1459.685037,8290.306550,-4885.359217,0.000000
1459.685367,9104.533087,-4145.153275,-383.047749
1459.685696,9400.615463,-4219.173869,0.000000
1459.686026,10732.986159,-4145.153275,1302.362347
1459.686355,10510.924376,-4367.215058,1762.019645
1459.686685,10214.842000,-2960.823768,1378.971896
1459.687014,9400.615463,-4367.215058,842.705048
1459.687344,8956.491898,-4293.194464,1225.752797
1459.687673,8586.388927,-5477.523971,995.924147
1459.688003,8364.327145,-4885.359217,1149.143247
1459.688333,8586.388927,-3775.050304,2145.067394
1459.688662,8290.306550,-4737.318029,2221.676944
1459.688992,9104.533087,-4441.235652,1302.362347
1459.689321,8660.409521,-4145.153275,1762.019645
1459.689651,8734.430116,-4145.153275,766.095498
1459.689980,9104.533087,-4219.173869,1608.800546
1459.690310,8734.430116,-3923.091493,766.095498
1459.690639,8808.450710,-3923.091493,383.047749
1459.690969,9548.656652,-4293.194464,306.438199
1459.691298,9622.677246,-4515.256246,0.000000
1459.691628,9474.636058,-5551.544565,306.438199
1459.691957,8808.450710,-5255.462188,229.828649
1459.692287,8512.368333,-5329.482782,153.219100
1459.692617,8512.368333,-5625.565159,612.876398
1459.692946,8734.430116,-5847.626942,1455.581446
1459.693276,9104.533087,-5699.585753,2145.067394
1459.693605,9252.574275,-5181.441594,2221.676944
1459.693935,8734.430116,-4441.235652,1838.629195
1459.694264,8808.450710,-3404.947333,2145.067394
1459.694594,9252.574275,-3256.906145,1915.238745
1459.694923,9844.739029,-2516.700203,1991.848295
1459.695253,10362.883188,-1406.391290,1072.533697
1459.695582,10214.842000,-1480.411884,383.047749
1459.695912,10214.842000,-1406.391290,383.047749
1459.696242,10140.821405,-3256.906145,153.219100
1459.696571,9696.697840,-4293.194464,76.609550
1459.696901,8882.471304,-5625.565159,76.609550
1459.697230,8290.306550,-7920.203579,612.876398
1459.697560,7772.162391,-8364.327145,612.876398
1459.697889,7328.038826,-8882.471304,919.314598
1459.698219,6809.894666,-8438.347739,536.266849
1459.698548,6439.791695,-6809.894666,536.266849
1459.698878,6809.894666,-5773.606348,612.876398
1459.699207,7994.224174,-4515.256246,919.314598
1459.699537,8512.368333,-3404.947333,1685.410096
1459.699867,9844.739029,-2368.659014,1991.848295
1459.700196,10066.800811,-666.185348,1685.410096
1459.700526,9992.780217,-370.102971,1762.019645
1459.700855,10955.047942,0.000000,1072.533697
1459.701185,11843.295072,0.000000,1072.533697
1459.701514,12287.418637,-814.226536,1378.971896
1459.701844,12287.418637,-1480.411884,1685.410096
1459.702173,11917.315666,-2960.823768,1838.629195
1459.702503,10658.965565,-5551.544565,1608.800546
1459.702832,8586.388927,-8068.244768,1608.800546
1459.703162,6143.709319,-8438.347739,1302.362347
1459.703492,4811.338623,-8438.347739,-1378.971896
1459.703821,3552.988522,-9844.739029,-1149.143247
1459.704151,4441.235652,-8142.265362,-459.657299
1459.704480,6587.832884,-8068.244768,0.000000
1459.704810,8216.285956,-6365.771101,1072.533697
1459.705139,9400.615463,-3701.029710,1915.238745
1459.705469,10066.800811,-2368.659014,842.705048
1459.705798,10955.047942,-1406.391290,1915.238745
1459.706128,10658.965565,-1110.308913,1225.752797
1459.706457,11769.274478,-444.123565,536.266849
1459.706787,11843.295072,-444.123565,995.924147
1459.707117,13027.624579,-1924.535449,2145.067394
1459.707446,13989.892304,-2442.679609,2987.772442
1459.707776,12879.583391,-3404.947333,3524.039291
1459.708105,9992.780217,-3478.967927,2374.896044
1459.708435,7624.121203,-5329.482782,766.095498
1459.708764,5847.626942,-7402.059420,536.266849
1459.709094,4071.132681,-7476.080014,-306.438199
1459.709423,3256.906145,-8882.471304,-1072.533697
1459.709753,3997.112087,-7254.018232,-76.609550
1459.710082,7031.956449,-4663.297435,-536.266849
1459.710412,9770.718434,-4293.194464,459.657299
1459.710742,11843.295072,-2294.638420,1838.629195
1459.711071,12509.480420,-2368.659014,2374.896044
1459.711401,11843.295072,-1924.535449,1838.629195
1459.711730,10510.924376,-2368.659014,1378.971896
1459.712060,10288.862594,-3775.050304,1225.752797
1459.712389,9992.780217,-4145.153275,995.924147
1459.712719,9548.656652,-6735.874072,2451.505594
1459.713048,9622.677246,-7994.224174,2604.724693
1459.713378,9252.574275,-6735.874072,2681.334243
1459.713707,7624.121203,-5255.462188,612.876398
1459.714037,6143.709319,-3627.009116,-536.266849
1459.714367,6365.771101,-2886.803174,-766.095498
1459.714696,7105.977043,-3330.926739,-536.266849
1459.715026,7698.141797,-3923.091493,0.000000
1459.715355,8438.347739,-3182.885551,1378.971896
1459.715685,10584.944971,-2738.761985,383.047749
1459.716014,11103.089130,-3552.988522,1225.752797
1459.716344,10732.986159,-4737.318029,2374.896044
1459.716673,11103.089130,-5403.503377,2528.115143
1459.717003,10510.924376,-5773.606348,1915.238745
1459.717332,8808.450710,-4219.173869,1378.971896
1459.717662,7698.141797,-4737.318029,383.047749
1459.717991,7846.182985,-5181.441594,689.485948
1459.718321,7550.100608,-6957.935855,842.705048
1459.718651,7105.977043,-7994.224174,1302.362347
1459.718980,7328.038826,-4663.297435,306.438199
1459.719310,6661.853478,-4293.194464,0.000000
1459.719639,7105.977043,-4737.318029,0.000000
1459.719969,7920.203579,-5033.400406,689.485948
1459.720298,8956.491898,-4071.132681,919.314598
1459.720627,9104.533087,-2812.782580,1225.752797
1459.720957,10362.883188,-1998.556043,1378.971896
1459.721286,11843.295072,-1628.453072,1072.533697
1459.721615,10881.027347,-4663.297435,1532.190996
1459.721944,9696.697840,-5329.482782,1302.362347
1459.722273,9844.739029,-4959.379811,1378.971896
1459.722603,10288.862594,-3923.091493,1225.752797
1459.722932,10584.944971,-3775.050304,1915.238745
1459.723261,10955.047942,-4589.276840,2298.286494
1459.723590,9844.739029,-2738.761985,1149.143247
1459.723919,8512.368333,-2812.782580,306.438199
1459.724249,7846.182985,-3923.091493,689.485948
1459.724578,8734.430116,-3997.112087,842.705048
1459.724907,8512.368333,-5847.626942,383.047749
1459.725236,7105.977043,-4737.318029,-153.219100
1459.725565,7105.977043,-5847.626942,229.828649
1459.725894,8808.450710,-6809.894666,766.095498
1459.726224,9622.677246,-5551.544565,1608.800546
1459.726553,9696.697840,-4515.256246,536.266849
1459.726882,9474.636058,-4515.256246,229.828649
1459.727211,8808.450710,-6365.771101,1072.533697
1459.727540,8586.388927,-7179.997637,1685.410096
1459.727870,8882.471304,-3330.926739,1072.533697
1459.728199,9104.533087,-2664.741391,842.705048
1459.728528,9326.594869,-2886.803174,1455.581446
1459.728857,10066.800811,-3552.988522,2681.334243
1459.729186,10955.047942,-2960.823768,2528.115143
1459.729515,10584.944971,-814.226536,1838.629195
1459.729845,10288.862594,-2146.597232,919.314598
1459.730174,9400.615463,-3701.029710,1685.410096
1459.730503,8882.471304,-4219.173869,1072.533697
1459.730832,8882.471304,-5699.585753,1149.143247
1459.731161,8808.450710,-5181.441594,229.828649
1459.731491,8734.430116,-5921.647536,459.657299
1459.731820,7254.018232,-7846.182985,1302.362347
1459.732149,6291.750507,-8660.409521,-612.876398
1459.732478,4885.359217,-8586.388927,0.000000
1459.732807,4663.297435,-6957.935855,-689.485948
1459.733136,5255.462188,-7476.080014,-383.047749
1459.733466,7105.977043,-7328.038826,1302.362347
1459.733795,7846.182985,-5625.565159,1455.581446
1459.734124,8438.347739,-4515.256246,229.828649
1459.734453,9030.512492,-4145.153275,1915.238745
1459.734782,9326.594869,-4737.318029,1378.971896
1459.735112,9400.615463,-4663.297435,1149.143247
1459.735441,9104.533087,-4071.132681,1378.971896
1459.735770,9104.533087,-4737.318029,1302.362347
1459.736099,8956.491898,-4589.276840,919.314598
1459.736428,8808.450710,-5995.668130,1762.019645
1459.736757,8364.327145,-6587.832884,1455.581446
1459.737087,7994.224174,-3849.070898,-306.438199
1459.737416,5773.606348,-5625.565159,76.609550
1459.737745,6439.791695,-4737.318029,536.266849
1459.738074,8364.327145,-4589.276840,1225.752797
1459.738403,10140.821405,-3478.967927,1149.143247
1459.738733,8956.491898,-4071.132681,1685.410096
1459.739062,8290.306550,-5995.668130,1991.848295
1459.739391,7846.182985,-6513.812290,995.924147
1459.739720,5847.626942,-6587.832884,-383.047749
1459.740049,5699.585753,-7105.977043,536.266849
1459.740379,7624.121203,-7328.038826,1072.533697
1459.740708,8438.347739,-7772.162391,1072.533697
1459.741037,7105.977043,-8438.347739,1685.410096
1459.741366,6069.688724,-9252.574275,1532.190996
1459.741695,5403.503377,-7994.224174,229.828649
1459.742024,4663.297435,-8068.244768,153.219100
1459.742354,5033.400406,-8290.306550,536.266849
1459.742683,6735.874072,-5995.668130,-76.609550
1459.743012,7031.956449,-5699.585753,1072.533697
1459.743341,7402.059420,-5107.421000,842.705048
1459.743670,7698.141797,-5033.400406,1455.581446
1459.744000,7476.080014,-5403.503377,1685.410096
1459.744329,6365.771101,-7179.997637,1762.019645
1459.744658,7476.080014,-4885.359217,2834.553343
1459.744987,8734.430116,-4589.276840,2834.553343
1459.745316,9918.759623,-3627.009116,3140.991542
1459.745645,9030.512492,-3330.926739,3524.039291
1459.745975,8660.409521,-3775.050304,1455.581446
1459.746304,6513.812290,-4737.318029,383.047749
1459.746633,5329.482782,-5921.647536,1302.362347
1459.746962,5773.606348,-7624.121203,919.314598
1459.747291,6217.729913,-6809.894666,919.314598
1459.747621,6735.874072,-7328.038826,1378.971896
1459.747950,5847.626942,-8216.285956,995.924147
1459.748279,5625.565159,-8142.265362,689.485948
1459.748608,5551.544565,-7994.224174,383.047749
1459.748937,5107.421000,-7846.182985,306.438199
1459.749266,6143.709319,-8290.306550,842.705048
1459.749596,6735.874072,-8660.409521,612.876398
1459.749925,6587.832884,-8956.491898,995.924147
1459.750254,6291.750507,-8586.388927,919.314598
1459.750583,7031.956449,-7698.141797,459.657299
1459.750912,7105.977043,-6587.832884,842.705048
1459.751242,8364.327145,-6143.709319,1608.800546
1459.751571,8438.347739,-5847.626942,919.314598
1459.751900,7105.977043,-5107.421000,306.438199
1459.752229,6513.812290,-5921.647536,919.314598
1459.752558,7031.956449,-6439.791695,536.266849
1459.752887,6587.832884,-7105.977043,76.609550
1459.753217,5625.565159,-7550.100608,229.828649
1459.753546,6957.935855,-7179.997637,1302.362347
1459.753875,9104.533087,-6513.812290,1608.800546
1459.754204,9770.718434,-5773.606348,2221.676944
1459.754533,8734.430116,-5995.668130,2298.286494
1459.754863,7254.018232,-6291.750507,1149.143247
1459.755192,5699.585753,-5403.503377,-153.219100
1459.755521,5773.606348,-6217.729913,1225.752797
1459.755850,7550.100608,-5107.421000,1532.190996
1459.756179,8512.368333,-5625.565159,1149.143247
1459.756509,7476.080014,-5847.626942,1685.410096
1459.756838,6587.832884,-6587.832884,1532.190996
1459.757167,6439.791695,-5847.626942,153.219100
1459.757496,6069.688724,-6809.894666,153.219100
1459.757825,5773.606348,-6883.915261,536.266849
1459.758154,7105.977043,-6069.688724,536.266849
1459.758484,7994.224174,-6365.771101,919.314598
1459.758813,8512.368333,-6809.894666,1455.581446
1459.759142,7328.038826,-7920.203579,2068.457845
1459.759471,6365.771101,-6661.853478,306.438199
1459.759800,5329.482782,-5699.585753,153.219100
1459.760130,7254.018232,-5551.544565,1302.362347
1459.760459,9104.533087,-6439.791695,1532.190996
1459.760788,7920.203579,-7105.977043,1838.629195
1459.761117,5699.585753,-6883.915261,995.924147
1459.761446,4219.173869,-6661.853478,-842.705048
1459.761775,4367.215058,-7254.018232,-842.705048
1459.762105,5255.462188,-8142.265362,842.705048
1459.762434,7624.121203,-8808.450710,2068.457845
1459.762763,9474.636058,-6513.812290,1991.848295
1459.763092,8290.306550,-5995.668130,1378.971896
1459.763421,7031.956449,-6809.894666,1302.362347
1459.763751,6735.874072,-7550.100608,1072.533697
1459.764080,5921.647536,-7105.977043,689.485948
1459.764409,5477.523971,-6587.832884,689.485948
1459.764738,8512.368333,-4367.215058,306.438199
1459.765067,9474.636058,-6365.771101,1532.190996
1459.765396,9178.553681,-6809.894666,2451.505594
1459.765726,7772.162391,-5773.606348,2298.286494
1459.766055,6735.874072,-6069.688724,-383.047749
1459.766384,5255.462188,-7698.141797,229.828649
1459.766713,4811.338623,-8216.285956,995.924147
1459.767042,5625.565159,-7846.182985,612.876398
1459.767372,5773.606348,-6957.935855,766.095498
1459.767701,6365.771101,-6883.915261,1608.800546
1459.768030,7254.018232,-6365.771101,1378.971896
1459.768359,7105.977043,-6217.729913,1455.581446
1459.768688,7031.956449,-5403.503377,2145.067394
1459.769018,8364.327145,-3256.906145,1838.629195
1459.769347,9400.615463,-3034.844362,1608.800546
1459.769676,8956.491898,-4145.153275,2528.115143
1459.770005,8734.430116,-5403.503377,2528.115143
1459.770334,7624.121203,-6217.729913,766.095498
1459.770663,5551.544565,-7031.956449,383.047749
1459.770993,5403.503377,-7846.182985,1455.581446
1459.771322,7476.080014,-7476.080014,1532.190996
1459.771651,7624.121203,-7105.977043,1532.190996
1459.771980,4959.379811,-8660.409521,1762.019645
1459.772309,4589.276840,-6513.812290,-306.438199
1459.772639,4737.318029,-6143.709319,-919.314598
1459.772968,4441.235652,-7846.182985,1149.143247
1459.773297,7920.203579,-6365.771101,995.924147
1459.773626,9844.739029,-4959.379811,2221.676944
1459.773955,9030.512492,-7254.018232,1838.629195
1459.774284,7698.141797,-5847.626942,1072.533697
1459.774614,7254.018232,-5033.400406,1532.190996
1459.774943,6883.915261,-7476.080014,-76.609550
1459.775272,6883.915261,-7254.018232,1532.190996
1459.775601,7698.141797,-8438.347739,1685.410096
1459.775930,8216.285956,-6883.915261,995.924147
1459.776260,6587.832884,-7254.018232,612.876398
1459.776589,5033.400406,-9178.553681,995.924147
1459.776918,4811.338623,-7179.997637,-459.657299
1459.777247,3849.070898,-8438.347739,-383.047749
1459.777576,3923.091493,-8068.244768,229.828649
1459.777905,5921.647536,-5477.523971,689.485948
1459.778235,8808.450710,-5995.668130,1225.752797
1459.778564,8512.368333,-6143.709319,1838.629195
1459.778893,8364.327145,-5625.565159,2298.286494
1459.779222,7624.121203,-5033.400406,-229.828649
1459.779551,6587.832884,-6809.894666,766.095498
1459.779881,7476.080014,-6513.812290,2298.286494
1459.780210,9474.636058,-6217.729913,1838.629195
1459.780539,9030.512492,-5477.523971,1072.533697
1459.780868,7105.977043,-5995.668130,1685.410096
1459.781197,6365.771101,-6439.791695,1225.752797
1459.781526,6661.853478,-6217.729913,612.876398
1459.781856,5847.626942,-5403.503377,229.828649
1459.782185,5847.626942,-5107.421000,842.705048
1459.782514,7105.977043,-4737.318029,842.705048
1459.782843,7698.141797,-5921.647536,1378.971896
1459.783172,7550.100608,-5403.503377,1838.629195
1459.783502,8142.265362,-6143.709319,1608.800546
1459.783831,7328.038826,-5329.482782,0.000000
1459.784160,6439.791695,-7105.977043,919.314598
1459.784489,7328.038826,-8216.285956,1838.629195
1459.784818,8364.327145,-7254.018232,1072.533697
1459.785148,6957.935855,-7772.162391,1378.971896
1459.785477,5847.626942,-7105.977043,459.657299
1459.785806,5477.523971,-7624.121203,-536.266849
1459.786135,4959.379811,-7254.018232,0.000000
1459.786464,5403.503377,-7105.977043,1149.143247
1459.786793,8216.285956,-5995.668130,1991.848295
1459.787123,8808.450710,-4515.256246,689.485948
1459.787452,7031.956449,-6513.812290,1302.362347
1459.787781,6513.812290,-6661.853478,1455.581446
1459.788110,6439.791695,-7105.977043,0.000000
1459.788439,6513.812290,-8290.306550,1455.581446
1459.788769,6809.894666,-7254.018232,1302.362347
1459.789098,7624.121203,-6661.853478,536.266849
1459.789427,7624.121203,-7846.182985,1608.800546
1459.789756,7105.977043,-8216.285956,1685.410096
1459.790085,6587.832884,-6735.874072,689.485948
1459.790414,5181.441594,-7402.059420,0.000000
1459.790744,5033.400406,-7105.977043,842.705048
1459.791073,6587.832884,-5255.462188,383.047749
1459.791402,7476.080014,-6365.771101,1302.362347
1459.791731,8660.409521,-5107.421000,2757.943793
1459.792060,8808.450710,-5255.462188,2221.676944
1459.792390,7846.182985,-4293.194464,1225.752797
1459.792719,6883.915261,-4441.235652,1378.971896
1459.793048,7698.141797,-5625.565159,1685.410096
1459.793377,8216.285956,-6365.771101,1685.410096
1459.793706,7179.997637,-7254.018232,2068.457845
1459.794035,7550.100608,-5625.565159,1915.238745
1459.794365,8142.265362,-6365.771101,1225.752797
1459.794694,7328.038826,-6661.853478,689.485948
1459.795023,5773.606348,-7031.956449,1302.362347
1459.795352,6809.894666,-6069.688724,76.609550
1459.795681,7105.977043,-5329.482782,306.438199
1459.796011,7105.977043,-6661.853478,1608.800546
1459.796340,5847.626942,-6069.688724,1378.971896
1459.796669,4959.379811,-7179.997637,0.000000
1459.796998,4441.235652,-8734.430116,229.828649
1459.797327,5255.462188,-7698.141797,995.924147
1459.797656,8808.450710,-7550.100608,1915.238745
1459.797986,9104.533087,-8586.388927,2451.505594
1459.798315,7179.997637,-6883.915261,2221.676944
1459.798644,6143.709319,-8142.265362,1149.143247
1459.798973,6143.709319,-6587.832884,-306.438199
1459.799302,5107.421000,-6587.832884,229.828649
1459.799632,6143.709319,-7254.018232,995.924147
1459.799961,7254.018232,-5921.647536,842.705048
1459.800290,7105.977043,-6069.688724,536.266849
1459.800619,7105.977043,-6143.709319,1991.848295
1459.800948,7328.038826,-4885.359217,1149.143247
1459.801278,6143.709319,-5847.626942,-229.828649
1459.801607,5551.544565,-7254.018232,919.314598
1459.801936,7105.977043,-5551.544565,1762.019645
1459.802265,9992.780217,-6069.688724,1532.190996
1459.802594,9992.780217,-6069.688724,2451.505594
1459.802923,9326.594869,-5625.565159,2068.457845
1459.803253,7994.224174,-6217.729913,153.219100
1459.803582,5995.668130,-5921.647536,0.000000
1459.803911,6217.729913,-6661.853478,995.924147
1459.804240,8512.368333,-4515.256246,689.485948
1459.804569,8586.388927,-4885.359217,919.314598
1459.804899,7105.977043,-5921.647536,1455.581446
1459.805228,6661.853478,-5847.626942,689.485948
1459.805557,6513.812290,-7031.956449,153.219100
1459.805886,5847.626942,-7328.038826,766.095498
1459.806215,5773.606348,-8068.244768,842.705048
1459.806544,7402.059420,-7920.203579,1149.143247
1459.806874,7550.100608,-8068.244768,1455.581446
1459.807203,7179.997637,-8660.409521,1838.629195
1459.807532,7031.956449,-7476.080014,919.314598
1459.807861,5625.565159,-6513.812290,-229.828649
1459.808190,5847.626942,-6439.791695,-153.219100
1459.808520,6883.915261,-6365.771101,612.876398
1459.808849,8734.430116,-5477.523971,689.485948
1459.809178,8808.450710,-5995.668130,1991.848295
1459.809507,7105.977043,-4811.338623,1149.143247
1459.809836,6365.771101,-5699.585753,-229.828649
1459.810165,5477.523971,-6661.853478,-229.828649
1459.810495,5477.523971,-7994.224174,842.705048
1459.810824,7254.018232,-7550.100608,1302.362347
1459.811153,9104.533087,-7254.018232,2145.067394
1459.811482,8808.450710,-6957.935855,2298.286494
1459.811811,7846.182985,-6069.688724,1608.800546
1459.812141,5995.668130,-7254.018232,766.095498
1459.812470,5033.400406,-6439.791695,-229.828649
1459.812799,6291.750507,-5107.421000,919.314598
1459.813128,8290.306550,-4885.359217,995.924147
1459.813457,8882.471304,-5181.441594,1762.019645
1459.813786,8290.306550,-4663.297435,2528.115143
1459.814116,7846.182985,-4885.359217,612.876398
1459.814445,6957.935855,-4811.338623,0.000000
1459.814774,5625.565159,-6439.791695,842.705048
1459.815103,6439.791695,-7402.059420,1149.143247
1459.815432,7105.977043,-8438.347739,1302.362347
1459.815762,6513.812290,-7920.203579,1072.533697
1459.816091,6439.791695,-8068.244768,919.314598
1459.816420,6661.853478,-8142.265362,1225.752797
1459.816749,6365.771101,-7994.224174,1072.533697
1459.817078,5551.544565,-7476.080014,1608.800546
1459.817408,6883.915261,-5699.585753,229.828649
1459.817737,7624.121203,-5625.565159,229.828649
1459.818066,7402.059420,-5551.544565,1762.019645
1459.818395,7698.141797,-7105.977043,2451.505594
1459.818724,7920.203579,-4811.338623,459.657299
1459.819053,5921.647536,-7179.997637,995.924147
1459.819383,6143.709319,-7624.121203,995.924147
1459.819712,7624.121203,-7920.203579,1915.238745
1459.820041,7994.224174,-8660.409521,1838.629195
1459.820370,6513.812290,-8512.368333,2374.896044
1459.820700,5403.503377,-6217.729913,2757.943793
1459.821029,4737.318029,-6217.729913,306.438199
1459.821358,4663.297435,-4811.338623,306.438199
1459.821687,6957.935855,-5625.565159,1608.800546
1459.822017,8068.244768,-4737.318029,689.485948
1459.822346,8586.388927,-4367.215058,1915.238745
1459.822675,8216.285956,-5625.565159,2528.115143
1459.823004,9030.512492,-4071.132681,1455.581446
1459.823333,7698.141797,-5995.668130,459.657299
1459.823663,6365.771101,-7846.182985,1225.752797
1459.823992,6883.915261,-7402.059420,1915.238745
1459.824321,7105.977043,-7476.080014,612.876398
1459.824650,6809.894666,-7105.977043,1455.581446
1459.824980,5847.626942,-7105.977043,1072.533697
1459.825309,5625.565159,-8290.306550,0.000000
1459.825638,4737.318029,-7254.018232,153.219100
1459.825967,4145.153275,-8660.409521,1149.143247
1459.826297,7105.977043,-5773.606348,1455.581446
1459.826626,8216.285956,-5921.647536,1302.362347
1459.826955,7624.121203,-4959.379811,1608.800546
1459.827284,7698.141797,-5255.462188,842.705048
1459.827614,7772.162391,-6513.812290,1072.533697
1459.827943,7254.018232,-6143.709319,1838.629195
1459.828272,7254.018232,-7254.018232,1455.581446
1459.828601,7624.121203,-7772.162391,1455.581446
1459.828930,7254.018232,-7031.956449,1149.143247
1459.829260,6439.791695,-9178.553681,1455.581446
1459.829589,6143.709319,-7994.224174,1072.533697
1459.829918,4589.276840,-6883.915261,-459.657299
1459.830247,4885.359217,-6217.729913,153.219100
1459.830577,6513.812290,-5921.647536,459.657299
1459.830906,7624.121203,-5847.626942,153.219100
1459.831235,7698.141797,-5847.626942,1608.800546
1459.831564,8512.368333,-5921.647536,1378.971896
1459.831894,9030.512492,-4737.318029,842.705048
1459.832223,7994.224174,-4737.318029,2145.067394
1459.832552,8512.368333,-6439.791695,1762.019645
1459.832881,8512.368333,-6365.771101,842.705048
1459.833210,7624.121203,-7179.997637,766.095498
1459.833540,7254.018232,-7105.977043,1685.410096
1459.833869,7624.121203,-7328.038826,2145.067394
1459.834198,5995.668130,-7624.121203,1072.533697
1459.834527,3997.112087,-7031.956449,-229.828649
1459.834857,3997.112087,-7402.059420,-459.657299
1459.835186,5773.606348,-6143.709319,459.657299
1459.835515,6735.874072,-6883.915261,919.314598
1459.835844,7476.080014,-5477.523971,2068.457845
1459.836174,8364.327145,-5403.503377,1455.581446
1459.836503,7994.224174,-5847.626942,766.095498
1459.836832,7550.100608,-5625.565159,1455.581446
1459.837161,7328.038826,-7920.203579,1685.410096
1459.837491,8438.347739,-6143.709319,1302.362347
1459.837820,7698.141797,-6291.750507,1378.971896
1459.838149,7031.956449,-7698.141797,1149.143247
1459.838478,6439.791695,-7846.182985,612.876398
1459.838807,6439.791695,-7846.182985,842.705048
1459.839137,6291.750507,-6439.791695,766.095498
1459.839466,6291.750507,-5033.400406,229.828649
1459.839795,7328.038826,-5995.668130,383.047749
1459.840124,6883.915261,-5699.585753,536.266849
1459.840454,5995.668130,-8142.265362,842.705048
1459.840783,5551.544565,-7476.080014,536.266849
1459.841112,5921.647536,-6883.915261,689.485948
1459.841441,7402.059420,-8142.265362,1455.581446
1459.841771,8290.306550,-6587.832884,2221.676944
1459.842100,8956.491898,-7105.977043,2145.067394
1459.842429,8068.244768,-5995.668130,1838.629195
1459.842758,6513.812290,-5847.626942,919.314598
1459.843088,7031.956449,-6291.750507,-153.219100
1459.843417,7476.080014,-5477.523971,1225.752797
1459.843746,7550.100608,-6809.894666,1378.971896
1459.844075,6217.729913,-7402.059420,1302.362347
1459.844404,6735.874072,-5329.482782,1455.581446
1459.844734,7179.997637,-4959.379811,536.266849
1459.845063,6587.832884,-5847.626942,383.047749
1459.845392,5477.523971,-6957.935855,1762.019645
1459.845721,5329.482782,-7476.080014,459.657299
1459.846051,5847.626942,-7698.141797,0.000000
1459.846380,6809.894666,-6439.791695,1378.971896
1459.846709,9400.615463,-5921.647536,1991.848295
1459.847038,9326.594869,-6143.709319,2451.505594
1459.847368,8142.265362,-6291.750507,2068.457845
1459.847697,7402.059420,-6069.688724,1149.143247
1459.848026,8364.327145,-4589.276840,919.314598
1459.848355,8586.388927,-5033.400406,1378.971896
1459.848684,7254.018232,-5847.626942,1608.800546
1459.849014,6365.771101,-5699.585753,0.000000
1459.849343,4811.338623,-6143.709319,-766.095498
1459.849672,4737.318029,-7476.080014,383.047749
1459.850001,5625.565159,-7772.162391,1378.971896
1459.850331,6957.935855,-8068.244768,995.924147
1459.850660,6291.750507,-8142.265362,919.314598
1459.850989,5773.606348,-7031.956449,919.314598
1459.851318,6365.771101,-7624.121203,612.876398
1459.851648,6883.915261,-7550.100608,1302.362347
1459.851977,6957.935855,-6809.894666,1532.190996
1459.852306,8660.409521,-5477.523971,1685.410096
1459.852635,8882.471304,-5033.400406,1455.581446
1459.852965,7550.100608,-7402.059420,1838.629195
1459.853294,7105.977043,-6365.771101,1149.143247
1459.853623,6587.832884,-5107.421000,229.828649
1459.853952,4959.379811,-6217.729913,-689.485948
1459.854281,4219.173869,-7031.956449,0.000000
1459.854611,5773.606348,-7994.224174,383.047749
1459.854940,7624.121203,-7920.203579,1225.752797
1459.855269,7476.080014,-7402.059420,1608.800546
1459.855598,7328.038826,-5847.626942,1302.362347
1459.855928,6957.935855,-6291.750507,383.047749
1459.856257,6217.729913,-6735.874072,689.485948
1459.856586,6439.791695,-7105.977043,1455.581446
1459.856915,7994.224174,-5477.523971,1532.190996
1459.857245,8660.409521,-5625.565159,1685.410096
1459.857574,7920.203579,-5551.544565,1762.019645
1459.857903,7698.141797,-5773.606348,1915.238745
1459.858232,7328.038826,-5773.606348,383.047749
1459.858561,6661.853478,-6291.750507,1455.581446
1459.858891,6735.874072,-6291.750507,919.314598
1459.859220,7254.018232,-7254.018232,1149.143247
1459.859549,7105.977043,-6439.791695,1302.362347
1459.859878,7031.956449,-6217.729913,1225.752797
1459.860208,6587.832884,-5847.626942,766.095498
1459.860537,6291.750507,-6513.812290,306.438199
1459.860866,7179.997637,-6587.832884,842.705048
1459.861195,8512.368333,-5403.503377,1149.143247
1459.861525,8438.347739,-6513.812290,1225.752797
1459.861854,8290.306550,-5699.585753,1455.581446
1459.862183,7031.956449,-7031.956449,1302.362347
1459.862512,5921.647536,-5995.668130,383.047749
1459.862842,5551.544565,-7105.977043,766.095498
1459.863171,6587.832884,-7624.121203,1072.533697
1459.863500,7698.141797,-7476.080014,1455.581446
1459.863829,6957.935855,-7476.080014,1915.238745
1459.864158,7328.038826,-6957.935855,1991.848295
1459.864488,7105.977043,-5995.668130,1149.143247
1459.864817,6069.688724,-7254.018232,536.266849
1459.865146,5181.441594,-6217.729913,153.219100
1459.865475,6291.750507,-5773.606348,1072.533697
1459.865805,7179.997637,-6291.750507,766.095498
1459.866134,7105.977043,-5699.585753,766.095498
1459.866463,6735.874072,-7105.977043,1149.143247
1459.866792,7031.956449,-6439.791695,536.266849
1459.867122,6957.935855,-7254.018232,1072.533697
1459.867451,6513.812290,-6957.935855,1225.752797
1459.867780,7550.100608,-6957.935855,1225.752797
1459.868109,8808.450710,-6513.812290,1225.752797
1459.868439,8438.347739,-6069.688724,2298.286494
1459.868768,7624.121203,-6291.750507,2068.457845
1459.869097,6735.874072,-6217.729913,1225.752797
1459.869426,5699.585753,-5255.462188,0.000000
1459.869755,5403.503377,-5625.565159,1455.581446
1459.870085,7550.100608,-4737.318029,1225.752797
1459.870414,8142.265362,-4589.276840,766.095498
1459.870743,7624.121203,-5403.503377,1685.410096
1459.871072,7698.141797,-6217.729913,1149.143247
1459.871402,6439.791695,-7105.977043,153.219100
1459.871731,4737.318029,-8290.306550,229.828649
1459.872060,5551.544565,-8956.491898,919.314598
1459.872389,7698.141797,-9178.553681,1532.190996
1459.872719,7624.121203,-9252.574275,2451.505594
1459.873048,7031.956449,-7476.080014,1838.629195
1459.873377,6661.853478,-6809.894666,536.266849
1459.873706,4811.338623,-7105.977043,0.000000
1459.874035,3997.112087,-7179.997637,-153.219100
1459.874365,5551.544565,-6513.812290,229.828649
1459.874694,7772.162391,-5625.565159,1455.581446
1459.875023,7846.182985,-6513.812290,1455.581446
1459.875352,7698.141797,-5107.421000,1302.362347
1459.875682,7031.956449,-6661.853478,153.219100
1459.876011,6439.791695,-7105.977043,76.609550
1459.876340,6513.812290,-7698.141797,919.314598
1459.876669,7550.100608,-7772.162391,1149.143247
1459.876999,7920.203579,-7105.977043,1608.800546
1459.877328,7772.162391,-6957.935855,1762.019645
1459.877657,7328.038826,-7179.997637,1455.581446
1459.877986,5921.647536,-6143.709319,1149.143247
1459.878316,5477.523971,-5033.400406,1149.143247
1459.878645,6809.894666,-4071.132681,1608.800546
1459.878974,8216.285956,-3552.988522,1915.238745
1459.879303,8660.409521,-3108.864956,1685.410096
1459.879632,8216.285956,-4145.153275,2068.457845
1459.879962,7994.224174,-4589.276840,1302.362347
1459.880291,6957.935855,-5699.585753,76.609550
1459.880620,5847.626942,-6957.935855,153.219100
1459.880949,5847.626942,-8956.491898,689.485948
1459.881279,6883.915261,-9400.615463,766.095498
1459.881608,6957.935855,-9474.636058,1149.143247
1459.881937,6957.935855,-7476.080014,1532.190996
1459.882266,7105.977043,-6217.729913,1455.581446
1459.882596,6291.750507,-7254.018232,1149.143247
1459.882925,5847.626942,-5255.462188,766.095498
1459.883254,6661.853478,-5477.523971,1149.143247
1459.883583,8142.265362,-4959.379811,842.705048
1459.883912,7402.059420,-5329.482782,1225.752797
1459.884242,7476.080014,-6735.874072,1455.581446
1459.884571,6809.894666,-6291.750507,842.705048
1459.884900,6143.709319,-8068.244768,459.657299
1459.885229,6439.791695,-7550.100608,383.047749
1459.885559,7105.977043,-7846.182985,612.876398
1459.885888,7772.162391,-8882.471304,1072.533697
1459.886217,7031.956449,-7920.203579,1072.533697
1459.886546,5921.647536,-8660.409521,1149.143247
1459.886876,5329.482782,-7698.141797,383.047749
1459.887205,5847.626942,-6365.771101,383.047749
1459.887534,6809.894666,-6143.709319,1072.533697
1459.887863,8364.327145,-5255.462188,2068.457845
1459.888193,8512.368333,-4811.338623,2298.286494
1459.888522,8734.430116,-3849.070898,1685.410096
1459.888851,8586.388927,-4737.318029,1225.752797
1459.889180,7328.038826,-5107.421000,612.876398
1459.889509,6439.791695,-6809.894666,536.266849
1459.889839,6661.853478,-7994.224174,1608.800546
1459.890168,7105.977043,-7402.059420,1225.752797
1459.890497,7846.182985,-7179.997637,842.705048
1459.890826,6957.935855,-7179.997637,1685.410096
1459.891156,7105.977043,-6957.935855,1072.533697
1459.891485,6439.791695,-6069.688724,612.876398
1459.891814,6291.750507,-5255.462188,1608.800546
1459.892143,8142.265362,-4219.173869,1072.533697
1459.892473,8808.450710,-3552.988522,1149.143247
1459.892802,7698.141797,-5921.647536,1838.629195
1459.893131,7402.059420,-5625.565159,1762.019645
1459.893460,6957.935855,-5995.668130,919.314598
1459.893790,5847.626942,-7105.977043,919.314598
1459.894119,6143.709319,-8586.388927,1762.019645
1459.894448,7031.956449,-8512.368333,1455.581446
1459.894777,6365.771101,-8068.244768,383.047749
1459.895106,4885.359217,-8216.285956,1225.752797
1459.895436,5403.503377,-7105.977043,306.438199
1459.895765,5551.544565,-7476.080014,-919.314598
1459.896094,5773.606348,-6143.709319,919.314598
1459.896423,7328.038826,-7031.956449,1608.800546
1459.896753,8216.285956,-6143.709319,536.266849
1459.897082,6661.853478,-5255.462188,612.876398
1459.897411,7179.997637,-6587.832884,229.828649
1459.897740,7920.203579,-6957.935855,459.657299
1459.898070,6513.812290,-6291.750507,459.657299
1459.898399,5329.482782,-8512.368333,1149.143247
1459.898728,6809.894666,-7031.956449,1455.581446
1459.899057,8882.471304,-6513.812290,1225.752797
1459.899386,8512.368333,-7105.977043,2145.067394
1459.899716,7402.059420,-6365.771101,1302.362347
1459.900045,6735.874072,-5847.626942,153.219100
1459.900374,6513.812290,-4441.235652,0.000000
1459.900703,7105.977043,-4219.173869,842.705048
1459.901033,8882.471304,-3997.112087,1072.533697
1459.901362,8808.450710,-5255.462188,1608.800546
1459.901691,7624.121203,-6291.750507,1915.238745
1459.902020,7402.059420,-5699.585753,842.705048
1459.902350,6143.709319,-6809.894666,612.876398
1459.902679,5847.626942,-7920.203579,1225.752797
1459.903008,6217.729913,-8216.285956,536.266849
1459.903337,6143.709319,-8734.430116,995.924147
1459.903667,6291.750507,-8956.491898,842.705048
1459.903996,6661.853478,-8586.388927,919.314598
1459.904325,6957.935855,-6957.935855,1225.752797
1459.904654,6439.791695,-7254.018232,0.000000
1459.904983,6365.771101,-5699.585753,689.485948
1459.905313,7254.018232,-4737.318029,1072.533697
1459.905642,8660.409521,-5181.441594,1532.190996
1459.905971,8438.347739,-3849.070898,1072.533697
1459.906300,7179.997637,-4737.318029,766.095498
1459.906630,7105.977043,-5403.503377,612.876398
1459.906959,6735.874072,-7328.038826,995.924147
1459.907288,7105.977043,-8290.306550,2451.505594
1459.907617,8142.265362,-7179.997637,1762.019645
1459.907947,7846.182985,-7179.997637,1378.971896
1459.908276,6735.874072,-6957.935855,1072.533697
1459.908605,5625.565159,-7402.059420,612.876398
1459.908934,5329.482782,-7254.018232,306.438199
1459.909263,5847.626942,-6883.915261,842.705048
1459.909593,6513.812290,-5995.668130,1302.362347
1459.909922,7624.121203,-4663.297435,1072.533697
1459.910251,7328.038826,-5699.585753,766.095498
1459.910580,7105.977043,-5847.626942,1762.019645
1459.910910,7105.977043,-4885.359217,612.876398
1459.911239,6809.894666,-5773.606348,612.876398
1459.911568,7402.059420,-6291.750507,1225.752797
1459.911897,8512.368333,-7550.100608,1991.848295
1459.912227,8808.450710,-7994.224174,1762.019645
1459.912556,7105.977043,-8068.244768,1915.238745
1459.912885,6143.709319,-6809.894666,842.705048
1459.913214,5773.606348,-6809.894666,459.657299
1459.913544,5773.606348,-7105.977043,306.438199
1459.913873,6439.791695,-6587.832884,995.924147
1459.914202,7550.100608,-5625.565159,1149.143247
1459.914531,8068.244768,-5181.441594,1455.581446
1459.914860,8364.327145,-4885.359217,1685.410096
1459.915190,7105.977043,-5329.482782,842.705048
1459.915519,5699.585753,-6883.915261,-459.657299
1459.915848,5773.606348,-7105.977043,0.000000
1459.916177,7179.997637,-8068.244768,995.924147
1459.916507,8364.327145,-7624.121203,1378.971896
1459.916836,7846.182985,-7772.162391,2298.286494
1459.917165,8068.244768,-6661.853478,2068.457845
1459.917494,6735.874072,-6661.853478,0.000000
1459.917824,4885.359217,-7179.997637,536.266849
1459.918153,5403.503377,-5921.647536,1072.533697
1459.918482,7994.224174,-5107.421000,919.314598
1459.918811,8364.327145,-5403.503377,1685.410096
1459.919141,7550.100608,-5255.462188,1532.190996
1459.919470,7624.121203,-5255.462188,1532.190996
1459.919799,6957.935855,-6069.688724,1532.190996
1459.920128,5033.400406,-7994.224174,459.657299
1459.920457,5181.441594,-7698.141797,766.095498
1459.920787,6217.729913,-7179.997637,0.000000
1459.921116,6439.791695,-8438.347739,1532.190996
1459.921445,6661.853478,-8290.306550,2145.067394
1459.921774,6735.874072,-7846.182985,1455.581446
1459.922103,6439.791695,-7179.997637,612.876398
1459.922432,6883.915261,-7402.059420,2145.067394
1459.922761,8068.244768,-5255.462188,1685.410096
1459.923090,7698.141797,-4071.132681,2145.067394
1459.923419,7994.224174,-4589.276840,995.924147
1459.923749,7994.224174,-4515.256246,1762.019645
1459.924078,7254.018232,-4959.379811,1072.533697
1459.924407,5551.544565,-6587.832884,995.924147
1459.924736,5329.482782,-7846.182985,842.705048
1459.925065,6513.812290,-8290.306550,766.095498
1459.925394,6513.812290,-7920.203579,689.485948
1459.925723,6143.709319,-7698.141797,1608.800546
1459.926052,6291.750507,-7846.182985,1225.752797
1459.926381,5847.626942,-7846.182985,153.219100
1459.926710,5625.565159,-7920.203579,536.266849
1459.927039,7031.956449,-6291.750507,1532.190996
1459.927368,8512.368333,-5847.626942,1302.362347
1459.927697,8734.430116,-4959.379811,1225.752797
1459.928027,7994.224174,-4441.235652,1608.800546
1459.928356,8438.347739,-3552.988522,919.314598
1459.928685,8068.244768,-5403.503377,1072.533697
1459.929014,6439.791695,-6809.894666,612.876398
1459.929343,6439.791695,-6809.894666,1685.410096
1459.929672,7698.141797,-8068.244768,1532.190996
1459.930001,6735.874072,-7920.203579,1072.533697
1459.930330,6143.709319,-7624.121203,1991.848295
1459.930659,6439.791695,-8142.265362,229.828649
1459.930988,5921.647536,-6957.935855,0.000000
1459.931317,5403.503377,-7698.141797,919.314598
1459.931646,6957.935855,-6365.771101,1225.752797
1459.931975,9326.594869,-5255.462188,1455.581446
1459.932305,8512.368333,-6217.729913,1455.581446
1459.932634,7105.977043,-4737.318029,1455.581446
1459.932963,6735.874072,-4811.338623,153.219100
1459.933292,6661.853478,-5403.503377,306.438199
1459.933621,7105.977043,-6883.915261,2374.896044
1459.933950,8438.347739,-6587.832884,1915.238745
1459.934279,8290.306550,-6809.894666,1378.971896
1459.934608,6587.832884,-7772.162391,1302.362347
1459.934937,6735.874072,-8290.306550,919.314598
1459.935266,6069.688724,-6883.915261,-76.609550
1459.935595,5181.441594,-7179.997637,459.657299
1459.935924,6217.729913,-7105.977043,995.924147
1459.936253,8216.285956,-5995.668130,612.876398
1459.936583,7846.182985,-5477.523971,1302.362347
1459.936912,7698.141797,-5255.462188,1302.362347
1459.937241,7772.162391,-5181.441594,919.314598
1459.937570,6069.688724,-5847.626942,229.828649
1459.937899,5625.565159,-7179.997637,995.924147
1459.938228,7105.977043,-7179.997637,1685.410096
1459.938557,8364.327145,-6143.709319,1455.581446
1459.938886,7328.038826,-7179.997637,1685.410096
1459.939215,7254.018232,-7179.997637,2451.505594
1459.939544,7476.080014,-7105.977043,536.266849
1459.939873,5625.565159,-7031.956449,153.219100
1459.940202,5329.482782,-6735.874072,689.485948
1459.940531,6809.894666,-7402.059420,0.000000
1459.940861,7031.956449,-6661.853478,229.828649
1459.941190,6957.935855,-6439.791695,1225.752797
1459.941519,7920.203579,-5847.626942,766.095498
1459.941848,8142.265362,-6143.709319,689.485948
1459.942177,7105.977043,-6957.935855,1532.190996
1459.942506,7550.100608,-6735.874072,1915.238745
1459.942835,7105.977043,-5921.647536,842.705048
1459.943164,6587.832884,-6661.853478,995.924147
1459.943493,6735.874072,-7402.059420,1762.019645
1459.943822,7402.059420,-6883.915261,919.314598
1459.944151,6143.709319,-7031.956449,1608.800546
1459.944480,5551.544565,-7476.080014,1072.533697
1459.944809,7402.059420,-5995.668130,1149.143247
1459.945139,7772.162391,-5329.482782,383.047749
1459.945468,7105.977043,-5699.585753,842.705048
1459.945797,6735.874072,-4737.318029,1762.019645
1459.946126,6809.894666,-6587.832884,76.609550
1459.946455,5477.523971,-6291.750507,-306.438199
1459.946784,5995.668130,-8216.285956,1608.800546
1459.947113,7624.121203,-8808.450710,1532.190996
1459.947442,7402.059420,-6661.853478,995.924147
1459.947771,6365.771101,-7994.224174,2298.286494
1459.948100,6217.729913,-7105.977043,995.924147
1459.948429,5773.606348,-5477.523971,0.000000
1459.948758,5995.668130,-5625.565159,229.828649
1459.949087,7476.080014,-5107.421000,1072.533697
1459.949417,9474.636058,-4737.318029,1532.190996
1459.949746,9400.615463,-5625.565159,1991.848295
1459.950075,8142.265362,-5181.441594,2298.286494
1459.950404,8216.285956,-4515.256246,842.705048
1459.950733,7031.956449,-5477.523971,0.000000
1459.951062,6291.750507,-6439.791695,536.266849
1459.951391,6883.915261,-7624.121203,1455.581446
1459.951720,7772.162391,-7476.080014,1455.581446
1459.952049,7105.977043,-7476.080014,995.924147
1459.952378,6143.709319,-6809.894666,1225.752797
1459.952707,5625.565159,-9474.636058,919.314598
1459.953036,4959.379811,-8290.306550,383.047749
1459.953365,5403.503377,-7105.977043,689.485948
1459.953695,5995.668130,-8068.244768,612.876398
1459.954024,7476.080014,-5477.523971,1149.143247
1459.954353,7772.162391,-6439.791695,1302.362347
1459.954682,7402.059420,-4959.379811,229.828649
1459.955011,6809.894666,-6069.688724,0.000000
1459.955340,7550.100608,-7254.018232,1762.019645
1459.955669,7698.141797,-4811.338623,2068.457845
1459.955998,8290.306550,-6365.771101,1149.143247
1459.956327,7772.162391,-6365.771101,1685.410096
1459.956656,7476.080014,-5995.668130,1378.971896
1459.956985,6587.832884,-7476.080014,536.266849
1459.957314,5551.544565,-7476.080014,1378.971896
1459.957643,6439.791695,-6143.709319,306.438199
1459.957973,8068.244768,-4811.338623,306.438199
1459.958302,7550.100608,-6513.812290,1302.362347
1459.958631,7550.100608,-6513.812290,1455.581446
1459.958960,8216.285956,-4885.359217,1455.581446
1459.959289,7179.997637,-6069.688724,76.609550
1459.959618,6217.729913,-6217.729913,612.876398
1459.959947,6587.832884,-6069.688724,1455.581446
1459.960276,7328.038826,-7846.182985,612.876398
1459.960605,8068.244768,-6883.915261,1838.629195
1459.960934,7920.203579,-6661.853478,2757.943793
1459.961263,8438.347739,-6587.832884,1685.410096
1459.961592,5773.606348,-6883.915261,612.876398
1459.961921,4219.173869,-7846.182985,306.438199
1459.962251,5551.544565,-7031.956449,153.219100
1459.962580,7105.977043,-5847.626942,459.657299
1459.962909,7772.162391,-6439.791695,2221.676944
1459.963238,8290.306550,-5847.626942,2374.896044
1459.963567,7031.956449,-5847.626942,229.828649
1459.963896,4589.276840,-7179.997637,0.000000
1459.964225,5033.400406,-7179.997637,306.438199
1459.964554,7550.100608,-7624.121203,842.705048
1459.964883,7550.100608,-8068.244768,1072.533697
1459.965212,6513.812290,-8512.368333,2298.286494
1459.965541,6735.874072,-6809.894666,766.095498
1459.965870,6069.688724,-6217.729913,-306.438199
1459.966199,5329.482782,-7105.977043,536.266849
1459.966529,7105.977043,-6143.709319,1225.752797
1459.966858,8808.450710,-3701.029710,689.485948
1459.967187,7846.182985,-6291.750507,1838.629195
1459.967516,7698.141797,-5773.606348,1762.019645
1459.967845,6735.874072,-5477.523971,766.095498
1459.968174,5625.565159,-5625.565159,0.000000
1459.968503,5181.441594,-7031.956449,689.485948
1459.968832,8068.244768,-7550.100608,2221.676944
1459.969161,9844.739029,-6661.853478,2298.286494
1459.969490,8882.471304,-5995.668130,2451.505594
1459.969819,7846.182985,-4737.318029,1532.190996
1459.970148,7550.100608,-4737.318029,306.438199
1459.970477,5995.668130,-6809.894666,536.266849
1459.970807,5995.668130,-5773.606348,1072.533697
1459.971136,6957.935855,-6587.832884,766.095498
1459.971465,7105.977043,-6587.832884,2145.067394
1459.971794,7476.080014,-6069.688724,689.485948
1459.972123,6735.874072,-6143.709319,459.657299
1459.972452,5625.565159,-6291.750507,383.047749
1459.972781,6069.688724,-7402.059420,1149.143247
1459.973110,7105.977043,-6291.750507,1455.581446
1459.973439,7772.162391,-6883.915261,1455.581446
1459.973768,7402.059420,-8290.306550,2451.505594
1459.974097,7105.977043,-6513.812290,1838.629195
1459.974426,5403.503377,-6957.935855,1532.190996
1459.974755,4441.235652,-7254.018232,459.657299
1459.975085,5255.462188,-7105.977043,766.095498
1459.975414,6513.812290,-6735.874072,1149.143247
1459.975743,7624.121203,-6513.812290,2068.457845
1459.976072,7179.997637,-7105.977043,2374.896044
1459.976401,7105.977043,-5847.626942,995.924147
1459.976730,6069.688724,-6291.750507,612.876398
1459.977059,4959.379811,-7179.997637,76.609550
1459.977388,4589.276840,-7550.100608,612.876398
1459.977717,5995.668130,-8068.244768,612.876398
1459.978046,7402.059420,-7698.141797,1225.752797
1459.978375,8660.409521,-6735.874072,2374.896044
1459.978704,8882.471304,-6069.688724,2451.505594
1459.979033,7254.018232,-5995.668130,766.095498
1459.979363,5921.647536,-5403.503377,306.438199
1459.979692,7772.162391,-4441.235652,1149.143247
1459.980021,9548.656652,-4737.318029,842.705048
1459.980350,9326.594869,-5181.441594,2374.896044
1459.980679,8660.409521,-6735.874072,2298.286494
1459.981008,7994.224174,-6069.688724,383.047749
1459.981337,5329.482782,-6143.709319,-153.219100
1459.981666,3849.070898,-7698.141797,153.219100
1459.981995,5847.626942,-7476.080014,-153.219100
1459.982324,7254.018232,-7994.224174,612.876398
1459.982653,7402.059420,-6883.915261,2068.457845
1459.982982,7105.977043,-6809.894666,1302.362347
1459.983311,7179.997637,-6809.894666,383.047749
1459.983641,5181.441594,-6957.935855,612.876398
1459.983970,6439.791695,-5921.647536,689.485948
1459.984299,7994.224174,-5921.647536,1455.581446
1459.984628,8734.430116,-5329.482782,2068.457845
1459.984957,9104.533087,-6217.729913,2298.286494
1459.985286,8808.450710,-4737.318029,1072.533697
1459.985615,6809.894666,-6587.832884,229.828649
1459.985944,5329.482782,-7550.100608,0.000000
1459.986273,5107.421000,-7698.141797,0.000000
1459.986602,5255.462188,-8290.306550,919.314598
1459.986931,6735.874072,-7994.224174,536.266849
1459.987260,7920.203579,-6883.915261,1302.362347
1459.987589,7105.977043,-6957.935855,919.314598
1459.987919,6217.729913,-7402.059420,229.828649
1459.988248,5921.647536,-5699.585753,536.266849
1459.988577,7254.018232,-5033.400406,766.095498
1459.988906,7772.162391,-5921.647536,1302.362347
1459.989235,8068.244768,-5625.565159,2298.286494
1459.989564,8290.306550,-5625.565159,1149.143247
1459.989893,7624.121203,-6957.935855,1149.143247
1459.990222,6513.812290,-6661.853478,1685.410096
1459.990551,6587.832884,-7254.018232,1378.971896
1459.990880,7254.018232,-6365.771101,383.047749
1459.991209,7031.956449,-6587.832884,766.095498
1459.991538,7846.182985,-7105.977043,1915.238745
1459.991867,8216.285956,-5699.585753,1225.752797
1459.992197,6291.750507,-5921.647536,0.000000
1459.992526,5625.565159,-5921.647536,689.485948
1459.992855,6735.874072,-4885.359217,612.876398
1459.993184,8142.265362,-6513.812290,1455.581446
1459.993513,8290.306550,-5773.606348,2298.286494
1459.993842,8734.430116,-5625.565159,2145.067394
1459.994171,8068.244768,-5921.647536,536.266849
1459.994500,6069.688724,-6883.915261,229.828649
1459.994829,5033.400406,-9104.533087,842.705048
1459.995158,5699.585753,-8068.244768,383.047749
1459.995487,5995.668130,-8216.285956,842.705048
1459.995816,7031.956449,-7254.018232,1608.800546
1459.996145,7698.141797,-7328.038826,1991.848295
1459.996475,6735.874072,-7476.080014,1225.752797
1459.996804,4515.256246,-6439.791695,-536.266849
1459.997133,4441.235652,-5995.668130,-229.828649
1459.997462,6809.894666,-5403.503377,1072.533697
1459.997791,8586.388927,-5329.482782,1685.410096
1459.998120,8956.491898,-5625.565159,3064.381992
1459.998449,9030.512492,-5033.400406,2681.334243
1459.998778,7179.997637,-6957.935855,919.314598
1459.999107,4959.379811,-6883.915261,306.438199
1459.999436,4515.256246,-8660.409521,459.657299
1459.999765,5847.626942,-9474.636058,153.219100
1460.000094,6217.729913,-8438.347739,1072.533697
1460.000423,5625.565159,-9326.594869,1225.752797
1460.000753,6957.935855,-8216.285956,1302.362347
1460.001082,5921.647536,-7698.141797,0.000000
1460.001411,3775.050304,-7550.100608,-536.266849
1460.001740,3849.070898,-7031.956449,306.438199
1460.002069,6365.771101,-6809.894666,76.609550
1460.002398,7772.162391,-6513.812290,919.314598
1460.002727,8290.306550,-5921.647536,1838.629195
1460.003056,8512.368333,-5107.421000,612.876398
1460.003385,6957.935855,-7031.956449,612.876398
1460.003714,5847.626942,-7698.141797,1072.533697
1460.004043,6587.832884,-8364.327145,842.705048
1460.004372,7624.121203,-9178.553681,1532.190996
1460.004701,6439.791695,-9474.636058,2451.505594
1460.005031,5773.606348,-7698.141797,919.314598
1460.005360,4737.318029,-8068.244768,0.000000
1460.005689,3775.050304,-7994.224174,0.000000
1460.006018,4293.194464,-8142.265362,612.876398
1460.006347,6439.791695,-6587.832884,306.438199
1460.006676,6143.709319,-6365.771101,1149.143247
1460.007005,6513.812290,-7105.977043,2374.896044
1460.007334,7550.100608,-6143.709319,2451.505594
1460.007663,6587.832884,-5847.626942,2068.457845
1460.007992,4663.297435,-7402.059420,229.828649
1460.008321,4071.132681,-9400.615463,842.705048
1460.008650,4589.276840,-13027.624579,1455.581446
1460.008979,4959.379811,-10881.027347,919.314598
1460.009309,3034.844362,-10362.883188,1685.410096
1460.009638,3256.906145,-10658.965565,1608.800546
1460.009967,4441.235652,-7920.203579,995.924147
1460.010296,4515.256246,-7772.162391,1915.238745
1460.010625,4589.276840,-4885.359217,2451.505594
1460.010954,5699.585753,-4367.215058,1608.800546
1460.011283,6217.729913,-4145.153275,995.924147
1460.011612,6217.729913,-4737.318029,919.314598
1460.011941,6513.812290,-6957.935855,1915.238745
1460.012270,5255.462188,-9548.656652,1455.581446
1460.012599,3701.029710,-11103.089130,536.266849
1460.012928,2812.782580,-11029.068536,459.657299
1460.013257,3775.050304,-11103.089130,-842.705048
1460.013587,4737.318029,-13027.624579,1378.971896
1460.013916,4367.215058,-12435.459826,1455.581446
1460.014245,4145.153275,-11991.336260,0.000000
1460.014574,3256.906145,-10362.883188,306.438199
1460.014903,2664.741391,-9844.739029,383.047749
1460.015232,3923.091493,-8438.347739,919.314598
1460.015561,5033.400406,-6883.915261,1532.190996
1460.015890,6365.771101,-6587.832884,1838.629195
1460.016219,7698.141797,-4441.235652,2834.553343
1460.016548,8216.285956,-2664.741391,2374.896044
1460.016877,7476.080014,-2960.823768,919.314598
1460.017206,5551.544565,-7254.018232,766.095498
1460.017535,4737.318029,-11473.192101,1532.190996
1460.017865,5033.400406,-13175.665768,919.314598
1460.018194,3923.091493,-13027.624579,766.095498
1460.018523,3256.906145,-13175.665768,383.047749
1460.018852,3997.112087,-13175.665768,995.924147
1460.019181,4441.235652,-10955.047942,995.924147
1460.019510,3775.050304,-7476.080014,919.314598
1460.019839,4737.318029,-5033.400406,766.095498
1460.020168,4959.379811,-5625.565159,1378.971896
1460.020497,4663.297435,-6439.791695,1302.362347
1460.020826,4663.297435,-5995.668130,919.314598
1460.021155,5921.647536,-5107.421000,1072.533697
1460.021484,6365.771101,-6217.729913,1838.629195
1460.021813,7624.121203,-7624.121203,3064.381992
1460.022142,7550.100608,-6587.832884,2528.115143
1460.022471,6513.812290,-7328.038826,229.828649
1460.022800,4515.256246,-9918.759623,76.609550
1460.023129,3701.029710,-12065.356855,612.876398
1460.023458,3923.091493,-13397.727550,0.000000
1460.023787,2812.782580,-13027.624579,-76.609550
1460.024116,2368.659014,-11991.336260,-383.047749
1460.024445,3330.926739,-11695.253884,76.609550
1460.024774,3404.947333,-10732.986159,1532.190996
1460.025104,2368.659014,-8734.430116,1915.238745
1460.025433,3478.967927,-4367.215058,459.657299
1460.025762,5699.585753,-1924.535449,1302.362347
1460.026091,8438.347739,-3108.864956,2451.505594
1460.026420,9326.594869,-5477.523971,4596.572988
1460.026749,7772.162391,-5699.585753,3983.696590
1460.027078,5995.668130,-5107.421000,306.438199
1460.027407,4071.132681,-7698.141797,-689.485948
1460.027736,3182.885551,-13545.768739,766.095498
1460.028065,4071.132681,-15248.242405,1378.971896
1460.028394,3849.070898,-12139.377449,383.047749
1460.028723,3330.926739,-9400.615463,-919.314598
1460.029052,5551.544565,-9400.615463,-306.438199
1460.029381,6439.791695,-9178.553681,1608.800546
1460.029710,5033.400406,-10288.862594,1991.848295
1460.030039,2960.823768,-9326.594869,0.000000
1460.030368,2146.597232,-7698.141797,-1455.581446
1460.030697,2516.700203,-8734.430116,229.828649
1460.031026,4737.318029,-9178.553681,1378.971896
1460.031355,7031.956449,-8586.388927,2681.334243
1460.031684,6809.894666,-7105.977043,1455.581446
1460.032013,6217.729913,-6513.812290,2911.162892
1460.032342,6587.832884,-7179.997637,2298.286494
1460.032671,7476.080014,-6957.935855,1532.190996
1460.033000,6809.894666,-8734.430116,1302.362347
1460.033329,5699.585753,-9030.512492,1532.190996
1460.033658,5181.441594,-9474.636058,2068.457845
1460.033987,4663.297435,-9030.512492,1838.629195
1460.034316,4145.153275,-7254.018232,459.657299
1460.034645,2812.782580,-8364.327145,-459.657299
1460.034974,2516.700203,-10214.842000,-536.266849
1460.035303,2738.761985,-10658.965565,1225.752797
1460.035632,3923.091493,-8660.409521,689.485948
1460.035961,4737.318029,-6587.832884,-306.438199
1460.036291,5107.421000,-7698.141797,536.266849
1460.036620,5773.606348,-8956.491898,919.314598
1460.036949,6661.853478,-9696.697840,1532.190996
1460.037278,7105.977043,-8734.430116,1532.190996
1460.037607,7179.997637,-7254.018232,1838.629195
1460.037936,6809.894666,-7920.203579,1762.019645
1460.038265,6069.688724,-8734.430116,1608.800546
1460.038594,3923.091493,-9844.739029,1225.752797
1460.038923,3701.029710,-8956.491898,766.095498
1460.039252,2812.782580,-8586.388927,0.000000
1460.039581,2812.782580,-8808.450710,536.266849
1460.039910,3108.864956,-9474.636058,919.314598
1460.040239,3552.988522,-10436.903782,1149.143247
1460.040568,3627.009116,-8586.388927,995.924147
1460.040897,4441.235652,-6809.894666,1378.971896
1460.041226,6365.771101,-6291.750507,1838.629195
1460.041555,7179.997637,-6291.750507,1685.410096
1460.041884,6439.791695,-7476.080014,1149.143247
1460.042213,6291.750507,-8956.491898,919.314598
1460.042542,6365.771101,-9474.636058,1455.581446
1460.042871,5995.668130,-9548.656652,1149.143247
1460.043200,5403.503377,-9844.739029,1225.752797
1460.043529,3923.091493,-10510.924376,919.314598
1460.043858,2960.823768,-11695.253884,536.266849
1460.044187,2368.659014,-11103.089130,-383.047749
1460.044516,2590.720797,-10436.903782,-689.485948
1460.044845,3256.906145,-10140.821405,0.000000
1460.045174,3256.906145,-10214.842000,766.095498
1460.045503,3478.967927,-8660.409521,2145.067394
1460.045832,5255.462188,-7105.977043,1532.190996
1460.046161,7105.977043,-5699.585753,2451.505594
1460.046490,8364.327145,-4737.318029,3447.429741
1460.046819,8290.306550,-4219.173869,2911.162892
1460.047148,7698.141797,-3849.070898,2145.067394
1460.047478,6513.812290,-5477.523971,842.705048
1460.047807,5773.606348,-7328.038826,306.438199
1460.048136,5329.482782,-8586.388927,536.266849
1460.048465,4959.379811,-11251.130318,1455.581446
1460.048794,4515.256246,-10732.986159,919.314598
1460.049123,4071.132681,-10140.821405,689.485948
1460.049452,4441.235652,-10140.821405,766.095498
1460.049781,4367.215058,-9696.697840,1302.362347
1460.050110,3330.926739,-10066.800811,383.047749
1460.050439,2220.617826,-10510.924376,-766.095498
1460.050768,2072.576638,-11177.109724,459.657299
1460.051097,3034.844362,-11251.130318,842.705048
1460.051426,4219.173869,-9400.615463,1762.019645
1460.051755,5847.626942,-7476.080014,1762.019645
1460.052084,6365.771101,-4885.359217,919.314598
1460.052413,7105.977043,-4589.276840,1991.848295
1460.052742,7179.997637,-5107.421000,2298.286494
1460.053071,8438.347739,-5625.565159,2451.505594
1460.053400,7031.956449,-7994.224174,2298.286494
1460.053729,6291.750507,-10066.800811,2451.505594
1460.054058,4885.359217,-10881.027347,1838.629195
1460.054387,4219.173869,-11621.233289,1991.848295
1460.054716,3775.050304,-10510.924376,1455.581446
1460.055045,3256.906145,-9844.739029,383.047749
1460.055374,3108.864956,-9474.636058,306.438199
1460.055703,2738.761985,-9252.574275,0.000000
1460.056032,3404.947333,-9178.553681,-689.485948
1460.056361,3923.091493,-7476.080014,0.000000
1460.056690,4737.318029,-7254.018232,306.438199
1460.057019,5773.606348,-7476.080014,1149.143247
1460.057348,6143.709319,-8364.327145,1762.019645
1460.057677,6513.812290,-9178.553681,1838.629195
1460.058006,5847.626942,-8882.471304,1762.019645
1460.058335,5181.441594,-9400.615463,1991.848295
1460.058665,4885.359217,-9844.739029,1991.848295
1460.058994,4663.297435,-9326.594869,1991.848295
1460.059323,4811.338623,-9030.512492,1915.238745
1460.059652,5255.462188,-7772.162391,2145.067394
1460.059981,5773.606348,-7550.100608,2604.724693
1460.060310,5921.647536,-7031.956449,2298.286494
1460.060639,5403.503377,-6513.812290,1915.238745
1460.060968,4885.359217,-6883.915261,1532.190996
1460.061297,5033.400406,-7105.977043,1149.143247
1460.061626,4885.359217,-8364.327145,1762.019645
1460.061955,5255.462188,-8512.368333,2221.676944
1460.062284,5329.482782,-9252.574275,2528.115143
1460.062613,4959.379811,-9918.759623,2681.334243
1460.062942,4441.235652,-9770.718434,2987.772442
1460.063271,5551.544565,-9474.636058,3217.601092
1460.063600,6809.894666,-7624.121203,3753.867940
1460.063929,6661.853478,-6513.812290,4290.134789
1460.064258,6735.874072,-6513.812290,3600.648841
1460.064587,6809.894666,-5847.626942,3677.258390
1460.064916,7105.977043,-5773.606348,2757.943793
1460.065245,6883.915261,-5699.585753,2298.286494
1460.065574,5773.606348,-6513.812290,2145.067394
1460.065903,5699.585753,-8068.244768,1608.800546
1460.066232,5551.544565,-8660.409521,2221.676944
1460.066561,5847.626942,-9030.512492,3447.429741
1460.066890,5995.668130,-8512.368333,3064.381992
1460.067219,6217.729913,-7550.100608,3217.601092
1460.067548,5699.585753,-7994.224174,3217.601092
1460.067877,6365.771101,-7476.080014,4136.915689
1460.068206,7772.162391,-5699.585753,4673.182538
1460.068535,8216.285956,-4885.359217,4979.620737
1460.068864,8882.471304,-3923.091493,4903.011187
1460.069193,9400.615463,-4145.153275,5439.278036
1460.069522,9252.574275,-3701.029710,5209.449386
1460.069852,8882.471304,-3997.112087,4903.011187
1460.070181,7920.203579,-4071.132681,4596.572988
1460.070510,7476.080014,-5625.565159,3753.867940
1460.070839,6661.853478,-7254.018232,4060.306139
1460.071168,5847.626942,-8512.368333,4213.525239
1460.071497,5181.441594,-9696.697840,3370.820191
1460.071826,4219.173869,-10214.842000,3907.087040
1460.072155,3701.029710,-10066.800811,3447.429741
1460.072484,3478.967927,-10658.965565,3447.429741
1460.072813,3923.091493,-9400.615463,4596.572988
1460.073142,4441.235652,-8882.471304,4060.306139
1460.073471,5551.544565,-7105.977043,4596.572988
1460.073800,7402.059420,-5699.585753,5362.668486
1460.074129,9474.636058,-4959.379811,5975.544884
1460.074458,9400.615463,-3552.988522,6588.421283
1460.074787,9474.636058,-3330.926739,5745.716235
1460.075116,9104.533087,-3182.885551,4903.011187
1460.075445,8882.471304,-3256.906145,4673.182538
1460.075774,8660.409521,-4589.276840,4826.401637
1460.076103,8142.265362,-5625.565159,4519.963438
1460.076432,7328.038826,-6661.853478,4443.353888
1460.076761,7031.956449,-7920.203579,4366.744339
1460.077090,6365.771101,-9030.512492,4673.182538
1460.077419,5551.544565,-9474.636058,3983.696590
1460.077748,3701.029710,-9844.739029,3907.087040
1460.078077,2368.659014,-10288.862594,3064.381992
1460.078406,2368.659014,-9992.780217,3600.648841
1460.078735,3849.070898,-8216.285956,4136.915689
1460.079064,5625.565159,-7254.018232,4673.182538
1460.079393,7624.121203,-5255.462188,5286.058936
1460.079722,9474.636058,-3701.029710,5439.278036
1460.080051,9622.677246,-2738.761985,5592.497135
1460.080380,10362.883188,-1628.453072,5209.449386
1460.080710,9770.718434,-2664.741391,4366.744339
1460.081039,9030.512492,-3404.947333,4366.744339
1460.081368,7994.224174,-6513.812290,3907.087040
1460.081697,7698.141797,-7994.224174,4213.525239
1460.082026,7105.977043,-9400.615463,3524.039291
1460.082355,6069.688724,-10066.800811,2911.162892
1460.082684,4959.379811,-10214.842000,2834.553343
1460.083013,4663.297435,-9548.656652,3064.381992
1460.083342,4515.256246,-8142.265362,3294.210641
1460.083671,5329.482782,-5921.647536,2757.943793
1460.084000,7105.977043,-4441.235652,3447.429741
1460.084329,9622.677246,-3923.091493,4136.915689
1460.084658,10288.862594,-4441.235652,5592.497135
1460.084987,9992.780217,-4441.235652,4903.011187
1460.085316,8364.327145,-5255.462188,3140.991542
1460.085645,6809.894666,-5403.503377,2681.334243
1460.085974,5773.606348,-7179.997637,2528.115143
1460.086303,5847.626942,-7698.141797,2451.505594
1460.086632,5551.544565,-8290.306550,3370.820191
1460.086961,6217.729913,-8660.409521,3753.867940
1460.087290,7254.018232,-7624.121203,4290.134789
1460.087619,7550.100608,-7254.018232,4673.182538
1460.087948,7550.100608,-6809.894666,4443.353888
1460.088277,7254.018232,-6291.750507,3600.648841
1460.088606,7105.977043,-4515.256246,3370.820191
1460.088935,7698.141797,-3182.885551,2834.553343
1460.089264,9178.553681,-3552.988522,3447.429741
1460.089593,9474.636058,-4293.194464,3677.258390
1460.089922,8438.347739,-5181.441594,3907.087040
1460.090251,7105.977043,-7105.977043,3294.210641
1460.090580,6217.729913,-9030.512492,2987.772442
1460.090909,5255.462188,-10658.965565,3524.039291
1460.091238,4367.215058,-10807.006753,3217.601092
1460.091567,4441.235652,-9400.615463,3140.991542
1460.091897,4737.318029,-8216.285956,3140.991542
1460.092226,5551.544565,-6291.750507,3830.477490
1460.092555,6809.894666,-5329.482782,3600.648841
1460.092884,7254.018232,-4811.338623,4673.182538
1460.093213,7846.182985,-4145.153275,4903.011187
1460.093542,8216.285956,-3923.091493,5132.839837
1460.093871,9400.615463,-3627.009116,5362.668486
1460.094200,10362.883188,-3552.988522,5362.668486
1460.094529,9918.759623,-3997.112087,4673.182538
1460.094858,8068.244768,-5033.400406,3907.087040
1460.095187,6513.812290,-7476.080014,3064.381992
1460.095516,5477.523971,-9548.656652,2604.724693
1460.095845,4145.153275,-11103.089130,2604.724693
1460.096174,3627.009116,-11399.171507,3217.601092
1460.096503,3923.091493,-10807.006753,3677.258390
1460.096832,4367.215058,-9252.574275,3370.820191
1460.097161,4885.359217,-7179.997637,3064.381992
1460.097490,6957.935855,-4959.379811,4903.011187
1460.097819,9326.594869,-3701.029710,6052.154434
1460.098148,10214.842000,-3256.906145,6588.421283
1460.098477,9918.759623,-1924.535449,6358.592633
1460.098806,9992.780217,-1850.514855,5362.668486
1460.099135,9252.574275,-3404.947333,4903.011187
1460.099464,7328.038826,-5329.482782,4749.792088
1460.099793,6809.894666,-8364.327145,5439.278036
1460.100122,7402.059420,-9474.636058,4290.134789
1460.100451,6735.874072,-9770.718434,4443.353888
1460.100780,4885.359217,-9770.718434,3830.477490
1460.101109,4515.256246,-8808.450710,2834.553343
1460.101438,4515.256246,-7624.121203,2911.162892
1460.101767,5181.441594,-7624.121203,4136.915689
1460.102096,7031.956449,-5847.626942,5056.230287
1460.102425,7846.182985,-4515.256246,5286.058936
1460.102754,7105.977043,-4441.235652,4673.182538
1460.103084,7105.977043,-4737.318029,4519.963438
1460.103413,7550.100608,-5033.400406,4673.182538
1460.103742,8660.409521,-4959.379811,4290.134789
1460.104071,9030.512492,-5107.421000,5056.230287
1460.104400,8216.285956,-5773.606348,4290.134789
1460.104729,7105.977043,-7105.977043,3677.258390
1460.105058,6217.729913,-9030.512492,4213.525239
1460.105387,6217.729913,-8216.285956,4060.306139
1460.105716,6069.688724,-7772.162391,3370.820191
1460.106045,5773.606348,-7846.182985,3600.648841
1460.106374,5329.482782,-7698.141797,3447.429741
1460.106703,6439.791695,-8586.388927,4443.353888
1460.107032,6957.935855,-5995.668130,4826.401637
1460.107361,7105.977043,-3701.029710,4443.353888
1460.107690,7550.100608,-2886.803174,3907.087040
1460.108019,7624.121203,-3552.988522,3983.696590
1460.108348,7994.224174,-5329.482782,4060.306139
1460.108677,7920.203579,-5699.585753,4903.011187
1460.109006,8364.327145,-6439.791695,4903.011187
1460.109335,7550.100608,-7846.182985,3600.648841
1460.109664,6143.709319,-9548.656652,3677.258390
1460.109993,5329.482782,-11029.068536,3753.867940
1460.110322,5329.482782,-9178.553681,3600.648841
1460.110651,5847.626942,-6809.894666,3140.991542
1460.110980,6957.935855,-6365.771101,3447.429741
1460.111309,7105.977043,-5551.544565,3600.648841
1460.111638,6661.853478,-4367.215058,4136.915689
1460.111967,6365.771101,-4959.379811,4060.306139
1460.112296,6735.874072,-5773.606348,3677.258390
1460.112625,7624.121203,-5329.482782,3524.039291
1460.112954,8142.265362,-4071.132681,3753.867940
1460.113283,7994.224174,-3849.070898,3600.648841
1460.113612,8586.388927,-5773.606348,4060.306139
1460.113941,8142.265362,-7994.224174,3753.867940
1460.114271,7105.977043,-7846.182985,4290.134789
1460.114600,6143.709319,-7994.224174,3600.648841
1460.114929,5033.400406,-9326.594869,3294.210641
1460.115258,4441.235652,-10140.821405,3677.258390
1460.115587,6291.750507,-7920.203579,4903.011187
1460.115916,8882.471304,-4811.338623,4673.182538
1460.116245,9178.553681,-2590.720797,4826.401637
1460.116574,7402.059420,-2960.823768,4136.915689
1460.116903,6513.812290,-4737.318029,2911.162892
1460.117232,5995.668130,-3923.091493,2681.334243
1460.117561,6217.729913,-4441.235652,1991.848295
1460.117890,7920.203579,-5551.544565,2757.943793
1460.118219,9474.636058,-7624.121203,4213.525239
1460.118548,9252.574275,-9474.636058,4060.306139
1460.118877,8142.265362,-9178.553681,3217.601092
1460.119206,7031.956449,-9326.594869,3217.601092
1460.119535,5181.441594,-8956.491898,2068.457845
1460.119864,2886.803174,-9696.697840,1991.848295
1460.120193,3034.844362,-8068.244768,2298.286494
1460.120522,5255.462188,-5255.462188,2757.943793
1460.120851,7772.162391,-4737.318029,4290.134789
1460.121180,9030.512492,-5477.523971,6052.154434
1460.121509,9178.553681,-4885.359217,6435.202183
1460.121838,7994.224174,-1332.370696,3217.601092
1460.122167,6735.874072,-1110.308913,1455.581446
1460.122497,7254.018232,-3923.091493,1991.848295
1460.122826,8660.409521,-4811.338623,1915.238745
1460.123155,8216.285956,-6587.832884,1378.971896
1460.123484,7994.224174,-7476.080014,1608.800546
1460.123813,7031.956449,-9104.533087,459.657299
1460.124143,5403.503377,-13397.727550,1149.143247
1460.124472,4737.318029,-14063.912898,2757.943793
1460.124801,4441.235652,-12139.377449,2221.676944
1460.125130,4737.318029,-7402.059420,766.095498
1460.125459,4737.318029,-6069.688724,1608.800546
1460.125789,7179.997637,-5551.544565,2757.943793
1460.126118,9474.636058,-3552.988522,3907.087040
1460.126447,9474.636058,-3182.885551,3370.820191
1460.126776,8364.327145,-1258.350101,2834.553343
1460.127105,8512.368333,-3108.864956,2834.553343
1460.127435,9622.677246,-4441.235652,2374.896044
1460.127764,9474.636058,-4737.318029,2757.943793
1460.128093,9178.553681,-6883.915261,1532.190996
1460.128422,7105.977043,-6735.874072,0.000000
1460.128751,4811.338623,-8290.306550,-536.266849
1460.129081,3923.091493,-11325.150913,-536.266849
1460.129410,3849.070898,-11251.130318,-612.876398
1460.129739,3478.967927,-11621.233289,459.657299
1460.130068,5551.544565,-9548.656652,2451.505594
1460.130397,7772.162391,-6883.915261,3524.039291
1460.130727,8512.368333,-3849.070898,2911.162892
1460.131056,7476.080014,-2812.782580,2221.676944
1460.131385,7624.121203,-2368.659014,1838.629195
1460.131714,8586.388927,-1110.308913,689.485948
1460.132044,8808.450710,-2812.782580,306.438199
1460.132373,9326.594869,-3923.091493,1608.800546
1460.132702,9474.636058,-5995.668130,1225.752797
1460.133031,7698.141797,-8808.450710,-306.438199
1460.133360,5107.421000,-9474.636058,0.000000
1460.133690,2886.803174,-11695.253884,-995.924147
1460.134019,3701.029710,-11547.212695,-1302.362347
1460.134348,2886.803174,-10066.800811,-689.485948
1460.134677,4145.153275,-9548.656652,919.314598
1460.135006,7179.997637,-7476.080014,2298.286494
1460.135336,7402.059420,-5329.482782,2298.286494
1460.135665,7402.059420,-3997.112087,2834.553343
1460.135994,8882.471304,-2220.617826,2987.772442
1460.136323,10510.924376,-3108.864956,2451.505594
1460.136652,9252.574275,-2368.659014,2298.286494
1460.136982,9252.574275,-3997.112087,2068.457845
1460.137311,9252.574275,-5033.400406,0.000000
1460.137640,7105.977043,-6809.894666,-1072.533697
1460.137969,5551.544565,-9474.636058,612.876398
1460.138298,4663.297435,-9622.677246,-1149.143247
1460.138628,3182.885551,-11325.150913,-1991.848295
1460.138957,2886.803174,-11843.295072,536.266849
1460.139286,4737.318029,-10362.883188,459.657299
1460.139615,5773.606348,-9326.594869,459.657299
1460.139944,5847.626942,-5699.585753,1608.800546
1460.140274,8512.368333,-3997.112087,2681.334243
1460.140603,11251.130318,-2294.638420,2068.457845
1460.140932,10732.986159,-370.102971,2451.505594
1460.141261,10066.800811,-1850.514855,2068.457845
1460.141590,10288.862594,-3034.844362,689.485948
1460.141920,8364.327145,-4293.194464,-383.047749
1460.142249,6587.832884,-7031.956449,536.266849
1460.142578,6365.771101,-8660.409521,76.609550
1460.142907,5995.668130,-10510.924376,-612.876398
1460.143236,5329.482782,-10732.986159,612.876398
1460.143566,5329.482782,-10732.986159,766.095498
1460.143895,5329.482782,-10510.924376,76.609550
1460.144224,3552.988522,-8068.244768,0.000000
1460.144553,4145.153275,-6217.729913,306.438199
1460.144882,6735.874072,-4441.235652,1302.362347
1460.145212,8734.430116,-3552.988522,2451.505594
1460.145541,10807.006753,-2812.782580,3983.696590
1460.145870,11769.274478,-1776.494261,3600.648841
1460.146199,9548.656652,-3182.885551,1225.752797
1460.146528,6587.832884,-4663.297435,995.924147
1460.146858,6143.709319,-7254.018232,229.828649
1460.147187,6809.894666,-9178.553681,-306.438199
1460.147516,5699.585753,-9326.594869,153.219100
1460.147845,5255.462188,-10288.862594,689.485948
1460.148174,5255.462188,-10658.965565,0.000000
1460.148504,3775.050304,-10288.862594,459.657299
1460.148833,3404.947333,-8956.491898,-536.266849
1460.149162,4811.338623,-7031.956449,-229.828649
1460.149491,7105.977043,-5847.626942,1455.581446
1460.149821,9400.615463,-4737.318029,3524.039291
1460.150150,10881.027347,-4367.215058,4060.306139
1460.150479,10436.903782,-1036.288319,2374.896044
1460.150808,8290.306550,-814.226536,612.876398
1460.151137,7772.162391,-3182.885551,1685.410096
1460.151467,7920.203579,-5625.565159,1302.362347
1460.151796,6735.874072,-8586.388927,766.095498
1460.152125,6143.709319,-9030.512492,1762.019645
1460.152454,5699.585753,-10584.944971,1072.533697
1460.152783,4145.153275,-11473.192101,1225.752797
1460.153113,3330.926739,-10288.862594,76.609550
1460.153442,4071.132681,-9104.533087,0.000000
1460.153771,5403.503377,-6513.812290,-612.876398
1460.154100,6957.935855,-4663.297435,1302.362347
1460.154429,9548.656652,-3404.947333,2681.334243
1460.154759,10362.883188,-2590.720797,2451.505594
1460.155088,8734.430116,-1776.494261,1149.143247
1460.155417,7846.182985,-3330.926739,1532.190996
1460.155746,8364.327145,-4885.359217,2068.457845
1460.156075,8512.368333,-6439.791695,766.095498
1460.156405,7624.121203,-8068.244768,1762.019645
1460.156734,7698.141797,-9474.636058,1991.848295
1460.157063,6883.915261,-10140.821405,766.095498
1460.157392,4589.276840,-10362.883188,919.314598
1460.157721,3775.050304,-9474.636058,153.219100
1460.158051,4737.318029,-6809.894666,-1149.143247
1460.158380,5033.400406,-6587.832884,-766.095498
1460.158709,6587.832884,-4589.276840,766.095498
1460.159038,8956.491898,-4589.276840,1608.800546
1460.159367,9992.780217,-4811.338623,2221.676944
1460.159697,8808.450710,-3627.009116,1915.238745
1460.160026,7550.100608,-4737.318029,2068.457845
1460.160355,7254.018232,-4737.318029,1378.971896
1460.160684,6513.812290,-5477.523971,-306.438199
1460.161013,6587.832884,-7105.977043,536.266849
1460.161343,7402.059420,-8364.327145,766.095498
1460.161672,6439.791695,-9918.759623,383.047749
1460.162001,5329.482782,-10288.862594,1685.410096
1460.162330,5847.626942,-9326.594869,229.828649
1460.162659,6513.812290,-7402.059420,306.438199
1460.162989,7031.956449,-5847.626942,1149.143247
1460.163318,7550.100608,-5921.647536,1455.581446
1460.163647,7994.224174,-3627.009116,536.266849
1460.163976,6143.709319,-2368.659014,-536.266849
1460.164305,5847.626942,-4367.215058,153.219100
1460.164635,7105.977043,-6365.771101,766.095498
1460.164964,8290.306550,-7698.141797,2451.505594
1460.165293,8512.368333,-7254.018232,3064.381992
1460.165622,8290.306550,-6735.874072,2068.457845
1460.165951,7105.977043,-7698.141797,1762.019645
1460.166281,5699.585753,-7994.224174,1225.752797
1460.166610,5921.647536,-7920.203579,919.314598
1460.166939,6439.791695,-6883.915261,306.438199
1460.167268,6809.894666,-5625.565159,1072.533697
1460.167598,7624.121203,-6365.771101,1915.238745
1460.167927,8216.285956,-5181.441594,1455.581446
1460.168256,6217.729913,-4219.173869,-766.095498
1460.168585,5329.482782,-5773.606348,306.438199
1460.168914,6809.894666,-7031.956449,919.314598
1460.169244,7105.977043,-7402.059420,842.705048
1460.169573,6735.874072,-6957.935855,1685.410096
1460.169902,7772.162391,-6883.915261,1378.971896
1460.170231,7550.100608,-7328.038826,842.705048
1460.170560,6291.750507,-7772.162391,1532.190996
1460.170890,5995.668130,-8216.285956,2068.457845
1460.171219,7328.038826,-6069.688724,689.485948
1460.171548,7698.141797,-5921.647536,1149.143247
1460.171877,7994.224174,-6291.750507,2681.334243
1460.172206,8808.450710,-5773.606348,2068.457845
1460.172536,7179.997637,-4885.359217,689.485948
1460.172865,4885.359217,-4515.256246,0.000000
1460.173194,4959.379811,-5329.482782,0.000000
1460.173523,6439.791695,-7476.080014,-153.219100
1460.173852,5699.585753,-8364.327145,842.705048
1460.174182,6587.832884,-7994.224174,2145.067394
1460.174511,8882.471304,-8068.244768,1991.848295
1460.174840,8068.244768,-8290.306550,2451.505594
1460.175169,5625.565159,-7476.080014,1762.019645
1460.175498,5255.462188,-5181.441594,229.828649
1460.175828,5847.626942,-5699.585753,0.000000
1460.176157,6365.771101,-3997.112087,1302.362347
1460.176486,7846.182985,-4885.359217,1915.238745
1460.176815,9474.636058,-5107.421000,1915.238745
1460.177144,7624.121203,-5181.441594,689.485948
1460.177474,6143.709319,-6883.915261,1149.143247
1460.177803,6661.853478,-7624.121203,689.485948
1460.178132,7328.038826,-7179.997637,229.828649
1460.178461,7402.059420,-7846.182985,919.314598
1460.178790,8216.285956,-6587.832884,1225.752797
1460.179120,7402.059420,-7254.018232,536.266849
1460.179449,6661.853478,-7476.080014,689.485948
1460.179778,7105.977043,-7476.080014,1149.143247
1460.180107,8882.471304,-5921.647536,1991.848295
1460.180436,8660.409521,-5403.503377,2068.457845
1460.180766,7624.121203,-5847.626942,1915.238745
1460.181095,7624.121203,-6291.750507,1225.752797
1460.181424,6587.832884,-5329.482782,0.000000
1460.181753,5847.626942,-5403.503377,-766.095498
1460.182082,5403.503377,-7105.977043,-229.828649
1460.182412,6291.750507,-7402.059420,536.266849
1460.182741,7328.038826,-8438.347739,1762.019645
1460.183070,8364.327145,-8142.265362,1762.019645
1460.183399,7624.121203,-6957.935855,1762.019645
1460.183728,6365.771101,-6513.812290,459.657299
1460.184058,5921.647536,-7105.977043,689.485948
1460.184387,6809.894666,-5181.441594,306.438199
1460.184716,7624.121203,-5329.482782,536.266849
1460.185045,7179.997637,-4515.256246,1225.752797
1460.185375,7254.018232,-5921.647536,689.485948
1460.185704,6957.935855,-7031.956449,76.609550
1460.186033,5107.421000,-5699.585753,-306.438199
1460.186362,5625.565159,-6143.709319,689.485948
1460.186691,7994.224174,-8068.244768,1225.752797
1460.187021,7920.203579,-7179.997637,1915.238745
1460.187350,7698.141797,-7105.977043,1915.238745
1460.187679,7624.121203,-5329.482782,1072.533697
1460.188008,6217.729913,-5625.565159,536.266849
1460.188337,4959.379811,-6365.771101,919.314598
1460.188667,6809.894666,-5625.565159,1072.533697
1460.188996,8216.285956,-5847.626942,1302.362347
1460.189325,7772.162391,-5181.441594,1685.410096
1460.189654,7772.162391,-5773.606348,1149.143247
1460.189983,7846.182985,-6587.832884,306.438199
1460.190313,5995.668130,-6439.791695,-995.924147
1460.190642,5033.400406,-7031.956449,-153.219100
1460.190971,6735.874072,-7994.224174,536.266849
1460.191300,7476.080014,-9252.574275,1072.533697
1460.191629,8290.306550,-8068.244768,2451.505594
1460.191959,8882.471304,-7254.018232,1838.629195
1460.192288,8364.327145,-7105.977043,1225.752797
1460.192617,5921.647536,-5403.503377,536.266849
1460.192946,6217.729913,-5995.668130,842.705048
1460.193275,7624.121203,-5255.462188,306.438199
1460.193605,7624.121203,-3701.029710,1378.971896
1460.193934,7031.956449,-4219.173869,459.657299
1460.194263,7550.100608,-6587.832884,536.266849
1460.194592,6513.812290,-6661.853478,459.657299
1460.194921,5255.462188,-8364.327145,76.609550
1460.195251,6661.853478,-9104.533087,1762.019645
1460.195580,7105.977043,-8808.450710,689.485948
1460.195909,7105.977043,-8660.409521,1762.019645
1460.196238,7698.141797,-7254.018232,2451.505594
1460.196567,7698.141797,-6143.709319,1838.629195
1460.196897,6069.688724,-5255.462188,2221.676944
1460.197226,5403.503377,-5329.482782,1149.143247
1460.197555,6365.771101,-5921.647536,1072.533697
1460.197884,7105.977043,-5551.544565,1532.190996
1460.198213,7105.977043,-6143.709319,2451.505594
1460.198543,7328.038826,-6291.750507,1225.752797
1460.198872,6809.894666,-5699.585753,0.000000
1460.199201,4959.379811,-6735.874072,-689.485948
1460.199530,5329.482782,-8808.450710,766.095498
1460.199859,6883.915261,-8438.347739,2298.286494
1460.200189,7105.977043,-7994.224174,1455.581446
1460.200518,7402.059420,-7031.956449,1991.848295
1460.200847,8586.388927,-6513.812290,3294.210641
1460.201176,9326.594869,-7105.977043,3370.820191
1460.201505,7550.100608,-4811.338623,1762.019645
1460.201835,5847.626942,-4589.276840,1149.143247
1460.202164,7031.956449,-3997.112087,766.095498
1460.202493,7328.038826,-3404.947333,76.609550
1460.202822,7031.956449,-4959.379811,1838.629195
1460.203152,6809.894666,-7105.977043,689.485948
1460.203481,6365.771101,-7402.059420,689.485948
1460.203810,5551.544565,-7920.203579,1455.581446
1460.204139,6069.688724,-9030.512492,1532.190996
1460.204468,7920.203579,-7846.182985,1072.533697
1460.204798,7698.141797,-8216.285956,1915.238745
1460.205127,7105.977043,-7846.182985,1608.800546
1460.205456,6883.915261,-4959.379811,1608.800546
1460.205785,6513.812290,-4737.318029,1225.752797
1460.206114,6291.750507,-4737.318029,1302.362347
1460.206444,7476.080014,-5625.565159,2451.505594
1460.206773,8586.388927,-6291.750507,2834.553343
1460.207102,8142.265362,-4737.318029,1685.410096
1460.207431,6513.812290,-6069.688724,689.485948
1460.207760,5551.544565,-7476.080014,-1302.362347
1460.208090,5107.421000,-7772.162391,-995.924147
1460.208419,5403.503377,-9696.697840,612.876398
1460.208748,6513.812290,-8734.430116,536.266849
1460.209077,7624.121203,-7328.038826,1532.190996
1460.209406,9178.553681,-6883.915261,2834.553343
1460.209736,8734.430116,-6661.853478,1991.848295
1460.210065,6587.832884,-6069.688724,1685.410096
1460.210394,5921.647536,-5551.544565,919.314598
1460.210723,7402.059420,-5625.565159,689.485948
1460.211052,8216.285956,-4663.297435,1608.800546
1460.211382,7402.059420,-5181.441594,1302.362347
1460.211711,6587.832884,-5921.647536,153.219100
1460.212040,5847.626942,-6513.812290,-612.876398
1460.212369,4589.276840,-8068.244768,-995.924147
1460.212698,4737.318029,-8956.491898,-76.609550
1460.213028,6291.750507,-10066.800811,995.924147
1460.213357,7328.038826,-8364.327145,1149.143247
1460.213686,8216.285956,-7550.100608,1762.019645
1460.214015,8512.368333,-6883.915261,2681.334243
1460.214344,7846.182985,-4663.297435,1225.752797
1460.214674,6513.812290,-4071.132681,919.314598
1460.215003,6439.791695,-4589.276840,1455.581446
1460.215332,7624.121203,-4515.256246,995.924147
1460.215661,7476.080014,-4515.256246,919.314598
1460.215990,8142.265362,-6217.729913,2068.457845
1460.216320,8512.368333,-7550.100608,1915.238745
1460.216649,6661.853478,-6809.894666,-612.876398
1460.216978,3923.091493,-8808.450710,-459.657299
1460.217307,4441.235652,-10288.862594,153.219100
1460.217636,6735.874072,-8660.409521,536.266849
1460.217966,7105.977043,-8142.265362,1378.971896
1460.218295,7031.956449,-6217.729913,2374.896044
1460.218624,7254.018232,-4885.359217,1762.019645
1460.218953,6365.771101,-5107.421000,1915.238745
1460.219282,7031.956449,-4737.318029,3064.381992
1460.219612,8808.450710,-4219.173869,1762.019645
1460.219941,7846.182985,-2442.679609,612.876398
1460.220270,6365.771101,-5329.482782,459.657299
1460.220599,7698.141797,-6735.874072,689.485948
1460.220928,7328.038826,-5847.626942,0.000000
1460.221258,5847.626942,-7994.224174,-612.876398
1460.221587,6143.709319,-10436.903782,1072.533697
1460.221916,7994.224174,-11843.295072,2298.286494
1460.222245,7105.977043,-9844.739029,1149.143247
1460.222574,5995.668130,-7105.977043,1762.019645
1460.222904,6587.832884,-5255.462188,612.876398
1460.223233,7105.977043,-4737.318029,612.876398
1460.223562,6143.709319,-3775.050304,1378.971896
1460.223891,7624.121203,-4145.153275,2221.676944
1460.224220,9474.636058,-2442.679609,1302.362347
1460.224550,9326.594869,-2664.741391,1532.190996
1460.224879,7994.224174,-5847.626942,2528.115143
1460.225208,7846.182985,-7105.977043,383.047749
1460.225537,6661.853478,-7402.059420,0.000000
1460.225866,4811.338623,-10362.883188,383.047749
1460.226195,7031.956449,-11029.068536,459.657299
1460.226525,7328.038826,-10732.986159,1149.143247
1460.226854,6513.812290,-10214.842000,1915.238745
1460.227183,5625.565159,-7328.038826,1608.800546
1460.227512,5181.441594,-6735.874072,766.095498
1460.227841,4589.276840,-4515.256246,229.828649
1460.228171,5921.647536,-4219.173869,842.705048
1460.228500,9474.636058,-4145.153275,2374.896044
1460.228829,9622.677246,-1628.453072,1838.629195
1460.229158,8364.327145,-3108.864956,1225.752797
1460.229487,6587.832884,-4885.359217,76.609550
1460.229816,5773.606348,-4737.318029,-2145.067394
1460.230146,5847.626942,-8216.285956,-1149.143247
1460.230475,6513.812290,-11029.068536,1455.581446
1460.230804,6883.915261,-10436.903782,1149.143247
1460.231133,7254.018232,-9622.677246,1532.190996
1460.231462,8068.244768,-8512.368333,3140.991542
1460.231792,8216.285956,-6661.853478,1455.581446
1460.232121,6143.709319,-5477.523971,919.314598
1460.232450,5033.400406,-4737.318029,76.609550
1460.232779,7105.977043,-3627.009116,689.485948
1460.233108,8808.450710,-3478.967927,1762.019645
1460.233438,8586.388927,-3627.009116,1762.019645
1460.233767,7772.162391,-6883.915261,1455.581446
1460.234096,6957.935855,-5699.585753,-153.219100
1460.234425,5477.523971,-7698.141797,-1378.971896
1460.234754,6217.729913,-10066.800811,766.095498
1460.235083,7105.977043,-10214.842000,842.705048
1460.235413,6809.894666,-9844.739029,0.000000
1460.235742,6365.771101,-9252.574275,1915.238745
1460.236071,6735.874072,-7031.956449,1608.800546
1460.236400,6587.832884,-6069.688724,766.095498
1460.236729,6217.729913,-5033.400406,1685.410096
1460.237059,7179.997637,-5403.503377,995.924147
1460.237388,9252.574275,-2886.803174,995.924147
1460.237717,9104.533087,-3330.926739,1378.971896
1460.238046,8512.368333,-5403.503377,1762.019645
1460.238375,7698.141797,-4589.276840,153.219100
1460.238705,5477.523971,-6513.812290,-1149.143247
1460.239034,4737.318029,-7772.162391,0.000000
1460.239363,6513.812290,-10881.027347,1991.848295
1460.239692,6513.812290,-9918.759623,1149.143247
1460.240021,5551.544565,-8216.285956,919.314598
1460.240350,5847.626942,-7920.203579,1915.238745
1460.240680,7328.038826,-5625.565159,1762.019645
1460.241009,5699.585753,-4219.173869,919.314598
1460.241338,5551.544565,-4959.379811,2298.286494
1460.241667,7698.141797,-3552.988522,1608.800546
1460.241996,9178.553681,-2220.617826,1149.143247
1460.242326,8734.430116,-4219.173869,1915.238745
1460.242655,8438.347739,-5403.503377,1378.971896
1460.242984,7105.977043,-6957.935855,-1072.533697
1460.243313,5403.503377,-8438.347739,-76.609550
1460.243642,6217.729913,-10140.821405,1072.533697
1460.243971,7402.059420,-10066.800811,766.095498
1460.244301,7031.956449,-10140.821405,1149.143247
1460.244630,5921.647536,-8808.450710,1455.581446
1460.244959,6291.750507,-6439.791695,383.047749
1460.245288,6143.709319,-5477.523971,1455.581446
1460.245617,6439.791695,-4071.132681,1302.362347
1460.245947,8586.388927,-4219.173869,2298.286494
1460.246276,9992.780217,-1776.494261,2528.115143
1460.246605,9400.615463,-2368.659014,1608.800546
1460.246934,8364.327145,-4737.318029,1302.362347
1460.247263,7624.121203,-4959.379811,-229.828649
1460.247593,6143.709319,-7772.162391,-766.095498
1460.247922,5329.482782,-9918.759623,459.657299
1460.248251,5625.565159,-10807.006753,919.314598
1460.248580,6365.771101,-10807.006753,306.438199
1460.248909,6809.894666,-10066.800811,1685.410096
1460.249238,6587.832884,-9918.759623,1532.190996
1460.249568,5625.565159,-7254.018232,919.314598
1460.249897,4885.359217,-6143.709319,1762.019645
1460.250226,6513.812290,-5033.400406,1302.362347
1460.250555,8586.388927,-2738.761985,1608.800546
1460.250884,9104.533087,-1332.370696,2145.067394
1460.251214,9474.636058,-2812.782580,1915.238745
1460.251543,8586.388927,-3849.070898,842.705048
1460.251872,5921.647536,-4367.215058,-842.705048
1460.252201,5107.421000,-9104.533087,0.000000
1460.252530,6439.791695,-10436.903782,536.266849
1460.252859,6365.771101,-9844.739029,229.828649
1460.253189,5551.544565,-11177.109724,919.314598
1460.253518,7031.956449,-9474.636058,2298.286494
1460.253847,6217.729913,-7105.977043,1302.362347
1460.254176,4663.297435,-6439.791695,612.876398
1460.254505,5847.626942,-5995.668130,2068.457845
1460.254835,9178.553681,-5033.400406,2145.067394
1460.255164,9400.615463,-2146.597232,1915.238745
1460.255493,7772.162391,-2516.700203,1915.238745
1460.255822,8734.430116,-3552.988522,1762.019645
1460.256151,7920.203579,-3256.906145,-383.047749
1460.256481,5181.441594,-6513.812290,-459.657299
1460.256810,5255.462188,-9400.615463,842.705048
1460.257139,6513.812290,-11325.150913,842.705048
1460.257468,6513.812290,-11621.233289,1225.752797
1460.257797,5477.523971,-9548.656652,1685.410096
1460.258126,6365.771101,-8882.471304,1225.752797
1460.258456,5995.668130,-7402.059420,383.047749
1460.258785,4589.276840,-5477.523971,229.828649
1460.259114,6661.853478,-5033.400406,1149.143247
1460.259443,9400.615463,-2368.659014,1991.848295
1460.259772,9696.697840,-2368.659014,2834.553343
1460.260102,9252.574275,-3923.091493,2451.505594
1460.260431,8808.450710,-3552.988522,1225.752797
1460.260760,6883.915261,-5181.441594,459.657299
1460.261089,6291.750507,-7994.224174,995.924147
1460.261418,7328.038826,-8882.471304,1225.752797
1460.261747,7402.059420,-8734.430116,0.000000
1460.262077,6143.709319,-11029.068536,536.266849
1460.262406,5847.626942,-9622.677246,1838.629195
1460.262735,5847.626942,-8512.368333,842.705048
1460.263064,5403.503377,-7772.162391,995.924147
1460.263393,6143.709319,-6291.750507,2528.115143
1460.263723,7550.100608,-5107.421000,1532.190996
1460.264052,7994.224174,-3108.864956,1532.190996
1460.264381,7772.162391,-3404.947333,2068.457845
1460.264710,8438.347739,-2442.679609,-383.047749
1460.265039,7179.997637,-1924.535449,-766.095498
1460.265369,6587.832884,-5699.585753,919.314598
1460.265698,8216.285956,-9400.615463,1149.143247
1460.266027,7994.224174,-9474.636058,1608.800546
1460.266356,7254.018232,-9844.739029,919.314598
1460.266685,6735.874072,-9844.739029,1072.533697
1460.267014,6587.832884,-8586.388927,689.485948
1460.267344,5921.647536,-8438.347739,459.657299
1460.267673,6069.688724,-6883.915261,536.266849
1460.268002,7624.121203,-4737.318029,1455.581446
1460.268331,8512.368333,-2738.761985,1225.752797
1460.268660,8216.285956,-3849.070898,1762.019645
1460.268990,7550.100608,-3997.112087,1608.800546
1460.269319,5847.626942,-2590.720797,-1225.752797
1460.269648,5033.400406,-5403.503377,76.609550
1460.269977,6809.894666,-7402.059420,1532.190996
1460.270306,7772.162391,-8882.471304,995.924147
1460.270635,7476.080014,-9030.512492,1455.581446
1460.270965,6957.935855,-9326.594869,2681.334243
1460.271294,6735.874072,-9474.636058,459.657299
1460.271623,4959.379811,-7476.080014,0.000000
1460.271952,4293.194464,-8586.388927,842.705048
1460.272281,6587.832884,-6661.853478,842.705048
1460.272611,7920.203579,-4219.173869,919.314598
1460.272940,7624.121203,-4737.318029,2068.457845
1460.273269,9474.636058,-5033.400406,2528.115143
1460.273598,8512.368333,-4515.256246,766.095498
1460.273927,5033.400406,-3997.112087,-995.924147
1460.274257,3997.112087,-6291.750507,-766.095498
1460.274586,6957.935855,-8290.306550,995.924147
1460.274915,8142.265362,-7031.956449,1455.581446
1460.275244,7328.038826,-9326.594869,2604.724693
1460.275573,7920.203579,-7920.203579,3600.648841
1460.275902,7550.100608,-7105.977043,1225.752797
1460.276232,5551.544565,-7476.080014,842.705048
1460.276561,5699.585753,-6587.832884,2145.067394
1460.276890,8364.327145,-5551.544565,1149.143247
1460.277219,8364.327145,-3997.112087,1608.800546
1460.277548,7254.018232,-3849.070898,995.924147
1460.277878,7550.100608,-4737.318029,306.438199
1460.278207,6957.935855,-4663.297435,-153.219100
1460.278536,5995.668130,-7105.977043,0.000000
1460.278865,5995.668130,-9178.553681,383.047749
1460.279194,7402.059420,-8808.450710,842.705048
1460.279523,7994.224174,-9622.677246,1685.410096
1460.279853,7402.059420,-8438.347739,3064.381992
1460.280182,7550.100608,-7328.038826,1072.533697
1460.280511,6439.791695,-7624.121203,995.924147
1460.280840,5995.668130,-7031.956449,1991.848295
1460.281169,6513.812290,-4589.276840,1378.971896
1460.281499,6735.874072,-3034.844362,536.266849
1460.281828,7254.018232,-2738.761985,995.924147
1460.282157,7994.224174,-4663.297435,1072.533697
1460.282486,7402.059420,-4959.379811,766.095498
1460.282815,6661.853478,-5995.668130,919.314598
1460.283145,7031.956449,-8438.347739,2145.067394
1460.283474,7179.997637,-8142.265362,612.876398
1460.283803,6143.709319,-8364.327145,153.219100
1460.284132,6291.750507,-8808.450710,1378.971896
1460.284461,7624.121203,-8734.430116,1991.848295
1460.284790,6809.894666,-6587.832884,1378.971896
1460.285120,6217.729913,-7476.080014,1762.019645
1460.285449,7179.997637,-7031.956449,2451.505594
1460.285778,7994.224174,-4589.276840,1072.533697
1460.286107,6957.935855,-5551.544565,1455.581446
1460.286436,7402.059420,-3923.091493,1149.143247
1460.286766,6957.935855,-4219.173869,-459.657299
1460.287095,5403.503377,-6365.771101,-459.657299
1460.287424,4959.379811,-7105.977043,612.876398
1460.287753,6513.812290,-8956.491898,612.876398
1460.288082,7402.059420,-7402.059420,919.314598
1460.288411,7328.038826,-8660.409521,2374.896044
1460.288741,8512.368333,-8216.285956,2145.067394
1460.289070,7846.182985,-5477.523971,1838.629195
1460.289399,6143.709319,-6661.853478,1455.581446
1460.289728,6809.894666,-6365.771101,1991.848295
1460.290057,7846.182985,-5699.585753,1455.581446
1460.290387,7254.018232,-4071.132681,1532.190996
1460.290716,6735.874072,-4737.318029,1302.362347
1460.291045,6513.812290,-4589.276840,76.609550
1460.291374,5847.626942,-4737.318029,-995.924147
1460.291703,5255.462188,-7476.080014,76.609550
1460.292033,7105.977043,-8142.265362,2298.286494
1460.292362,7624.121203,-8438.347739,1685.410096
1460.292691,6735.874072,-8734.430116,2374.896044
1460.293020,7624.121203,-8438.347739,3447.429741
1460.293349,8364.327145,-7328.038826,1915.238745
1460.293678,5847.626942,-5477.523971,919.314598
1460.294008,3997.112087,-6513.812290,612.876398
1460.294337,6291.750507,-5477.523971,-383.047749
1460.294666,8142.265362,-4589.276840,1378.971896
1460.294995,8660.409521,-5403.503377,2221.676944
1460.295324,8734.430116,-5255.462188,1838.629195
1460.295654,6957.935855,-5699.585753,229.828649
1460.295983,5033.400406,-7402.059420,229.828649
1460.296312,5551.544565,-8290.306550,842.705048
1460.296641,7994.224174,-7550.100608,1378.971896
1460.296970,7920.203579,-8068.244768,1072.533697
1460.297299,7328.038826,-8068.244768,1762.019645
1460.297629,7550.100608,-7179.997637,1838.629195
1460.297958,7328.038826,-6513.812290,1455.581446
1460.298287,6069.688724,-5921.647536,2145.067394
1460.298616,6217.729913,-5699.585753,1685.410096
1460.298945,6513.812290,-4589.276840,306.438199
1460.299275,6143.709319,-4367.215058,689.485948
1460.299604,7105.977043,-5477.523971,1762.019645
1460.299933,8216.285956,-5921.647536,0.000000
1460.300262,7254.018232,-7179.997637,153.219100
1460.300591,6439.791695,-8142.265362,766.095498
1460.300921,6735.874072,-9474.636058,459.657299
1460.301250,6587.832884,-8364.327145,536.266849
1460.301579,6809.894666,-9030.512492,1302.362347
1460.301908,7920.203579,-8290.306550,2145.067394
1460.302237,7698.141797,-5773.606348,1149.143247
1460.302566,5699.585753,-7105.977043,766.095498
1460.302896,6143.709319,-6439.791695,1915.238745
1460.303225,8068.244768,-5181.441594,995.924147
1460.303554,7846.182985,-4441.235652,1378.971896
1460.303883,7328.038826,-3701.029710,842.705048
1460.304212,6809.894666,-4885.359217,-306.438199
1460.304542,5699.585753,-4885.359217,-1378.971896
1460.304871,5033.400406,-8068.244768,766.095498
1460.305200,6809.894666,-9474.636058,1762.019645
1460.305529,8068.244768,-8364.327145,1072.533697
1460.305858,7624.121203,-8660.409521,1762.019645
1460.306187,7698.141797,-8586.388927,2987.772442
1460.306517,7920.203579,-6439.791695,1915.238745
1460.306846,5773.606348,-5551.544565,919.314598
1460.307175,4441.235652,-5181.441594,1532.190996
1460.307504,6217.729913,-5403.503377,995.924147
1460.307833,7105.977043,-4737.318029,1455.581446
1460.308163,6365.771101,-5181.441594,1762.019645
1460.308492,6513.812290,-5773.606348,1608.800546
1460.308821,6587.832884,-4441.235652,-919.314598
1460.309150,5625.565159,-7254.018232,-153.219100
1460.309479,6439.791695,-8734.430116,1685.410096
1460.309809,7772.162391,-8142.265362,1455.581446
1460.310138,8438.347739,-7772.162391,1225.752797
1460.310467,8290.306550,-8660.409521,2757.943793
1460.310796,8808.450710,-6587.832884,2528.115143
1460.311125,7031.956449,-4959.379811,459.657299
1460.311454,5181.441594,-5921.647536,919.314598
1460.311784,7031.956449,-5329.482782,1302.362347
1460.312113,8956.491898,-4737.318029,995.924147
1460.312442,8364.327145,-4885.359217,1608.800546
1460.312771,7624.121203,-7328.038826,2681.334243
1460.313100,6957.935855,-6439.791695,153.219100
1460.313430,4737.318029,-5847.626942,-1072.533697
1460.313759,4589.276840,-8142.265362,306.438199
1460.314088,6809.894666,-7994.224174,919.314598
1460.314417,7994.224174,-7550.100608,1225.752797
1460.314746,7624.121203,-7846.182985,2298.286494
1460.315075,8142.265362,-6291.750507,2298.286494
1460.315405,7624.121203,-5699.585753,1225.752797
1460.315734,5255.462188,-5699.585753,536.266849
1460.316063,5921.647536,-6809.894666,1455.581446
1460.316392,7476.080014,-6069.688724,229.828649
1460.316721,6735.874072,-4515.256246,459.657299
1460.317051,6439.791695,-5995.668130,229.828649
1460.317380,7624.121203,-6513.812290,0.000000
1460.317709,7031.956449,-6883.915261,-1532.190996
1460.318038,5699.585753,-8438.347739,1455.581446
1460.318367,6143.709319,-8734.430116,1378.971896
1460.318697,7402.059420,-7476.080014,306.438199
1460.319026,7031.956449,-6291.750507,1378.971896
1460.319355,6735.874072,-5181.441594,2145.067394
1460.319684,7920.203579,-5255.462188,1915.238745
1460.320013,6809.894666,-4515.256246,1455.581446
1460.320342,6439.791695,-5477.523971,1608.800546
1460.320672,7920.203579,-5773.606348,1762.019645
1460.321001,8512.368333,-4293.194464,612.876398
1460.321330,6957.935855,-5995.668130,1149.143247
1460.321659,7254.018232,-6365.771101,153.219100
1460.321988,7105.977043,-6291.750507,-995.924147
1460.322318,5625.565159,-7476.080014,-459.657299
1460.322647,6513.812290,-9178.553681,612.876398
1460.322975,7402.059420,-9178.553681,459.657299
1460.323304,7105.977043,-9252.574275,766.095498
1460.323633,7105.977043,-8216.285956,2221.676944
1460.323963,7920.203579,-5699.585753,2451.505594
1460.324292,7105.977043,-4293.194464,1149.143247
1460.324621,5625.565159,-5329.482782,1302.362347
1460.324950,6957.935855,-4811.338623,2145.067394
1460.325280,7624.121203,-4293.194464,842.705048
1460.325609,8068.244768,-3404.947333,1762.019645
1460.325938,8142.265362,-5551.544565,1915.238745
1460.326267,8364.327145,-5625.565159,0.000000
1460.326597,6217.729913,-7105.977043,0.000000
1460.326926,5773.606348,-9104.533087,1455.581446
1460.327255,7179.997637,-9252.574275,306.438199
1460.327584,6883.915261,-8586.388927,76.609550
1460.327914,5699.585753,-8216.285956,1149.143247
1460.328243,7031.956449,-7476.080014,1225.752797
1460.328572,7772.162391,-6217.729913,1685.410096
1460.328901,5551.544565,-5033.400406,842.705048
1460.329231,5477.523971,-5773.606348,2068.457845
1460.329560,7772.162391,-4589.276840,2145.067394
1460.329889,9178.553681,-3775.050304,1915.238745
1460.330218,8142.265362,-4589.276840,1915.238745
1460.330548,8142.265362,-5329.482782,229.828649
1460.330877,6217.729913,-6439.791695,-689.485948
1460.331206,5107.421000,-7994.224174,-459.657299
1460.331535,6143.709319,-8808.450710,306.438199
1460.331865,6661.853478,-8734.430116,153.219100
1460.332194,7105.977043,-9030.512492,842.705048
1460.332523,6661.853478,-8734.430116,1762.019645
1460.332852,7105.977043,-7031.956449,1762.019645
1460.333182,6365.771101,-5033.400406,306.438199
1460.333511,6513.812290,-5033.400406,995.924147
1460.333840,7772.162391,-4515.256246,1532.190996
1460.334169,8808.450710,-2960.823768,229.828649
1460.334499,8216.285956,-3034.844362,1378.971896
1460.334828,7994.224174,-5625.565159,1225.752797
1460.335157,7402.059420,-5551.544565,-919.314598
1460.335486,5699.585753,-7402.059420,76.609550
1460.335816,6365.771101,-11325.150913,1532.190996
1460.336145,7179.997637,-9992.780217,1685.410096
1460.336474,6217.729913,-8808.450710,536.266849
1460.336803,5255.462188,-9104.533087,612.876398
1460.337133,6217.729913,-4737.318029,536.266849
1460.337462,6217.729913,-4663.297435,-1149.143247
1460.337791,5033.400406,-5551.544565,306.438199
1460.338120,6735.874072,-4959.379811,1762.019645
1460.338450,9178.553681,-4737.318029,1225.752797
1460.338779,9178.553681,-4737.318029,2145.067394
1460.339108,9252.574275,-5107.421000,2757.943793
1460.339437,9104.533087,-6365.771101,153.219100
1460.339767,5773.606348,-6957.935855,-1072.533697
1460.340096,4515.256246,-7846.182985,-383.047749
1460.340425,6365.771101,-9252.574275,0.000000
1460.340754,7476.080014,-8512.368333,0.000000
1460.341084,7105.977043,-8660.409521,2374.896044
1460.341413,8364.327145,-8216.285956,2834.553343
1460.341742,7624.121203,-6143.709319,1302.362347
1460.342071,6217.729913,-6291.750507,1532.190996
1460.342401,6291.750507,-5329.482782,2068.457845
1460.342730,7772.162391,-3108.864956,383.047749
1460.343059,6957.935855,-2738.761985,-153.219100
1460.343388,7328.038826,-4737.318029,1378.971896
1460.343718,9178.553681,-6439.791695,1608.800546
1460.344047,8068.244768,-5699.585753,-383.047749
1460.344376,5773.606348,-8364.327145,842.705048
1460.344705,5773.606348,-11547.212695,2298.286494
1460.345035,7105.977043,-8660.409521,766.095498
1460.345364,5625.565159,-9104.533087,1455.581446
1460.345693,6513.812290,-8438.347739,2681.334243
1460.346022,7624.121203,-5625.565159,1608.800546
1460.346352,5699.585753,-5921.647536,919.314598
1460.346681,3923.091493,-4515.256246,1225.752797
1460.347010,6439.791695,-4293.194464,689.485948
1460.347339,8438.347739,-3478.967927,1149.143247
1460.347669,7846.182985,-3552.988522,1378.971896
1460.347998,8808.450710,-7402.059420,2987.772442
1460.348327,8882.471304,-5625.565159,1608.800546
1460.348656,5995.668130,-6143.709319,612.876398
1460.348986,4737.318029,-9474.636058,1225.752797
1460.349315,6365.771101,-8808.450710,1149.143247
1460.349644,7402.059420,-8808.450710,1302.362347
1460.349973,6291.750507,-7994.224174,2298.286494
1460.350303,6735.874072,-7031.956449,2298.286494
1460.350632,7031.956449,-5625.565159,1225.752797
1460.350961,5847.626942,-6661.853478,1762.019645
1460.351290,6291.750507,-5625.565159,2757.943793
1460.351620,8290.306550,-3923.091493,1455.581446
1460.351949,8290.306550,-4145.153275,1455.581446
1460.352278,7624.121203,-5255.462188,1378.971896
1460.352607,7105.977043,-5625.565159,995.924147
1460.352937,6513.812290,-6883.915261,-995.924147
1460.353266,5551.544565,-9770.718434,995.924147
1460.353595,5625.565159,-10436.903782,1149.143247
1460.353924,6291.750507,-8660.409521,383.047749
1460.354254,6291.750507,-7698.141797,1072.533697
1460.354583,7476.080014,-6957.935855,1838.629195
1460.354912,7994.224174,-5551.544565,1378.971896
1460.355241,6957.935855,-5477.523971,2068.457845
1460.355571,7105.977043,-4589.276840,2451.505594
1460.355900,9474.636058,-3330.926739,1378.971896
1460.356229,8808.450710,-3256.906145,1378.971896
1460.356558,7772.162391,-5107.421000,1378.971896
1460.356888,7476.080014,-4589.276840,-153.219100
1460.357217,6069.688724,-5255.462188,-2451.505594
1460.357546,4589.276840,-7698.141797,-919.314598
1460.357875,6365.771101,-10214.842000,1225.752797
1460.358205,7402.059420,-11547.212695,1915.238745
1460.358534,6957.935855,-9622.677246,1455.581446
1460.358863,7105.977043,-8438.347739,1685.410096
1460.359192,7328.038826,-5773.606348,1532.190996
1460.359522,5773.606348,-4737.318029,0.000000
1460.359851,4737.318029,-4737.318029,612.876398
1460.360180,6809.894666,-2664.741391,1532.190996
1460.360509,9104.533087,-3478.967927,76.609550
1460.360839,9696.697840,-3701.029710,2221.676944
1460.361168,8808.450710,-5477.523971,995.924147
1460.361497,8290.306550,-8290.306550,-842.705048
1460.361827,6069.688724,-8290.306550,536.266849
1460.362156,5181.441594,-9992.780217,0.000000
1460.362485,6513.812290,-10955.047942,-612.876398
1460.362814,5551.544565,-9400.615463,76.609550
1460.363144,5033.400406,-9474.636058,995.924147
1460.363473,6513.812290,-7772.162391,1149.143247
1460.363802,6069.688724,-6143.709319,1225.752797
1460.364131,6217.729913,-4811.338623,2374.896044
1460.364461,7624.121203,-4589.276840,2757.943793
1460.364790,8512.368333,-2146.597232,2528.115143
1460.365119,8512.368333,-1924.535449,1991.848295
1460.365448,8438.347739,-3256.906145,2068.457845
