#time,accel_x,accel_y,accel_z
378.049675,7105.977043,-6661.853478,766.095498
378.050009,7328.038826,-6809.894666,536.266849
378.050343,7328.038826,-6883.915261,842.705048
378.050678,6587.832884,-6883.915261,1302.362347
378.051012,6957.935855,-6439.791695,842.705048
378.051346,7105.977043,-6291.750507,919.314598
378.051681,7179.997637,-5699.585753,842.705048
378.052015,7254.018232,-5921.647536,1149.143247
378.052349,7476.080014,-5625.565159,1608.800546
378.052684,7328.038826,-6291.750507,1225.752797
378.053018,7105.977043,-5773.606348,1072.533697
378.053352,6587.832884,-6291.750507,459.657299
378.053687,6957.935855,-6513.812290,536.266849
378.054021,7031.956449,-6513.812290,1072.533697
378.054355,7105.977043,-6661.853478,995.924147
378.054690,7105.977043,-6587.832884,1072.533697
378.055024,7105.977043,-6735.874072,1149.143247
378.055358,7254.018232,-6735.874072,766.095498
378.055693,6661.853478,-6809.894666,919.314598
378.056027,6661.853478,-6883.915261,689.485948
378.056361,6809.894666,-6217.729913,536.266849
378.056696,7105.977043,-5477.523971,1072.533697
378.057030,7105.977043,-6291.750507,995.924147
378.057364,7402.059420,-6513.812290,1225.752797
378.057699,7179.997637,-6439.791695,995.924147
378.058033,7105.977043,-6661.853478,689.485948
378.058367,7105.977043,-6809.894666,1149.143247
378.058702,7328.038826,-6365.771101,689.485948
378.059036,7179.997637,-6587.832884,919.314598
378.059371,7254.018232,-6291.750507,919.314598
378.059705,7328.038826,-6735.874072,995.924147
378.060039,7105.977043,-6587.832884,919.314598
378.060374,6735.874072,-6735.874072,995.924147
378.060708,6661.853478,-6661.853478,383.047749
378.061042,6587.832884,-6957.935855,612.876398
378.061377,7105.977043,-6883.915261,842.705048
378.061711,6957.935855,-6809.894666,919.314598
378.062045,7031.956449,-6883.915261,919.314598
378.062380,6735.874072,-6883.915261,995.924147
378.062714,6883.915261,-6809.894666,612.876398
378.063048,6587.832884,-6513.812290,536.266849
378.063383,6513.812290,-6957.935855,612.876398
378.063717,7031.956449,-6883.915261,536.266849
378.064051,7105.977043,-6365.771101,919.314598
378.064386,7105.977043,-6661.853478,766.095498
378.064720,7105.977043,-6291.750507,689.485948
378.065054,7031.956449,-6809.894666,612.876398
378.065389,6883.915261,-6365.771101,536.266849
378.065723,7031.956449,-6661.853478,1072.533697
378.066057,7105.977043,-6217.729913,1149.143247
378.066392,7179.997637,-6069.688724,306.438199
378.066726,7105.977043,-6143.709319,919.314598
378.067060,7550.100608,-5995.668130,842.705048
378.067395,7624.121203,-6143.709319,612.876398
378.067729,7328.038826,-6291.750507,536.266849
378.068063,6883.915261,-6217.729913,383.047749
378.068398,6809.894666,-6735.874072,689.485948
378.068732,7402.059420,-6143.709319,612.876398
378.069066,6957.935855,-6513.812290,459.657299
378.069401,7031.956449,-6365.771101,842.705048
378.069735,6883.915261,-6735.874072,995.924147
378.070069,6809.894666,-6957.935855,459.657299
378.070404,7179.997637,-7105.977043,0.000000
378.070738,6661.853478,-7031.956449,612.876398
378.071072,6883.915261,-6809.894666,612.876398
378.071407,7105.977043,-6217.729913,919.314598
378.071741,7402.059420,-6365.771101,536.266849
378.072075,7402.059420,-6513.812290,842.705048
378.072410,7105.977043,-6883.915261,1072.533697
378.072744,6957.935855,-6809.894666,689.485948
378.073079,6957.935855,-6217.729913,842.705048
378.073413,7031.956449,-5773.606348,842.705048
378.073747,7328.038826,-5995.668130,612.876398
378.074082,7105.977043,-6513.812290,919.314598
378.074416,7328.038826,-6439.791695,1149.143247
378.074750,6883.915261,-6513.812290,1149.143247
378.075085,6513.812290,-6365.771101,689.485948
378.075419,6217.729913,-6883.915261,612.876398
378.075753,6365.771101,-7105.977043,766.095498
378.076088,6809.894666,-6957.935855,1225.752797
378.076422,7476.080014,-7031.956449,842.705048
378.076756,6883.915261,-7179.997637,1149.143247
378.077091,6809.894666,-7105.977043,766.095498
378.077425,6661.853478,-7105.977043,1149.143247
378.077759,6513.812290,-6735.874072,1072.533697
378.078094,6587.832884,-7476.080014,536.266849
378.078428,6735.874072,-6809.894666,766.095498
378.078762,7328.038826,-6809.894666,995.924147
378.079097,6809.894666,-6587.832884,919.314598
378.079431,7105.977043,-6217.729913,536.266849
378.079765,7105.977043,-6735.874072,919.314598
378.080100,7105.977043,-7105.977043,1378.971896
378.080434,7105.977043,-6661.853478,842.705048
378.080768,6957.935855,-6069.688724,536.266849
378.081103,7402.059420,-6069.688724,612.876398
378.081437,7179.997637,-6439.791695,1072.533697
378.081771,7328.038826,-6217.729913,1072.533697
378.082106,7105.977043,-6587.832884,919.314598
378.082440,7031.956449,-6291.750507,919.314598
378.082774,6587.832884,-6883.915261,689.485948
378.083109,6809.894666,-6587.832884,536.266849
378.083443,6735.874072,-6661.853478,919.314598
378.083777,6513.812290,-6291.750507,76.609550
378.084112,7031.956449,-6587.832884,612.876398
378.084446,6809.894666,-6365.771101,766.095498
378.084780,6587.832884,-6883.915261,306.438199
378.085114,6439.791695,-6661.853478,536.266849
378.085449,7105.977043,-6735.874072,76.609550
378.085783,6883.915261,-6439.791695,612.876398
378.086117,7105.977043,-6439.791695,612.876398
378.086452,7031.956449,-6661.853478,766.095498
378.086786,7254.018232,-5847.626942,766.095498
378.087120,6957.935855,-6439.791695,459.657299
378.087455,6883.915261,-6587.832884,536.266849
378.087789,7105.977043,-6513.812290,919.314598
378.088123,7105.977043,-6291.750507,459.657299
378.088458,7031.956449,-6291.750507,1149.143247
378.088792,7031.956449,-6365.771101,536.266849
378.089126,7179.997637,-6513.812290,1072.533697
378.089460,7254.018232,-6809.894666,612.876398
378.089795,6735.874072,-6587.832884,612.876398
378.090129,6735.874072,-6587.832884,459.657299
378.090463,6735.874072,-7031.956449,536.266849
378.090798,7031.956449,-7031.956449,842.705048
378.091132,6809.894666,-6883.915261,459.657299
378.091466,7105.977043,-6513.812290,842.705048
378.091801,6809.894666,-7105.977043,689.485948
378.092135,6809.894666,-7105.977043,459.657299
378.092469,6809.894666,-7179.997637,459.657299
378.092804,6439.791695,-6883.915261,229.828649
378.093138,6883.915261,-7031.956449,383.047749
378.093472,7105.977043,-6143.709319,536.266849
378.093806,6957.935855,-6513.812290,689.485948
378.094141,7105.977043,-6439.791695,536.266849
378.094475,7550.100608,-6809.894666,1378.971896
378.094809,7105.977043,-6513.812290,383.047749
378.095144,7179.997637,-6365.771101,612.876398
378.095478,7550.100608,-6069.688724,689.485948
378.095812,7328.038826,-6365.771101,842.705048
378.096147,7772.162391,-6513.812290,766.095498
378.096481,7179.997637,-6513.812290,766.095498
378.096815,7328.038826,-6587.832884,1072.533697
378.097150,7105.977043,-6291.750507,689.485948
378.097484,7105.977043,-6069.688724,1225.752797
378.097818,6809.894666,-6809.894666,612.876398
378.098152,7031.956449,-6661.853478,995.924147
378.098487,7105.977043,-6587.832884,1072.533697
378.098821,7105.977043,-6513.812290,919.314598
378.099155,6883.915261,-6735.874072,919.314598
378.099490,6957.935855,-6661.853478,689.485948
378.099824,6735.874072,-6661.853478,919.314598
378.100158,6513.812290,-6957.935855,919.314598
378.100493,7031.956449,-6587.832884,1532.190996
378.100827,7105.977043,-6291.750507,919.314598
378.101161,7105.977043,-6661.853478,689.485948
378.101496,7179.997637,-6587.832884,842.705048
378.101830,7179.997637,-6661.853478,995.924147
378.102164,7031.956449,-6365.771101,766.095498
378.102499,6809.894666,-5995.668130,842.705048
378.102833,7328.038826,-6365.771101,766.095498
378.103167,7179.997637,-6069.688724,1149.143247
378.103501,7254.018232,-6587.832884,1225.752797
378.103836,7254.018232,-6291.750507,919.314598
378.104170,7328.038826,-6809.894666,842.705048
378.104504,6957.935855,-6809.894666,1072.533697
378.104839,6661.853478,-6957.935855,842.705048
378.105173,6513.812290,-6735.874072,306.438199
378.105507,6587.832884,-6735.874072,766.095498
378.105842,6661.853478,-6735.874072,842.705048
378.106176,6735.874072,-6883.915261,995.924147
378.106510,6513.812290,-6365.771101,919.314598
378.106845,6809.894666,-6883.915261,842.705048
378.107179,6587.832884,-6735.874072,689.485948
378.107513,6661.853478,-7031.956449,842.705048
378.107847,7105.977043,-6661.853478,612.876398
378.108182,7476.080014,-6069.688724,689.485948
378.108516,6883.915261,-6513.812290,842.705048
378.108850,7105.977043,-6735.874072,766.095498
378.109185,7254.018232,-7105.977043,612.876398
378.109519,7105.977043,-6439.791695,1149.143247
378.109853,6661.853478,-6439.791695,612.876398
378.110188,7179.997637,-6291.750507,612.876398
378.110522,7105.977043,-6291.750507,383.047749
378.110856,7328.038826,-5847.626942,842.705048
378.111191,7179.997637,-5921.647536,1302.362347
378.111525,7105.977043,-6217.729913,919.314598
378.111859,6809.894666,-6439.791695,995.924147
378.112193,6661.853478,-6513.812290,689.485948
378.112528,7105.977043,-7179.997637,76.609550
378.112862,7105.977043,-6587.832884,1149.143247
378.113196,6957.935855,-6735.874072,689.485948
378.113531,6957.935855,-6735.874072,1072.533697
378.113865,6883.915261,-6661.853478,1149.143247
378.114199,7031.956449,-6291.750507,459.657299
378.114534,6587.832884,-6735.874072,766.095498
378.114868,6513.812290,-7031.956449,842.705048
378.115202,6809.894666,-6587.832884,612.876398
378.115537,7550.100608,-6143.709319,995.924147
378.115871,7105.977043,-6217.729913,995.924147
378.116205,7179.997637,-5995.668130,995.924147
378.116539,7105.977043,-6809.894666,842.705048
378.116874,7105.977043,-6957.935855,689.485948
378.117208,7105.977043,-5995.668130,689.485948
378.117542,7254.018232,-6217.729913,689.485948
378.117877,7179.997637,-6439.791695,766.095498
378.118211,7105.977043,-6217.729913,766.095498
378.118545,7476.080014,-6735.874072,1302.362347
378.118880,7105.977043,-6883.915261,842.705048
378.119214,7031.956449,-6661.853478,612.876398
378.119548,6439.791695,-6661.853478,383.047749
378.119883,6513.812290,-6883.915261,766.095498
378.120217,6957.935855,-6809.894666,919.314598
378.120551,6587.832884,-6883.915261,689.485948
378.120885,6809.894666,-6661.853478,1149.143247
378.121220,6439.791695,-6513.812290,842.705048
378.121554,6661.853478,-6883.915261,459.657299
378.121888,6883.915261,-7105.977043,689.485948
378.122223,6735.874072,-7476.080014,842.705048
378.122557,7031.956449,-6957.935855,689.485948
378.122891,7105.977043,-6957.935855,0.000000
378.123226,7328.038826,-6587.832884,842.705048
378.123560,7105.977043,-6587.832884,612.876398
378.123894,6957.935855,-6513.812290,689.485948
378.124229,6809.894666,-7031.956449,842.705048
378.124563,6587.832884,-6143.709319,1072.533697
378.124897,7105.977043,-6365.771101,995.924147
378.125231,7254.018232,-6069.688724,842.705048
378.125566,7328.038826,-6587.832884,1072.533697
378.125900,7179.997637,-6291.750507,919.314598
378.126234,6957.935855,-6661.853478,1378.971896
378.126569,6883.915261,-6661.853478,842.705048
378.126903,6587.832884,-7105.977043,842.705048
378.127237,6587.832884,-6809.894666,536.266849
378.127572,6957.935855,-6957.935855,1455.581446
378.127906,7105.977043,-6661.853478,842.705048
378.128240,6957.935855,-6587.832884,919.314598
378.128575,6661.853478,-6587.832884,689.485948
378.128909,6661.853478,-6883.915261,1072.533697
378.129243,7105.977043,-6883.915261,842.705048
378.129578,6661.853478,-7105.977043,919.314598
378.129912,6661.853478,-7031.956449,919.314598
378.130246,7105.977043,-6809.894666,919.314598
378.130580,7328.038826,-6513.812290,1072.533697
378.130915,7105.977043,-7105.977043,612.876398
378.131249,7105.977043,-6661.853478,689.485948
378.131583,7105.977043,-6661.853478,1072.533697
378.131918,6957.935855,-6439.791695,612.876398
378.132252,7105.977043,-5921.647536,1149.143247
378.132586,7328.038826,-6069.688724,842.705048
378.132921,7179.997637,-6587.832884,1149.143247
378.133255,7328.038826,-6069.688724,1225.752797
378.133589,7254.018232,-6513.812290,1072.533697
378.133924,7031.956449,-6513.812290,1225.752797
378.134258,6587.832884,-6513.812290,766.095498
378.134592,6513.812290,-7031.956449,842.705048
378.134926,6883.915261,-6291.750507,842.705048
378.135261,7624.121203,-7031.956449,612.876398
378.135595,7031.956449,-6587.832884,1072.533697
378.135929,6957.935855,-6957.935855,1378.971896
378.136264,6809.894666,-6587.832884,842.705048
378.136598,7254.018232,-6513.812290,995.924147
378.136932,6735.874072,-6513.812290,612.876398
378.137267,6735.874072,-6809.894666,612.876398
378.137601,7105.977043,-6365.771101,536.266849
378.137935,7105.977043,-6513.812290,1225.752797
378.138270,7328.038826,-5699.585753,306.438199
378.138604,7254.018232,-6661.853478,766.095498
378.138938,7105.977043,-6809.894666,1072.533697
378.139272,7402.059420,-6513.812290,536.266849
378.139607,7328.038826,-6291.750507,459.657299
378.139941,7105.977043,-6439.791695,612.876398
378.140275,7105.977043,-6291.750507,766.095498
378.140610,7105.977043,-6069.688724,689.485948
378.140944,6587.832884,-6439.791695,459.657299
378.141278,7031.956449,-6291.750507,842.705048
378.141613,6809.894666,-6365.771101,459.657299
378.141947,6587.832884,-6809.894666,383.047749
378.142281,6883.915261,-6735.874072,842.705048
378.142616,7031.956449,-6661.853478,919.314598
378.142950,7031.956449,-6809.894666,919.314598
378.143284,6439.791695,-7105.977043,995.924147
378.143618,6735.874072,-7328.038826,229.828649
378.143953,6735.874072,-7105.977043,766.095498
378.144287,7105.977043,-7550.100608,76.609550
378.144621,7031.956449,-6735.874072,229.828649
378.144956,7476.080014,-6513.812290,919.314598
378.145290,7105.977043,-6513.812290,919.314598
378.145624,6809.894666,-5995.668130,1302.362347
378.145959,7105.977043,-6291.750507,383.047749
378.146293,6883.915261,-6957.935855,459.657299
378.146627,7254.018232,-6661.853478,229.828649
378.146962,7254.018232,-6217.729913,689.485948
378.147296,7105.977043,-5847.626942,536.266849
378.147630,7105.977043,-6661.853478,842.705048
378.147964,7254.018232,-6291.750507,689.485948
378.148299,7105.977043,-6883.915261,689.485948
378.148633,6587.832884,-6217.729913,1225.752797
378.148967,6513.812290,-6735.874072,76.609550
378.149302,6661.853478,-6735.874072,536.266849
378.149636,6587.832884,-6957.935855,766.095498
378.149970,6957.935855,-6735.874072,919.314598
378.150305,7179.997637,-6957.935855,1149.143247
378.150639,6661.853478,-6735.874072,842.705048
378.150973,6217.729913,-7328.038826,842.705048
378.151308,6809.894666,-7031.956449,842.705048
378.151642,6957.935855,-7402.059420,1378.971896
378.151976,7031.956449,-6513.812290,459.657299
378.152310,7179.997637,-6365.771101,919.314598
378.152645,7105.977043,-6439.791695,919.314598
378.152979,7328.038826,-6439.791695,842.705048
378.153313,7254.018232,-6143.709319,919.314598
378.153648,7031.956449,-7105.977043,766.095498
378.153982,6957.935855,-6439.791695,766.095498
378.154316,7105.977043,-6587.832884,842.705048
378.154651,7254.018232,-6217.729913,995.924147
378.154985,7550.100608,-6069.688724,383.047749
378.155319,7328.038826,-6365.771101,919.314598
378.155654,7031.956449,-6735.874072,919.314598
378.155988,6957.935855,-6661.853478,1149.143247
378.156322,6587.832884,-6661.853478,536.266849
378.156657,6735.874072,-6883.915261,612.876398
378.156991,6735.874072,-7105.977043,842.705048
378.157325,6513.812290,-7105.977043,766.095498
378.157659,7105.977043,-6587.832884,1378.971896
378.157994,6587.832884,-7031.956449,1072.533697
378.158328,6957.935855,-7105.977043,766.095498
378.158662,6957.935855,-7105.977043,766.095498
378.158997,6513.812290,-6883.915261,995.924147
378.159331,6735.874072,-7105.977043,612.876398
378.159665,6809.894666,-6365.771101,612.876398
378.160000,7031.956449,-6883.915261,612.876398
378.160334,7179.997637,-6513.812290,306.438199
378.160668,6513.812290,-6439.791695,689.485948
378.161003,7031.956449,-6587.832884,919.314598
378.161337,7105.977043,-6365.771101,536.266849
378.161671,7254.018232,-6439.791695,689.485948
378.162005,6957.935855,-6291.750507,842.705048
378.162340,6957.935855,-6217.729913,995.924147
378.162674,7105.977043,-6365.771101,995.924147
378.163008,7105.977043,-6217.729913,153.219100
378.163343,6735.874072,-6513.812290,689.485948
378.163677,6513.812290,-6439.791695,536.266849
378.164011,6587.832884,-6883.915261,766.095498
378.164346,6809.894666,-6439.791695,919.314598
378.164680,6735.874072,-6809.894666,383.047749
378.165014,6587.832884,-6587.832884,612.876398
378.165349,6957.935855,-7105.977043,842.705048
378.165683,6439.791695,-7105.977043,229.828649
378.166017,6439.791695,-7105.977043,383.047749
378.166351,6513.812290,-7328.038826,536.266849
378.166686,7105.977043,-6661.853478,612.876398
378.167020,7476.080014,-6587.832884,842.705048
378.167354,7328.038826,-6513.812290,689.485948
378.167689,7179.997637,-6291.750507,766.095498
378.168023,7254.018232,-6661.853478,383.047749
378.168357,7254.018232,-6957.935855,76.609550
378.168692,7031.956449,-6439.791695,383.047749
378.169026,7476.080014,-6069.688724,459.657299
378.169360,7254.018232,-6217.729913,459.657299
378.169695,7476.080014,-6587.832884,995.924147
378.170029,7402.059420,-6883.915261,1378.971896
378.170363,7624.121203,-6957.935855,919.314598
378.170697,6883.915261,-6365.771101,689.485948
378.171032,6513.812290,-7031.956449,153.219100
378.171366,6217.729913,-6661.853478,919.314598
378.171700,6809.894666,-6809.894666,689.485948
378.172035,6883.915261,-6883.915261,766.095498
378.172369,7031.956449,-6439.791695,766.095498
378.172703,6957.935855,-7105.977043,689.485948
378.173038,7031.956449,-6883.915261,459.657299
378.173372,6809.894666,-6735.874072,612.876398
378.173706,6809.894666,-7031.956449,689.485948
378.174041,6809.894666,-6661.853478,536.266849
378.174375,7179.997637,-6217.729913,459.657299
378.174709,7254.018232,-6587.832884,689.485948
378.175043,7476.080014,-6439.791695,919.314598
378.175378,7328.038826,-6735.874072,842.705048
378.175712,7105.977043,-6587.832884,612.876398
378.176046,6957.935855,-6513.812290,766.095498
378.176381,7254.018232,-6143.709319,766.095498
378.176715,7105.977043,-6513.812290,919.314598
378.177049,7254.018232,-5921.647536,919.314598
378.177384,7402.059420,-5921.647536,1225.752797
378.177718,7105.977043,-6439.791695,995.924147
378.178052,7031.956449,-6735.874072,842.705048
378.178387,6661.853478,-6587.832884,536.266849
378.178721,6735.874072,-7105.977043,842.705048
378.179055,7105.977043,-6587.832884,1302.362347
378.179389,6883.915261,-6587.832884,1225.752797
378.179724,6883.915261,-6883.915261,919.314598
378.180058,6661.853478,-6661.853478,689.485948
378.180392,6661.853478,-7105.977043,1149.143247
378.180727,6735.874072,-6957.935855,689.485948
378.181061,6513.812290,-7031.956449,842.705048
378.181395,6587.832884,-6587.832884,612.876398
378.181730,6957.935855,-6735.874072,919.314598
378.182064,7179.997637,-6735.874072,689.485948
378.182398,7328.038826,-6661.853478,1072.533697
378.182732,7402.059420,-6735.874072,919.314598
378.183067,7105.977043,-6883.915261,919.314598
378.183401,7328.038826,-6217.729913,995.924147
378.183735,7476.080014,-6069.688724,842.705048
378.184070,7031.956449,-5773.606348,919.314598
378.184404,7105.977043,-6587.832884,1072.533697
378.184738,7402.059420,-6143.709319,766.095498
378.185072,7031.956449,-6217.729913,1532.190996
378.185407,6735.874072,-6291.750507,689.485948
378.185741,6513.812290,-6735.874072,383.047749
378.186075,6513.812290,-6735.874072,919.314598
378.186410,7105.977043,-6513.812290,919.314598
378.186744,7328.038826,-6513.812290,919.314598
378.187078,7105.977043,-6661.853478,919.314598
378.187412,7105.977043,-6587.832884,919.314598
378.187747,7031.956449,-6957.935855,1225.752797
378.188081,7105.977043,-6439.791695,919.314598
378.188415,6957.935855,-7179.997637,689.485948
378.188749,7031.956449,-6661.853478,536.266849
378.189084,7105.977043,-6217.729913,995.924147
378.189418,7105.977043,-5699.585753,536.266849
378.189752,7105.977043,-6217.729913,76.609550
378.190087,7328.038826,-6587.832884,842.705048
378.190421,7105.977043,-6809.894666,919.314598
378.190755,6957.935855,-6513.812290,536.266849
378.191089,7994.224174,-6143.709319,459.657299
378.191424,7105.977043,-6365.771101,536.266849
378.191758,7328.038826,-6143.709319,995.924147
378.192092,7402.059420,-6291.750507,1149.143247
378.192427,7105.977043,-6291.750507,1685.410096
378.192761,7105.977043,-6365.771101,612.876398
378.193095,6661.853478,-6735.874072,536.266849
378.193429,6439.791695,-6957.935855,1149.143247
378.193764,7031.956449,-6365.771101,919.314598
378.194098,7105.977043,-6587.832884,1072.533697
378.194432,6809.894666,-6513.812290,842.705048
378.194766,6883.915261,-6735.874072,919.314598
378.195101,6809.894666,-6883.915261,536.266849
378.195435,7254.018232,-7105.977043,1072.533697
378.195769,6809.894666,-6957.935855,536.266849
378.196104,6809.894666,-6957.935855,689.485948
378.196438,7105.977043,-6291.750507,766.095498
378.196772,7105.977043,-6809.894666,919.314598
378.197106,7624.121203,-6291.750507,689.485948
378.197441,6735.874072,-6809.894666,459.657299
378.197775,6957.935855,-6661.853478,689.485948
378.198109,7105.977043,-6291.750507,536.266849
378.198444,7698.141797,-6217.729913,1378.971896
378.198778,7105.977043,-6365.771101,1149.143247
378.199112,7179.997637,-5995.668130,919.314598
378.199446,7179.997637,-6291.750507,919.314598
378.199781,7105.977043,-6513.812290,919.314598
378.200115,7254.018232,-6217.729913,689.485948
378.200449,6809.894666,-6661.853478,383.047749
378.200783,6587.832884,-6883.915261,612.876398
378.201118,6439.791695,-6809.894666,995.924147
378.201452,6883.915261,-6513.812290,995.924147
378.201786,6957.935855,-6809.894666,1072.533697
378.202121,6587.832884,-6883.915261,995.924147
378.202455,6513.812290,-7031.956449,766.095498
378.202789,6735.874072,-6883.915261,689.485948
378.203123,6587.832884,-6957.935855,1532.190996
378.203458,6809.894666,-6587.832884,536.266849
378.203792,7031.956449,-6291.750507,766.095498
378.204126,7179.997637,-6587.832884,842.705048
378.204461,7254.018232,-6587.832884,1072.533697
378.204795,7179.997637,-6809.894666,919.314598
378.205129,6957.935855,-7031.956449,842.705048
378.205463,6957.935855,-6439.791695,612.876398
378.205798,7179.997637,-6365.771101,689.485948
378.206132,7846.182985,-6143.709319,536.266849
378.206466,7105.977043,-6365.771101,995.924147
378.206800,7254.018232,-5995.668130,919.314598
378.207135,7328.038826,-6735.874072,919.314598
378.207469,6883.915261,-6735.874072,1149.143247
378.207803,6735.874072,-6809.894666,842.705048
378.208138,6957.935855,-6735.874072,689.485948
378.208472,7031.956449,-6883.915261,1072.533697
378.208806,7105.977043,-6809.894666,919.314598
378.209140,6735.874072,-6809.894666,1532.190996
378.209475,6883.915261,-6809.894666,1149.143247
378.209809,6957.935855,-7105.977043,536.266849
378.210143,6735.874072,-6735.874072,459.657299
378.210477,6735.874072,-7179.997637,459.657299
378.210812,7031.956449,-6587.832884,536.266849
378.211146,7179.997637,-6587.832884,842.705048
378.211480,6883.915261,-6661.853478,919.314598
378.211815,7105.977043,-6809.894666,766.095498
378.212149,7624.121203,-6957.935855,612.876398
378.212483,6883.915261,-6809.894666,689.485948
378.212817,6957.935855,-6439.791695,612.876398
378.213152,7105.977043,-6587.832884,383.047749
378.213486,7254.018232,-5403.503377,842.705048
378.213820,7105.977043,-6069.688724,536.266849
378.214155,7031.956449,-6217.729913,995.924147
378.214489,7031.956449,-6439.791695,612.876398
378.214823,6587.832884,-6513.812290,689.485948
378.215157,6513.812290,-6069.688724,306.438199
378.215492,6661.853478,-6809.894666,612.876398
378.215826,6957.935855,-6809.894666,919.314598
378.216160,6883.915261,-6587.832884,842.705048
378.216494,7105.977043,-6883.915261,383.047749
378.216829,6735.874072,-6957.935855,1072.533697
378.217163,7031.956449,-7105.977043,383.047749
378.217497,6883.915261,-6883.915261,536.266849
378.217832,6513.812290,-7105.977043,689.485948
378.218166,6587.832884,-6365.771101,766.095498
378.218500,7105.977043,-6365.771101,459.657299
378.218834,7105.977043,-6513.812290,229.828649
378.219169,7254.018232,-6217.729913,536.266849
378.219503,7402.059420,-7105.977043,459.657299
378.219837,7105.977043,-6661.853478,766.095498
378.220172,7105.977043,-6217.729913,995.924147
378.220506,7550.100608,-5995.668130,306.438199
378.220840,7254.018232,-6217.729913,842.705048
378.221174,7698.141797,-6439.791695,766.095498
378.221509,7402.059420,-6365.771101,689.485948
378.221843,7179.997637,-6439.791695,459.657299
378.222177,6957.935855,-6661.853478,536.266849
378.222511,6291.750507,-6439.791695,766.095498
378.222846,6809.894666,-6809.894666,459.657299
378.223180,6735.874072,-6661.853478,612.876398
378.223514,7105.977043,-6587.832884,1072.533697
378.223849,7105.977043,-6513.812290,536.266849
378.224183,6957.935855,-6661.853478,1455.581446
378.224517,6883.915261,-6809.894666,536.266849
378.224851,6809.894666,-6661.853478,459.657299
378.225186,6809.894666,-6735.874072,536.266849
378.225520,6587.832884,-6365.771101,919.314598
378.225854,7105.977043,-6217.729913,612.876398
378.226189,7031.956449,-6217.729913,766.095498
378.226523,7179.997637,-6291.750507,612.876398
378.226857,7179.997637,-6513.812290,842.705048
378.227191,7254.018232,-6735.874072,919.314598
378.227526,7105.977043,-6439.791695,689.485948
378.227860,7105.977043,-6069.688724,536.266849
378.228194,7105.977043,-6217.729913,842.705048
378.228528,7328.038826,-5847.626942,1072.533697
378.228863,7550.100608,-6291.750507,766.095498
378.229197,7254.018232,-6513.812290,1072.533697
378.229531,7105.977043,-6661.853478,995.924147
378.229866,6883.915261,-6587.832884,612.876398
378.230200,7105.977043,-6365.771101,306.438199
378.230534,6735.874072,-6735.874072,1072.533697
378.230868,6735.874072,-6365.771101,536.266849
378.231203,6809.894666,-6809.894666,689.485948
378.231537,6661.853478,-6735.874072,995.924147
378.231871,6809.894666,-6883.915261,383.047749
378.232206,6957.935855,-7031.956449,842.705048
378.232540,6439.791695,-7105.977043,919.314598
378.232874,6661.853478,-6587.832884,383.047749
378.233208,6883.915261,-6587.832884,536.266849
378.233543,7179.997637,-6735.874072,536.266849
378.233877,7402.059420,-6513.812290,842.705048
378.234211,7105.977043,-6587.832884,612.876398
378.234545,7179.997637,-6957.935855,612.876398
378.234880,6883.915261,-6513.812290,1149.143247
378.235214,7254.018232,-6217.729913,919.314598
378.235548,6957.935855,-6143.709319,459.657299
378.235883,7105.977043,-6439.791695,689.485948
378.236217,7550.100608,-6291.750507,1302.362347
378.236551,7105.977043,-6957.935855,919.314598
378.236885,7031.956449,-6217.729913,612.876398
378.237220,6587.832884,-6661.853478,153.219100
378.237554,6439.791695,-6809.894666,-306.438199
378.237888,6661.853478,-6809.894666,766.095498
378.238223,7105.977043,-6661.853478,766.095498
378.238557,6957.935855,-6735.874072,766.095498
378.238891,6809.894666,-6883.915261,842.705048
378.239225,6735.874072,-6661.853478,919.314598
378.239560,6439.791695,-7105.977043,766.095498
378.239894,6587.832884,-7179.997637,919.314598
378.240228,6809.894666,-6883.915261,536.266849
378.240562,7105.977043,-6143.709319,842.705048
378.240897,7105.977043,-6365.771101,842.705048
378.241231,7031.956449,-6513.812290,766.095498
378.241565,7105.977043,-6661.853478,766.095498
378.241900,7031.956449,-6809.894666,919.314598
378.242234,7328.038826,-6217.729913,995.924147
378.242568,7254.018232,-6217.729913,766.095498
378.242902,7105.977043,-6365.771101,995.924147
378.243237,7105.977043,-6069.688724,1072.533697
378.243571,7698.141797,-6735.874072,1149.143247
378.243905,6883.915261,-6143.709319,153.219100
378.244239,7031.956449,-6883.915261,1302.362347
378.244574,6735.874072,-6439.791695,689.485948
378.244908,6957.935855,-6365.771101,1225.752797
378.245242,6883.915261,-6735.874072,1149.143247
378.245577,6883.915261,-7031.956449,1608.800546
378.245911,6809.894666,-6735.874072,919.314598
378.246245,6661.853478,-6587.832884,1225.752797
378.246579,6513.812290,-7031.956449,1302.362347
378.246914,6883.915261,-7476.080014,1378.971896
378.247248,7105.977043,-6809.894666,1149.143247
378.247582,6587.832884,-6735.874072,766.095498
378.247917,7105.977043,-6735.874072,612.876398
378.248251,7624.121203,-6661.853478,1838.629195
378.248585,7402.059420,-6587.832884,1225.752797
378.248919,7402.059420,-6365.771101,842.705048
378.249254,7105.977043,-6883.915261,1149.143247
378.249588,7179.997637,-6513.812290,1225.752797
378.249922,7698.141797,-6439.791695,1302.362347
378.250256,7254.018232,-6291.750507,1149.143247
378.250591,6883.915261,-6069.688724,1149.143247
378.250925,7254.018232,-5995.668130,1378.971896
378.251259,7031.956449,-6735.874072,1608.800546
378.251594,6735.874072,-6587.832884,1225.752797
378.251928,6291.750507,-6439.791695,1072.533697
378.252262,6439.791695,-6735.874072,995.924147
378.252596,6513.812290,-6883.915261,1149.143247
378.252931,6809.894666,-6365.771101,1225.752797
378.253265,6735.874072,-6661.853478,1225.752797
378.253599,6883.915261,-6365.771101,995.924147
378.253934,6661.853478,-7105.977043,689.485948
378.254268,6957.935855,-6661.853478,1378.971896
378.254602,6809.894666,-7105.977043,1149.143247
378.254936,6069.688724,-6883.915261,536.266849
378.255271,7031.956449,-6661.853478,842.705048
378.255605,7031.956449,-6439.791695,612.876398
378.255939,7105.977043,-6883.915261,536.266849
378.256273,7179.997637,-6661.853478,536.266849
378.256608,6883.915261,-7105.977043,842.705048
378.256942,7179.997637,-6661.853478,383.047749
378.257276,7402.059420,-6217.729913,995.924147
378.257611,7254.018232,-6365.771101,612.876398
378.257945,7254.018232,-6883.915261,536.266849
378.258279,7550.100608,-6587.832884,919.314598
378.258613,7328.038826,-6735.874072,766.095498
378.258948,7328.038826,-6143.709319,842.705048
378.259282,6883.915261,-6661.853478,536.266849
378.259616,6735.874072,-6809.894666,383.047749
378.259951,6957.935855,-6957.935855,842.705048
378.260285,7105.977043,-6661.853478,459.657299
378.260619,6809.894666,-6883.915261,153.219100
378.260953,6809.894666,-6735.874072,919.314598
378.261288,6513.812290,-7105.977043,153.219100
378.261622,6809.894666,-7031.956449,0.000000
378.261956,6069.688724,-7105.977043,459.657299
378.262290,6809.894666,-6883.915261,536.266849
378.262625,7179.997637,-6513.812290,383.047749
378.262959,7105.977043,-6069.688724,229.828649
378.263293,7105.977043,-6143.709319,689.485948
378.263628,6883.915261,-6069.688724,383.047749
378.263962,7105.977043,-6883.915261,459.657299
378.264296,7179.997637,-6217.729913,306.438199
378.264630,7105.977043,-6735.874072,306.438199
378.264965,6735.874072,-6439.791695,536.266849
378.265299,7105.977043,-6143.709319,766.095498
378.265633,7328.038826,-6365.771101,842.705048
378.265968,7254.018232,-6735.874072,612.876398
378.266302,7031.956449,-6439.791695,229.828649
378.266636,6809.894666,-6661.853478,536.266849
378.266970,6587.832884,-6661.853478,229.828649
378.267305,6809.894666,-6883.915261,689.485948
378.267639,6809.894666,-6809.894666,919.314598
378.267973,6957.935855,-6883.915261,612.876398
378.268307,6809.894666,-6809.894666,689.485948
378.268642,6883.915261,-6957.935855,459.657299
378.268976,7105.977043,-6661.853478,459.657299
378.269310,6809.894666,-7179.997637,1302.362347
378.269645,6809.894666,-6883.915261,612.876398
378.269979,7031.956449,-6291.750507,995.924147
378.270313,7105.977043,-6587.832884,1072.533697
378.270647,7105.977043,-6513.812290,689.485948
378.270982,7402.059420,-6365.771101,766.095498
378.271316,7031.956449,-6809.894666,766.095498
378.271650,7105.977043,-6439.791695,612.876398
378.271985,7179.997637,-6365.771101,536.266849
378.272319,7031.956449,-6439.791695,1378.971896
378.272653,6809.894666,-6291.750507,536.266849
378.272987,6957.935855,-6587.832884,1378.971896
378.273322,7328.038826,-6809.894666,1072.533697
378.273656,7179.997637,-6587.832884,1225.752797
378.273990,7402.059420,-7031.956449,1072.533697
378.274324,6587.832884,-7031.956449,919.314598
378.274659,7031.956449,-6587.832884,995.924147
378.274993,7105.977043,-6587.832884,1302.362347
378.275327,7254.018232,-6291.750507,919.314598
378.275662,7105.977043,-6587.832884,1302.362347
378.275996,6883.915261,-6809.894666,1149.143247
378.276330,6735.874072,-7105.977043,612.876398
378.276664,6587.832884,-7031.956449,919.314598
378.276999,6809.894666,-7105.977043,689.485948
378.277333,7105.977043,-6439.791695,1225.752797
378.277667,7179.997637,-6365.771101,1072.533697
378.278001,7105.977043,-6291.750507,995.924147
378.278336,7476.080014,-6291.750507,1302.362347
378.278670,7105.977043,-6217.729913,1225.752797
378.279004,7031.956449,-6735.874072,842.705048
378.279339,7328.038826,-5995.668130,1149.143247
378.279673,7179.997637,-6291.750507,1455.581446
378.280007,7402.059420,-6513.812290,842.705048
378.280341,7179.997637,-6217.729913,1225.752797
378.280676,7254.018232,-7105.977043,1532.190996
378.281010,6809.894666,-6513.812290,1608.800546
378.281344,6217.729913,-6143.709319,1762.019645
378.281679,6143.709319,-6439.791695,766.095498
378.282013,6439.791695,-6661.853478,1455.581446
378.282347,6513.812290,-6809.894666,1378.971896
378.282681,6809.894666,-6883.915261,1455.581446
378.283016,6809.894666,-6291.750507,1302.362347
378.283350,6513.812290,-7031.956449,842.705048
378.283684,6587.832884,-6957.935855,1149.143247
378.284018,6143.709319,-7254.018232,1225.752797
378.284353,7105.977043,-6883.915261,1455.581446
378.284687,7402.059420,-7031.956449,1149.143247
378.285021,7179.997637,-6291.750507,1149.143247
378.285356,6957.935855,-6439.791695,1149.143247
378.285690,7105.977043,-6513.812290,919.314598
378.286024,6957.935855,-6809.894666,919.314598
378.286358,6809.894666,-6587.832884,842.705048
378.286693,7105.977043,-6587.832884,919.314598
378.287027,7031.956449,-6291.750507,1149.143247
378.287361,7402.059420,-6291.750507,689.485948
378.287696,7846.182985,-6069.688724,1302.362347
378.288030,7328.038826,-6439.791695,1225.752797
378.288364,7179.997637,-6513.812290,766.095498
378.288698,7105.977043,-6587.832884,842.705048
378.289033,6957.935855,-6291.750507,153.219100
378.289367,7254.018232,-7031.956449,1149.143247
378.289701,7105.977043,-6661.853478,1072.533697
378.290036,6809.894666,-7105.977043,842.705048
378.290370,6587.832884,-6217.729913,995.924147
378.290704,6365.771101,-6883.915261,612.876398
378.291038,6735.874072,-6809.894666,0.000000
378.291373,6439.791695,-6883.915261,383.047749
378.291707,7105.977043,-6661.853478,76.609550
378.292041,7402.059420,-6809.894666,1072.533697
378.292375,7179.997637,-6217.729913,919.314598
378.292710,7179.997637,-6365.771101,459.657299
378.293044,7624.121203,-6513.812290,536.266849
378.293378,7550.100608,-7031.956449,842.705048
378.293713,7254.018232,-6587.832884,229.828649
378.294047,7402.059420,-5995.668130,612.876398
378.294381,7254.018232,-6291.750507,536.266849
378.294715,7105.977043,-6365.771101,153.219100
378.295050,7031.956449,-6365.771101,689.485948
378.295384,6957.935855,-6587.832884,383.047749
378.295718,6957.935855,-6957.935855,383.047749
378.296053,6809.894666,-6513.812290,153.219100
378.296387,6439.791695,-7031.956449,0.000000
378.296721,6365.771101,-6439.791695,459.657299
378.297055,6883.915261,-6883.915261,842.705048
378.297390,7179.997637,-6883.915261,612.876398
378.297724,7105.977043,-7105.977043,612.876398
378.298058,6735.874072,-6957.935855,76.609550
378.298392,6587.832884,-7105.977043,153.219100
378.298727,6365.771101,-7105.977043,459.657299
378.299061,6587.832884,-6957.935855,0.000000
378.299395,6883.915261,-6883.915261,383.047749
378.299730,6809.894666,-6809.894666,612.876398
378.300064,6957.935855,-6883.915261,536.266849
378.300398,7105.977043,-6735.874072,0.000000
378.300732,6957.935855,-7105.977043,383.047749
378.301067,7179.997637,-6587.832884,612.876398
378.301401,7179.997637,-6735.874072,536.266849
378.301735,7402.059420,-6661.853478,919.314598
378.302070,7254.018232,-6365.771101,459.657299
378.302404,7328.038826,-6587.832884,612.876398
378.302738,7328.038826,-6439.791695,766.095498
378.303072,6957.935855,-6809.894666,1225.752797
378.303407,6809.894666,-6513.812290,612.876398
378.303741,6661.853478,-6587.832884,459.657299
378.304075,6809.894666,-6957.935855,612.876398
378.304409,6883.915261,-6735.874072,995.924147
378.304744,6513.812290,-6587.832884,1072.533697
378.305078,7105.977043,-6365.771101,1149.143247
378.305412,6883.915261,-6661.853478,842.705048
378.305747,6587.832884,-7179.997637,995.924147
378.306081,6809.894666,-7105.977043,995.924147
378.306415,6809.894666,-6809.894666,536.266849
378.306749,7105.977043,-6365.771101,536.266849
378.307084,6957.935855,-6365.771101,995.924147
378.307418,7402.059420,-6587.832884,1072.533697
378.307752,7624.121203,-6069.688724,995.924147
378.308087,7550.100608,-6587.832884,995.924147
378.308421,6735.874072,-5995.668130,612.876398
378.308755,7402.059420,-5921.647536,766.095498
378.309089,7105.977043,-6217.729913,766.095498
378.309424,7105.977043,-6217.729913,995.924147
378.309758,7105.977043,-6365.771101,1072.533697
378.310092,7328.038826,-6587.832884,919.314598
378.310426,7031.956449,-6809.894666,1149.143247
378.310761,6661.853478,-6661.853478,842.705048
378.311095,6513.812290,-6883.915261,536.266849
378.311429,6661.853478,-6513.812290,1072.533697
378.311764,6587.832884,-6661.853478,766.095498
378.312098,6735.874072,-6735.874072,612.876398
378.312432,6661.853478,-6735.874072,1302.362347
378.312766,6513.812290,-6809.894666,842.705048
378.313101,6883.915261,-6661.853478,459.657299
378.313435,6365.771101,-6809.894666,995.924147
378.313769,6439.791695,-7179.997637,536.266849
378.314104,6809.894666,-6587.832884,459.657299
378.314438,7105.977043,-6809.894666,1225.752797
378.314772,7402.059420,-6587.832884,612.876398
378.315106,7254.018232,-6809.894666,919.314598
378.315441,7105.977043,-6883.915261,842.705048
378.315775,7105.977043,-6735.874072,689.485948
378.316109,7105.977043,-5921.647536,612.876398
378.316443,7328.038826,-6217.729913,536.266849
378.316778,7105.977043,-6513.812290,612.876398
378.317112,7179.997637,-6439.791695,919.314598
378.317446,7105.977043,-6587.832884,919.314598
378.317781,7254.018232,-6513.812290,1072.533697
378.318115,7105.977043,-6439.791695,689.485948
378.318449,7031.956449,-6735.874072,536.266849
378.318783,7031.956449,-6587.832884,612.876398
378.319118,7031.956449,-6735.874072,919.314598
378.319452,6883.915261,-6439.791695,842.705048
378.319786,7105.977043,-6661.853478,1149.143247
378.320121,7031.956449,-6513.812290,919.314598
378.320455,6883.915261,-6661.853478,536.266849
378.320789,6883.915261,-6587.832884,536.266849
378.321123,6439.791695,-7031.956449,229.828649
378.321458,7105.977043,-6735.874072,919.314598
378.321792,7254.018232,-6439.791695,995.924147
378.322126,6809.894666,-6365.771101,1455.581446
378.322460,7254.018232,-6291.750507,919.314598
378.322795,7105.977043,-6587.832884,1072.533697
378.323129,7254.018232,-6439.791695,919.314598
378.323463,7179.997637,-6217.729913,536.266849
378.323798,7328.038826,-6217.729913,1532.190996
378.324132,7328.038826,-5921.647536,612.876398
378.324466,7624.121203,-6217.729913,1072.533697
378.324800,7254.018232,-6291.750507,995.924147
378.325135,7179.997637,-6661.853478,1225.752797
378.325469,6883.915261,-6365.771101,689.485948
378.325803,6661.853478,-6883.915261,766.095498
378.326138,6735.874072,-6883.915261,1149.143247
378.326472,6661.853478,-6661.853478,919.314598
378.326806,6957.935855,-6439.791695,383.047749
378.327140,7031.956449,-6661.853478,919.314598
378.327475,6809.894666,-7402.059420,766.095498
378.327809,6957.935855,-7105.977043,766.095498
378.328143,6735.874072,-6957.935855,536.266849
378.328477,6513.812290,-7105.977043,383.047749
378.328812,7031.956449,-6735.874072,459.657299
378.329146,7105.977043,-6809.894666,459.657299
378.329480,7105.977043,-7031.956449,612.876398
378.329815,7624.121203,-6661.853478,459.657299
378.330149,7328.038826,-7105.977043,689.485948
378.330483,7179.997637,-6217.729913,612.876398
378.330817,7031.956449,-6587.832884,153.219100
378.331152,7402.059420,-6661.853478,153.219100
378.331486,7105.977043,-6587.832884,612.876398
378.331820,7179.997637,-6217.729913,766.095498
378.332155,7179.997637,-6513.812290,919.314598
378.332489,7105.977043,-6809.894666,689.485948
378.332823,7031.956449,-6513.812290,383.047749
378.333157,6735.874072,-6661.853478,612.876398
378.333492,6661.853478,-7031.956449,766.095498
378.333826,6809.894666,-6809.894666,995.924147
378.334160,6883.915261,-6513.812290,766.095498
378.334495,6957.935855,-6513.812290,766.095498
378.334829,6883.915261,-6587.832884,919.314598
378.335163,6809.894666,-6661.853478,306.438199
378.335497,6957.935855,-6587.832884,612.876398
378.335832,7105.977043,-6809.894666,229.828649
378.336166,7105.977043,-6587.832884,536.266849
378.336500,7179.997637,-6439.791695,842.705048
378.336834,7105.977043,-6587.832884,612.876398
378.337169,7105.977043,-6291.750507,919.314598
378.337503,7105.977043,-6883.915261,612.876398
378.337837,6883.915261,-6365.771101,689.485948
378.338172,7105.977043,-6587.832884,612.876398
378.338506,7402.059420,-6143.709319,306.438199
378.338840,6957.935855,-5921.647536,1149.143247
378.339174,6513.812290,-6217.729913,612.876398
378.339509,7105.977043,-6069.688724,766.095498
378.339843,6809.894666,-6809.894666,842.705048
378.340177,6809.894666,-6291.750507,1378.971896
378.340512,6957.935855,-6587.832884,689.485948
378.340846,6661.853478,-6735.874072,995.924147
378.341180,6513.812290,-6883.915261,919.314598
378.341514,6365.771101,-6809.894666,766.095498
378.341849,6809.894666,-6735.874072,1072.533697
378.342183,6809.894666,-6883.915261,1149.143247
378.342517,6587.832884,-7105.977043,536.266849
378.342851,6735.874072,-6957.935855,766.095498
378.343186,6957.935855,-6957.935855,842.705048
378.343520,7105.977043,-6587.832884,689.485948
378.343854,7105.977043,-6291.750507,995.924147
378.344189,7254.018232,-6587.832884,612.876398
378.344523,7402.059420,-6513.812290,995.924147
378.344857,7550.100608,-6661.853478,1378.971896
378.345191,7105.977043,-6513.812290,612.876398
378.345526,7105.977043,-6735.874072,459.657299
378.345860,7254.018232,-6587.832884,919.314598
378.346194,7476.080014,-6587.832884,995.924147
378.346529,7402.059420,-5995.668130,1149.143247
378.346863,7105.977043,-6069.688724,842.705048
378.347197,7328.038826,-6291.750507,995.924147
378.347531,6957.935855,-6217.729913,536.266849
378.347866,7105.977043,-5921.647536,689.485948
378.348200,6661.853478,-6883.915261,919.314598
378.348534,6809.894666,-6661.853478,842.705048
378.348868,6809.894666,-6735.874072,612.876398
378.349203,7105.977043,-6883.915261,919.314598
378.349537,6957.935855,-6883.915261,689.485948
378.349871,6883.915261,-6957.935855,536.266849
378.350206,6883.915261,-6957.935855,919.314598
378.350540,7031.956449,-6809.894666,612.876398
378.350874,7105.977043,-6143.709319,612.876398
378.351208,7105.977043,-5773.606348,612.876398
378.351543,7254.018232,-6439.791695,842.705048
378.351877,7402.059420,-5847.626942,766.095498
378.352211,7179.997637,-7105.977043,1072.533697
378.352546,7105.977043,-6735.874072,612.876398
378.352880,7031.956449,-6439.791695,0.000000
378.353214,7031.956449,-6143.709319,689.485948
378.353548,7105.977043,-6217.729913,689.485948
378.353883,7105.977043,-6439.791695,689.485948
378.354217,7254.018232,-6513.812290,612.876398
378.354551,7105.977043,-6883.915261,919.314598
378.354885,7105.977043,-6439.791695,995.924147
378.355220,6809.894666,-6291.750507,536.266849
378.355554,6587.832884,-6661.853478,995.924147
378.355888,6809.894666,-6735.874072,995.924147
378.356223,6587.832884,-6735.874072,536.266849
378.356557,6735.874072,-6957.935855,612.876398
378.356891,6587.832884,-6809.894666,76.609550
378.357225,6587.832884,-7105.977043,689.485948
378.357560,6513.812290,-6883.915261,536.266849
378.357894,6957.935855,-6883.915261,536.266849
378.358228,6957.935855,-6661.853478,536.266849
378.358563,7328.038826,-6661.853478,689.485948
378.358897,7179.997637,-6439.791695,766.095498
378.359231,7402.059420,-6365.771101,842.705048
378.359565,7328.038826,-6883.915261,689.485948
378.359900,7328.038826,-6439.791695,1072.533697
378.360234,7179.997637,-6957.935855,459.657299
378.360568,7105.977043,-6661.853478,766.095498
378.360902,6957.935855,-5921.647536,459.657299
378.361237,7105.977043,-6587.832884,919.314598
378.361571,7254.018232,-6217.729913,995.924147
378.361905,7328.038826,-6883.915261,919.314598
378.362240,7105.977043,-6143.709319,842.705048
378.362574,6957.935855,-6513.812290,459.657299
378.362908,6809.894666,-6587.832884,1378.971896
378.363242,6809.894666,-6513.812290,766.095498
378.363577,6735.874072,-6439.791695,306.438199
378.363911,6809.894666,-6883.915261,689.485948
378.364245,7105.977043,-7179.997637,842.705048
378.364580,6661.853478,-6957.935855,76.609550
378.364914,7031.956449,-6291.750507,306.438199
378.365248,7031.956449,-7402.059420,612.876398
378.365582,7031.956449,-6439.791695,766.095498
378.365917,7105.977043,-6217.729913,919.314598
378.366251,7105.977043,-6291.750507,459.657299
378.366585,7179.997637,-6069.688724,766.095498
378.366919,7179.997637,-6365.771101,766.095498
378.367254,6661.853478,-6291.750507,1149.143247
378.367588,7031.956449,-6291.750507,153.219100
378.367922,7105.977043,-6513.812290,689.485948
378.368257,7105.977043,-6217.729913,536.266849
378.368591,7031.956449,-6587.832884,766.095498
378.368925,7550.100608,-6143.709319,1225.752797
378.369259,7105.977043,-6439.791695,995.924147
378.369594,6809.894666,-6291.750507,612.876398
378.369928,7031.956449,-6957.935855,383.047749
378.370262,6883.915261,-7031.956449,689.485948
378.370597,7105.977043,-6957.935855,383.047749
378.370931,6143.709319,-6809.894666,536.266849
378.371265,6957.935855,-6883.915261,766.095498
378.371599,6661.853478,-7105.977043,919.314598
378.371934,6513.812290,-7031.956449,1072.533697
378.372268,6661.853478,-7254.018232,766.095498
378.372602,6587.832884,-7105.977043,612.876398
378.372937,7328.038826,-7105.977043,383.047749
378.373271,7105.977043,-6513.812290,766.095498
378.373605,7105.977043,-6809.894666,842.705048
378.373939,7179.997637,-6439.791695,842.705048
378.374274,6809.894666,-7031.956449,536.266849
378.374608,6883.915261,-6513.812290,1072.533697
378.374942,7550.100608,-6883.915261,689.485948
378.375276,7031.956449,-6217.729913,919.314598
378.375611,6957.935855,-6143.709319,612.876398
378.375945,7105.977043,-6069.688724,919.314598
378.376279,7105.977043,-6217.729913,842.705048
378.376614,7105.977043,-6291.750507,689.485948
378.376948,6809.894666,-6069.688724,1149.143247
378.377282,6513.812290,-6069.688724,612.876398
378.377616,6809.894666,-6587.832884,919.314598
378.377951,6883.915261,-6513.812290,842.705048
378.378285,6809.894666,-6735.874072,689.485948
378.378619,6957.935855,-6587.832884,919.314598
378.378954,6809.894666,-6809.894666,76.609550
378.379288,6735.874072,-7031.956449,459.657299
378.379622,6735.874072,-6587.832884,766.095498
378.379956,6661.853478,-6883.915261,842.705048
378.380291,7179.997637,-6587.832884,689.485948
378.380625,7328.038826,-6513.812290,459.657299
378.380959,7105.977043,-6587.832884,995.924147
378.381293,7550.100608,-6143.709319,842.705048
378.381628,7179.997637,-7105.977043,919.314598
378.381962,7179.997637,-6217.729913,766.095498
378.382296,7105.977043,-6513.812290,459.657299
378.382637,7550.100608,-6291.750507,459.657299
378.382971,7254.018232,-6365.771101,1072.533697
378.383305,7179.997637,-6513.812290,919.314598
378.383639,7254.018232,-6439.791695,1072.533697
378.383974,7254.018232,-6365.771101,919.314598
378.384308,7105.977043,-6291.750507,612.876398
378.384642,6809.894666,-6587.832884,689.485948
378.384977,6809.894666,-6809.894666,612.876398
378.385311,6957.935855,-6661.853478,1072.533697
378.385645,6513.812290,-6217.729913,1072.533697
378.385979,6735.874072,-6439.791695,842.705048
378.386314,6661.853478,-6661.853478,995.924147
378.386648,6587.832884,-6883.915261,612.876398
378.386982,7105.977043,-6661.853478,1302.362347
378.387317,6809.894666,-6883.915261,689.485948
378.387651,7105.977043,-6661.853478,766.095498
378.387985,7179.997637,-6439.791695,1072.533697
378.388319,7031.956449,-6661.853478,995.924147
378.388654,7698.141797,-6809.894666,995.924147
378.388988,7031.956449,-6661.853478,1225.752797
378.389322,7105.977043,-6513.812290,1072.533697
378.389657,7105.977043,-5921.647536,766.095498
378.389991,6883.915261,-5921.647536,1838.629195
378.390325,7031.956449,-5921.647536,1072.533697
378.390659,6883.915261,-6365.771101,1225.752797
378.390994,7179.997637,-5995.668130,1455.581446
378.391328,7254.018232,-6513.812290,1225.752797
378.391662,7328.038826,-5921.647536,1149.143247
378.391997,6883.915261,-6661.853478,919.314598
378.392331,6735.874072,-6957.935855,1225.752797
378.392665,6661.853478,-6883.915261,1072.533697
378.392999,6587.832884,-6587.832884,612.876398
378.393334,6883.915261,-7105.977043,1455.581446
378.393668,6809.894666,-6957.935855,1378.971896
378.394002,6439.791695,-7031.956449,766.095498
378.394336,6513.812290,-6513.812290,919.314598
378.394671,7105.977043,-7402.059420,995.924147
378.395005,6883.915261,-6809.894666,612.876398
378.395339,7179.997637,-6439.791695,1225.752797
378.395674,7105.977043,-6291.750507,919.314598
378.396008,7328.038826,-6143.709319,1378.971896
378.396342,7550.100608,-6661.853478,766.095498
378.396676,7254.018232,-6809.894666,1072.533697
378.397011,7179.997637,-6661.853478,1149.143247
378.397345,7476.080014,-6587.832884,1149.143247
378.397679,7179.997637,-5255.462188,612.876398
378.398014,7254.018232,-6143.709319,1225.752797
378.398348,7105.977043,-6143.709319,1149.143247
378.398682,7031.956449,-6735.874072,919.314598
378.399016,7105.977043,-5847.626942,919.314598
378.399351,6587.832884,-6661.853478,536.266849
378.399685,6883.915261,-6957.935855,919.314598
378.400019,6809.894666,-6809.894666,1149.143247
378.400354,6883.915261,-6809.894666,842.705048
378.400688,6735.874072,-6661.853478,1149.143247
378.401022,6809.894666,-6883.915261,536.266849
378.401356,7105.977043,-7105.977043,919.314598
378.401691,6809.894666,-6809.894666,919.314598
378.402025,7031.956449,-7328.038826,1685.410096
378.402359,7031.956449,-6439.791695,1072.533697
378.402693,6957.935855,-6291.750507,919.314598
378.403028,6661.853478,-6809.894666,842.705048
378.403362,7105.977043,-6217.729913,995.924147
378.403696,7476.080014,-7031.956449,1225.752797
378.404031,6957.935855,-6217.729913,919.314598
378.404365,6809.894666,-6439.791695,383.047749
378.404699,6809.894666,-6365.771101,689.485948
378.405033,6809.894666,-6291.750507,1149.143247
378.405368,7328.038826,-6365.771101,766.095498
378.405702,7254.018232,-6365.771101,766.095498
378.406036,7105.977043,-6587.832884,1072.533697
378.406371,6957.935855,-6439.791695,1072.533697
378.406705,6883.915261,-5699.585753,1149.143247
378.407039,7105.977043,-6587.832884,612.876398
378.407373,6809.894666,-6735.874072,842.705048
378.407708,6809.894666,-7031.956449,459.657299
378.408042,6439.791695,-6291.750507,1149.143247
378.408376,6513.812290,-6957.935855,995.924147
378.408711,6735.874072,-7031.956449,383.047749
378.409045,6883.915261,-7328.038826,766.095498
378.409379,6809.894666,-7105.977043,689.485948
378.409713,7254.018232,-7402.059420,612.876398
378.410048,7031.956449,-6365.771101,689.485948
378.410382,7031.956449,-6513.812290,766.095498
378.410716,7179.997637,-6143.709319,612.876398
378.411051,7328.038826,-6809.894666,766.095498
378.411385,7476.080014,-6513.812290,689.485948
378.411719,7328.038826,-6439.791695,536.266849
378.412053,7105.977043,-6439.791695,536.266849
378.412388,7031.956449,-6439.791695,766.095498
378.412722,7402.059420,-6217.729913,1072.533697
378.413056,7179.997637,-6143.709319,1225.752797
378.413390,7031.956449,-6883.915261,842.705048
378.413725,7105.977043,-6439.791695,919.314598
378.414059,6439.791695,-6735.874072,612.876398
378.414393,6735.874072,-6513.812290,306.438199
378.414728,6439.791695,-7031.956449,766.095498
378.415062,6587.832884,-6735.874072,229.828649
378.415396,6439.791695,-7031.956449,1072.533697
378.415730,6661.853478,-6587.832884,306.438199
378.416065,6735.874072,-7179.997637,612.876398
378.416399,6587.832884,-6661.853478,919.314598
378.416733,6587.832884,-7254.018232,766.095498
378.417068,6735.874072,-6513.812290,1072.533697
378.417402,6957.935855,-6587.832884,1149.143247
378.417736,7031.956449,-6587.832884,919.314598
378.418070,7328.038826,-6735.874072,842.705048
378.418405,6809.894666,-6661.853478,842.705048
378.418739,6957.935855,-6439.791695,1302.362347
378.419073,7031.956449,-6291.750507,689.485948
378.419408,7105.977043,-6513.812290,536.266849
378.419742,7105.977043,-6439.791695,766.095498
378.420076,7254.018232,-6513.812290,995.924147
378.420410,7254.018232,-6365.771101,995.924147
378.420745,7105.977043,-5995.668130,1149.143247
378.421079,7179.997637,-6217.729913,766.095498
378.421413,6513.812290,-6513.812290,689.485948
378.421748,7031.956449,-6587.832884,1149.143247
378.422082,7105.977043,-6735.874072,842.705048
378.422416,6957.935855,-6883.915261,689.485948
378.422750,6735.874072,-6365.771101,766.095498
378.423085,6957.935855,-6661.853478,842.705048
378.423419,7105.977043,-6809.894666,919.314598
378.423753,6661.853478,-6735.874072,842.705048
378.424087,6513.812290,-6957.935855,1072.533697
378.424422,6883.915261,-6957.935855,536.266849
378.424756,7179.997637,-6291.750507,1685.410096
378.425090,7031.956449,-6587.832884,919.314598
378.425425,7402.059420,-6513.812290,919.314598
378.425759,7550.100608,-6957.935855,995.924147
378.426093,7402.059420,-6661.853478,1149.143247
378.426427,7179.997637,-6513.812290,536.266849
378.426762,7254.018232,-6069.688724,459.657299
378.427096,6883.915261,-6217.729913,766.095498
378.427430,7105.977043,-6587.832884,536.266849
378.427765,7550.100608,-6365.771101,1302.362347
378.428099,7031.956449,-6513.812290,229.828649
378.428433,7105.977043,-6439.791695,612.876398
378.428767,6587.832884,-6513.812290,536.266849
378.429102,6291.750507,-6587.832884,383.047749
378.429436,6439.791695,-6587.832884,1225.752797
378.429770,6735.874072,-6957.935855,766.095498
378.430105,6735.874072,-6513.812290,919.314598
378.430439,6735.874072,-7031.956449,842.705048
378.430773,6735.874072,-6809.894666,153.219100
378.431107,6587.832884,-6809.894666,383.047749
378.431442,6513.812290,-7698.141797,689.485948
378.431776,6735.874072,-7031.956449,766.095498
378.432110,7105.977043,-6587.832884,689.485948
378.432445,7031.956449,-6661.853478,612.876398
378.432779,7105.977043,-6513.812290,306.438199
378.433113,7031.956449,-6513.812290,842.705048
378.433447,7105.977043,-6735.874072,689.485948
378.433782,6957.935855,-6291.750507,689.485948
378.434116,7105.977043,-6291.750507,459.657299
378.434450,7254.018232,-6291.750507,459.657299
378.434784,7031.956449,-6587.832884,383.047749
378.435119,7476.080014,-6587.832884,536.266849
378.435453,7105.977043,-6957.935855,766.095498
378.435787,7105.977043,-6661.853478,919.314598
378.436122,6661.853478,-6735.874072,383.047749
378.436456,6587.832884,-6587.832884,612.876398
378.436790,7031.956449,-6735.874072,766.095498
378.437124,7105.977043,-6661.853478,306.438199
378.437459,7105.977043,-7105.977043,689.485948
378.437793,6883.915261,-6587.832884,995.924147
378.438127,6735.874072,-7105.977043,919.314598
378.438462,6809.894666,-7105.977043,766.095498
378.438796,7031.956449,-7402.059420,536.266849
378.439130,7031.956449,-6957.935855,229.828649
378.439464,7031.956449,-6513.812290,612.876398
378.439799,7105.977043,-6217.729913,1378.971896
378.440133,7179.997637,-6439.791695,383.047749
378.440467,7476.080014,-6587.832884,842.705048
378.440802,7254.018232,-6513.812290,536.266849
378.441136,7254.018232,-6513.812290,383.047749
378.441470,7254.018232,-5995.668130,612.876398
378.441804,6957.935855,-6291.750507,766.095498
378.442139,7105.977043,-6587.832884,842.705048
378.442473,7105.977043,-6513.812290,919.314598
378.442807,7105.977043,-6217.729913,1149.143247
378.443142,6883.915261,-6439.791695,842.705048
378.443476,6809.894666,-6291.750507,536.266849
378.443810,6587.832884,-6735.874072,842.705048
378.444144,7031.956449,-6513.812290,919.314598
378.444479,6661.853478,-6661.853478,153.219100
378.444813,6809.894666,-6809.894666,536.266849
378.445147,6809.894666,-7105.977043,689.485948
378.445481,7031.956449,-6883.915261,842.705048
378.445816,7179.997637,-7105.977043,459.657299
378.446150,6809.894666,-7254.018232,383.047749
378.446484,6735.874072,-7105.977043,536.266849
378.446819,7105.977043,-6587.832884,383.047749
378.447153,6513.812290,-6439.791695,842.705048
378.447487,7328.038826,-6513.812290,383.047749
378.447821,6661.853478,-6735.874072,766.095498
378.448156,7254.018232,-6735.874072,689.485948
378.448490,7328.038826,-6587.832884,689.485948
378.448824,7105.977043,-6143.709319,1072.533697
378.449159,7402.059420,-6291.750507,612.876398
378.449493,7105.977043,-6365.771101,689.485948
378.449827,7031.956449,-6587.832884,689.485948
378.450161,7254.018232,-6587.832884,536.266849
378.450496,6883.915261,-5995.668130,842.705048
378.450830,6735.874072,-6735.874072,153.219100
378.451164,6735.874072,-6587.832884,153.219100
378.451499,6809.894666,-6809.894666,689.485948
378.451833,6809.894666,-6513.812290,76.609550
378.452167,6661.853478,-6957.935855,689.485948
378.452501,7105.977043,-6513.812290,766.095498
378.452836,6735.874072,-6883.915261,766.095498
378.453170,6809.894666,-6735.874072,766.095498
378.453504,6587.832884,-6957.935855,612.876398
378.453838,6957.935855,-6587.832884,612.876398
378.454173,7031.956449,-6587.832884,153.219100
378.454507,7105.977043,-6365.771101,459.657299
378.454841,7550.100608,-5995.668130,689.485948
378.455176,7179.997637,-6217.729913,766.095498
378.455510,7179.997637,-6365.771101,995.924147
378.455844,7254.018232,-5921.647536,689.485948
378.456178,7179.997637,-6069.688724,612.876398
378.456513,7105.977043,-6069.688724,536.266849
378.456847,7031.956449,-6513.812290,612.876398
378.457181,7031.956449,-6291.750507,842.705048
378.457516,7105.977043,-6883.915261,842.705048
378.457850,7031.956449,-6513.812290,995.924147
378.458184,6735.874072,-6587.832884,612.876398
378.458518,6587.832884,-6883.915261,689.485948
378.458853,6735.874072,-6809.894666,612.876398
378.459187,6809.894666,-6883.915261,842.705048
378.459521,6883.915261,-6661.853478,842.705048
378.459856,6735.874072,-6661.853478,1072.533697
378.460190,7031.956449,-6957.935855,612.876398
378.460524,6809.894666,-7105.977043,459.657299
378.460858,6809.894666,-7328.038826,689.485948
378.461193,6957.935855,-7105.977043,536.266849
378.461527,7031.956449,-6661.853478,689.485948
378.461861,7105.977043,-6809.894666,842.705048
378.462196,7179.997637,-6587.832884,1149.143247
378.462530,7624.121203,-6291.750507,1072.533697
378.462864,7179.997637,-6365.771101,689.485948
378.463198,6957.935855,-6217.729913,919.314598
378.463533,7254.018232,-6217.729913,995.924147
378.463867,7254.018232,-6217.729913,1532.190996
378.464201,7105.977043,-6365.771101,995.924147
378.464535,7105.977043,-6513.812290,1302.362347
378.464870,7179.997637,-6513.812290,689.485948
378.465204,6661.853478,-6661.853478,1532.190996
378.465538,6439.791695,-6513.812290,1225.752797
378.465873,6513.812290,-6957.935855,689.485948
378.466207,6513.812290,-6661.853478,1225.752797
378.466541,6587.832884,-6809.894666,1149.143247
378.466875,6957.935855,-6661.853478,1225.752797
378.467210,6883.915261,-6587.832884,1302.362347
378.467544,6587.832884,-6661.853478,842.705048
378.467878,6661.853478,-6587.832884,842.705048
378.468213,6735.874072,-6587.832884,995.924147
378.468547,6883.915261,-7031.956449,459.657299
378.468881,6957.935855,-6587.832884,229.828649
378.469215,6883.915261,-6809.894666,1149.143247
378.469550,7105.977043,-6661.853478,689.485948
378.469884,7105.977043,-6957.935855,1378.971896
378.470218,7179.997637,-6735.874072,1225.752797
378.470553,7105.977043,-6365.771101,689.485948
378.470887,7328.038826,-6439.791695,1455.581446
378.471221,7179.997637,-6291.750507,919.314598
378.471555,7179.997637,-6439.791695,919.314598
378.471890,7254.018232,-6291.750507,842.705048
378.472224,7105.977043,-6365.771101,919.314598
378.472558,6957.935855,-6587.832884,766.095498
378.472893,7105.977043,-5995.668130,536.266849
378.473227,6587.832884,-6809.894666,612.876398
378.473561,6661.853478,-7105.977043,919.314598
378.473895,6809.894666,-7031.956449,536.266849
378.474230,6809.894666,-7031.956449,536.266849
378.474564,6809.894666,-6957.935855,995.924147
378.474898,6217.729913,-6735.874072,612.876398
378.475232,6809.894666,-7105.977043,383.047749
378.475567,6439.791695,-6735.874072,842.705048
378.475901,7105.977043,-6883.915261,76.609550
378.476235,7105.977043,-6587.832884,306.438199
378.476570,6809.894666,-6735.874072,842.705048
378.476904,7031.956449,-6809.894666,459.657299
378.477238,7105.977043,-6513.812290,689.485948
378.477572,7105.977043,-6439.791695,919.314598
378.477907,7105.977043,-6365.771101,459.657299
378.478241,7328.038826,-6661.853478,306.438199
378.478575,7254.018232,-6513.812290,766.095498
378.478910,7179.997637,-6291.750507,76.609550
378.479244,7254.018232,-6513.812290,612.876398
378.479578,7105.977043,-6661.853478,612.876398
378.479912,6883.915261,-6587.832884,842.705048
378.480247,6661.853478,-6661.853478,612.876398
378.480581,6661.853478,-6291.750507,536.266849
378.480915,6513.812290,-6957.935855,536.266849
378.481250,6513.812290,-6735.874072,536.266849
378.481584,6809.894666,-7031.956449,689.485948
378.481918,6735.874072,-7105.977043,689.485948
378.482252,6957.935855,-7031.956449,689.485948
378.482587,7105.977043,-6883.915261,689.485948
378.482921,7031.956449,-7031.956449,689.485948
378.483255,6957.935855,-6735.874072,306.438199
378.483589,7550.100608,-6661.853478,459.657299
378.483924,6735.874072,-6587.832884,306.438199
378.484258,6809.894666,-6217.729913,459.657299
378.484592,7179.997637,-6661.853478,766.095498
378.484926,7105.977043,-6661.853478,689.485948
378.485261,7031.956449,-6291.750507,766.095498
378.485595,7179.997637,-6513.812290,842.705048
378.485929,7105.977043,-6587.832884,689.485948
378.486264,7179.997637,-6439.791695,536.266849
378.486598,7624.121203,-5847.626942,306.438199
378.486932,6809.894666,-6143.709319,76.609550
378.487266,7031.956449,-6735.874072,995.924147
378.487601,7031.956449,-6661.853478,766.095498
378.487935,6809.894666,-6587.832884,919.314598
378.488269,6735.874072,-6587.832884,766.095498
378.488603,6661.853478,-7031.956449,1455.581446
378.488938,7031.956449,-7179.997637,1225.752797
378.489272,6587.832884,-6809.894666,995.924147
378.489606,6883.915261,-6217.729913,612.876398
378.489940,6735.874072,-6809.894666,689.485948
378.490275,6513.812290,-6957.935855,689.485948
378.490609,6587.832884,-7031.956449,612.876398
378.490943,7031.956449,-6143.709319,1149.143247
378.491277,6735.874072,-6513.812290,1072.533697
378.491612,7031.956449,-6883.915261,919.314598
378.491946,7402.059420,-6957.935855,1302.362347
378.492280,7105.977043,-6809.894666,919.314598
378.492614,7254.018232,-6735.874072,1608.800546
378.492949,6587.832884,-5921.647536,842.705048
378.493283,7179.997637,-6217.729913,995.924147
378.493617,7105.977043,-6143.709319,919.314598
378.493951,7328.038826,-6291.750507,689.485948
378.494286,7179.997637,-6143.709319,842.705048
378.494620,7105.977043,-6439.791695,689.485948
378.494954,6883.915261,-7105.977043,689.485948
378.495288,6957.935855,-7105.977043,612.876398
378.495623,7179.997637,-6883.915261,1149.143247
378.495957,6809.894666,-6883.915261,995.924147
378.496291,6883.915261,-6809.894666,612.876398
378.496625,6883.915261,-6587.832884,919.314598
378.496960,6365.771101,-6661.853478,1149.143247
378.497294,7105.977043,-6661.853478,919.314598
378.497628,6809.894666,-6809.894666,536.266849
378.497963,6883.915261,-6735.874072,689.485948
378.498297,6809.894666,-6439.791695,766.095498
378.498631,7105.977043,-6217.729913,536.266849
378.498965,7254.018232,-6587.832884,766.095498
378.499300,7402.059420,-6587.832884,1149.143247
378.499634,7105.977043,-6957.935855,995.924147
378.499968,6883.915261,-6143.709319,536.266849
378.500302,7105.977043,-6291.750507,842.705048
378.500637,7105.977043,-6291.750507,689.485948
378.500971,7254.018232,-6143.709319,995.924147
378.501305,7179.997637,-6069.688724,842.705048
378.501639,7254.018232,-5995.668130,1455.581446
378.501974,7031.956449,-6217.729913,1149.143247
378.502308,7031.956449,-6439.791695,842.705048
378.502642,6809.894666,-6587.832884,383.047749
378.502976,6513.812290,-6809.894666,689.485948
378.503311,6809.894666,-6661.853478,995.924147
378.503645,6735.874072,-7031.956449,995.924147
378.503979,6809.894666,-6809.894666,995.924147
378.504313,6809.894666,-7105.977043,919.314598
378.504648,7179.997637,-7105.977043,612.876398
378.504982,6809.894666,-7031.956449,995.924147
378.505316,7179.997637,-7031.956449,842.705048
378.505650,7328.038826,-6513.812290,766.095498
378.505985,7328.038826,-6439.791695,612.876398
378.506319,7328.038826,-6291.750507,689.485948
378.506653,7254.018232,-6439.791695,842.705048
378.506987,7179.997637,-6439.791695,1072.533697
378.507322,7105.977043,-6513.812290,766.095498
378.507656,6957.935855,-5995.668130,536.266849
378.507990,7179.997637,-6365.771101,842.705048
378.508325,7254.018232,-6587.832884,536.266849
378.508659,7402.059420,-6587.832884,919.314598
378.508993,7624.121203,-6439.791695,766.095498
378.509327,7328.038826,-6809.894666,1072.533697
378.509662,7031.956449,-6291.750507,1072.533697
378.509996,6883.915261,-6735.874072,842.705048
378.510330,6661.853478,-6513.812290,919.314598
378.510664,6587.832884,-6735.874072,1532.190996
378.510999,6809.894666,-6735.874072,919.314598
378.511333,6735.874072,-6957.935855,1072.533697
378.511667,7105.977043,-7031.956449,919.314598
378.512001,7105.977043,-6809.894666,766.095498
378.512336,6513.812290,-6883.915261,1149.143247
378.512670,6661.853478,-7105.977043,919.314598
378.513004,7105.977043,-6217.729913,842.705048
378.513338,7179.997637,-6291.750507,1072.533697
378.513673,7254.018232,-6661.853478,536.266849
378.514007,7402.059420,-6661.853478,995.924147
378.514341,7105.977043,-6735.874072,689.485948
378.514675,7105.977043,-6291.750507,842.705048
378.515010,7624.121203,-5995.668130,1225.752797
378.515344,7105.977043,-6143.709319,1149.143247
378.515678,7179.997637,-6069.688724,1072.533697
378.516012,7254.018232,-6365.771101,1225.752797
378.516347,7402.059420,-6069.688724,1149.143247
378.516681,6957.935855,-6661.853478,919.314598
378.517015,6883.915261,-6587.832884,1225.752797
378.517349,6809.894666,-6809.894666,766.095498
378.517684,6809.894666,-6957.935855,1072.533697
378.518018,6513.812290,-7031.956449,1532.190996
378.518352,6957.935855,-6365.771101,1378.971896
378.518687,6957.935855,-6809.894666,919.314598
378.519021,6365.771101,-6883.915261,1225.752797
378.519355,6513.812290,-6883.915261,1072.533697
378.519689,7105.977043,-7105.977043,1378.971896
378.520024,6661.853478,-6957.935855,766.095498
378.520358,6957.935855,-6291.750507,919.314598
378.520692,7105.977043,-6439.791695,995.924147
378.521026,7254.018232,-6513.812290,1378.971896
378.521361,7920.203579,-6217.729913,1225.752797
378.521695,7105.977043,-6883.915261,1225.752797
378.522029,7105.977043,-6365.771101,919.314598
378.522363,7105.977043,-6143.709319,919.314598
378.522698,7328.038826,-5995.668130,842.705048
378.523032,7105.977043,-6143.709319,612.876398
378.523366,7105.977043,-6143.709319,919.314598
378.523700,6883.915261,-6217.729913,919.314598
378.524035,7179.997637,-6513.812290,919.314598
378.524369,6883.915261,-6291.750507,919.314598
378.524703,7105.977043,-6217.729913,229.828649
378.525037,6735.874072,-6587.832884,1072.533697
378.525372,6957.935855,-6661.853478,612.876398
378.525706,7105.977043,-7031.956449,689.485948
378.526040,7105.977043,-6809.894666,919.314598
378.526374,6587.832884,-6883.915261,689.485948
378.526709,6661.853478,-6883.915261,306.438199
378.527043,6809.894666,-7105.977043,689.485948
378.527377,6513.812290,-6661.853478,689.485948
378.527711,7105.977043,-6439.791695,612.876398
378.528046,7105.977043,-6143.709319,689.485948
378.528380,7105.977043,-6587.832884,536.266849
378.528714,7550.100608,-6069.688724,995.924147
378.529048,7179.997637,-6661.853478,919.314598
378.529383,7254.018232,-6365.771101,766.095498
378.529717,7550.100608,-6513.812290,459.657299
378.530051,7105.977043,-6661.853478,919.314598
378.530386,7402.059420,-6735.874072,612.876398
378.530720,7179.997637,-6439.791695,842.705048
378.531054,7179.997637,-6143.709319,766.095498
378.531388,7105.977043,-6513.812290,995.924147
378.531723,6957.935855,-6069.688724,995.924147
378.532057,6661.853478,-6587.832884,459.657299
378.532391,6735.874072,-6809.894666,995.924147
378.532725,6513.812290,-6809.894666,919.314598
378.533060,6735.874072,-6587.832884,689.485948
378.533394,6735.874072,-6809.894666,1149.143247
378.533728,6661.853478,-6809.894666,842.705048
378.534062,6883.915261,-7031.956449,842.705048
378.534397,6735.874072,-6735.874072,612.876398
378.534731,6735.874072,-7179.997637,1455.581446
378.535065,6957.935855,-6513.812290,689.485948
378.535399,6957.935855,-6809.894666,919.314598
378.535734,7105.977043,-6365.771101,766.095498
378.536068,7254.018232,-6217.729913,919.314598
378.536402,6957.935855,-6587.832884,766.095498
378.536736,7179.997637,-6217.729913,689.485948
378.537071,7105.977043,-5847.626942,612.876398
378.537405,7031.956449,-6217.729913,995.924147
378.537739,7476.080014,-6439.791695,842.705048
378.538073,7105.977043,-6661.853478,766.095498
378.538408,7179.997637,-6439.791695,689.485948
378.538742,6957.935855,-7031.956449,919.314598
378.539076,7105.977043,-6661.853478,689.485948
378.539410,6661.853478,-6365.771101,1225.752797
378.539745,6735.874072,-7105.977043,919.314598
378.540079,6809.894666,-6957.935855,1072.533697
378.540413,6809.894666,-7105.977043,612.876398
378.540748,7105.977043,-7031.956449,1455.581446
378.541082,6883.915261,-7031.956449,612.876398
378.541416,6883.915261,-7031.956449,612.876398
378.541750,6661.853478,-6809.894666,1072.533697
378.542085,6957.935855,-7031.956449,766.095498
378.542419,7328.038826,-5995.668130,459.657299
378.542753,6957.935855,-6291.750507,766.095498
378.543087,7031.956449,-6439.791695,612.876398
378.543422,7031.956449,-6217.729913,766.095498
378.543756,7328.038826,-6587.832884,306.438199
378.544090,6883.915261,-6587.832884,536.266849
378.544424,6735.874072,-6365.771101,536.266849
378.544759,7105.977043,-5995.668130,842.705048
378.545093,7254.018232,-5773.606348,689.485948
378.545427,7254.018232,-6217.729913,1455.581446
378.545761,7179.997637,-5995.668130,842.705048
378.546096,7105.977043,-6735.874072,919.314598
378.546430,6809.894666,-6291.750507,689.485948
378.546764,6809.894666,-6587.832884,1302.362347
378.547098,6513.812290,-6957.935855,689.485948
378.547433,6291.750507,-7105.977043,995.924147
378.547767,6957.935855,-7105.977043,612.876398
378.548101,6957.935855,-6957.935855,1149.143247
378.548435,6439.791695,-6291.750507,1762.019645
378.548770,6883.915261,-6735.874072,766.095498
378.549104,6735.874072,-6661.853478,842.705048
378.549438,6661.853478,-6883.915261,536.266849
378.549772,7328.038826,-6735.874072,842.705048
378.550107,7254.018232,-6513.812290,842.705048
378.550441,7105.977043,-7031.956449,766.095498
378.550775,7105.977043,-6587.832884,842.705048
378.551110,7031.956449,-6883.915261,689.485948
378.551444,7402.059420,-6883.915261,229.828649
378.551778,7105.977043,-6809.894666,383.047749
378.552112,6883.915261,-6587.832884,919.314598
378.552447,7105.977043,-6513.812290,919.314598
378.552781,7105.977043,-6143.709319,1302.362347
378.553115,7254.018232,-5995.668130,766.095498
378.553449,7031.956449,-6513.812290,842.705048
378.553784,6809.894666,-6513.812290,995.924147
378.554118,6661.853478,-6513.812290,612.876398
378.554452,6439.791695,-6735.874072,1149.143247
378.554786,6439.791695,-6957.935855,995.924147
378.555121,6217.729913,-7105.977043,766.095498
378.555455,6661.853478,-6735.874072,842.705048
378.555789,6365.771101,-7031.956449,1302.362347
378.556123,6809.894666,-6957.935855,919.314598
378.556458,6587.832884,-7105.977043,995.924147
378.556792,6957.935855,-6957.935855,689.485948
378.557126,7105.977043,-6587.832884,766.095498
378.557460,7550.100608,-6439.791695,1225.752797
378.557795,6957.935855,-6587.832884,995.924147
378.558129,7624.121203,-6513.812290,1072.533697
378.558463,7179.997637,-6809.894666,1072.533697
378.558797,7031.956449,-6217.729913,766.095498
378.559132,7254.018232,-6661.853478,76.609550
378.559466,7031.956449,-6513.812290,459.657299
378.559800,7105.977043,-6513.812290,689.485948
378.560134,7254.018232,-6513.812290,995.924147
378.560469,7031.956449,-6217.729913,1149.143247
378.560803,6809.894666,-6957.935855,1072.533697
378.561137,7031.956449,-6439.791695,842.705048
378.561471,7031.956449,-6291.750507,919.314598
378.561806,6883.915261,-6439.791695,459.657299
378.562140,6809.894666,-6735.874072,919.314598
378.562474,6661.853478,-6809.894666,612.876398
378.562809,6809.894666,-6661.853478,919.314598
378.563143,6587.832884,-6809.894666,995.924147
378.563477,6587.832884,-6365.771101,1072.533697
378.563811,6587.832884,-6661.853478,919.314598
378.564146,6735.874072,-7105.977043,536.266849
378.564480,6957.935855,-6439.791695,919.314598
378.564814,6883.915261,-6439.791695,995.924147
378.565148,7254.018232,-6587.832884,842.705048
378.565483,7328.038826,-6513.812290,1072.533697
378.565817,6809.894666,-6735.874072,1149.143247
378.566151,6883.915261,-6587.832884,842.705048
378.566485,7254.018232,-6291.750507,76.609550
378.566820,7031.956449,-6217.729913,459.657299
378.567154,6957.935855,-6217.729913,536.266849
378.567488,7105.977043,-6291.750507,1149.143247
378.567822,7105.977043,-5921.647536,919.314598
378.568157,7105.977043,-6513.812290,842.705048
378.568491,6513.812290,-6365.771101,842.705048
378.568825,6809.894666,-6735.874072,612.876398
378.569159,6439.791695,-7179.997637,766.095498
378.569494,6883.915261,-6661.853478,766.095498
378.569828,6883.915261,-6809.894666,536.266849
378.570162,6957.935855,-6735.874072,919.314598
378.570496,6735.874072,-7105.977043,766.095498
378.570831,7105.977043,-6883.915261,842.705048
378.571165,6957.935855,-7105.977043,76.609550
378.571499,6365.771101,-7105.977043,306.438199
378.571833,7105.977043,-6883.915261,229.828649
378.572168,7328.038826,-6291.750507,612.876398
378.572502,7328.038826,-6439.791695,536.266849
378.572836,7254.018232,-6069.688724,459.657299
378.573171,7179.997637,-6587.832884,536.266849
378.573505,7254.018232,-6365.771101,459.657299
378.573839,6957.935855,-6143.709319,76.609550
378.574173,7328.038826,-5847.626942,459.657299
378.574508,7328.038826,-6513.812290,153.219100
378.574842,7105.977043,-6217.729913,612.876398
378.575176,7179.997637,-6291.750507,153.219100
378.575510,6809.894666,-6217.729913,383.047749
378.575845,6957.935855,-6661.853478,459.657299
378.576179,6809.894666,-6439.791695,459.657299
378.576513,6883.915261,-6661.853478,459.657299
378.576847,6735.874072,-6735.874072,842.705048
378.577182,7105.977043,-6439.791695,383.047749
378.577516,6735.874072,-6661.853478,383.047749
378.577850,6661.853478,-6439.791695,459.657299
378.578184,6513.812290,-7179.997637,229.828649
378.578519,6513.812290,-6587.832884,536.266849
378.578853,6587.832884,-7105.977043,383.047749
378.579187,6883.915261,-6513.812290,229.828649
378.579521,7105.977043,-6513.812290,536.266849
378.579856,6957.935855,-6735.874072,459.657299
378.580190,7105.977043,-6365.771101,919.314598
378.580524,7179.997637,-6809.894666,536.266849
378.580858,7105.977043,-6661.853478,612.876398
378.581193,7179.997637,-6291.750507,306.438199
378.581527,7476.080014,-6735.874072,689.485948
378.581861,7105.977043,-6365.771101,383.047749
378.582195,7254.018232,-7031.956449,842.705048
378.582530,7031.956449,-6587.832884,766.095498
378.582864,6809.894666,-7031.956449,919.314598
378.583198,6957.935855,-6661.853478,229.828649
378.583533,6735.874072,-7105.977043,536.266849
378.583867,6735.874072,-7031.956449,766.095498
378.584201,6587.832884,-6883.915261,766.095498
378.584535,6439.791695,-6513.812290,689.485948
378.584870,6735.874072,-6587.832884,0.000000
378.585204,6587.832884,-6883.915261,306.438199
378.585538,7105.977043,-6957.935855,612.876398
378.585872,6661.853478,-6735.874072,689.485948
378.586207,6587.832884,-7105.977043,459.657299
378.586541,6587.832884,-6661.853478,612.876398
378.586875,6809.894666,-6735.874072,1149.143247
378.587210,6957.935855,-6883.915261,536.266849
378.587544,7328.038826,-6883.915261,612.876398
378.587878,7402.059420,-6957.935855,842.705048
378.588212,7105.977043,-6439.791695,1225.752797
378.588547,7328.038826,-6217.729913,842.705048
378.588881,7254.018232,-6217.729913,919.314598
378.589215,7328.038826,-5921.647536,919.314598
378.589550,7179.997637,-6291.750507,1072.533697
378.589884,7105.977043,-6513.812290,1072.533697
378.590218,7105.977043,-6883.915261,1072.533697
378.590553,7105.977043,-6809.894666,1608.800546
378.590887,6513.812290,-6587.832884,612.876398
378.591221,6661.853478,-7105.977043,919.314598
378.591556,6661.853478,-6735.874072,1072.533697
378.591890,6661.853478,-6735.874072,919.314598
378.592224,7179.997637,-6513.812290,1225.752797
378.592559,6809.894666,-6735.874072,1455.581446
378.592893,6661.853478,-7105.977043,1072.533697
378.593227,6735.874072,-6809.894666,995.924147
378.593562,7105.977043,-6587.832884,1378.971896
378.593896,6735.874072,-6883.915261,995.924147
378.594230,7105.977043,-6809.894666,1532.190996
378.594565,7031.956449,-6735.874072,995.924147
378.594899,7179.997637,-6661.853478,1072.533697
378.595233,7031.956449,-6735.874072,1455.581446
378.595567,6957.935855,-6143.709319,1225.752797
378.595902,7179.997637,-6143.709319,919.314598
378.596236,7254.018232,-5921.647536,1225.752797
378.596570,7402.059420,-6365.771101,1685.410096
378.596905,7254.018232,-6069.688724,1608.800546
378.597239,7402.059420,-6439.791695,1149.143247
378.597573,7105.977043,-6661.853478,995.924147
378.597908,6587.832884,-6661.853478,1378.971896
378.598242,7105.977043,-6735.874072,612.876398
378.598576,6957.935855,-6735.874072,919.314598
378.598911,6439.791695,-6661.853478,1302.362347
378.599245,6587.832884,-6587.832884,842.705048
378.599579,6957.935855,-6513.812290,1608.800546
378.599914,6735.874072,-6809.894666,919.314598
378.600248,6809.894666,-7105.977043,1072.533697
378.600582,6957.935855,-6735.874072,842.705048
378.600917,7105.977043,-7105.977043,1149.143247
378.601251,7254.018232,-5921.647536,766.095498
378.601585,7402.059420,-6587.832884,612.876398
378.601920,7105.977043,-6587.832884,689.485948
378.602254,7254.018232,-6735.874072,766.095498
378.602588,7105.977043,-6439.791695,612.876398
378.602922,6735.874072,-6439.791695,229.828649
378.603257,7105.977043,-6217.729913,536.266849
378.603591,7105.977043,-6439.791695,842.705048
378.603925,7179.997637,-6143.709319,766.095498
378.604260,7254.018232,-6143.709319,1149.143247
378.604594,7179.997637,-6291.750507,536.266849
378.604928,7328.038826,-6883.915261,689.485948
378.605263,6883.915261,-6217.729913,842.705048
378.605597,7031.956449,-6735.874072,919.314598
378.605931,7031.956449,-6661.853478,766.095498
378.606266,6809.894666,-6439.791695,689.485948
378.606600,6957.935855,-6661.853478,536.266849
378.606934,6809.894666,-6661.853478,536.266849
378.607269,6809.894666,-6957.935855,229.828649
378.607603,6587.832884,-7031.956449,229.828649
378.607937,6883.915261,-6735.874072,76.609550
378.608272,7031.956449,-7105.977043,459.657299
378.608606,6735.874072,-6069.688724,153.219100
378.608940,7105.977043,-6365.771101,229.828649
378.609275,7402.059420,-6587.832884,306.438199
378.609609,7402.059420,-6587.832884,229.828649
378.609943,7105.977043,-6661.853478,76.609550
378.610277,7550.100608,-6661.853478,306.438199
378.610612,7179.997637,-6143.709319,76.609550
378.610946,7328.038826,-6587.832884,153.219100
378.611280,7105.977043,-6439.791695,0.000000
378.611615,7179.997637,-6735.874072,919.314598
378.611949,6735.874072,-6661.853478,612.876398
378.612283,7031.956449,-6735.874072,0.000000
378.612618,6883.915261,-6735.874072,536.266849
378.612952,6661.853478,-6661.853478,459.657299
378.613286,7031.956449,-7105.977043,306.438199
378.613621,6883.915261,-6883.915261,536.266849
378.613955,6735.874072,-7105.977043,229.828649
378.614289,6883.915261,-6809.894666,536.266849
378.614624,7328.038826,-7105.977043,229.828649
378.614958,6883.915261,-6809.894666,536.266849
378.615292,6809.894666,-6883.915261,689.485948
378.615627,6735.874072,-7328.038826,766.095498
378.615961,6957.935855,-6661.853478,229.828649
378.616295,7031.956449,-5403.503377,306.438199
378.616630,6957.935855,-6513.812290,306.438199
378.616964,7402.059420,-5773.606348,229.828649
378.617298,7179.997637,-6809.894666,842.705048
378.617632,7476.080014,-6069.688724,153.219100
378.617967,7328.038826,-6069.688724,536.266849
378.618301,7179.997637,-5995.668130,459.657299
378.618635,7328.038826,-6513.812290,766.095498
378.618970,7105.977043,-6809.894666,766.095498
378.619304,7179.997637,-6587.832884,766.095498
378.619638,7105.977043,-6661.853478,919.314598
378.619973,6957.935855,-6439.791695,689.485948
378.620307,6809.894666,-6587.832884,612.876398
378.620641,6883.915261,-6661.853478,1302.362347
378.620976,6587.832884,-6661.853478,1225.752797
378.621310,6439.791695,-6661.853478,842.705048
378.621644,6661.853478,-6957.935855,1149.143247
378.621979,6809.894666,-7031.956449,1149.143247
378.622313,6661.853478,-7105.977043,1072.533697
378.622647,6513.812290,-6661.853478,995.924147
378.622982,6735.874072,-6957.935855,919.314598
378.623316,6957.935855,-6735.874072,1072.533697
378.623650,7624.121203,-6735.874072,536.266849
378.623985,7254.018232,-6587.832884,766.095498
378.624319,7105.977043,-6291.750507,1455.581446
378.624653,6957.935855,-6587.832884,919.314598
378.624987,7105.977043,-6439.791695,689.485948
378.625322,7402.059420,-6143.709319,842.705048
378.625656,7179.997637,-6291.750507,1225.752797
378.625990,7105.977043,-6217.729913,1149.143247
378.626325,7031.956449,-6661.853478,1378.971896
378.626659,6809.894666,-6291.750507,1608.800546
378.626993,6809.894666,-6735.874072,1149.143247
378.627328,6809.894666,-5995.668130,1225.752797
378.627662,6587.832884,-6735.874072,1225.752797
378.627996,6809.894666,-6513.812290,995.924147
378.628331,7105.977043,-6735.874072,1991.848295
378.628665,6735.874072,-6513.812290,766.095498
378.628999,6809.894666,-6735.874072,1072.533697
378.629334,6513.812290,-6661.853478,1225.752797
378.629668,6661.853478,-7328.038826,995.924147
378.630002,6661.853478,-6735.874072,919.314598
378.630337,6661.853478,-7031.956449,1302.362347
378.630671,7105.977043,-6513.812290,919.314598
378.631005,7254.018232,-6217.729913,919.314598
378.631340,6957.935855,-6439.791695,842.705048
378.631674,7105.977043,-6439.791695,919.314598
378.632008,7031.956449,-6513.812290,766.095498
378.632342,7105.977043,-6587.832884,1225.752797
378.632677,7624.121203,-5921.647536,842.705048
378.633011,7328.038826,-6143.709319,919.314598
378.633345,7105.977043,-6217.729913,536.266849
378.633680,7179.997637,-6365.771101,995.924147
378.634014,7105.977043,-6365.771101,1225.752797
378.634348,6883.915261,-6291.750507,919.314598
378.634683,7105.977043,-6291.750507,919.314598
378.635017,6735.874072,-6587.832884,995.924147
378.635351,6809.894666,-6957.935855,1072.533697
378.635686,7031.956449,-6291.750507,1302.362347
378.636020,6809.894666,-6809.894666,842.705048
378.636354,6735.874072,-6587.832884,612.876398
378.636689,6513.812290,-6957.935855,1072.533697
378.637023,6957.935855,-7105.977043,919.314598
378.637357,6587.832884,-6513.812290,1072.533697
378.637692,7031.956449,-6735.874072,919.314598
378.638026,7105.977043,-6735.874072,766.095498
378.638360,7179.997637,-6587.832884,766.095498
378.638695,7402.059420,-6291.750507,842.705048
378.639029,7328.038826,-6291.750507,995.924147
378.639363,7105.977043,-7031.956449,842.705048
378.639698,7179.997637,-6661.853478,612.876398
378.640032,7254.018232,-6735.874072,612.876398
378.640366,7624.121203,-6365.771101,1149.143247
378.640700,7328.038826,-6809.894666,919.314598
378.641035,7105.977043,-6735.874072,995.924147
378.641369,7105.977043,-6661.853478,689.485948
378.641703,7402.059420,-6587.832884,766.095498
378.642038,7105.977043,-6587.832884,766.095498
378.642372,6957.935855,-6513.812290,612.876398
378.642706,7031.956449,-6809.894666,842.705048
378.643041,6513.812290,-6587.832884,842.705048
378.643375,6365.771101,-6513.812290,919.314598
378.643709,6809.894666,-6735.874072,689.485948
378.644044,6735.874072,-6809.894666,766.095498
378.644378,6735.874072,-6661.853478,612.876398
378.644712,6809.894666,-6291.750507,459.657299
378.645047,7105.977043,-6587.832884,995.924147
378.645381,7105.977043,-6661.853478,536.266849
378.645715,7105.977043,-6217.729913,919.314598
378.646050,7105.977043,-6587.832884,306.438199
378.646384,7179.997637,-6587.832884,1302.362347
378.646718,7402.059420,-6661.853478,842.705048
378.647053,7179.997637,-6661.853478,766.095498
378.647387,7328.038826,-6069.688724,536.266849
378.647721,7476.080014,-6513.812290,1225.752797
378.648055,7476.080014,-6069.688724,919.314598
378.648390,7698.141797,-6513.812290,919.314598
378.648724,7328.038826,-6217.729913,1149.143247
378.649058,7179.997637,-6883.915261,842.705048
378.649393,7179.997637,-5847.626942,1072.533697
378.649727,6883.915261,-6735.874072,383.047749
378.650061,6957.935855,-6957.935855,766.095498
378.650396,7031.956449,-6883.915261,1072.533697
378.650730,7105.977043,-6217.729913,1302.362347
378.651064,6809.894666,-6661.853478,1072.533697
378.651399,6587.832884,-6883.915261,1149.143247
378.651733,6809.894666,-7105.977043,766.095498
378.652067,6883.915261,-6883.915261,919.314598
378.652402,6883.915261,-7179.997637,1455.581446
378.652736,7105.977043,-6587.832884,766.095498
378.653070,7254.018232,-6069.688724,995.924147
378.653405,7105.977043,-6809.894666,919.314598
378.653739,7402.059420,-6809.894666,995.924147
378.654073,6809.894666,-6735.874072,995.924147
378.654408,6735.874072,-6735.874072,1072.533697
378.654742,7105.977043,-6439.791695,536.266849
378.655076,7105.977043,-6143.709319,1072.533697
378.655410,7328.038826,-6217.729913,766.095498
378.655745,7031.956449,-6365.771101,842.705048
378.656079,6883.915261,-6513.812290,1149.143247
378.656413,6735.874072,-6439.791695,919.314598
378.656748,6513.812290,-6365.771101,1302.362347
378.657082,6883.915261,-6217.729913,689.485948
378.657416,6661.853478,-6735.874072,919.314598
378.657751,6735.874072,-6661.853478,1149.143247
378.658085,6809.894666,-7105.977043,1072.533697
378.658419,7179.997637,-6661.853478,995.924147
378.658754,6735.874072,-6883.915261,1225.752797
378.659088,7105.977043,-6587.832884,919.314598
378.659422,6735.874072,-6735.874072,842.705048
378.659757,6809.894666,-6957.935855,1072.533697
378.660091,6957.935855,-6809.894666,1225.752797
378.660425,7031.956449,-6217.729913,919.314598
378.660760,7105.977043,-6735.874072,842.705048
378.661094,7105.977043,-6513.812290,689.485948
378.661428,7105.977043,-6809.894666,689.485948
378.661763,7254.018232,-6513.812290,536.266849
378.662097,7254.018232,-6439.791695,842.705048
378.662431,7328.038826,-6439.791695,1149.143247
378.662765,7105.977043,-6291.750507,1072.533697
378.663100,7328.038826,-6291.750507,1225.752797
378.663434,7105.977043,-6365.771101,1149.143247
378.663768,7254.018232,-6439.791695,689.485948
378.664103,7031.956449,-6439.791695,842.705048
378.664437,7105.977043,-6217.729913,536.266849
378.664771,6809.894666,-6735.874072,919.314598
378.665106,6735.874072,-6439.791695,1072.533697
378.665440,6809.894666,-6957.935855,612.876398
378.665774,6661.853478,-6661.853478,842.705048
378.666109,6735.874072,-6513.812290,459.657299
378.666443,6735.874072,-6809.894666,612.876398
378.666777,6661.853478,-6883.915261,306.438199
378.667112,6661.853478,-7105.977043,612.876398
378.667446,7476.080014,-6587.832884,383.047749
378.667780,7105.977043,-6291.750507,689.485948
378.668115,7105.977043,-6513.812290,459.657299
378.668449,7105.977043,-6661.853478,383.047749
378.668783,7254.018232,-6957.935855,842.705048
378.669118,6735.874072,-6883.915261,459.657299
378.669452,7031.956449,-6587.832884,536.266849
378.669786,7328.038826,-6513.812290,536.266849
378.670120,7328.038826,-6365.771101,689.485948
378.670455,7624.121203,-6661.853478,536.266849
378.670789,7402.059420,-6513.812290,842.705048
378.671123,7105.977043,-6883.915261,536.266849
378.671458,7031.956449,-6661.853478,536.266849
378.671792,6365.771101,-6365.771101,536.266849
378.672126,6513.812290,-6735.874072,612.876398
378.672461,6809.894666,-7031.956449,689.485948
378.672795,6883.915261,-6809.894666,766.095498
378.673129,6735.874072,-7328.038826,536.266849
378.673464,6661.853478,-6661.853478,1149.143247
378.673798,6661.853478,-7254.018232,153.219100
378.674132,6735.874072,-6957.935855,383.047749
378.674467,6809.894666,-7105.977043,919.314598
378.674801,7105.977043,-6587.832884,459.657299
378.675135,7328.038826,-5847.626942,612.876398
378.675470,6957.935855,-6513.812290,689.485948
378.675804,7328.038826,-6587.832884,459.657299
378.676138,7179.997637,-6439.791695,383.047749
378.676473,7105.977043,-6661.853478,306.438199
378.676807,7179.997637,-6439.791695,459.657299
378.677141,7476.080014,-6439.791695,459.657299
378.677475,7254.018232,-6513.812290,612.876398
378.677810,7402.059420,-6439.791695,612.876398
378.678144,7031.956449,-6439.791695,1302.362347
378.678478,7179.997637,-6439.791695,536.266849
378.678813,6883.915261,-6735.874072,995.924147
378.679147,6957.935855,-6439.791695,459.657299
378.679481,7328.038826,-7105.977043,842.705048
378.679816,7179.997637,-6661.853478,1072.533697
378.680150,7105.977043,-6809.894666,1072.533697
378.680484,6809.894666,-6587.832884,689.485948
378.680819,6513.812290,-6957.935855,842.705048
378.681153,6735.874072,-6957.935855,536.266849
378.681487,6809.894666,-7105.977043,383.047749
378.681822,6735.874072,-7254.018232,766.095498
378.682156,6883.915261,-6809.894666,689.485948
378.682490,6809.894666,-6069.688724,1455.581446
378.682825,6957.935855,-6587.832884,612.876398
378.683159,7254.018232,-6513.812290,383.047749
378.683493,7105.977043,-6957.935855,842.705048
378.683828,7105.977043,-6735.874072,689.485948
378.684162,6957.935855,-6217.729913,1149.143247
378.684496,7328.038826,-6069.688724,536.266849
378.684830,7179.997637,-6513.812290,919.314598
378.685165,7179.997637,-6439.791695,1149.143247
378.685499,7254.018232,-5995.668130,919.314598
378.685833,7105.977043,-6365.771101,612.876398
378.686168,6883.915261,-6587.832884,459.657299
378.686502,6883.915261,-6587.832884,459.657299
378.686836,6957.935855,-6661.853478,919.314598
378.687171,7328.038826,-6587.832884,842.705048
378.687505,6809.894666,-6587.832884,919.314598
378.687839,6957.935855,-6735.874072,995.924147
378.688174,6809.894666,-6883.915261,1302.362347
378.688508,6735.874072,-6587.832884,1378.971896
378.688842,6957.935855,-6883.915261,536.266849
378.689176,6661.853478,-7105.977043,995.924147
378.689511,7031.956449,-6809.894666,689.485948
378.689845,7328.038826,-6513.812290,919.314598
378.690179,7550.100608,-6365.771101,1225.752797
378.690514,7105.977043,-6587.832884,842.705048
378.690848,7105.977043,-6069.688724,689.485948
378.691182,6883.915261,-6883.915261,689.485948
378.691517,7328.038826,-5921.647536,689.485948
378.691851,7328.038826,-6217.729913,1072.533697
378.692185,7254.018232,-6069.688724,919.314598
378.692520,7105.977043,-6217.729913,1225.752797
378.692854,7328.038826,-5995.668130,1455.581446
378.693188,7179.997637,-6291.750507,1225.752797
378.693522,6883.915261,-6513.812290,919.314598
378.693857,6661.853478,-6513.812290,766.095498
378.694191,6661.853478,-6439.791695,689.485948
378.694525,6735.874072,-6513.812290,689.485948
378.694860,6957.935855,-6809.894666,919.314598
378.695194,6809.894666,-6883.915261,689.485948
378.695528,6735.874072,-6735.874072,1302.362347
378.695863,6513.812290,-7179.997637,1072.533697
378.696197,6735.874072,-6735.874072,919.314598
378.696531,6735.874072,-6735.874072,766.095498
378.696865,6957.935855,-6661.853478,1149.143247
378.697200,7179.997637,-6291.750507,995.924147
378.697534,7105.977043,-6587.832884,1302.362347
378.697868,7031.956449,-6513.812290,766.095498
378.698203,6957.935855,-6809.894666,842.705048
378.698537,6957.935855,-6661.853478,766.095498
378.698871,6957.935855,-6365.771101,612.876398
378.699206,7550.100608,-6587.832884,306.438199
378.699540,7328.038826,-6439.791695,919.314598
378.699874,7179.997637,-6365.771101,842.705048
378.700209,7328.038826,-6735.874072,1149.143247
378.700543,7476.080014,-6217.729913,1149.143247
378.700877,7031.956449,-7031.956449,0.000000
378.701211,6735.874072,-6513.812290,536.266849
378.701546,6661.853478,-6809.894666,306.438199
378.701880,6957.935855,-6809.894666,919.314598
378.702214,6735.874072,-6661.853478,1455.581446
378.702549,6661.853478,-6735.874072,459.657299
378.702883,6809.894666,-6957.935855,1149.143247
378.703217,6809.894666,-7179.997637,383.047749
378.703552,7031.956449,-7328.038826,536.266849
378.703886,6883.915261,-7105.977043,919.314598
378.704220,7105.977043,-6661.853478,689.485948
378.704554,7179.997637,-6365.771101,995.924147
378.704889,7179.997637,-6587.832884,842.705048
378.705223,7846.182985,-6587.832884,459.657299
378.705557,7476.080014,-6809.894666,766.095498
378.705892,6883.915261,-6661.853478,689.485948
378.706226,7105.977043,-5995.668130,766.095498
378.706560,7179.997637,-5921.647536,1072.533697
378.706895,7105.977043,-5699.585753,612.876398
378.707229,7105.977043,-6439.791695,689.485948
378.707563,7254.018232,-6217.729913,766.095498
378.707898,7105.977043,-6439.791695,842.705048
378.708232,7254.018232,-6217.729913,612.876398
378.708566,6957.935855,-6809.894666,689.485948
378.708900,6439.791695,-6957.935855,536.266849
378.709235,6809.894666,-6661.853478,842.705048
378.709569,7031.956449,-6587.832884,459.657299
378.709903,6809.894666,-7105.977043,766.095498
378.710238,6661.853478,-7105.977043,919.314598
378.710572,6513.812290,-7328.038826,612.876398
378.710906,6365.771101,-7031.956449,76.609550
378.711241,6217.729913,-7179.997637,766.095498
378.711575,6661.853478,-6957.935855,536.266849
378.711909,7179.997637,-6883.915261,1149.143247
378.712243,7105.977043,-6883.915261,842.705048
378.712578,7179.997637,-7105.977043,306.438199
378.712912,7179.997637,-6587.832884,612.876398
378.713246,6883.915261,-7179.997637,612.876398
378.713581,6883.915261,-6513.812290,612.876398
378.713915,7105.977043,-6661.853478,383.047749
378.714249,7402.059420,-6809.894666,459.657299
378.714584,7328.038826,-6439.791695,842.705048
378.714918,7328.038826,-6439.791695,919.314598
378.715252,7105.977043,-6587.832884,1072.533697
378.715587,6883.915261,-6809.894666,306.438199
378.715921,6661.853478,-6439.791695,459.657299
378.716255,6587.832884,-6587.832884,306.438199
378.716589,6883.915261,-6809.894666,459.657299
378.716924,7105.977043,-6957.935855,995.924147
378.717258,6587.832884,-6809.894666,1072.533697
378.717592,6735.874072,-6957.935855,612.876398
378.717927,6735.874072,-7105.977043,459.657299
378.718261,6735.874072,-7105.977043,459.657299
378.718595,6291.750507,-7105.977043,842.705048
378.718930,6587.832884,-7254.018232,459.657299
378.719264,7105.977043,-6365.771101,536.266849
378.719598,7031.956449,-6365.771101,612.876398
378.719932,6883.915261,-6439.791695,459.657299
378.720267,7550.100608,-6957.935855,383.047749
378.720601,6957.935855,-6587.832884,766.095498
378.720935,7031.956449,-6587.832884,689.485948
378.721270,7105.977043,-6143.709319,536.266849
378.721604,7920.203579,-5921.647536,536.266849
378.721938,7698.141797,-5699.585753,1072.533697
378.722273,7402.059420,-6661.853478,1072.533697
378.722607,7105.977043,-6587.832884,1225.752797
378.722941,7105.977043,-6513.812290,842.705048
378.723276,6513.812290,-5625.565159,459.657299
378.723610,6513.812290,-6809.894666,383.047749
378.723944,6809.894666,-6513.812290,995.924147
378.724278,6957.935855,-6587.832884,689.485948
378.724613,6587.832884,-6439.791695,153.219100
378.724947,6587.832884,-6513.812290,229.828649
378.725281,6513.812290,-7105.977043,383.047749
378.725616,6735.874072,-7105.977043,536.266849
378.725950,6735.874072,-6735.874072,689.485948
378.726284,6587.832884,-7031.956449,1072.533697
378.726619,7254.018232,-6513.812290,612.876398
378.726953,7031.956449,-7105.977043,612.876398
378.727287,7105.977043,-6587.832884,689.485948
378.727621,6883.915261,-6587.832884,919.314598
378.727956,6809.894666,-6809.894666,842.705048
378.728290,6957.935855,-6143.709319,76.609550
378.728624,7105.977043,-6291.750507,689.485948
378.728959,7105.977043,-5921.647536,842.705048
378.729293,7402.059420,-6291.750507,1378.971896
378.729627,7179.997637,-6217.729913,842.705048
378.729962,7105.977043,-6809.894666,612.876398
378.730296,6809.894666,-6883.915261,995.924147
378.730630,6587.832884,-6513.812290,689.485948
378.730965,6661.853478,-6809.894666,612.876398
378.731299,7031.956449,-7031.956449,919.314598
378.731633,7031.956449,-6661.853478,612.876398
378.731967,6809.894666,-6957.935855,842.705048
378.732302,7179.997637,-6957.935855,842.705048
378.732636,6661.853478,-7031.956449,689.485948
378.732970,6809.894666,-6439.791695,229.828649
378.733305,6513.812290,-6735.874072,612.876398
378.733639,7105.977043,-6291.750507,1072.533697
378.733973,7550.100608,-6217.729913,766.095498
378.734308,7254.018232,-6587.832884,919.314598
378.734642,7254.018232,-6291.750507,612.876398
378.734976,7105.977043,-6809.894666,536.266849
378.735310,7179.997637,-6291.750507,536.266849
378.735645,7105.977043,-6291.750507,612.876398
378.735979,7179.997637,-6143.709319,689.485948
378.736313,7254.018232,-5995.668130,689.485948
378.736648,7254.018232,-6143.709319,612.876398
378.736982,7402.059420,-5995.668130,919.314598
378.737316,7254.018232,-6291.750507,842.705048
378.737651,7105.977043,-6587.832884,612.876398
378.737985,6735.874072,-6069.688724,536.266849
378.738319,6587.832884,-6217.729913,383.047749
378.738654,6883.915261,-6513.812290,842.705048
378.738988,7254.018232,-6365.771101,1149.143247
378.739322,7105.977043,-6661.853478,612.876398
378.739656,6883.915261,-6957.935855,1072.533697
378.739991,6513.812290,-7105.977043,842.705048
378.740325,6735.874072,-6883.915261,536.266849
378.740659,6587.832884,-6809.894666,842.705048
378.740994,7031.956449,-6809.894666,536.266849
378.741328,7402.059420,-6291.750507,919.314598
378.741662,7105.977043,-6439.791695,689.485948
378.741997,7105.977043,-6661.853478,689.485948
378.742331,7254.018232,-6439.791695,919.314598
378.742665,6809.894666,-7031.956449,919.314598
378.742999,6735.874072,-6439.791695,842.705048
378.743334,7328.038826,-6439.791695,766.095498
378.743668,7328.038826,-6291.750507,842.705048
378.744002,7179.997637,-6661.853478,995.924147
378.744337,7476.080014,-5921.647536,536.266849
378.744671,7254.018232,-6069.688724,1378.971896
378.745005,7254.018232,-5995.668130,1072.533697
378.745340,6735.874072,-6587.832884,689.485948
378.745674,6809.894666,-6291.750507,536.266849
378.746008,7105.977043,-6809.894666,1072.533697
378.746343,6809.894666,-6587.832884,919.314598
378.746677,6809.894666,-7031.956449,612.876398
378.747011,7105.977043,-6809.894666,766.095498
378.747345,6957.935855,-7031.956449,995.924147
378.747680,7031.956449,-7105.977043,612.876398
378.748014,7031.956449,-7179.997637,689.485948
378.748348,7031.956449,-6735.874072,459.657299
378.748683,7476.080014,-6069.688724,1149.143247
378.749017,6957.935855,-6587.832884,919.314598
378.749351,7254.018232,-6513.812290,766.095498
378.749686,7179.997637,-7031.956449,919.314598
378.750020,6735.874072,-6809.894666,995.924147
378.750354,7031.956449,-7105.977043,1225.752797
378.750688,7179.997637,-6217.729913,919.314598
378.751023,7105.977043,-6291.750507,1225.752797
378.751357,7105.977043,-6217.729913,842.705048
378.751691,7402.059420,-6587.832884,1302.362347
378.752026,7624.121203,-6439.791695,842.705048
378.752360,7254.018232,-6735.874072,1072.533697
378.752694,6883.915261,-6587.832884,766.095498
378.753029,7105.977043,-6809.894666,1225.752797
378.753363,7031.956449,-6069.688724,842.705048
378.753697,6809.894666,-6957.935855,1225.752797
378.754032,6587.832884,-6809.894666,995.924147
378.754366,6439.791695,-6883.915261,1149.143247
378.754700,6365.771101,-6957.935855,919.314598
378.755034,6143.709319,-6069.688724,842.705048
378.755369,6513.812290,-6513.812290,1072.533697
378.755703,6809.894666,-6735.874072,612.876398
378.756037,6957.935855,-6291.750507,995.924147
378.756372,7550.100608,-6735.874072,1455.581446
378.756706,7402.059420,-6735.874072,919.314598
378.757040,7105.977043,-6809.894666,919.314598
378.757375,6883.915261,-6883.915261,919.314598
378.757709,7031.956449,-6439.791695,919.314598
378.758043,7698.141797,-6439.791695,919.314598
378.758377,7105.977043,-6217.729913,1072.533697
378.758712,7105.977043,-6513.812290,842.705048
378.759046,7328.038826,-6365.771101,1225.752797
378.759380,7179.997637,-5847.626942,1455.581446
378.759715,6809.894666,-6513.812290,919.314598
378.760049,6587.832884,-6735.874072,766.095498
378.760383,6735.874072,-6735.874072,766.095498
378.760718,6587.832884,-6735.874072,1072.533697
378.761052,6735.874072,-6587.832884,1225.752797
378.761386,6957.935855,-6883.915261,842.705048
378.761721,6735.874072,-6883.915261,766.095498
378.762055,6809.894666,-7254.018232,1072.533697
378.762389,6735.874072,-6587.832884,689.485948
378.762723,6365.771101,-6809.894666,612.876398
378.763058,6735.874072,-6513.812290,306.438199
378.763392,7105.977043,-6661.853478,995.924147
378.763726,7179.997637,-6291.750507,766.095498
378.764061,7105.977043,-6365.771101,536.266849
378.764395,7254.018232,-6143.709319,689.485948
378.764729,7105.977043,-6957.935855,536.266849
378.765064,7031.956449,-6587.832884,612.876398
378.765398,7402.059420,-6661.853478,995.924147
378.765732,7624.121203,-6217.729913,689.485948
378.766066,7328.038826,-6217.729913,459.657299
378.766401,7328.038826,-6513.812290,1302.362347
378.766735,7179.997637,-6513.812290,689.485948
378.767069,7031.956449,-6587.832884,536.266849
378.767404,6809.894666,-6587.832884,612.876398
378.767738,6661.853478,-6439.791695,536.266849
378.768072,6883.915261,-6587.832884,995.924147
378.768407,7254.018232,-6513.812290,919.314598
378.768741,7105.977043,-6439.791695,766.095498
378.769075,6735.874072,-7105.977043,689.485948
378.769410,6217.729913,-7179.997637,459.657299
378.769744,6291.750507,-7328.038826,383.047749
378.770078,6217.729913,-6365.771101,612.876398
378.770412,6883.915261,-7031.956449,612.876398
378.770747,7105.977043,-6439.791695,766.095498
378.771081,7105.977043,-6661.853478,919.314598
378.771415,7328.038826,-6069.688724,229.828649
378.771750,7031.956449,-6587.832884,612.876398
378.772084,6661.853478,-6735.874072,766.095498
378.772418,6883.915261,-6439.791695,842.705048
378.772753,7179.997637,-5847.626942,383.047749
378.773087,7698.141797,-6809.894666,842.705048
378.773421,7105.977043,-6513.812290,689.485948
378.773755,7254.018232,-7031.956449,919.314598
378.774090,7179.997637,-6587.832884,919.314598
378.774424,7402.059420,-7105.977043,766.095498
378.774758,7031.956449,-6291.750507,842.705048
378.775093,6513.812290,-6957.935855,766.095498
378.775427,7105.977043,-6735.874072,995.924147
378.775761,6809.894666,-6735.874072,842.705048
378.776096,6957.935855,-6291.750507,842.705048
378.776430,6809.894666,-6513.812290,919.314598
378.776764,6735.874072,-6883.915261,383.047749
378.777099,6809.894666,-7031.956449,612.876398
378.777433,7105.977043,-7105.977043,689.485948
378.777767,7105.977043,-6735.874072,536.266849
378.778101,7179.997637,-6513.812290,612.876398
378.778436,7328.038826,-6365.771101,919.314598
378.778770,7402.059420,-6513.812290,612.876398
378.779104,7624.121203,-6809.894666,842.705048
378.779439,7105.977043,-7031.956449,995.924147
378.779773,7179.997637,-6661.853478,612.876398
378.780107,7254.018232,-6365.771101,536.266849
378.780442,7328.038826,-5625.565159,766.095498
378.780776,7476.080014,-6291.750507,842.705048
378.781110,7402.059420,-6365.771101,1072.533697
378.781444,7179.997637,-6661.853478,919.314598
378.781779,7031.956449,-6661.853478,842.705048
378.782113,6735.874072,-6143.709319,536.266849
378.782447,6735.874072,-6513.812290,153.219100
378.782782,6883.915261,-6809.894666,919.314598
378.783116,6957.935855,-6587.832884,766.095498
378.783450,6957.935855,-7105.977043,536.266849
378.783785,6735.874072,-6587.832884,689.485948
378.784119,6513.812290,-7105.977043,689.485948
378.784453,6661.853478,-6735.874072,306.438199
378.784788,6439.791695,-7105.977043,919.314598
378.785122,6661.853478,-6735.874072,1072.533697
378.785456,7105.977043,-6735.874072,612.876398
378.785790,7105.977043,-6365.771101,842.705048
378.786125,7105.977043,-6365.771101,459.657299
378.786459,7328.038826,-6143.709319,1149.143247
378.786793,7105.977043,-6883.915261,766.095498
378.787128,7105.977043,-6661.853478,766.095498
378.787462,7476.080014,-6513.812290,766.095498
378.787796,7179.997637,-5995.668130,766.095498
378.788130,7254.018232,-6217.729913,1225.752797
378.788465,7179.997637,-6439.791695,1225.752797
378.788799,7105.977043,-6513.812290,383.047749
378.789133,6883.915261,-6735.874072,689.485948
378.789468,7031.956449,-6809.894666,842.705048
378.789802,6735.874072,-6735.874072,459.657299
378.790136,6883.915261,-6883.915261,995.924147
378.790470,6735.874072,-6513.812290,1072.533697
378.790805,6735.874072,-6513.812290,766.095498
378.791139,6883.915261,-6883.915261,383.047749
378.791473,7031.956449,-7105.977043,919.314598
378.791807,7031.956449,-7254.018232,842.705048
378.792142,6809.894666,-6957.935855,766.095498
378.792476,6661.853478,-7254.018232,842.705048
378.792810,7105.977043,-6587.832884,612.876398
378.793145,6883.915261,-6439.791695,919.314598
378.793479,7031.956449,-6439.791695,766.095498
378.793813,7254.018232,-6439.791695,766.095498
378.794147,6957.935855,-6291.750507,1225.752797
378.794482,7105.977043,-6217.729913,919.314598
378.794816,7328.038826,-5847.626942,842.705048
378.795150,7476.080014,-6143.709319,766.095498
378.795484,7402.059420,-6143.709319,1072.533697
378.795819,7402.059420,-6735.874072,1302.362347
378.796153,7328.038826,-6513.812290,842.705048
378.796487,7476.080014,-6883.915261,842.705048
378.796822,6661.853478,-6587.832884,842.705048
378.797156,7031.956449,-6883.915261,0.000000
378.797490,6661.853478,-6661.853478,842.705048
378.797824,6735.874072,-6957.935855,1072.533697
378.798159,6883.915261,-6735.874072,842.705048
378.798493,6957.935855,-6143.709319,1302.362347
378.798827,6735.874072,-6957.935855,842.705048
378.799161,6883.915261,-7105.977043,689.485948
378.799496,6809.894666,-7105.977043,306.438199
378.799830,6661.853478,-7105.977043,919.314598
378.800164,6883.915261,-6587.832884,1302.362347
378.800499,7105.977043,-6587.832884,1149.143247
378.800833,7179.997637,-6809.894666,919.314598
378.801167,7179.997637,-6735.874072,995.924147
378.801501,7179.997637,-7328.038826,995.924147
378.801836,7179.997637,-6587.832884,1072.533697
378.802170,7402.059420,-6291.750507,612.876398
378.802504,7031.956449,-6217.729913,842.705048
378.802838,7105.977043,-6143.709319,995.924147
378.803173,7179.997637,-5625.565159,995.924147
378.803507,7105.977043,-6291.750507,842.705048
378.803841,6957.935855,-6513.812290,919.314598
378.804176,6439.791695,-6513.812290,766.095498
378.804510,6883.915261,-6217.729913,842.705048
378.804844,6735.874072,-6513.812290,995.924147
378.805178,6883.915261,-6439.791695,995.924147
378.805513,6883.915261,-6883.915261,995.924147
378.805847,6957.935855,-6439.791695,919.314598
378.806181,7402.059420,-6883.915261,612.876398
378.806515,6735.874072,-6661.853478,459.657299
378.806850,6587.832884,-7031.956449,612.876398
378.807184,6661.853478,-6735.874072,459.657299
378.807518,6661.853478,-6291.750507,919.314598
378.807853,7476.080014,-6587.832884,536.266849
378.808187,7328.038826,-6513.812290,919.314598
378.808521,7402.059420,-6661.853478,612.876398
378.808855,7105.977043,-6883.915261,842.705048
378.809190,7920.203579,-6735.874072,689.485948
378.809524,7328.038826,-6291.750507,612.876398
378.809858,7105.977043,-5995.668130,383.047749
378.810192,7328.038826,-6217.729913,612.876398
378.810527,7254.018232,-6217.729913,689.485948
378.810861,7402.059420,-6069.688724,1072.533697
378.811195,7031.956449,-6513.812290,536.266849
378.811530,6735.874072,-6365.771101,383.047749
378.811864,6513.812290,-6735.874072,536.266849
378.812198,6957.935855,-6661.853478,536.266849
378.812532,6883.915261,-6587.832884,995.924147
378.812867,6587.832884,-6587.832884,842.705048
378.813201,6883.915261,-6957.935855,919.314598
378.813535,6809.894666,-7031.956449,306.438199
378.813869,6661.853478,-7105.977043,229.828649
378.814204,6957.935855,-6809.894666,612.876398
378.814538,6883.915261,-7105.977043,536.266849
378.814872,7105.977043,-6217.729913,0.000000
378.815207,7179.997637,-6069.688724,919.314598
378.815541,7328.038826,-6439.791695,689.485948
378.815875,7105.977043,-6587.832884,842.705048
378.816209,6809.894666,-6883.915261,689.485948
378.816544,6957.935855,-6661.853478,689.485948
378.816878,6957.935855,-6291.750507,1149.143247
378.817212,7105.977043,-6291.750507,766.095498
378.817546,7105.977043,-6143.709319,536.266849
378.817881,7105.977043,-6587.832884,842.705048
378.818215,7550.100608,-6883.915261,919.314598
378.818549,7031.956449,-6957.935855,689.485948
378.818884,6735.874072,-6809.894666,536.266849
378.819218,6587.832884,-7031.956449,689.485948
378.819552,6957.935855,-6883.915261,612.876398
378.819886,7328.038826,-6661.853478,919.314598
378.820221,6809.894666,-6661.853478,842.705048
378.820555,6735.874072,-6587.832884,766.095498
378.820889,6291.750507,-6587.832884,306.438199
378.821223,6735.874072,-6513.812290,1072.533697
378.821558,6513.812290,-6587.832884,842.705048
378.821892,6957.935855,-7031.956449,459.657299
378.822226,6957.935855,-6661.853478,919.314598
378.822561,7031.956449,-6587.832884,459.657299
378.822895,7402.059420,-6513.812290,459.657299
378.823229,7402.059420,-6365.771101,689.485948
378.823563,7179.997637,-6883.915261,459.657299
378.823898,7105.977043,-6439.791695,383.047749
378.824232,7328.038826,-6291.750507,1072.533697
378.824566,7179.997637,-6143.709319,689.485948
378.824900,7328.038826,-6587.832884,536.266849
378.825235,7254.018232,-6069.688724,842.705048
378.825569,7476.080014,-6439.791695,842.705048
378.825903,7846.182985,-6809.894666,612.876398
378.826238,6883.915261,-6513.812290,459.657299
378.826572,6809.894666,-6883.915261,306.438199
378.826906,6735.874072,-6661.853478,766.095498
378.827240,7254.018232,-6365.771101,1072.533697
378.827575,7031.956449,-6957.935855,612.876398
378.827909,6957.935855,-6587.832884,842.705048
378.828243,6809.894666,-7179.997637,689.485948
378.828577,6587.832884,-6587.832884,153.219100
378.828912,6957.935855,-6513.812290,689.485948
378.829246,6809.894666,-6883.915261,536.266849
378.829580,7031.956449,-6587.832884,919.314598
378.829915,7328.038826,-6439.791695,1072.533697
378.830249,7179.997637,-6217.729913,229.828649
378.830583,7105.977043,-6291.750507,612.876398
378.830917,7105.977043,-6957.935855,1149.143247
378.831252,6883.915261,-6661.853478,612.876398
378.831586,7105.977043,-6587.832884,766.095498
378.831920,6735.874072,-6587.832884,766.095498
378.832254,7328.038826,-6513.812290,995.924147
378.832589,7179.997637,-6587.832884,1455.581446
378.832923,6883.915261,-5921.647536,842.705048
378.833257,6883.915261,-6291.750507,1532.190996
378.833592,6587.832884,-6513.812290,995.924147
378.833926,6513.812290,-7105.977043,1225.752797
378.834260,6661.853478,-6735.874072,1149.143247
378.834594,6661.853478,-6735.874072,995.924147
378.834929,6735.874072,-5995.668130,536.266849
378.835263,6587.832884,-6661.853478,1302.362347
378.835597,6587.832884,-7105.977043,995.924147
378.835931,6735.874072,-7179.997637,153.219100
378.836266,7031.956449,-6365.771101,536.266849
378.836600,6883.915261,-6957.935855,842.705048
378.836934,7328.038826,-6291.750507,1762.019645
378.837269,7179.997637,-6513.812290,1149.143247
378.837603,7105.977043,-6291.750507,842.705048
378.837937,7179.997637,-6217.729913,612.876398
378.838271,7105.977043,-6809.894666,1149.143247
378.838606,6957.935855,-6661.853478,1378.971896
378.838940,7105.977043,-6217.729913,689.485948
378.839274,7624.121203,-6809.894666,1149.143247
378.839608,7254.018232,-5921.647536,1225.752797
378.839943,7402.059420,-6513.812290,1608.800546
378.840277,7476.080014,-6217.729913,1072.533697
378.840611,7179.997637,-6809.894666,1378.971896
378.840946,6883.915261,-6439.791695,689.485948
378.841280,7031.956449,-7105.977043,842.705048
378.841614,7031.956449,-7105.977043,1072.533697
378.841948,7105.977043,-6883.915261,1225.752797
378.842283,6809.894666,-6661.853478,842.705048
378.842617,6735.874072,-7105.977043,1302.362347
378.842951,6513.812290,-7476.080014,919.314598
378.843285,6661.853478,-7105.977043,536.266849
378.843620,6735.874072,-6587.832884,842.705048
378.843954,7105.977043,-6365.771101,842.705048
378.844288,7328.038826,-6365.771101,689.485948
378.844623,7179.997637,-6291.750507,842.705048
378.844957,7402.059420,-6217.729913,1072.533697
378.845291,7254.018232,-5995.668130,536.266849
378.845625,6957.935855,-6957.935855,919.314598
378.845960,6957.935855,-6513.812290,766.095498
378.846294,6587.832884,-6513.812290,229.828649
378.846628,7254.018232,-5995.668130,536.266849
378.846962,7328.038826,-6217.729913,612.876398
378.847297,7402.059420,-6365.771101,919.314598
378.847631,7179.997637,-6439.791695,995.924147
378.847965,7179.997637,-6439.791695,842.705048
378.848300,6957.935855,-6661.853478,612.876398
378.848634,6809.894666,-6735.874072,459.657299
378.848968,6439.791695,-7254.018232,1072.533697
378.849302,7105.977043,-6883.915261,1302.362347
378.849637,7105.977043,-6957.935855,689.485948
378.849971,6809.894666,-6291.750507,842.705048
378.850305,6513.812290,-7179.997637,536.266849
378.850639,6513.812290,-7105.977043,229.828649
378.850974,6513.812290,-7254.018232,766.095498
378.851308,6883.915261,-6587.832884,842.705048
378.851642,7105.977043,-6735.874072,459.657299
378.851977,7550.100608,-6217.729913,612.876398
378.852311,7105.977043,-6439.791695,612.876398
378.852645,7105.977043,-6365.771101,536.266849
378.852979,6735.874072,-7031.956449,612.876398
378.853314,7031.956449,-6587.832884,689.485948
378.853648,7254.018232,-6513.812290,383.047749
378.853982,7179.997637,-6291.750507,766.095498
378.854316,7402.059420,-6143.709319,842.705048
378.854651,7254.018232,-6365.771101,1072.533697
378.854985,7254.018232,-6439.791695,919.314598
378.855319,7031.956449,-6365.771101,766.095498
378.855654,6809.894666,-6217.729913,536.266849
378.855988,6587.832884,-5847.626942,0.000000
378.856322,6735.874072,-6587.832884,459.657299
378.856656,6883.915261,-6809.894666,995.924147
378.856991,6809.894666,-6883.915261,842.705048
378.857325,7031.956449,-6217.729913,766.095498
378.857659,6661.853478,-6661.853478,383.047749
378.857993,6587.832884,-7105.977043,383.047749
378.858328,6809.894666,-6809.894666,536.266849
378.858662,6883.915261,-7031.956449,536.266849
378.858996,7179.997637,-6439.791695,306.438199
378.859331,7105.977043,-6513.812290,536.266849
378.859665,7105.977043,-6513.812290,536.266849
378.859999,7328.038826,-6587.832884,689.485948
378.860333,7179.997637,-6661.853478,919.314598
378.860668,7105.977043,-6735.874072,306.438199
378.861002,7105.977043,-6069.688724,0.000000
378.861336,7031.956449,-6661.853478,536.266849
378.861670,7179.997637,-6143.709319,612.876398
378.862005,7105.977043,-6143.709319,919.314598
378.862339,7254.018232,-6291.750507,689.485948
378.862673,7179.997637,-6957.935855,536.266849
378.863008,7031.956449,-6513.812290,459.657299
378.863342,6513.812290,-6883.915261,383.047749
378.863676,6735.874072,-6661.853478,612.876398
378.864010,6661.853478,-6661.853478,536.266849
378.864345,6513.812290,-6587.832884,536.266849
378.864679,6735.874072,-6883.915261,842.705048
378.865013,6957.935855,-6957.935855,842.705048
378.865347,6735.874072,-7031.956449,229.828649
378.865682,6439.791695,-6883.915261,383.047749
378.866016,6809.894666,-6661.853478,612.876398
378.866350,7105.977043,-6143.709319,842.705048
378.866685,7105.977043,-6069.688724,689.485948
378.867019,7254.018232,-6069.688724,766.095498
378.867353,7402.059420,-6217.729913,612.876398
378.867687,7179.997637,-6957.935855,919.314598
378.868022,7402.059420,-5625.565159,689.485948
378.868356,7105.977043,-6217.729913,612.876398
378.868690,7105.977043,-6291.750507,536.266849
378.869024,7476.080014,-6217.729913,536.266849
378.869359,7179.997637,-5995.668130,1838.629195
378.869693,7328.038826,-6291.750507,995.924147
378.870027,6809.894666,-6513.812290,766.095498
378.870362,6587.832884,-6661.853478,842.705048
378.870696,6735.874072,-6291.750507,229.828649
378.871030,7105.977043,-6735.874072,689.485948
378.871364,7105.977043,-6735.874072,1149.143247
378.871699,7105.977043,-6957.935855,689.485948
378.872033,7031.956449,-6661.853478,842.705048
378.872367,6735.874072,-6957.935855,689.485948
378.872701,6365.771101,-6661.853478,612.876398
378.873036,6661.853478,-6661.853478,689.485948
378.873370,6143.709319,-6883.915261,229.828649
378.873704,6809.894666,-6587.832884,612.876398
378.874039,7328.038826,-5995.668130,1455.581446
378.874373,7402.059420,-6365.771101,919.314598
378.874707,7328.038826,-6217.729913,766.095498
378.875041,7402.059420,-6587.832884,766.095498
378.875376,7105.977043,-6513.812290,1608.800546
378.875710,6735.874072,-6069.688724,766.095498
378.876044,7179.997637,-6439.791695,766.095498
378.876378,7328.038826,-6291.750507,459.657299
378.876713,7105.977043,-6439.791695,1378.971896
378.877047,7328.038826,-6217.729913,1608.800546
378.877381,7031.956449,-6957.935855,919.314598
378.877716,6883.915261,-6439.791695,612.876398
378.878050,6735.874072,-6587.832884,612.876398
378.878384,6735.874072,-6735.874072,612.876398
378.878718,7179.997637,-6587.832884,766.095498
378.879053,6587.832884,-6883.915261,842.705048
378.879387,6883.915261,-6809.894666,842.705048
378.879721,7105.977043,-7105.977043,1225.752797
378.880055,6513.812290,-7179.997637,612.876398
378.880390,6809.894666,-7105.977043,459.657299
378.880724,6661.853478,-7402.059420,383.047749
378.881058,6809.894666,-6439.791695,766.095498
378.881393,7105.977043,-6587.832884,1685.410096
378.881727,6883.915261,-6513.812290,995.924147
378.882061,7179.997637,-6587.832884,536.266849
378.882395,6957.935855,-6883.915261,612.876398
378.882730,7031.956449,-6439.791695,612.876398
378.883064,7179.997637,-6661.853478,919.314598
378.883398,7179.997637,-6365.771101,612.876398
378.883732,7179.997637,-6143.709319,612.876398
378.884067,7476.080014,-6439.791695,919.314598
378.884401,7624.121203,-6217.729913,1149.143247
378.884735,7624.121203,-6735.874072,1072.533697
378.885070,6587.832884,-6439.791695,612.876398
378.885404,6735.874072,-6735.874072,766.095498
378.885738,6661.853478,-7031.956449,919.314598
378.886072,6809.894666,-6587.832884,1149.143247
378.886407,6809.894666,-6883.915261,842.705048
378.886741,6883.915261,-6365.771101,919.314598
378.887075,6809.894666,-7031.956449,766.095498
378.887410,6883.915261,-7105.977043,1149.143247
378.887744,6365.771101,-6735.874072,842.705048
378.888078,6735.874072,-7105.977043,689.485948
378.888412,6809.894666,-6513.812290,766.095498
378.888747,7254.018232,-6291.750507,919.314598
378.889081,7105.977043,-6587.832884,306.438199
378.889415,7476.080014,-6439.791695,1072.533697
378.889750,7328.038826,-7105.977043,919.314598
378.890084,7105.977043,-6439.791695,612.876398
378.890418,7105.977043,-6513.812290,689.485948
378.890753,7179.997637,-6217.729913,459.657299
378.891087,7105.977043,-6439.791695,459.657299
378.891421,7179.997637,-6365.771101,1072.533697
378.891755,7105.977043,-6809.894666,919.314598
378.892090,6809.894666,-6291.750507,612.876398
378.892424,7031.956449,-6587.832884,842.705048
378.892758,6587.832884,-6513.812290,612.876398
378.893093,6735.874072,-6809.894666,842.705048
378.893427,7105.977043,-6735.874072,766.095498
378.893761,6809.894666,-7031.956449,1225.752797
378.894096,6883.915261,-6735.874072,766.095498
378.894430,6513.812290,-6883.915261,459.657299
378.894764,6513.812290,-6957.935855,306.438199
378.895099,7105.977043,-6957.935855,842.705048
378.895433,6809.894666,-6883.915261,459.657299
378.895767,7031.956449,-6809.894666,229.828649
378.896101,7105.977043,-6291.750507,1072.533697
378.896436,7179.997637,-6809.894666,1302.362347
378.896770,7624.121203,-6069.688724,842.705048
378.897104,7105.977043,-6735.874072,766.095498
378.897439,6957.935855,-6291.750507,612.876398
378.897773,7328.038826,-6291.750507,689.485948
378.898107,7698.141797,-5699.585753,842.705048
378.898442,7402.059420,-5699.585753,919.314598
378.898776,7105.977043,-6143.709319,612.876398
378.899110,7179.997637,-6439.791695,689.485948
378.899444,7105.977043,-6439.791695,995.924147
