#time,accel_x,accel_y,accel_z
1446.352650,6587.832884,-6883.915261,1149.143247
1446.352980,7105.977043,-6883.915261,1149.143247
1446.353310,6957.935855,-6809.894666,306.438199
1446.353641,6883.915261,-6661.853478,1762.019645
1446.353971,7105.977043,-6735.874072,1072.533697
1446.354301,7402.059420,-6439.791695,1532.190996
1446.354631,6957.935855,-6439.791695,1685.410096
1446.354961,6883.915261,-7031.956449,1225.752797
1446.355292,7105.977043,-6513.812290,842.705048
1446.355622,7105.977043,-6587.832884,1225.752797
1446.355952,6809.894666,-6291.750507,766.095498
1446.356282,6957.935855,-5995.668130,1225.752797
1446.356612,6883.915261,-6809.894666,1225.752797
1446.356943,7031.956449,-6439.791695,1149.143247
1446.357273,6809.894666,-6365.771101,919.314598
1446.357603,6439.791695,-6217.729913,536.266849
1446.357933,6735.874072,-6661.853478,1302.362347
1446.358263,7105.977043,-6735.874072,919.314598
1446.358594,6809.894666,-6809.894666,612.876398
1446.358924,6587.832884,-6809.894666,1072.533697
1446.359254,6809.894666,-6809.894666,919.314598
1446.359584,6661.853478,-6883.915261,689.485948
1446.359914,6735.874072,-6735.874072,1072.533697
1446.360245,6809.894666,-7105.977043,1149.143247
1446.360575,7179.997637,-6957.935855,1455.581446
1446.360905,7105.977043,-5921.647536,1225.752797
1446.361235,7105.977043,-6587.832884,766.095498
1446.361565,7179.997637,-6291.750507,612.876398
1446.361896,7105.977043,-6661.853478,1072.533697
1446.362226,7179.997637,-6587.832884,766.095498
1446.362556,7179.997637,-6143.709319,459.657299
1446.362886,7402.059420,-5847.626942,1072.533697
1446.363216,7254.018232,-6143.709319,842.705048
1446.363547,6883.915261,-6587.832884,1149.143247
1446.363877,7254.018232,-6069.688724,919.314598
1446.364207,7105.977043,-6439.791695,1378.971896
1446.364537,6883.915261,-6365.771101,842.705048
1446.364867,6883.915261,-6365.771101,995.924147
1446.365197,6957.935855,-6883.915261,1532.190996
1446.365528,6957.935855,-6587.832884,1378.971896
1446.365858,6957.935855,-6735.874072,689.485948
1446.366188,6957.935855,-6661.853478,842.705048
1446.366518,6661.853478,-6439.791695,1149.143247
1446.366848,7105.977043,-6809.894666,1685.410096
1446.367179,6809.894666,-6587.832884,766.095498
1446.367509,6735.874072,-6365.771101,919.314598
1446.367839,6883.915261,-6587.832884,612.876398
1446.368169,7402.059420,-6883.915261,1149.143247
1446.368499,7105.977043,-6661.853478,1149.143247
1446.368830,6957.935855,-6883.915261,919.314598
1446.369160,7031.956449,-6735.874072,1149.143247
1446.369490,7105.977043,-6439.791695,612.876398
1446.369820,7328.038826,-6735.874072,995.924147
1446.370150,7254.018232,-6217.729913,1149.143247
1446.370481,7105.977043,-6365.771101,919.314598
1446.370811,7105.977043,-6439.791695,1149.143247
1446.371141,6735.874072,-7105.977043,1225.752797
1446.371471,7105.977043,-6513.812290,1302.362347
1446.371801,7031.956449,-6661.853478,995.924147
1446.372132,6661.853478,-6661.853478,995.924147
1446.372462,6587.832884,-6661.853478,842.705048
1446.372792,6809.894666,-6809.894666,1225.752797
1446.373122,6809.894666,-6883.915261,1072.533697
1446.373452,6661.853478,-7031.956449,1225.752797
1446.373783,6439.791695,-7105.977043,1455.581446
1446.374113,7031.956449,-6883.915261,1072.533697
1446.374443,6735.874072,-6439.791695,842.705048
1446.374773,6735.874072,-6661.853478,1072.533697
1446.375103,6809.894666,-7105.977043,919.314598
1446.375434,7328.038826,-6735.874072,919.314598
1446.375764,7105.977043,-5921.647536,689.485948
1446.376094,7031.956449,-6069.688724,919.314598
1446.376424,7105.977043,-6439.791695,1072.533697
1446.376754,7105.977043,-6587.832884,1072.533697
1446.377085,7105.977043,-6069.688724,689.485948
1446.377415,7624.121203,-5773.606348,919.314598
1446.377745,7254.018232,-6365.771101,1072.533697
1446.378075,7328.038826,-5995.668130,1302.362347
1446.378405,7105.977043,-6365.771101,1532.190996
1446.378736,7328.038826,-6513.812290,1302.362347
1446.379066,7402.059420,-6439.791695,1072.533697
1446.379396,6661.853478,-5995.668130,1455.581446
1446.379726,6883.915261,-6291.750507,766.095498
1446.380056,7031.956449,-6735.874072,919.314598
1446.380387,7179.997637,-6661.853478,1685.410096
1446.380717,6809.894666,-6661.853478,1072.533697
1446.381047,6661.853478,-6661.853478,1072.533697
1446.381377,6735.874072,-6587.832884,995.924147
1446.381707,6883.915261,-7105.977043,995.924147
1446.382038,6809.894666,-6365.771101,459.657299
1446.382368,6883.915261,-6957.935855,995.924147
1446.382698,7179.997637,-6957.935855,995.924147
1446.383028,7105.977043,-6291.750507,1378.971896
1446.383358,7105.977043,-6735.874072,919.314598
1446.383689,6957.935855,-6883.915261,1072.533697
1446.384019,7105.977043,-6809.894666,1149.143247
1446.384349,6809.894666,-6735.874072,919.314598
1446.384679,6883.915261,-6513.812290,919.314598
1446.385009,7105.977043,-6143.709319,1302.362347
1446.385340,7179.997637,-6513.812290,1072.533697
1446.385670,6957.935855,-6513.812290,1302.362347
1446.386000,6957.935855,-6513.812290,1149.143247
1446.386330,7105.977043,-6513.812290,1072.533697
1446.386660,6809.894666,-6217.729913,1072.533697
1446.386991,6809.894666,-6661.853478,995.924147
1446.387321,6735.874072,-6809.894666,1225.752797
1446.387651,6957.935855,-6587.832884,842.705048
1446.387981,6661.853478,-6291.750507,919.314598
1446.388311,6587.832884,-6883.915261,1149.143247
1446.388642,6513.812290,-6661.853478,1225.752797
1446.388972,6809.894666,-6587.832884,919.314598
1446.389302,6809.894666,-6661.853478,766.095498
1446.389632,6957.935855,-6883.915261,842.705048
1446.389962,7031.956449,-6661.853478,536.266849
1446.390293,7179.997637,-6883.915261,1302.362347
1446.390623,7254.018232,-6439.791695,766.095498
1446.390953,7254.018232,-6439.791695,1225.752797
1446.391283,6957.935855,-6439.791695,1149.143247
1446.391613,7105.977043,-6735.874072,995.924147
1446.391944,7328.038826,-6439.791695,1149.143247
1446.392274,7254.018232,-5773.606348,1149.143247
1446.392604,7476.080014,-6291.750507,1378.971896
1446.392934,7105.977043,-6143.709319,1149.143247
1446.393264,7105.977043,-6661.853478,1455.581446
1446.393595,7031.956449,-6439.791695,919.314598
1446.393925,7031.956449,-5995.668130,919.314598
1446.394255,6957.935855,-6587.832884,919.314598
1446.394585,6957.935855,-6661.853478,919.314598
1446.394915,7031.956449,-6957.935855,1532.190996
1446.395246,6957.935855,-6661.853478,1225.752797
1446.395576,7105.977043,-7105.977043,689.485948
1446.395906,6883.915261,-6957.935855,1532.190996
1446.396236,6809.894666,-6957.935855,1072.533697
1446.396566,6957.935855,-6957.935855,153.219100
1446.396897,6735.874072,-6735.874072,1225.752797
1446.397227,7105.977043,-6957.935855,1225.752797
1446.397557,7328.038826,-6217.729913,1149.143247
1446.397887,6957.935855,-6291.750507,1532.190996
1446.398217,6883.915261,-6365.771101,842.705048
1446.398547,7031.956449,-6587.832884,1072.533697
1446.398878,7179.997637,-7031.956449,842.705048
1446.399208,7402.059420,-6587.832884,689.485948
1446.399538,7105.977043,-6069.688724,1225.752797
1446.399868,7105.977043,-6883.915261,1378.971896
1446.400198,7179.997637,-6365.771101,1302.362347
1446.400529,6883.915261,-6439.791695,1072.533697
1446.400859,7105.977043,-6365.771101,1072.533697
1446.401189,7031.956449,-6291.750507,1225.752797
1446.401519,6217.729913,-5847.626942,919.314598
1446.401849,6291.750507,-6735.874072,1149.143247
1446.402180,6735.874072,-6661.853478,1072.533697
1446.402510,6809.894666,-6587.832884,1225.752797
1446.402840,6661.853478,-7105.977043,612.876398
1446.403170,6439.791695,-6513.812290,1302.362347
1446.403500,6883.915261,-6957.935855,1225.752797
1446.403831,6735.874072,-7328.038826,995.924147
1446.404161,6735.874072,-6513.812290,1072.533697
1446.404491,7031.956449,-7105.977043,1149.143247
1446.404821,7105.977043,-6513.812290,1455.581446
1446.405151,7328.038826,-6143.709319,1072.533697
1446.405482,7105.977043,-6365.771101,842.705048
1446.405812,7179.997637,-6217.729913,1225.752797
1446.406142,7105.977043,-6365.771101,1149.143247
1446.406472,7105.977043,-6587.832884,842.705048
1446.406802,6957.935855,-6439.791695,1072.533697
1446.407133,7254.018232,-5995.668130,842.705048
1446.407463,7328.038826,-6365.771101,842.705048
1446.407793,7550.100608,-6809.894666,1225.752797
1446.408123,7179.997637,-6513.812290,919.314598
1446.408453,7254.018232,-6291.750507,1225.752797
1446.408784,6957.935855,-6291.750507,1072.533697
1446.409114,6809.894666,-5847.626942,1149.143247
1446.409444,7105.977043,-6587.832884,536.266849
1446.409774,7031.956449,-6439.791695,1302.362347
1446.410104,6957.935855,-6661.853478,689.485948
1446.410435,7031.956449,-6809.894666,1225.752797
1446.410765,6735.874072,-6661.853478,1302.362347
1446.411095,6883.915261,-7105.977043,766.095498
1446.411425,6735.874072,-6809.894666,842.705048
1446.411755,6439.791695,-7031.956449,919.314598
1446.412086,7179.997637,-6735.874072,459.657299
1446.412416,7031.956449,-5995.668130,1838.629195
1446.412746,6883.915261,-6661.853478,842.705048
1446.413076,6957.935855,-6291.750507,766.095498
1446.413406,7031.956449,-6735.874072,995.924147
1446.413737,7328.038826,-7105.977043,1149.143247
1446.414067,7179.997637,-6365.771101,919.314598
1446.414397,7105.977043,-6143.709319,1302.362347
1446.414727,7031.956449,-6513.812290,995.924147
1446.415057,7031.956449,-6661.853478,1225.752797
1446.415388,6735.874072,-6291.750507,1302.362347
1446.415718,6883.915261,-6513.812290,919.314598
1446.416048,6735.874072,-6365.771101,612.876398
1446.416378,6513.812290,-6365.771101,919.314598
1446.416708,6291.750507,-6587.832884,1455.581446
1446.417039,7031.956449,-6735.874072,1532.190996
1446.417369,6809.894666,-6587.832884,995.924147
1446.417699,6661.853478,-6439.791695,689.485948
1446.418029,6587.832884,-7105.977043,1302.362347
1446.418359,7179.997637,-6809.894666,1302.362347
1446.418690,6809.894666,-7105.977043,919.314598
1446.419020,6735.874072,-6513.812290,1072.533697
1446.419350,7031.956449,-7179.997637,1072.533697
1446.419680,7328.038826,-6661.853478,1762.019645
1446.420010,7179.997637,-6661.853478,842.705048
1446.420341,7179.997637,-6365.771101,919.314598
1446.420671,7328.038826,-6069.688724,1072.533697
1446.421000,7179.997637,-6291.750507,919.314598
1446.421330,7476.080014,-6291.750507,1149.143247
1446.421660,7550.100608,-6069.688724,1225.752797
1446.421989,7402.059420,-6883.915261,1225.752797
1446.422319,7179.997637,-6513.812290,919.314598
1446.422649,6883.915261,-6587.832884,919.314598
1446.422978,7179.997637,-6143.709319,612.876398
1446.423308,6957.935855,-6365.771101,1072.533697
1446.423638,6883.915261,-6217.729913,919.314598
1446.423967,7031.956449,-6587.832884,995.924147
1446.424297,6661.853478,-6217.729913,2068.457845
1446.424627,7105.977043,-6513.812290,1072.533697
1446.424956,6809.894666,-6809.894666,995.924147
1446.425286,6809.894666,-7031.956449,1149.143247
1446.425616,6883.915261,-6439.791695,1072.533697
1446.425945,6809.894666,-6439.791695,766.095498
1446.426275,6587.832884,-6735.874072,1225.752797
1446.426605,6957.935855,-7031.956449,995.924147
1446.426934,7105.977043,-6883.915261,995.924147
1446.427264,7179.997637,-6291.750507,995.924147
1446.427594,7105.977043,-6291.750507,1302.362347
1446.427923,7105.977043,-6735.874072,919.314598
1446.428253,7031.956449,-6587.832884,1072.533697
1446.428583,7031.956449,-6587.832884,842.705048
1446.428912,7402.059420,-6217.729913,995.924147
1446.429242,7179.997637,-6143.709319,919.314598
1446.429572,7031.956449,-6365.771101,1225.752797
1446.429901,7031.956449,-6661.853478,1302.362347
1446.430231,7031.956449,-6513.812290,842.705048
1446.430561,7254.018232,-6365.771101,995.924147
1446.430890,6661.853478,-6439.791695,1072.533697
1446.431220,6735.874072,-6587.832884,1072.533697
1446.431550,6883.915261,-7105.977043,1072.533697
1446.431879,6735.874072,-6513.812290,1455.581446
1446.432209,6957.935855,-6587.832884,766.095498
1446.432539,6735.874072,-6883.915261,612.876398
1446.432868,6735.874072,-6957.935855,1302.362347
1446.433198,7105.977043,-6809.894666,1225.752797
1446.433528,6957.935855,-6513.812290,1072.533697
1446.433857,6661.853478,-6661.853478,995.924147
1446.434187,7105.977043,-7105.977043,766.095498
1446.434517,7179.997637,-6661.853478,1225.752797
1446.434846,7105.977043,-6883.915261,1225.752797
1446.435176,7179.997637,-6513.812290,306.438199
1446.435506,7105.977043,-6809.894666,1225.752797
1446.435835,7105.977043,-6587.832884,766.095498
1446.436165,7179.997637,-6513.812290,1149.143247
1446.436495,7624.121203,-5625.565159,1378.971896
1446.436824,7179.997637,-6069.688724,766.095498
1446.437154,7105.977043,-6217.729913,1149.143247
1446.437484,6957.935855,-6291.750507,919.314598
1446.437813,7105.977043,-6069.688724,1072.533697
1446.438143,6735.874072,-6291.750507,1378.971896
1446.438473,6883.915261,-6439.791695,995.924147
1446.438802,6883.915261,-6809.894666,919.314598
1446.439132,7031.956449,-6809.894666,1149.143247
1446.439462,6809.894666,-6439.791695,1455.581446
1446.439791,6661.853478,-6661.853478,919.314598
1446.440121,6809.894666,-6883.915261,1225.752797
1446.440451,6809.894666,-6883.915261,919.314598
1446.440780,6809.894666,-6661.853478,689.485948
1446.441110,6587.832884,-5921.647536,1455.581446
1446.441440,6957.935855,-6957.935855,919.314598
1446.441769,7105.977043,-6365.771101,1149.143247
1446.442099,7105.977043,-6291.750507,1225.752797
1446.442429,6957.935855,-6365.771101,919.314598
1446.442758,7105.977043,-6735.874072,766.095498
1446.443088,6883.915261,-6587.832884,919.314598
1446.443418,6883.915261,-6957.935855,995.924147
1446.443747,7179.997637,-5995.668130,995.924147
1446.444077,7179.997637,-6661.853478,1302.362347
1446.444406,7105.977043,-6513.812290,995.924147
1446.444736,6957.935855,-6587.832884,1302.362347
1446.445066,7105.977043,-6365.771101,1149.143247
1446.445395,6957.935855,-6365.771101,1378.971896
1446.445725,6513.812290,-5921.647536,1302.362347
1446.446055,6439.791695,-6439.791695,919.314598
1446.446384,6735.874072,-6809.894666,1378.971896
1446.446714,6957.935855,-6587.832884,1225.752797
1446.447044,6957.935855,-7179.997637,766.095498
1446.447373,6513.812290,-6809.894666,1149.143247
1446.447703,6809.894666,-6957.935855,1378.971896
1446.448033,6809.894666,-7031.956449,1149.143247
1446.448362,6809.894666,-6661.853478,1225.752797
1446.448692,6957.935855,-6957.935855,842.705048
1446.449022,7179.997637,-6735.874072,1072.533697
1446.449351,7402.059420,-6069.688724,995.924147
1446.449681,7031.956449,-6439.791695,919.314598
1446.450011,6957.935855,-6365.771101,1378.971896
1446.450340,7105.977043,-6439.791695,1072.533697
1446.450670,7105.977043,-6587.832884,995.924147
1446.451000,7402.059420,-6069.688724,995.924147
1446.451329,7254.018232,-6217.729913,919.314598
1446.451659,7254.018232,-5847.626942,689.485948
1446.451989,7179.997637,-6513.812290,1149.143247
1446.452318,7328.038826,-6513.812290,919.314598
1446.452648,7179.997637,-6143.709319,1072.533697
1446.452978,7105.977043,-6365.771101,1072.533697
1446.453307,7105.977043,-6735.874072,1225.752797
1446.453637,6809.894666,-6365.771101,1072.533697
1446.453967,6809.894666,-6661.853478,766.095498
1446.454296,6735.874072,-6365.771101,536.266849
1446.454626,7105.977043,-6957.935855,1838.629195
1446.454956,6957.935855,-6809.894666,1455.581446
1446.455285,6883.915261,-7031.956449,689.485948
1446.455615,6809.894666,-6957.935855,1072.533697
1446.455945,6661.853478,-7105.977043,995.924147
1446.456274,7179.997637,-6809.894666,1149.143247
1446.456604,7328.038826,-6587.832884,1225.752797
1446.456934,7179.997637,-6883.915261,1302.362347
1446.457263,7105.977043,-6513.812290,919.314598
1446.457593,7031.956449,-6809.894666,1378.971896
1446.457923,6735.874072,-6439.791695,766.095498
1446.458252,6957.935855,-6291.750507,1072.533697
1446.458582,7105.977043,-6069.688724,1072.533697
1446.458912,7105.977043,-6291.750507,995.924147
1446.459241,7105.977043,-6217.729913,1608.800546
1446.459571,7031.956449,-6513.812290,1455.581446
1446.459901,6809.894666,-6365.771101,1225.752797
1446.460230,7031.956449,-6291.750507,1072.533697
1446.460560,6513.812290,-6809.894666,1149.143247
1446.460890,6587.832884,-6587.832884,995.924147
1446.461219,7031.956449,-7031.956449,1225.752797
1446.461549,6957.935855,-6957.935855,1149.143247
1446.461879,6809.894666,-6957.935855,689.485948
1446.462208,6809.894666,-6735.874072,919.314598
1446.462538,6439.791695,-6957.935855,1149.143247
1446.462868,6587.832884,-6661.853478,306.438199
1446.463197,6587.832884,-6513.812290,919.314598
1446.463527,6957.935855,-7031.956449,995.924147
1446.463857,7476.080014,-6587.832884,1378.971896
1446.464186,7179.997637,-6439.791695,1225.752797
1446.464516,7328.038826,-6661.853478,919.314598
1446.464846,7402.059420,-6439.791695,1072.533697
1446.465175,7476.080014,-6513.812290,1685.410096
1446.465505,7624.121203,-6957.935855,1149.143247
1446.465835,7328.038826,-5995.668130,1072.533697
1446.466164,7254.018232,-6587.832884,1225.752797
1446.466494,6735.874072,-6513.812290,689.485948
1446.466824,6883.915261,-6291.750507,1532.190996
1446.467153,7031.956449,-6365.771101,919.314598
1446.467483,6883.915261,-6513.812290,1072.533697
1446.467813,6735.874072,-6069.688724,995.924147
1446.468142,6883.915261,-6291.750507,842.705048
1446.468472,6883.915261,-6513.812290,1378.971896
1446.468802,7179.997637,-6809.894666,1225.752797
1446.469131,7031.956449,-6809.894666,842.705048
1446.469461,6809.894666,-6883.915261,1225.752797
1446.469791,7105.977043,-6957.935855,766.095498
1446.470120,6883.915261,-7105.977043,689.485948
1446.470450,6735.874072,-5773.606348,612.876398
1446.470780,7328.038826,-5773.606348,842.705048
1446.471109,8142.265362,-5921.647536,1072.533697
1446.471439,8364.327145,-5255.462188,1685.410096
1446.471769,8438.347739,-5847.626942,842.705048
1446.472098,7698.141797,-6143.709319,76.609550
1446.472428,6365.771101,-7254.018232,153.219100
1446.472758,6143.709319,-7105.977043,229.828649
1446.473087,6809.894666,-6365.771101,842.705048
1446.473417,7846.182985,-6217.729913,1072.533697
1446.473746,8512.368333,-5773.606348,1608.800546
1446.474076,8364.327145,-5329.482782,1915.238745
1446.474406,8438.347739,-3923.091493,1455.581446
1446.474735,8216.285956,-4811.338623,1532.190996
1446.475065,7624.121203,-4441.235652,1072.533697
1446.475395,7846.182985,-4293.194464,766.095498
1446.475724,7920.203579,-5255.462188,1838.629195
1446.476054,7920.203579,-4441.235652,1149.143247
1446.476384,7402.059420,-5699.585753,459.657299
1446.476713,7846.182985,-5107.421000,612.876398
1446.477043,8142.265362,-6143.709319,536.266849
1446.477373,8068.244768,-6365.771101,1149.143247
1446.477702,7624.121203,-6143.709319,689.485948
1446.478032,7402.059420,-6661.853478,229.828649
1446.478362,7550.100608,-5403.503377,536.266849
1446.478691,8142.265362,-5255.462188,995.924147
1446.479021,8660.409521,-4071.132681,919.314598
1446.479351,9030.512492,-4219.173869,1225.752797
1446.479680,9400.615463,-4219.173869,842.705048
1446.480010,9474.636058,-2738.761985,1072.533697
1446.480340,9696.697840,-3108.864956,1378.971896
1446.480669,10066.800811,-2738.761985,1608.800546
1446.480999,10140.821405,-2960.823768,1302.362347
1446.481329,9992.780217,-3478.967927,1608.800546
1446.481658,9474.636058,-3256.906145,1225.752797
1446.481988,10214.842000,-4811.338623,1915.238745
1446.482318,9770.718434,-4367.215058,1685.410096
1446.482647,9252.574275,-5033.400406,1302.362347
1446.482977,8512.368333,-4737.318029,1149.143247
1446.483307,8364.327145,-4367.215058,536.266849
1446.483636,8068.244768,-5773.606348,842.705048
1446.483966,8142.265362,-4737.318029,919.314598
1446.484296,8142.265362,-4663.297435,1378.971896
1446.484625,8512.368333,-4219.173869,842.705048
1446.484955,8142.265362,-5255.462188,1149.143247
1446.485285,8142.265362,-5551.544565,689.485948
1446.485614,8438.347739,-5181.441594,0.000000
1446.485944,8882.471304,-5403.503377,306.438199
1446.486274,9030.512492,-4885.359217,536.266849
1446.486603,9474.636058,-4959.379811,689.485948
1446.486933,9770.718434,-4811.338623,689.485948
1446.487263,9548.656652,-4589.276840,689.485948
1446.487592,9474.636058,-4071.132681,919.314598
1446.487922,9474.636058,-3108.864956,536.266849
1446.488252,9400.615463,-3552.988522,919.314598
1446.488581,9474.636058,-3330.926739,1762.019645
1446.488911,9178.553681,-3997.112087,1838.629195
1446.489241,9474.636058,-3849.070898,1838.629195
1446.489570,9178.553681,-4071.132681,1762.019645
1446.489900,8734.430116,-3701.029710,1378.971896
1446.490230,8808.450710,-3775.050304,1302.362347
1446.490559,9104.533087,-4515.256246,1378.971896
1446.490889,9474.636058,-4071.132681,1915.238745
1446.491219,8734.430116,-4071.132681,229.828649
1446.491548,8364.327145,-4219.173869,0.000000
1446.491878,8438.347739,-4885.359217,0.000000
1446.492208,8882.471304,-6069.688724,0.000000
1446.492537,8290.306550,-5477.523971,459.657299
1446.492867,8290.306550,-6365.771101,612.876398
1446.493197,8882.471304,-5995.668130,919.314598
1446.493526,8660.409521,-5551.544565,1302.362347
1446.493856,8512.368333,-5551.544565,1762.019645
1446.494186,8956.491898,-5107.421000,1685.410096
1446.494515,9104.533087,-4663.297435,2221.676944
1446.494845,9178.553681,-3849.070898,2374.896044
1446.495175,9622.677246,-2590.720797,1608.800546
1446.495504,10066.800811,-1480.411884,1762.019645
1446.495834,9696.697840,-1258.350101,612.876398
1446.496164,10288.862594,-1776.494261,229.828649
1446.496493,10658.965565,-1184.329507,76.609550
1446.496823,10362.883188,-3182.885551,153.219100
1446.497153,9326.594869,-3552.988522,383.047749
1446.497482,9104.533087,-5329.482782,306.438199
1446.497812,8586.388927,-8142.265362,919.314598
1446.498142,7698.141797,-8586.388927,1378.971896
1446.498471,7179.997637,-8882.471304,919.314598
1446.498801,5995.668130,-8068.244768,306.438199
1446.499131,5477.523971,-8068.244768,766.095498
1446.499460,6217.729913,-5551.544565,0.000000
1446.499790,7846.182985,-4737.318029,842.705048
1446.500120,9548.656652,-3627.009116,2068.457845
1446.500449,10288.862594,-1850.514855,1685.410096
1446.500779,10584.944971,-518.144159,1455.581446
1446.501109,10732.986159,0.000000,919.314598
1446.501438,11325.150913,0.000000,842.705048
1446.501768,12361.439231,-666.185348,1455.581446
1446.502098,12731.542202,-1480.411884,1532.190996
1446.502427,12805.562797,-3034.844362,1838.629195
1446.502757,11547.212695,-3997.112087,1991.848295
1446.503086,9474.636058,-6069.688724,1149.143247
1446.503416,7105.977043,-8290.306550,1149.143247
1446.503746,5403.503377,-7920.203579,536.266849
1446.504075,4589.276840,-8586.388927,-153.219100
1446.504405,4145.153275,-7846.182985,-383.047749
1446.504735,5255.462188,-7402.059420,0.000000
1446.505064,7105.977043,-6809.894666,689.485948
1446.505394,8438.347739,-5477.523971,1378.971896
1446.505724,9252.574275,-3404.947333,1762.019645
1446.506053,10140.821405,-1258.350101,995.924147
1446.506383,10214.842000,-592.164754,1608.800546
1446.506713,11843.295072,0.000000,1072.533697
1446.507042,12583.501014,-666.185348,1532.190996
1446.507372,13175.665768,-666.185348,2221.676944
1446.507702,13175.665768,-2220.617826,2451.505594
1446.508031,12361.439231,-3701.029710,2604.724693
1446.508361,10436.903782,-5255.462188,2451.505594
1446.508691,8586.388927,-6143.709319,1149.143247
1446.509020,6291.750507,-7031.956449,-306.438199
1446.509350,4367.215058,-7772.162391,-612.876398
1446.509680,3997.112087,-8068.244768,-1072.533697
1446.510009,5403.503377,-7402.059420,-306.438199
1446.510339,7550.100608,-5773.606348,0.000000
1446.510669,9400.615463,-4145.153275,153.219100
1446.510998,10584.944971,-2294.638420,612.876398
1446.511328,11029.068536,-1702.473667,995.924147
1446.511658,11843.295072,-1776.494261,1762.019645
1446.511987,11547.212695,-2590.720797,2451.505594
1446.512317,10955.047942,-3034.844362,2298.286494
1446.512647,9992.780217,-4367.215058,1685.410096
1446.512976,9178.553681,-5625.565159,1915.238745
1446.513306,7920.203579,-7550.100608,1762.019645
1446.513636,7105.977043,-7846.182985,1838.629195
1446.513965,6883.915261,-6809.894666,919.314598
1446.514295,6291.750507,-5403.503377,0.000000
1446.514625,6143.709319,-3330.926739,-842.705048
1446.514954,7328.038826,-4145.153275,0.000000
1446.515284,9400.615463,-3478.967927,1225.752797
1446.515614,10436.903782,-3256.906145,1991.848295
1446.515943,10436.903782,-1776.494261,1149.143247
1446.516273,10584.944971,-1406.391290,459.657299
1446.516603,11029.068536,-3034.844362,995.924147
1446.516932,11251.130318,-4737.318029,1991.848295
1446.517262,11103.089130,-5551.544565,2451.505594
1446.517592,10214.842000,-4515.256246,1378.971896
1446.517921,9252.574275,-3256.906145,0.000000
1446.518251,7846.182985,-4959.379811,229.828649
1446.518581,7031.956449,-8068.244768,1225.752797
1446.518910,7031.956449,-8364.327145,1455.581446
1446.519240,6291.750507,-6217.729913,76.609550
1446.519570,5477.523971,-4811.338623,-1072.533697
1446.519899,5995.668130,-6587.832884,0.000000
1446.520229,8068.244768,-5699.585753,1455.581446
1446.520559,9696.697840,-5181.441594,1455.581446
1446.520888,10140.821405,-2368.659014,1685.410096
1446.521218,11399.171507,444.123565,1378.971896
1446.521548,12509.480420,444.123565,1302.362347
1446.521877,11769.274478,-2072.576638,1455.581446
1446.522207,9844.739029,-3849.070898,1608.800546
1446.522537,9548.656652,-4293.194464,536.266849
1446.522866,9326.594869,-4145.153275,1608.800546
1446.523195,9326.594869,-5921.647536,1915.238745
1446.523525,8882.471304,-7550.100608,1991.848295
1446.523854,8068.244768,-5847.626942,689.485948
1446.524183,7254.018232,-4811.338623,-689.485948
1446.524512,6883.915261,-4663.297435,229.828649
1446.524841,8882.471304,-4811.338623,1225.752797
1446.525170,9104.533087,-4293.194464,612.876398
1446.525500,7476.080014,-4219.173869,0.000000
1446.525829,7402.059420,-4145.153275,0.000000
1446.526158,9104.533087,-4885.359217,1455.581446
1446.526487,11103.089130,-4737.318029,2221.676944
1446.526816,10732.986159,-3775.050304,1838.629195
1446.527145,10066.800811,-3256.906145,766.095498
1446.527475,9548.656652,-5477.523971,1302.362347
1446.527804,7920.203579,-7476.080014,1838.629195
1446.528133,7105.977043,-6217.729913,995.924147
1446.528462,7105.977043,-3849.070898,0.000000
1446.528791,7105.977043,-5477.523971,0.000000
1446.529120,7994.224174,-6587.832884,2374.896044
1446.529450,9548.656652,-4589.276840,2068.457845
1446.529779,10066.800811,-3256.906145,1302.362347
1446.530108,9326.594869,-2812.782580,1302.362347
1446.530437,8882.471304,-3256.906145,2298.286494
1446.530766,9400.615463,-4145.153275,919.314598
1446.531095,8364.327145,-4885.359217,842.705048
1446.531425,7994.224174,-4811.338623,1302.362347
1446.531754,9178.553681,-4441.235652,153.219100
1446.532083,9770.718434,-4663.297435,1378.971896
1446.532412,9474.636058,-6143.709319,1608.800546
1446.532741,8512.368333,-7624.121203,459.657299
1446.533070,6735.874072,-7624.121203,766.095498
1446.533400,5255.462188,-7476.080014,76.609550
1446.533729,5107.421000,-7994.224174,-842.705048
1446.534058,5625.565159,-8142.265362,229.828649
1446.534387,6143.709319,-7402.059420,306.438199
1446.534716,6587.832884,-7254.018232,1072.533697
1446.535045,6735.874072,-7179.997637,1378.971896
1446.535374,6809.894666,-6439.791695,766.095498
1446.535704,6513.812290,-6291.750507,383.047749
1446.536033,6365.771101,-5477.523971,1072.533697
1446.536362,7179.997637,-6661.853478,1225.752797
1446.536691,8364.327145,-5403.503377,1915.238745
1446.537020,9178.553681,-4737.318029,1685.410096
1446.537349,9770.718434,-3997.112087,1455.581446
1446.537679,8660.409521,-3404.947333,1608.800546
1446.538008,7179.997637,-5033.400406,612.876398
1446.538337,6809.894666,-5255.462188,1225.752797
1446.538666,7624.121203,-4589.276840,1302.362347
1446.538995,8068.244768,-4367.215058,842.705048
1446.539324,6883.915261,-3775.050304,1532.190996
1446.539654,7328.038826,-5255.462188,1762.019645
1446.539983,8364.327145,-6217.729913,1149.143247
1446.540312,7550.100608,-6513.812290,1302.362347
1446.540641,6735.874072,-6069.688724,919.314598
1446.540970,6957.935855,-8882.471304,1149.143247
1446.541299,6291.750507,-9770.718434,1225.752797
1446.541629,5551.544565,-8586.388927,689.485948
1446.541958,5921.647536,-9104.533087,1838.629195
1446.542287,6809.894666,-7328.038826,1608.800546
1446.542616,6439.791695,-8216.285956,1225.752797
1446.542945,4959.379811,-7772.162391,995.924147
1446.543274,5033.400406,-6291.750507,842.705048
1446.543604,5403.503377,-5847.626942,0.000000
1446.543933,6217.729913,-4589.276840,1072.533697
1446.544262,7772.162391,-5329.482782,1225.752797
1446.544591,9252.574275,-5181.441594,1225.752797
1446.544920,8142.265362,-6513.812290,1762.019645
1446.545249,7328.038826,-7254.018232,1915.238745
1446.545579,8290.306550,-6069.688724,766.095498
1446.545908,7920.203579,-7402.059420,1225.752797
1446.546237,7179.997637,-8216.285956,1225.752797
1446.546566,6587.832884,-7254.018232,2145.067394
1446.546895,6883.915261,-7031.956449,995.924147
1446.547224,5625.565159,-6735.874072,-306.438199
1446.547554,4959.379811,-5773.606348,612.876398
1446.547883,6217.729913,-6513.812290,995.924147
1446.548212,7254.018232,-6365.771101,842.705048
1446.548541,6587.832884,-5921.647536,383.047749
1446.548870,6143.709319,-5107.421000,76.609550
1446.549199,7328.038826,-5255.462188,0.000000
1446.549529,7772.162391,-6291.750507,1455.581446
1446.549858,7550.100608,-6587.832884,1685.410096
1446.550187,7698.141797,-6809.894666,2068.457845
1446.550516,8068.244768,-6957.935855,1608.800546
1446.550845,7476.080014,-7105.977043,1762.019645
1446.551174,7772.162391,-7105.977043,1685.410096
1446.551504,7402.059420,-5181.441594,842.705048
1446.551833,5773.606348,-7031.956449,76.609550
1446.552162,4959.379811,-6069.688724,229.828649
1446.552491,5921.647536,-5329.482782,536.266849
1446.552820,7179.997637,-6069.688724,-383.047749
1446.553149,6365.771101,-6143.709319,612.876398
1446.553478,6735.874072,-7031.956449,612.876398
1446.553808,8142.265362,-7179.997637,612.876398
1446.554137,7698.141797,-6883.915261,383.047749
1446.554466,7031.956449,-7846.182985,689.485948
1446.554795,7328.038826,-8142.265362,1378.971896
1446.555124,8142.265362,-7031.956449,1455.581446
1446.555453,7994.224174,-7328.038826,2374.896044
1446.555783,8660.409521,-6513.812290,1991.848295
1446.556112,8068.244768,-5773.606348,1378.971896
1446.556441,6513.812290,-5551.544565,536.266849
1446.556770,5255.462188,-5033.400406,306.438199
1446.557099,6735.874072,-5033.400406,612.876398
1446.557428,6513.812290,-5847.626942,612.876398
1446.557758,5107.421000,-7179.997637,229.828649
1446.558087,5329.482782,-7698.141797,1149.143247
1446.558416,7105.977043,-7624.121203,76.609550
1446.558745,6883.915261,-7920.203579,1149.143247
1446.559074,5773.606348,-8438.347739,1608.800546
1446.559403,7402.059420,-7698.141797,1455.581446
1446.559733,8512.368333,-6217.729913,1685.410096
1446.560062,7328.038826,-5847.626942,1072.533697
1446.560391,7179.997637,-5625.565159,1991.848295
1446.560720,8068.244768,-5107.421000,842.705048
1446.561049,6513.812290,-5921.647536,1302.362347
1446.561378,6291.750507,-4293.194464,1608.800546
1446.561708,7105.977043,-4515.256246,842.705048
1446.562037,7179.997637,-4811.338623,1685.410096
1446.562366,7105.977043,-5921.647536,1532.190996
1446.562695,7105.977043,-6661.853478,689.485948
1446.563024,7550.100608,-6735.874072,919.314598
1446.563353,7031.956449,-8290.306550,1455.581446
1446.563683,6291.750507,-8068.244768,536.266849
1446.564012,5921.647536,-8586.388927,1532.190996
1446.564341,5477.523971,-9474.636058,1302.362347
1446.564670,6143.709319,-6217.729913,1225.752797
1446.564999,5921.647536,-7402.059420,1762.019645
1446.565328,6883.915261,-5773.606348,1378.971896
1446.565658,7031.956449,-5403.503377,766.095498
1446.565987,6143.709319,-5033.400406,536.266849
1446.566316,5995.668130,-5107.421000,689.485948
1446.566645,7994.224174,-6513.812290,1149.143247
1446.566974,8142.265362,-5921.647536,1225.752797
1446.567303,7105.977043,-7254.018232,1149.143247
1446.567633,7402.059420,-7328.038826,689.485948
1446.567962,7105.977043,-8586.388927,1302.362347
1446.568291,5921.647536,-9252.574275,0.000000
1446.568620,5699.585753,-8364.327145,536.266849
1446.568949,6661.853478,-8290.306550,995.924147
1446.569278,6217.729913,-6809.894666,0.000000
1446.569608,5329.482782,-7846.182985,1532.190996
1446.569937,6735.874072,-5329.482782,1762.019645
1446.570266,8142.265362,-4293.194464,612.876398
1446.570595,7846.182985,-4663.297435,1225.752797
1446.570924,7254.018232,-4293.194464,2451.505594
1446.571253,9326.594869,-4515.256246,2298.286494
1446.571583,9178.553681,-4737.318029,1532.190996
1446.571912,7476.080014,-5181.441594,1532.190996
1446.572241,8290.306550,-6143.709319,1149.143247
1446.572570,8438.347739,-7476.080014,1072.533697
1446.572899,5921.647536,-9474.636058,919.314598
1446.573228,4293.194464,-8364.327145,0.000000
1446.573557,4885.359217,-8142.265362,-153.219100
1446.573887,5625.565159,-7698.141797,153.219100
1446.574216,6069.688724,-7179.997637,919.314598
1446.574545,7179.997637,-5255.462188,1455.581446
1446.574874,7698.141797,-5033.400406,383.047749
1446.575203,7105.977043,-4663.297435,1838.629195
1446.575532,8142.265362,-3182.885551,1149.143247
1446.575862,9844.739029,-5477.523971,1991.848295
1446.576191,9326.594869,-4885.359217,1915.238745
1446.576520,8438.347739,-5477.523971,1378.971896
1446.576849,8734.430116,-4959.379811,1072.533697
1446.577178,9178.553681,-6143.709319,1072.533697
1446.577507,7920.203579,-8660.409521,1302.362347
1446.577837,5773.606348,-7550.100608,842.705048
1446.578166,4885.359217,-9326.594869,0.000000
1446.578495,4441.235652,-9030.512492,-229.828649
1446.578824,3478.967927,-9104.533087,229.828649
1446.579153,3923.091493,-8068.244768,536.266849
1446.579482,5403.503377,-6883.915261,0.000000
1446.579812,5921.647536,-6217.729913,842.705048
1446.580141,7772.162391,-4663.297435,1685.410096
1446.580470,9030.512492,-5181.441594,1915.238745
1446.580799,9548.656652,-4145.153275,2451.505594
1446.581128,8808.450710,-5477.523971,1225.752797
1446.581457,8142.265362,-6957.935855,1685.410096
1446.581787,7994.224174,-5995.668130,459.657299
1446.582116,6809.894666,-8142.265362,766.095498
1446.582445,6587.832884,-9252.574275,1838.629195
1446.582774,6735.874072,-8364.327145,689.485948
1446.583103,5551.544565,-9178.553681,0.000000
1446.583432,3775.050304,-8364.327145,383.047749
1446.583762,4737.318029,-7476.080014,-229.828649
1446.584091,6069.688724,-7328.038826,-306.438199
1446.584420,5847.626942,-5625.565159,612.876398
1446.584749,6735.874072,-4145.153275,689.485948
1446.585078,8438.347739,-5403.503377,1455.581446
1446.585407,9178.553681,-3182.885551,2221.676944
1446.585737,8882.471304,-4959.379811,2451.505594
1446.586066,9770.718434,-4737.318029,2451.505594
1446.586395,9622.677246,-3478.967927,3064.381992
1446.586724,8512.368333,-7254.018232,2298.286494
1446.587053,6661.853478,-7105.977043,1378.971896
1446.587382,5921.647536,-7550.100608,766.095498
1446.587712,6365.771101,-8290.306550,1149.143247
1446.588041,5255.462188,-8364.327145,1149.143247
1446.588370,5255.462188,-7846.182985,1302.362347
1446.588699,5551.544565,-6143.709319,919.314598
1446.589028,6069.688724,-4441.235652,306.438199
1446.589357,6809.894666,-3923.091493,1685.410096
1446.589687,7105.977043,-4219.173869,766.095498
1446.590016,7402.059420,-6217.729913,1072.533697
1446.590345,6957.935855,-6217.729913,919.314598
1446.590674,6809.894666,-7105.977043,919.314598
1446.591003,8142.265362,-5551.544565,1838.629195
1446.591332,8512.368333,-8512.368333,1915.238745
1446.591661,7476.080014,-8956.491898,2374.896044
1446.591991,7105.977043,-9030.512492,1915.238745
1446.592320,6513.812290,-9030.512492,995.924147
1446.592649,4663.297435,-8734.430116,-383.047749
1446.592978,3182.885551,-9474.636058,-383.047749
1446.593307,4293.194464,-8808.450710,0.000000
1446.593636,4589.276840,-8512.368333,0.000000
1446.593966,4737.318029,-5625.565159,229.828649
1446.594295,5995.668130,-4885.359217,0.000000
1446.594624,8216.285956,-4441.235652,1455.581446
1446.594953,9104.533087,-4071.132681,1685.410096
1446.595282,8882.471304,-4589.276840,1915.238745
1446.595611,9400.615463,-4737.318029,1991.848295
1446.595941,9400.615463,-6809.894666,2145.067394
1446.596270,8586.388927,-6587.832884,1915.238745
1446.596599,7402.059420,-6587.832884,1378.971896
1446.596928,7105.977043,-8882.471304,1378.971896
1446.597257,7550.100608,-7698.141797,1225.752797
1446.597586,6883.915261,-7476.080014,1455.581446
1446.597916,5995.668130,-6513.812290,306.438199
1446.598245,4885.359217,-5107.421000,-919.314598
1446.598574,5107.421000,-5625.565159,-383.047749
1446.598903,5329.482782,-5773.606348,76.609550
1446.599232,6735.874072,-6069.688724,1225.752797
1446.599561,8290.306550,-4737.318029,1149.143247
1446.599891,8660.409521,-4959.379811,2604.724693
1446.600220,9474.636058,-4811.338623,2374.896044
1446.600549,9770.718434,-6069.688724,2451.505594
1446.600878,9178.553681,-6661.853478,2068.457845
1446.601207,7624.121203,-7179.997637,2298.286494
1446.601536,7031.956449,-7105.977043,1455.581446
1446.601866,5847.626942,-8290.306550,612.876398
1446.602195,5107.421000,-8734.430116,383.047749
1446.602524,4737.318029,-8364.327145,0.000000
1446.602853,4145.153275,-7846.182985,-459.657299
1446.603182,4293.194464,-7031.956449,-536.266849
1446.603511,5477.523971,-5699.585753,0.000000
1446.603841,7328.038826,-5107.421000,766.095498
1446.604170,7476.080014,-4885.359217,229.828649
1446.604499,8512.368333,-4589.276840,306.438199
1446.604828,8586.388927,-5477.523971,995.924147
1446.605157,8956.491898,-6513.812290,1302.362347
1446.605486,8660.409521,-7846.182985,2681.334243
1446.605816,8660.409521,-6143.709319,1915.238745
1446.606145,7772.162391,-8068.244768,1149.143247
1446.606474,7105.977043,-8216.285956,1762.019645
1446.606803,7328.038826,-7031.956449,1455.581446
1446.607132,7179.997637,-6217.729913,766.095498
1446.607461,6143.709319,-5625.565159,383.047749
1446.607791,4441.235652,-6365.771101,0.000000
1446.608120,5255.462188,-5181.441594,-612.876398
1446.608449,6365.771101,-5699.585753,536.266849
1446.608778,7105.977043,-5921.647536,995.924147
1446.609107,8068.244768,-4811.338623,995.924147
1446.609436,8808.450710,-5773.606348,1762.019645
1446.609766,8586.388927,-6217.729913,1455.581446
1446.610095,7550.100608,-7328.038826,2068.457845
1446.610424,6809.894666,-8364.327145,1685.410096
1446.610753,6809.894666,-7698.141797,689.485948
1446.611082,6365.771101,-8438.347739,1455.581446
1446.611411,6143.709319,-8586.388927,842.705048
1446.611740,5403.503377,-7624.121203,842.705048
1446.612070,5773.606348,-8216.285956,1072.533697
1446.612399,5477.523971,-6883.915261,0.000000
1446.612728,5773.606348,-5403.503377,76.609550
1446.613057,7179.997637,-4219.173869,383.047749
1446.613386,8290.306550,-4663.297435,229.828649
1446.613715,8290.306550,-5181.441594,689.485948
1446.614045,7994.224174,-4885.359217,1455.581446
1446.614374,9326.594869,-5551.544565,1991.848295
1446.614703,9104.533087,-5995.668130,1915.238745
1446.615032,6957.935855,-6957.935855,1915.238745
1446.615361,6291.750507,-8734.430116,2068.457845
1446.615690,6439.791695,-8216.285956,995.924147
1446.616020,5477.523971,-8216.285956,1378.971896
1446.616349,5551.544565,-8512.368333,1762.019645
1446.616678,5625.565159,-6809.894666,1608.800546
1446.617007,5107.421000,-6513.812290,0.000000
1446.617336,4071.132681,-5255.462188,0.000000
1446.617665,6291.750507,-4737.318029,919.314598
1446.617995,8364.327145,-4515.256246,919.314598
1446.618324,8512.368333,-4367.215058,1532.190996
1446.618653,8882.471304,-3997.112087,1532.190996
1446.618982,9696.697840,-4663.297435,1378.971896
1446.619311,8882.471304,-6365.771101,1838.629195
1446.619640,7994.224174,-7328.038826,1838.629195
1446.619970,7105.977043,-8290.306550,1762.019645
1446.620299,6957.935855,-8142.265362,1455.581446
1446.620628,5921.647536,-8512.368333,1532.190996
1446.620957,5403.503377,-8586.388927,842.705048
1446.621286,4811.338623,-8808.450710,306.438199
1446.621615,5477.523971,-7254.018232,306.438199
1446.621945,5847.626942,-6587.832884,612.876398
1446.622274,6661.853478,-5699.585753,919.314598
1446.622603,6883.915261,-4885.359217,612.876398
1446.622932,6957.935855,-4737.318029,383.047749
1446.623261,7624.121203,-4515.256246,766.095498
1446.623590,8512.368333,-5255.462188,995.924147
1446.623919,8216.285956,-6143.709319,1838.629195
1446.624248,7328.038826,-7179.997637,1455.581446
1446.624577,7476.080014,-8512.368333,1608.800546
1446.624907,7402.059420,-8290.306550,1225.752797
1446.625236,6069.688724,-8808.450710,1302.362347
1446.625565,5773.606348,-9030.512492,2221.676944
1446.625894,6069.688724,-7328.038826,842.705048
1446.626223,5107.421000,-7105.977043,0.000000
1446.626552,4663.297435,-6365.771101,-229.828649
1446.626881,5551.544565,-6143.709319,459.657299
1446.627210,6883.915261,-5181.441594,383.047749
1446.627539,7179.997637,-3552.988522,536.266849
1446.627868,8142.265362,-3701.029710,1149.143247
1446.628198,10066.800811,-4145.153275,842.705048
1446.628527,9622.677246,-5107.421000,2145.067394
1446.628856,8068.244768,-6587.832884,2604.724693
1446.629185,8068.244768,-7328.038826,1532.190996
1446.629514,7105.977043,-7550.100608,612.876398
1446.629843,5699.585753,-8586.388927,612.876398
1446.630172,6291.750507,-8660.409521,1455.581446
1446.630501,7105.977043,-8364.327145,1225.752797
1446.630830,5625.565159,-7105.977043,306.438199
1446.631160,4885.359217,-7402.059420,1149.143247
1446.631489,6661.853478,-5477.523971,1455.581446
1446.631818,7254.018232,-4811.338623,306.438199
1446.632147,5403.503377,-5625.565159,0.000000
1446.632476,5995.668130,-4145.153275,76.609550
1446.632805,8512.368333,-5181.441594,0.000000
1446.633134,9474.636058,-6291.750507,2298.286494
1446.633463,9474.636058,-6143.709319,2298.286494
1446.633792,9474.636058,-7254.018232,2451.505594
1446.634122,7994.224174,-8068.244768,1302.362347
1446.634451,5921.647536,-9474.636058,842.705048
1446.634780,5551.544565,-9326.594869,919.314598
1446.635109,6217.729913,-6883.915261,76.609550
1446.635438,5403.503377,-8068.244768,536.266849
1446.635767,4663.297435,-7994.224174,842.705048
1446.636096,5921.647536,-5773.606348,1378.971896
1446.636425,6735.874072,-4515.256246,153.219100
1446.636754,6217.729913,-4737.318029,919.314598
1446.637084,6661.853478,-4589.276840,306.438199
1446.637413,7994.224174,-5107.421000,536.266849
1446.637742,8142.265362,-5551.544565,995.924147
1446.638071,7105.977043,-6809.894666,1532.190996
1446.638400,7328.038826,-7994.224174,1532.190996
1446.638729,8660.409521,-7624.121203,2528.115143
1446.639058,8512.368333,-8068.244768,1608.800546
1446.639387,6957.935855,-8438.347739,2145.067394
1446.639716,5551.544565,-7031.956449,1532.190996
1446.640046,6513.812290,-6957.935855,0.000000
1446.640375,5625.565159,-5403.503377,-229.828649
1446.640704,5551.544565,-5847.626942,995.924147
1446.641033,7031.956449,-6513.812290,1532.190996
1446.641362,6957.935855,-5551.544565,536.266849
1446.641691,5477.523971,-6661.853478,766.095498
1446.642020,6735.874072,-5477.523971,1072.533697
1446.642349,8734.430116,-4885.359217,919.314598
1446.642678,7402.059420,-5551.544565,612.876398
1446.643008,7179.997637,-6883.915261,2298.286494
1446.643337,8734.430116,-7772.162391,1838.629195
1446.643666,9030.512492,-5995.668130,1455.581446
1446.643995,7179.997637,-7920.203579,2681.334243
1446.644324,7254.018232,-8438.347739,2221.676944
1446.644653,6439.791695,-5995.668130,-229.828649
1446.644982,3923.091493,-7105.977043,0.000000
1446.645311,4885.359217,-6439.791695,612.876398
1446.645640,6957.935855,-5773.606348,612.876398
1446.645970,6069.688724,-7328.038826,689.485948
1446.646299,5625.565159,-5847.626942,612.876398
1446.646628,6661.853478,-6143.709319,229.828649
1446.646957,6883.915261,-5329.482782,459.657299
1446.647286,6587.832884,-7328.038826,1302.362347
1446.647615,7402.059420,-7179.997637,1838.629195
1446.647944,8438.347739,-7772.162391,2068.457845
1446.648273,7994.224174,-7550.100608,1608.800546
1446.648602,7550.100608,-7105.977043,2068.457845
1446.648932,7772.162391,-7031.956449,1378.971896
1446.649261,6809.894666,-7105.977043,383.047749
1446.649590,5773.606348,-6291.750507,612.876398
1446.649919,5995.668130,-5477.523971,612.876398
1446.650248,7254.018232,-6291.750507,612.876398
1446.650577,7105.977043,-5995.668130,842.705048
1446.650906,6439.791695,-4515.256246,229.828649
1446.651235,6143.709319,-5329.482782,0.000000
1446.651564,6661.853478,-5773.606348,536.266849
1446.651893,5995.668130,-6809.894666,1149.143247
1446.652223,5847.626942,-7624.121203,1685.410096
1446.652552,7105.977043,-7698.141797,1302.362347
1446.652881,7846.182985,-7105.977043,2068.457845
1446.653210,7920.203579,-7328.038826,2451.505594
1446.653539,8808.450710,-7698.141797,2987.772442
1446.653868,8734.430116,-5773.606348,1608.800546
1446.654197,6587.832884,-5033.400406,229.828649
1446.654526,6809.894666,-6439.791695,689.485948
1446.654855,7105.977043,-5625.565159,306.438199
1446.655185,6217.729913,-6513.812290,689.485948
1446.655514,5329.482782,-6143.709319,229.828649
1446.655843,6439.791695,-4219.173869,459.657299
1446.656172,7328.038826,-5773.606348,383.047749
1446.656501,7105.977043,-6513.812290,766.095498
1446.656830,7105.977043,-7179.997637,1608.800546
1446.657159,7772.162391,-7254.018232,1378.971896
1446.657488,7328.038826,-7179.997637,306.438199
1446.657817,7476.080014,-7105.977043,1608.800546
1446.658147,8364.327145,-7179.997637,2451.505594
1446.658476,8438.347739,-8660.409521,1991.848295
1446.658805,7179.997637,-6291.750507,766.095498
1446.659134,6439.791695,-5329.482782,919.314598
1446.659463,6513.812290,-7550.100608,995.924147
1446.659792,6069.688724,-5921.647536,0.000000
1446.660121,4737.318029,-5477.523971,-306.438199
1446.660450,6069.688724,-6217.729913,-689.485948
1446.660779,7254.018232,-6143.709319,459.657299
1446.661109,7328.038826,-6513.812290,1302.362347
1446.661438,6735.874072,-7105.977043,1378.971896
1446.661767,6439.791695,-6587.832884,383.047749
1446.662096,6439.791695,-7624.121203,1149.143247
1446.662425,7105.977043,-7994.224174,1685.410096
1446.662754,8808.450710,-6513.812290,2451.505594
1446.663083,8808.450710,-6217.729913,1532.190996
1446.663412,6883.915261,-6735.874072,1072.533697
1446.663741,6365.771101,-5995.668130,1225.752797
1446.664071,7698.141797,-6217.729913,1302.362347
1446.664400,7254.018232,-6661.853478,1149.143247
1446.664729,5921.647536,-6291.750507,536.266849
1446.665058,5773.606348,-5107.421000,153.219100
1446.665387,6957.935855,-4885.359217,-229.828649
1446.665716,7550.100608,-7105.977043,1455.581446
1446.666045,7254.018232,-6217.729913,1225.752797
1446.666374,7550.100608,-5403.503377,919.314598
1446.666703,7846.182985,-7031.956449,1225.752797
1446.667033,7328.038826,-7179.997637,2221.676944
1446.667362,7402.059420,-6365.771101,2374.896044
1446.667691,7550.100608,-6291.750507,1149.143247
1446.668020,7402.059420,-6957.935855,1149.143247
1446.668349,6143.709319,-5921.647536,1072.533697
1446.668678,5995.668130,-6365.771101,536.266849
1446.669007,6439.791695,-6291.750507,919.314598
1446.669336,6069.688724,-6883.915261,1225.752797
1446.669665,7179.997637,-6587.832884,1149.143247
1446.669995,6883.915261,-5625.565159,612.876398
1446.670324,6735.874072,-7105.977043,842.705048
1446.670653,6513.812290,-6883.915261,229.828649
1446.670982,6291.750507,-6587.832884,229.828649
1446.671311,6735.874072,-8438.347739,1149.143247
1446.671640,7254.018232,-6809.894666,1532.190996
1446.671969,7994.224174,-6439.791695,1608.800546
1446.672298,7994.224174,-6291.750507,1915.238745
1446.672627,7105.977043,-5995.668130,1608.800546
1446.672957,7105.977043,-5699.585753,1149.143247
1446.673286,6809.894666,-5329.482782,1685.410096
1446.673615,7105.977043,-5995.668130,995.924147
1446.673944,6217.729913,-6883.915261,1072.533697
1446.674273,6143.709319,-6439.791695,536.266849
1446.674602,6439.791695,-7031.956449,536.266849
1446.674931,6365.771101,-7772.162391,919.314598
1446.675260,5255.462188,-8438.347739,1072.533697
1446.675589,5477.523971,-7772.162391,612.876398
1446.675918,5625.565159,-8512.368333,689.485948
1446.676248,6883.915261,-7402.059420,1685.410096
1446.676577,7994.224174,-5847.626942,1532.190996
1446.676906,8068.244768,-5921.647536,1455.581446
1446.677235,7624.121203,-5625.565159,1455.581446
1446.677564,8142.265362,-4441.235652,1455.581446
1446.677893,8290.306550,-4737.318029,1378.971896
1446.678222,7550.100608,-4589.276840,1149.143247
1446.678551,6439.791695,-5551.544565,1225.752797
1446.678880,7105.977043,-6661.853478,842.705048
1446.679210,6883.915261,-6735.874072,919.314598
1446.679539,6809.894666,-7254.018232,689.485948
1446.679868,6439.791695,-6883.915261,229.828649
1446.680197,5847.626942,-7920.203579,689.485948
1446.680526,6439.791695,-9326.594869,1072.533697
1446.680855,6809.894666,-7698.141797,1225.752797
1446.681184,7698.141797,-6883.915261,1532.190996
1446.681513,7698.141797,-5847.626942,2145.067394
1446.681842,7920.203579,-5551.544565,536.266849
1446.682172,7254.018232,-6217.729913,1302.362347
1446.682501,7031.956449,-5551.544565,1149.143247
1446.682830,7179.997637,-5477.523971,1532.190996
1446.683159,7328.038826,-6069.688724,1532.190996
1446.683488,7105.977043,-6439.791695,995.924147
1446.683817,6809.894666,-6439.791695,995.924147
1446.684146,6143.709319,-8734.430116,76.609550
1446.684475,5181.441594,-8142.265362,383.047749
1446.684804,5181.441594,-7402.059420,76.609550
1446.685134,5403.503377,-9770.718434,153.219100
1446.685463,5773.606348,-9474.636058,1378.971896
1446.685792,6661.853478,-7994.224174,612.876398
1446.686121,7550.100608,-6439.791695,1302.362347
1446.686450,7772.162391,-4737.318029,1838.629195
1446.686779,7994.224174,-4515.256246,1532.190996
1446.687108,8808.450710,-2960.823768,1608.800546
1446.687437,8882.471304,-3108.864956,1762.019645
1446.687766,9030.512492,-5107.421000,1685.410096
1446.688096,7550.100608,-5107.421000,1072.533697
1446.688425,7254.018232,-5107.421000,1072.533697
1446.688754,7031.956449,-6957.935855,612.876398
1446.689083,5551.544565,-7920.203579,1455.581446
1446.689412,5847.626942,-8438.347739,1149.143247
1446.689741,5625.565159,-9252.574275,612.876398
1446.690070,5699.585753,-7994.224174,995.924147
1446.690399,6809.894666,-6513.812290,612.876398
1446.690728,6735.874072,-6809.894666,766.095498
1446.691058,6587.832884,-5921.647536,1072.533697
1446.691387,7105.977043,-5551.544565,1149.143247
1446.691716,9104.533087,-3478.967927,1762.019645
1446.692045,9548.656652,-3108.864956,2298.286494
1446.692374,9104.533087,-4663.297435,2374.896044
1446.692703,8216.285956,-5107.421000,1685.410096
1446.693032,7624.121203,-4737.318029,995.924147
1446.693361,7031.956449,-7031.956449,842.705048
1446.693690,5625.565159,-8956.491898,689.485948
1446.694020,4145.153275,-10436.903782,306.438199
1446.694349,3478.967927,-10955.047942,-612.876398
1446.694678,4145.153275,-10510.924376,306.438199
1446.695007,5329.482782,-9030.512492,1072.533697
1446.695336,6735.874072,-7476.080014,842.705048
1446.695665,7624.121203,-6291.750507,1455.581446
1446.695994,7772.162391,-4589.276840,383.047749
1446.696323,8438.347739,-3552.988522,1302.362347
1446.696652,8882.471304,-3701.029710,2757.943793
1446.696982,8364.327145,-4515.256246,1762.019645
1446.697311,8142.265362,-4441.235652,1455.581446
1446.697640,8438.347739,-4441.235652,1762.019645
1446.697969,8512.368333,-6587.832884,1838.629195
1446.698298,7105.977043,-7254.018232,2068.457845
1446.698627,5773.606348,-8882.471304,1302.362347
1446.698956,4885.359217,-9696.697840,0.000000
1446.699285,4219.173869,-8364.327145,-383.047749
1446.699614,3775.050304,-9178.553681,0.000000
1446.699943,5107.421000,-9326.594869,153.219100
1446.700273,6809.894666,-7550.100608,1149.143247
1446.700602,7105.977043,-5773.606348,689.485948
1446.700931,7920.203579,-4071.132681,1378.971896
1446.701260,9178.553681,-3404.947333,2451.505594
1446.701589,9104.533087,-3478.967927,1532.190996
1446.701918,8364.327145,-3034.844362,919.314598
1446.702247,8068.244768,-3923.091493,1608.800546
1446.702576,9104.533087,-5255.462188,1608.800546
1446.702905,8364.327145,-7624.121203,1991.848295
1446.703235,6069.688724,-8142.265362,1378.971896
1446.703564,5477.523971,-9326.594869,459.657299
1446.703893,5477.523971,-9918.759623,919.314598
1446.704222,4885.359217,-8956.491898,766.095498
1446.704551,4663.297435,-8586.388927,0.000000
1446.704880,5699.585753,-6069.688724,766.095498
1446.705209,6143.709319,-5995.668130,0.000000
1446.705538,6661.853478,-4885.359217,612.876398
1446.705867,8216.285956,-3997.112087,2298.286494
1446.706197,9400.615463,-4219.173869,842.705048
1446.706526,9104.533087,-3330.926739,842.705048
1446.706855,8364.327145,-4515.256246,1915.238745
1446.707184,9844.739029,-4737.318029,919.314598
1446.707513,9178.553681,-7624.121203,1455.581446
1446.707842,6513.812290,-8142.265362,1302.362347
1446.708171,5033.400406,-9474.636058,459.657299
1446.708500,5033.400406,-10214.842000,-383.047749
1446.708829,4515.256246,-10362.883188,0.000000
1446.709159,5477.523971,-9400.615463,536.266849
1446.709488,6661.853478,-7254.018232,459.657299
1446.709817,5403.503377,-6143.709319,-536.266849
1446.710146,5255.462188,-5329.482782,153.219100
1446.710475,6735.874072,-3552.988522,766.095498
1446.710804,9104.533087,-4071.132681,1149.143247
1446.711133,9030.512492,-3701.029710,2145.067394
1446.711462,9178.553681,-4441.235652,2374.896044
1446.711791,9992.780217,-4145.153275,2374.896044
1446.712121,9770.718434,-5329.482782,2681.334243
1446.712450,8142.265362,-6661.853478,1991.848295
1446.712779,6809.894666,-7624.121203,842.705048
1446.713108,5625.565159,-9622.677246,1149.143247
1446.713437,5255.462188,-10362.883188,229.828649
1446.713766,5329.482782,-10066.800811,995.924147
1446.714095,4885.359217,-7328.038826,689.485948
1446.714424,4515.256246,-7402.059420,-766.095498
1446.714753,4959.379811,-4737.318029,-612.876398
1446.715083,5847.626942,-4663.297435,229.828649
1446.715412,7179.997637,-4811.338623,689.485948
1446.715741,8290.306550,-4071.132681,2145.067394
1446.716070,8956.491898,-4515.256246,1302.362347
1446.716399,10140.821405,-4515.256246,1838.629195
1446.716728,9326.594869,-5255.462188,2374.896044
1446.717057,8808.450710,-7105.977043,2604.724693
1446.717386,8142.265362,-7254.018232,2221.676944
1446.717715,7402.059420,-7920.203579,1838.629195
1446.718045,6883.915261,-7920.203579,1149.143247
1446.718374,5699.585753,-9770.718434,1149.143247
1446.718703,5033.400406,-8068.244768,536.266849
1446.719032,4441.235652,-7772.162391,0.000000
1446.719361,4737.318029,-6809.894666,612.876398
1446.719690,5255.462188,-4145.153275,76.609550
1446.720019,5699.585753,-5551.544565,229.828649
1446.720348,5995.668130,-5477.523971,229.828649
1446.720677,6217.729913,-5699.585753,919.314598
1446.721007,8512.368333,-4293.194464,1072.533697
1446.721336,9326.594869,-5107.421000,1991.848295
1446.721665,9474.636058,-6143.709319,2451.505594
1446.721994,8512.368333,-8142.265362,2451.505594
1446.722323,8364.327145,-8586.388927,1838.629195
1446.722652,7624.121203,-8216.285956,1225.752797
1446.722981,7105.977043,-8512.368333,1762.019645
1446.723310,6957.935855,-8290.306550,919.314598
1446.723640,5033.400406,-7402.059420,-76.609550
1446.723969,4589.276840,-6143.709319,-306.438199
1446.724298,5551.544565,-5921.647536,536.266849
1446.724627,7031.956449,-4737.318029,536.266849
1446.724956,6735.874072,-4663.297435,842.705048
1446.725285,6291.750507,-4293.194464,229.828649
1446.725614,7772.162391,-5255.462188,919.314598
1446.725943,8290.306550,-5181.441594,1685.410096
1446.726272,8512.368333,-6587.832884,2298.286494
1446.726602,8142.265362,-6957.935855,2374.896044
1446.726931,7179.997637,-6661.853478,2528.115143
1446.727260,6883.915261,-8808.450710,1302.362347
1446.727589,6883.915261,-8660.409521,1608.800546
1446.727918,6587.832884,-8142.265362,1302.362347
1446.728247,5847.626942,-8438.347739,-383.047749
1446.728576,4959.379811,-6735.874072,0.000000
1446.728905,5625.565159,-6291.750507,459.657299
1446.729235,6957.935855,-5477.523971,76.609550
1446.729564,7105.977043,-4959.379811,76.609550
1446.729893,6809.894666,-4293.194464,76.609550
1446.730222,7698.141797,-4589.276840,536.266849
1446.730551,8216.285956,-5995.668130,1685.410096
1446.730880,7105.977043,-8808.450710,1072.533697
1446.731209,6809.894666,-4959.379811,919.314598
1446.731538,7179.997637,-9178.553681,1608.800546
1446.731868,7402.059420,-9770.718434,1378.971896
1446.732197,7846.182985,-6587.832884,2528.115143
1446.732526,8364.327145,-8364.327145,2374.896044
1446.732855,7772.162391,-5847.626942,383.047749
1446.733184,6291.750507,-6365.771101,306.438199
1446.733513,5847.626942,-6735.874072,383.047749
1446.733842,6365.771101,-5551.544565,383.047749
1446.734171,6365.771101,-6513.812290,995.924147
1446.734501,6809.894666,-4367.215058,612.876398
1446.734830,7476.080014,-4663.297435,842.705048
1446.735159,7624.121203,-5033.400406,1149.143247
1446.735488,6883.915261,-7105.977043,1072.533697
1446.735817,6809.894666,-8882.471304,2145.067394
1446.736146,6957.935855,-6217.729913,1608.800546
1446.736475,6957.935855,-8586.388927,1149.143247
1446.736804,7105.977043,-9252.574275,2221.676944
1446.737133,7550.100608,-8512.368333,1838.629195
1446.737463,7105.977043,-8956.491898,459.657299
1446.737792,5773.606348,-6809.894666,-229.828649
1446.738121,5921.647536,-5847.626942,459.657299
1446.738450,8068.244768,-4293.194464,536.266849
1446.738779,7624.121203,-6069.688724,1149.143247
1446.739108,6809.894666,-3923.091493,766.095498
1446.739437,7328.038826,-4071.132681,0.000000
1446.739766,7550.100608,-4145.153275,919.314598
1446.740096,7624.121203,-5847.626942,1378.971896
1446.740425,7105.977043,-7994.224174,1608.800546
1446.740754,6809.894666,-7920.203579,2451.505594
1446.741083,6365.771101,-9326.594869,1302.362347
1446.741412,5403.503377,-8882.471304,1608.800546
1446.741741,5625.565159,-8808.450710,1532.190996
1446.742070,5773.606348,-8512.368333,306.438199
1446.742399,5403.503377,-7550.100608,0.000000
1446.742729,5847.626942,-8364.327145,842.705048
1446.743058,7624.121203,-5995.668130,919.314598
1446.743387,7846.182985,-5477.523971,1302.362347
1446.743716,7179.997637,-3404.947333,-76.609550
1446.744045,7772.162391,-2960.823768,459.657299
1446.744374,8882.471304,-4811.338623,1149.143247
1446.744703,8512.368333,-5847.626942,1991.848295
1446.745032,7254.018232,-6217.729913,2451.505594
1446.745362,6365.771101,-5625.565159,1378.971896
1446.745691,5921.647536,-7550.100608,1072.533697
1446.746020,5847.626942,-9030.512492,2374.896044
1446.746349,6291.750507,-9326.594869,2298.286494
1446.746678,7105.977043,-8808.450710,1762.019645
1446.747007,6143.709319,-7105.977043,919.314598
1446.747336,6513.812290,-5847.626942,76.609550
1446.747665,7105.977043,-5921.647536,995.924147
1446.747994,6661.853478,-6365.771101,1378.971896
1446.748324,6143.709319,-6143.709319,229.828649
1446.748653,7105.977043,-4959.379811,689.485948
1446.748982,8142.265362,-4885.359217,1149.143247
1446.749311,7772.162391,-6069.688724,1378.971896
1446.749640,7105.977043,-5847.626942,1608.800546
1446.749969,6661.853478,-5699.585753,1225.752797
1446.750298,6439.791695,-7105.977043,689.485948
1446.750627,6143.709319,-7994.224174,2145.067394
1446.750957,7031.956449,-7105.977043,1532.190996
1446.751286,7550.100608,-7846.182985,1608.800546
1446.751615,6513.812290,-7994.224174,842.705048
1446.751944,6439.791695,-7031.956449,1072.533697
1446.752273,8216.285956,-6439.791695,1532.190996
1446.752602,8586.388927,-5329.482782,842.705048
1446.752931,7698.141797,-5551.544565,612.876398
1446.753260,6957.935855,-5699.585753,766.095498
1446.753590,7328.038826,-3330.926739,0.000000
1446.753919,6809.894666,-7105.977043,1378.971896
1446.754248,6513.812290,-6365.771101,1915.238745
1446.754577,7624.121203,-4663.297435,1302.362347
1446.754906,6883.915261,-8142.265362,1072.533697
1446.755235,6143.709319,-8142.265362,1378.971896
1446.755564,6291.750507,-8660.409521,1608.800546
1446.755893,7624.121203,-8438.347739,1608.800546
1446.756223,5995.668130,-6809.894666,459.657299
1446.756552,5699.585753,-7624.121203,383.047749
1446.756881,6809.894666,-6291.750507,766.095498
1446.757210,7920.203579,-5625.565159,76.609550
1446.757539,7105.977043,-5995.668130,1455.581446
1446.757868,7772.162391,-4071.132681,842.705048
1446.758197,8586.388927,-4367.215058,842.705048
1446.758526,7624.121203,-3775.050304,612.876398
1446.758855,5847.626942,-5921.647536,766.095498
1446.759185,6661.853478,-6217.729913,766.095498
1446.759514,7031.956449,-7031.956449,1149.143247
1446.759843,6809.894666,-8734.430116,1685.410096
1446.760172,7698.141797,-7031.956449,1685.410096
1446.760501,7624.121203,-8660.409521,1762.019645
1446.760830,6439.791695,-7476.080014,612.876398
1446.761159,5329.482782,-7476.080014,0.000000
1446.761488,6809.894666,-6291.750507,689.485948
1446.761818,7846.182985,-5625.565159,459.657299
1446.762147,7031.956449,-6513.812290,766.095498
1446.762476,6143.709319,-5107.421000,0.000000
1446.762805,7476.080014,-5033.400406,536.266849
1446.763134,7994.224174,-4737.318029,1149.143247
1446.763463,7105.977043,-5033.400406,919.314598
1446.763792,6661.853478,-6883.915261,1378.971896
1446.764121,7328.038826,-7105.977043,536.266849
1446.764451,6143.709319,-7476.080014,612.876398
1446.764780,6439.791695,-7994.224174,1455.581446
1446.765109,8142.265362,-8290.306550,1915.238745
1446.765438,8290.306550,-7105.977043,1991.848295
1446.765767,6439.791695,-7328.038826,612.876398
1446.766096,5699.585753,-7105.977043,383.047749
1446.766425,6587.832884,-6291.750507,229.828649
1446.766754,6809.894666,-6587.832884,0.000000
1446.767084,6809.894666,-5255.462188,536.266849
1446.767413,7846.182985,-4737.318029,689.485948
1446.767742,8882.471304,-5255.462188,1149.143247
1446.768071,7105.977043,-5477.523971,1608.800546
1446.768400,6735.874072,-6217.729913,1455.581446
1446.768729,6735.874072,-7920.203579,1072.533697
1446.769058,5847.626942,-7328.038826,689.485948
1446.769387,5403.503377,-7550.100608,1302.362347
1446.769716,6957.935855,-8660.409521,2374.896044
1446.770046,8290.306550,-7254.018232,1915.238745
1446.770375,7624.121203,-5625.565159,1302.362347
1446.770704,6957.935855,-6439.791695,1915.238745
1446.771033,7550.100608,-5477.523971,1302.362347
1446.771362,6735.874072,-6217.729913,0.000000
1446.771691,5255.462188,-5403.503377,-306.438199
1446.772020,6365.771101,-5773.606348,766.095498
1446.772349,7920.203579,-6883.915261,0.000000
1446.772679,7105.977043,-6291.750507,1455.581446
1446.773008,6735.874072,-6291.750507,1991.848295
1446.773337,8068.244768,-6809.894666,1608.800546
1446.773666,8364.327145,-7031.956449,2068.457845
1446.773995,7105.977043,-6957.935855,2681.334243
1446.774324,7031.956449,-5551.544565,1302.362347
1446.774653,7402.059420,-5773.606348,842.705048
1446.774982,7031.956449,-7328.038826,1455.581446
1446.775312,7105.977043,-5699.585753,2145.067394
1446.775641,8216.285956,-5847.626942,1608.800546
1446.775970,7179.997637,-6587.832884,1302.362347
1446.776299,5551.544565,-6883.915261,459.657299
1446.776628,5107.421000,-7402.059420,919.314598
1446.776957,5773.606348,-5995.668130,-766.095498
1446.777286,4811.338623,-6957.935855,-153.219100
1446.777615,4959.379811,-7624.121203,919.314598
1446.777945,6735.874072,-8216.285956,1378.971896
1446.778274,7994.224174,-7105.977043,2068.457845
1446.778603,7550.100608,-7105.977043,2374.896044
1446.778932,7772.162391,-7254.018232,2451.505594
1446.779261,7550.100608,-5551.544565,1608.800546
1446.779590,6587.832884,-5921.647536,459.657299
1446.779919,6069.688724,-6143.709319,1302.362347
1446.780248,7846.182985,-5921.647536,1608.800546
1446.780578,8142.265362,-6661.853478,1302.362347
1446.780907,7031.956449,-6439.791695,919.314598
1446.781236,6513.812290,-6291.750507,689.485948
1446.781565,6143.709319,-6069.688724,-76.609550
1446.781894,5773.606348,-7031.956449,0.000000
1446.782223,5625.565159,-6957.935855,842.705048
1446.782552,6661.853478,-6587.832884,459.657299
1446.782881,6661.853478,-6883.915261,766.095498
1446.783210,6513.812290,-6957.935855,1608.800546
1446.783540,7920.203579,-7402.059420,1685.410096
1446.783869,9252.574275,-5699.585753,2298.286494
1446.784198,8512.368333,-6217.729913,2145.067394
1446.784527,8734.430116,-5181.441594,2145.067394
1446.784856,8438.347739,-3997.112087,1838.629195
1446.785185,8512.368333,-6069.688724,1762.019645
1446.785514,7105.977043,-5921.647536,919.314598
1446.785843,6735.874072,-5255.462188,995.924147
1446.786173,7031.956449,-6291.750507,536.266849
1446.786502,5995.668130,-6439.791695,0.000000
1446.786831,4959.379811,-7772.162391,383.047749
1446.787160,5403.503377,-7698.141797,-229.828649
1446.787489,5329.482782,-7476.080014,612.876398
1446.787818,6365.771101,-7772.162391,689.485948
1446.788147,7179.997637,-7920.203579,1685.410096
1446.788476,7846.182985,-7105.977043,1225.752797
1446.788806,7624.121203,-7328.038826,1072.533697
1446.789135,7179.997637,-6809.894666,1685.410096
1446.789464,8216.285956,-5625.565159,1378.971896
1446.789793,8216.285956,-6069.688724,1072.533697
1446.790122,6809.894666,-6069.688724,1149.143247
1446.790451,7105.977043,-5847.626942,919.314598
1446.790780,7846.182985,-5995.668130,612.876398
1446.791109,6069.688724,-5921.647536,383.047749
1446.791439,4959.379811,-6143.709319,0.000000
1446.791768,5255.462188,-7105.977043,0.000000
1446.792097,6143.709319,-7105.977043,1455.581446
1446.792426,6069.688724,-7846.182985,1072.533697
1446.792755,7105.977043,-7105.977043,1225.752797
1446.793084,8216.285956,-6439.791695,1685.410096
1446.793413,8586.388927,-5921.647536,1685.410096
1446.793742,8216.285956,-4811.338623,1149.143247
1446.794071,8290.306550,-4885.359217,1838.629195
1446.794401,8734.430116,-5329.482782,1838.629195
1446.794730,8808.450710,-4885.359217,1915.238745
1446.795059,8216.285956,-5921.647536,2757.943793
1446.795388,7624.121203,-6439.791695,612.876398
1446.795717,5921.647536,-7179.997637,306.438199
1446.796046,4441.235652,-7994.224174,0.000000
1446.796375,4367.215058,-8808.450710,-229.828649
1446.796704,5107.421000,-8660.409521,76.609550
1446.797034,5551.544565,-8660.409521,459.657299
1446.797363,5477.523971,-7846.182985,842.705048
1446.797692,7031.956449,-7031.956449,1225.752797
1446.798021,7920.203579,-6291.750507,1225.752797
1446.798350,7994.224174,-5477.523971,1762.019645
1446.798679,8142.265362,-5329.482782,1915.238745
1446.799008,8808.450710,-4589.276840,1762.019645
1446.799337,8734.430116,-5033.400406,1685.410096
1446.799667,8142.265362,-4959.379811,1991.848295
1446.799996,8142.265362,-5847.626942,1762.019645
1446.800325,7179.997637,-5847.626942,919.314598
1446.800654,5477.523971,-6661.853478,229.828649
1446.800983,4811.338623,-8216.285956,766.095498
1446.801312,4515.256246,-8660.409521,76.609550
1446.801641,4219.173869,-8438.347739,-229.828649
1446.801970,4737.318029,-7920.203579,0.000000
1446.802300,6365.771101,-6883.915261,612.876398
1446.802629,7254.018232,-6957.935855,1838.629195
1446.802958,7105.977043,-6661.853478,1915.238745
1446.803287,7402.059420,-4737.318029,1608.800546
1446.803616,8438.347739,-3849.070898,383.047749
1446.803945,9178.553681,-4441.235652,2068.457845
1446.804274,9622.677246,-5477.523971,2374.896044
1446.804603,9474.636058,-5847.626942,2987.772442
1446.804932,7920.203579,-6661.853478,1991.848295
1446.805262,5995.668130,-6883.915261,76.609550
1446.805591,4811.338623,-7402.059420,0.000000
1446.805920,4441.235652,-9474.636058,153.219100
1446.806249,4959.379811,-9400.615463,153.219100
1446.806578,5921.647536,-8512.368333,995.924147
1446.806907,6513.812290,-7476.080014,1072.533697
1446.807236,6661.853478,-6587.832884,229.828649
1446.807565,5847.626942,-7328.038826,689.485948
1446.807895,7105.977043,-5403.503377,459.657299
1446.808224,8142.265362,-5033.400406,995.924147
1446.808553,8734.430116,-5477.523971,1762.019645
1446.808882,8808.450710,-5255.462188,1762.019645
1446.809211,9326.594869,-5255.462188,1608.800546
1446.809540,9178.553681,-4959.379811,1532.190996
1446.809869,7698.141797,-6439.791695,1455.581446
1446.810198,7624.121203,-7031.956449,1455.581446
1446.810528,6439.791695,-7105.977043,766.095498
1446.810857,5995.668130,-7698.141797,153.219100
1446.811186,5403.503377,-8068.244768,612.876398
1446.811515,6439.791695,-7179.997637,919.314598
1446.811844,7031.956449,-6883.915261,766.095498
1446.812173,6587.832884,-6365.771101,612.876398
1446.812502,6439.791695,-5181.441594,689.485948
1446.812831,7031.956449,-4737.318029,612.876398
1446.813161,7105.977043,-4885.359217,1532.190996
1446.813490,7772.162391,-5255.462188,1225.752797
1446.813819,8364.327145,-5847.626942,1685.410096
1446.814148,8882.471304,-5551.544565,1838.629195
1446.814477,7920.203579,-7031.956449,2221.676944
1446.814806,7328.038826,-7624.121203,2374.896044
1446.815135,7031.956449,-8216.285956,1225.752797
1446.815464,6217.729913,-7846.182985,229.828649
1446.815793,5551.544565,-7105.977043,306.438199
1446.816123,5255.462188,-8364.327145,76.609550
1446.816452,6291.750507,-7402.059420,689.485948
1446.816781,6513.812290,-6143.709319,-229.828649
1446.817110,5773.606348,-5625.565159,842.705048
1446.817439,6809.894666,-5921.647536,612.876398
1446.817768,7179.997637,-5699.585753,995.924147
1446.818097,6809.894666,-5625.565159,612.876398
1446.818426,7105.977043,-5551.544565,1225.752797
1446.818756,8882.471304,-5329.482782,1991.848295
1446.819085,9400.615463,-6883.915261,2374.896044
1446.819414,8364.327145,-8364.327145,2298.286494
1446.819743,7550.100608,-7624.121203,1455.581446
1446.820072,6587.832884,-9696.697840,1455.581446
1446.820401,5181.441594,-9030.512492,766.095498
1446.820730,3627.009116,-9400.615463,76.609550
1446.821059,4071.132681,-9474.636058,153.219100
1446.821389,4219.173869,-8882.471304,0.000000
1446.821718,4663.297435,-7179.997637,76.609550
1446.822047,5477.523971,-7031.956449,0.000000
1446.822376,6809.894666,-6587.832884,612.876398
1446.822705,6587.832884,-6661.853478,306.438199
1446.823034,6661.853478,-6587.832884,1532.190996
1446.823364,7550.100608,-6883.915261,1915.238745
1446.823693,7772.162391,-6957.935855,1608.800546
1446.824022,6809.894666,-6957.935855,1838.629195
1446.824351,6365.771101,-7476.080014,1915.238745
1446.824680,6957.935855,-8586.388927,1378.971896
1446.825010,6069.688724,-9178.553681,1685.410096
1446.825339,5625.565159,-9400.615463,1225.752797
1446.825668,5255.462188,-8586.388927,919.314598
1446.825997,5255.462188,-6661.853478,842.705048
1446.826326,3997.112087,-6883.915261,383.047749
1446.826655,4589.276840,-6143.709319,1685.410096
1446.826985,5921.647536,-5625.565159,1532.190996
1446.827314,6513.812290,-5921.647536,1915.238745
1446.827643,7031.956449,-6291.750507,2298.286494
1446.827972,6587.832884,-4959.379811,1149.143247
1446.828301,5699.585753,-7105.977043,766.095498
1446.828631,4145.153275,-9844.739029,919.314598
1446.828960,3034.844362,-11325.150913,1072.533697
1446.829289,2590.720797,-12435.459826,0.000000
1446.829618,2664.741391,-13545.768739,2068.457845
1446.829947,3182.885551,-12879.583391,1991.848295
1446.830277,3330.926739,-10955.047942,1149.143247
1446.830606,4071.132681,-7402.059420,919.314598
1446.830935,4589.276840,-7179.997637,842.705048
1446.831264,5107.421000,-5329.482782,1762.019645
1446.831593,5033.400406,-5847.626942,383.047749
1446.831923,5477.523971,-5699.585753,153.219100
1446.832252,6957.935855,-7179.997637,1685.410096
1446.832581,8290.306550,-7994.224174,2681.334243
1446.832910,7402.059420,-6439.791695,1532.190996
1446.833239,6291.750507,-7105.977043,1915.238745
1446.833569,5995.668130,-8586.388927,842.705048
1446.833898,4737.318029,-10140.821405,536.266849
1446.834227,3923.091493,-11399.171507,383.047749
1446.834556,3775.050304,-13101.645173,1378.971896
1446.834885,4663.297435,-12583.501014,153.219100
1446.835215,4145.153275,-11843.295072,1685.410096
1446.835544,3404.947333,-10140.821405,995.924147
1446.835873,3849.070898,-7994.224174,-153.219100
1446.836202,3997.112087,-7105.977043,536.266849
1446.836531,3849.070898,-6957.935855,689.485948
1446.836861,4219.173869,-6735.874072,306.438199
1446.837190,5107.421000,-6291.750507,1072.533697
1446.837519,7328.038826,-6513.812290,1302.362347
1446.837848,7698.141797,-6365.771101,2221.676944
1446.838177,6809.894666,-8586.388927,3064.381992
1446.838507,5847.626942,-8438.347739,1608.800546
1446.838836,5033.400406,-7772.162391,919.314598
1446.839165,4441.235652,-9992.780217,153.219100
1446.839494,3627.009116,-13323.706956,1302.362347
1446.839823,3256.906145,-11029.068536,76.609550
1446.840153,2590.720797,-10436.903782,-766.095498
1446.840482,3478.967927,-9252.574275,0.000000
1446.840811,4885.359217,-9844.739029,1838.629195
1446.841140,4441.235652,-9030.512492,1072.533697
1446.841469,3701.029710,-6661.853478,0.000000
1446.841799,4737.318029,-4293.194464,-459.657299
1446.842128,7105.977043,-3997.112087,383.047749
1446.842457,8438.347739,-6735.874072,2681.334243
1446.842786,8586.388927,-6217.729913,3907.087040
1446.843115,7328.038826,-7031.956449,766.095498
1446.843445,5477.523971,-7624.121203,612.876398
1446.843774,3330.926739,-12065.356855,995.924147
1446.844103,3627.009116,-14285.974681,1455.581446
1446.844432,4219.173869,-11325.150913,1149.143247
1446.844761,3775.050304,-9548.656652,-1149.143247
1446.845091,4515.256246,-7402.059420,995.924147
1446.845420,5921.647536,-9030.512492,1532.190996
1446.845749,5773.606348,-10066.800811,2298.286494
1446.846078,4071.132681,-8586.388927,1149.143247
1446.846407,2146.597232,-8438.347739,-306.438199
1446.846737,2664.741391,-7105.977043,-536.266849
1446.847066,4219.173869,-8734.430116,1072.533697
1446.847395,6291.750507,-9474.636058,2451.505594
1446.847724,7105.977043,-7105.977043,2145.067394
1446.848053,5477.523971,-5995.668130,1762.019645
1446.848383,5255.462188,-6957.935855,1532.190996
1446.848712,5847.626942,-8216.285956,1302.362347
1446.849041,5773.606348,-8438.347739,995.924147
1446.849370,4811.338623,-9400.615463,689.485948
1446.849699,5255.462188,-9770.718434,2298.286494
1446.850029,5921.647536,-8882.471304,2068.457845
1446.850358,5995.668130,-8068.244768,919.314598
1446.850687,4145.153275,-7846.182985,0.000000
1446.851016,2442.679609,-10066.800811,-612.876398
1446.851345,2072.576638,-12657.521608,76.609550
1446.851675,2368.659014,-10955.047942,1302.362347
1446.852004,3478.967927,-8956.491898,612.876398
1446.852333,4441.235652,-7476.080014,536.266849
1446.852662,4959.379811,-9252.574275,1991.848295
1446.852991,5625.565159,-8956.491898,2068.457845
1446.853321,6439.791695,-7698.141797,1991.848295
1446.853650,7031.956449,-5329.482782,1762.019645
1446.853979,6365.771101,-6069.688724,1762.019645
1446.854308,5847.626942,-8438.347739,1762.019645
1446.854637,5255.462188,-10362.883188,1915.238745
1446.854967,4737.318029,-10584.944971,1838.629195
1446.855296,3552.988522,-9770.718434,459.657299
1446.855625,2442.679609,-9548.656652,459.657299
1446.855954,2738.761985,-10362.883188,-383.047749
1446.856283,3330.926739,-11399.171507,612.876398
1446.856613,4441.235652,-9622.677246,1149.143247
1446.856942,5033.400406,-8290.306550,1149.143247
1446.857271,5329.482782,-5921.647536,1302.362347
1446.857600,6513.812290,-6069.688724,1532.190996
1446.857929,6883.915261,-6217.729913,1762.019645
1446.858259,6365.771101,-7254.018232,1378.971896
1446.858588,5699.585753,-7920.203579,1762.019645
1446.858917,5847.626942,-8290.306550,1378.971896
1446.859246,5699.585753,-9104.533087,1532.190996
1446.859575,4663.297435,-10584.944971,1378.971896
1446.859905,2960.823768,-10658.965565,306.438199
1446.860234,2294.638420,-11843.295072,0.000000
1446.860563,2368.659014,-11251.130318,-766.095498
1446.860892,3849.070898,-10066.800811,0.000000
1446.861221,5329.482782,-8364.327145,919.314598
1446.861551,6069.688724,-7402.059420,1532.190996
1446.861880,6069.688724,-7105.977043,1532.190996
1446.862209,6661.853478,-6291.750507,1915.238745
1446.862538,6809.894666,-4737.318029,1838.629195
1446.862867,6735.874072,-4737.318029,1838.629195
1446.863197,6587.832884,-6069.688724,995.924147
1446.863526,5699.585753,-7550.100608,459.657299
1446.863855,5847.626942,-8586.388927,612.876398
1446.864184,5625.565159,-9474.636058,612.876398
1446.864513,5255.462188,-10732.986159,1072.533697
1446.864843,5477.523971,-11399.171507,766.095498
1446.865172,4219.173869,-11917.315666,689.485948
1446.865501,3701.029710,-11695.253884,766.095498
1446.865830,2886.803174,-10955.047942,306.438199
1446.866159,3330.926739,-10066.800811,383.047749
1446.866488,3182.885551,-9474.636058,842.705048
1446.866818,3627.009116,-9326.594869,1838.629195
1446.867147,4737.318029,-7254.018232,1762.019645
1446.867476,5995.668130,-4219.173869,2374.896044
1446.867805,6735.874072,-4441.235652,1455.581446
1446.868134,7105.977043,-3997.112087,1378.971896
1446.868464,5699.585753,-5625.565159,306.438199
1446.868793,5033.400406,-7105.977043,0.000000
1446.869122,4145.153275,-9696.697840,536.266849
1446.869451,4145.153275,-14137.933492,1455.581446
1446.869780,4441.235652,-14285.974681,1608.800546
1446.870110,4737.318029,-12361.439231,2068.457845
1446.870439,4663.297435,-11029.068536,1991.848295
1446.870768,4515.256246,-8364.327145,2528.115143
1446.871097,4663.297435,-6513.812290,2298.286494
1446.871426,4663.297435,-5329.482782,1608.800546
1446.871756,4737.318029,-5107.421000,1302.362347
1446.872085,4293.194464,-5921.647536,1149.143247
1446.872414,4441.235652,-5773.606348,536.266849
1446.872743,4441.235652,-6587.832884,0.000000
1446.873072,4959.379811,-7105.977043,-383.047749
1446.873402,4811.338623,-9770.718434,153.219100
1446.873731,4959.379811,-11621.233289,612.876398
1446.874060,5033.400406,-12509.480420,995.924147
1446.874389,4589.276840,-13323.706956,842.705048
1446.874718,4811.338623,-12583.501014,1685.410096
1446.875048,4959.379811,-11917.315666,2604.724693
1446.875377,5255.462188,-10140.821405,3524.039291
1446.875706,5477.523971,-7179.997637,3370.820191
1446.876035,6513.812290,-4959.379811,2987.772442
1446.876364,6883.915261,-3404.947333,3064.381992
1446.876694,6587.832884,-3775.050304,2911.162892
1446.877023,5921.647536,-4441.235652,2528.115143
1446.877352,5181.441594,-4589.276840,919.314598
1446.877681,4663.297435,-7179.997637,229.828649
1446.878010,4663.297435,-8660.409521,1149.143247
1446.878340,5033.400406,-11103.089130,2374.896044
1446.878669,5329.482782,-12953.603985,2451.505594
1446.878998,4737.318029,-12287.418637,2451.505594
1446.879327,4811.338623,-11547.212695,2604.724693
1446.879656,6143.709319,-9548.656652,3294.210641
1446.879986,6735.874072,-8142.265362,4136.915689
1446.880315,6439.791695,-6291.750507,3830.477490
1446.880644,6587.832884,-4441.235652,3524.039291
1446.880973,6809.894666,-3701.029710,4060.306139
1446.881302,7328.038826,-2960.823768,3370.820191
1446.881632,6291.750507,-4367.215058,2374.896044
1446.881961,5625.565159,-5329.482782,2145.067394
1446.882290,5625.565159,-7698.141797,2298.286494
1446.882619,5995.668130,-8882.471304,2834.553343
1446.882948,6217.729913,-8586.388927,4290.134789
1446.883278,6735.874072,-9252.574275,3294.210641
1446.883607,6439.791695,-9252.574275,3907.087040
1446.883936,6217.729913,-8734.430116,4060.306139
1446.884265,6883.915261,-7994.224174,3677.258390
1446.884594,7772.162391,-4959.379811,4290.134789
1446.884924,7698.141797,-4367.215058,4443.353888
1446.885253,7624.121203,-4293.194464,4596.572988
1446.885582,7920.203579,-4145.153275,5209.449386
1446.885911,7846.182985,-4071.132681,4443.353888
1446.886240,7254.018232,-4367.215058,4290.134789
1446.886570,7031.956449,-5477.523971,4213.525239
1446.886899,7105.977043,-6957.935855,4060.306139
1446.887228,6587.832884,-7846.182985,3830.477490
1446.887557,5551.544565,-9252.574275,4213.525239
1446.887886,4959.379811,-10214.842000,3140.991542
1446.888216,3997.112087,-11399.171507,3524.039291
1446.888545,3849.070898,-11029.068536,3600.648841
1446.888874,4071.132681,-10140.821405,3524.039291
1446.889203,4441.235652,-9400.615463,4290.134789
1446.889532,5107.421000,-7698.141797,4443.353888
1446.889862,6735.874072,-6143.709319,5056.230287
1446.890191,8216.285956,-4071.132681,6128.763984
1446.890520,8808.450710,-3108.864956,6128.763984
1446.890849,9104.533087,-2812.782580,5822.325785
1446.891178,9104.533087,-2738.761985,5056.230287
1446.891508,9474.636058,-3330.926739,4903.011187
1446.891837,10066.800811,-3627.009116,5286.058936
1446.892166,9844.739029,-5107.421000,5439.278036
1446.892495,8660.409521,-6291.750507,4749.792088
1446.892824,7179.997637,-7624.121203,4519.963438
1446.893154,6069.688724,-8956.491898,4136.915689
1446.893483,5329.482782,-9030.512492,3677.258390
1446.893812,3627.009116,-10140.821405,4213.525239
1446.894141,2590.720797,-10214.842000,3830.477490
1446.894470,2368.659014,-9770.718434,3447.429741
1446.894800,2886.803174,-8734.430116,3447.429741
1446.895129,4293.194464,-7550.100608,3983.696590
1446.895458,6143.709319,-5477.523971,4519.963438
1446.895787,8142.265362,-4293.194464,5362.668486
1446.896116,10066.800811,-2738.761985,5286.058936
1446.896446,10732.986159,-1998.556043,5975.544884
1446.896775,10658.965565,-1702.473667,4826.401637
1446.897104,9474.636058,-3775.050304,4213.525239
1446.897433,8364.327145,-5773.606348,3830.477490
1446.897762,7254.018232,-7476.080014,3524.039291
1446.898092,6735.874072,-8660.409521,2834.553343
1446.898421,5699.585753,-9770.718434,2528.115143
1446.898750,4737.318029,-10066.800811,2834.553343
1446.899079,4737.318029,-9622.677246,3217.601092
1446.899408,4885.359217,-8586.388927,3830.477490
1446.899738,5107.421000,-7105.977043,3370.820191
1446.900067,6513.812290,-5181.441594,3753.867940
1446.900396,8734.430116,-4293.194464,4443.353888
1446.900725,10214.842000,-4367.215058,4519.963438
1446.901054,10584.944971,-3256.906145,4903.011187
1446.901384,9400.615463,-4071.132681,3524.039291
1446.901713,8290.306550,-4811.338623,2911.162892
1446.902042,6513.812290,-7105.977043,2681.334243
1446.902371,5995.668130,-7846.182985,2451.505594
1446.902700,5329.482782,-9474.636058,2987.772442
1446.903030,5847.626942,-9474.636058,3907.087040
1446.903359,6661.853478,-8438.347739,4290.134789
1446.903688,6809.894666,-8142.265362,4596.572988
1446.904017,7105.977043,-7254.018232,4519.963438
1446.904346,6809.894666,-6069.688724,3677.258390
1446.904676,7031.956449,-4737.318029,3370.820191
1446.905005,7328.038826,-3034.844362,4136.915689
1446.905334,8586.388927,-2368.659014,3524.039291
1446.905663,9770.718434,-2368.659014,4519.963438
1446.905992,9474.636058,-3552.988522,4366.744339
1446.906321,8512.368333,-5477.523971,4213.525239
1446.906651,7105.977043,-7105.977043,3217.601092
1446.906980,6143.709319,-9474.636058,2298.286494
1446.907309,4515.256246,-11103.089130,2451.505594
1446.907638,3775.050304,-11177.109724,3294.210641
1446.907967,4071.132681,-9696.697840,2757.943793
1446.908297,4737.318029,-7772.162391,3140.991542
1446.908626,5477.523971,-6217.729913,3217.601092
1446.908955,6809.894666,-5255.462188,3753.867940
1446.909284,7624.121203,-5255.462188,4826.401637
1446.909613,8364.327145,-4811.338623,5898.935335
1446.909943,8808.450710,-3849.070898,5745.716235
1446.910272,9844.739029,-3034.844362,5056.230287
1446.910601,10214.842000,-2072.576638,5209.449386
1446.910930,9030.512492,-3997.112087,4749.792088
1446.911259,7920.203579,-5773.606348,4136.915689
1446.911589,5995.668130,-8142.265362,2528.115143
1446.911918,4293.194464,-9622.677246,2451.505594
1446.912247,3849.070898,-10658.965565,2528.115143
1446.912576,3627.009116,-11843.295072,3064.381992
1446.912905,3701.029710,-10436.903782,3983.696590
1446.913235,5107.421000,-8808.450710,4060.306139
1446.913564,6143.709319,-6217.729913,3907.087040
1446.913893,8068.244768,-4811.338623,5439.278036
1446.914222,10066.800811,-2812.782580,5975.544884
1446.914551,10288.862594,-2368.659014,5209.449386
1446.914881,9104.533087,-1776.494261,4596.572988
1446.915210,8734.430116,-2442.679609,4826.401637
1446.915539,8734.430116,-4589.276840,4749.792088
1446.915868,8068.244768,-6587.832884,5362.668486
1446.916197,7846.182985,-8956.491898,5592.497135
1446.916527,7402.059420,-9178.553681,4290.134789
1446.916856,5625.565159,-9696.697840,3677.258390
1446.917185,3849.070898,-9548.656652,3140.991542
1446.917514,3849.070898,-8216.285956,2374.896044
1446.917843,4219.173869,-7254.018232,2834.553343
1446.918173,5921.647536,-6661.853478,4443.353888
1446.918502,8068.244768,-5773.606348,5439.278036
1446.918831,8512.368333,-5477.523971,5592.497135
1446.919160,7402.059420,-4811.338623,5209.449386
1446.919489,7105.977043,-4959.379811,4979.620737
1446.919819,7624.121203,-4515.256246,4596.572988
1446.920148,8438.347739,-4811.338623,4596.572988
1446.920477,8660.409521,-3923.091493,4136.915689
1446.920806,7994.224174,-4737.318029,3294.210641
1446.921135,7402.059420,-8142.265362,4213.525239
1446.921465,7476.080014,-8364.327145,4979.620737
1446.921794,6661.853478,-9030.512492,4519.963438
1446.922123,5625.565159,-8290.306550,3600.648841
1446.922452,4293.194464,-8290.306550,2987.772442
1446.922781,4737.318029,-8734.430116,3140.991542
1446.923111,5921.647536,-7550.100608,4366.744339
1446.923440,6957.935855,-5033.400406,4596.572988
1446.923769,7698.141797,-3108.864956,3907.087040
1446.924098,7031.956449,-3108.864956,3677.258390
1446.924427,7031.956449,-4737.318029,3907.087040
1446.924757,7624.121203,-6069.688724,4826.401637
1446.925086,8216.285956,-6143.709319,5592.497135
1446.925415,7624.121203,-6587.832884,4749.792088
1446.925744,6809.894666,-8586.388927,3983.696590
1446.926073,5699.585753,-9622.677246,3983.696590
1446.926403,5847.626942,-7920.203579,3294.210641
1446.926732,6735.874072,-6217.729913,2834.553343
1446.927061,7920.203579,-5625.565159,3524.039291
1446.927390,8808.450710,-5773.606348,4060.306139
1446.927719,7846.182985,-5329.482782,4366.744339
1446.928049,6513.812290,-5699.585753,3907.087040
1446.928378,6217.729913,-6439.791695,3217.601092
1446.928707,6883.915261,-6513.812290,2987.772442
1446.929036,7698.141797,-6291.750507,3064.381992
1446.929365,7994.224174,-5255.462188,3677.258390
1446.929695,7846.182985,-5847.626942,2834.553343
1446.930024,6957.935855,-7179.997637,2604.724693
1446.930353,6439.791695,-7550.100608,3217.601092
1446.930682,6735.874072,-7550.100608,3217.601092
1446.931012,5921.647536,-8586.388927,3753.867940
1446.931341,5403.503377,-9770.718434,4366.744339
1446.931670,5625.565159,-7920.203579,4443.353888
1446.931999,7179.997637,-5625.565159,3830.477490
1446.932328,8660.409521,-3701.029710,4826.401637
1446.932658,9104.533087,-3034.844362,3294.210641
1446.932987,7550.100608,-4589.276840,3600.648841
1446.933316,5255.462188,-2664.741391,1762.019645
1446.933645,5033.400406,-3627.009116,76.609550
1446.933974,6661.853478,-5033.400406,1149.143247
1446.934304,8142.265362,-6957.935855,2068.457845
1446.934633,8882.471304,-9252.574275,3370.820191
1446.934962,8512.368333,-10288.862594,3370.820191
1446.935291,7402.059420,-9252.574275,2145.067394
1446.935620,5477.523971,-9326.594869,1225.752797
1446.935950,3627.009116,-9918.759623,1608.800546
1446.936279,2886.803174,-8734.430116,919.314598
1446.936608,3701.029710,-8142.265362,1149.143247
1446.936937,6069.688724,-5995.668130,3294.210641
1446.937266,9178.553681,-5033.400406,4596.572988
1446.937596,9400.615463,-4737.318029,4443.353888
1446.937925,8512.368333,-3330.926739,4519.963438
1446.938254,8438.347739,-1184.329507,1991.848295
1446.938583,8290.306550,-1258.350101,995.924147
1446.938912,8956.491898,-3849.070898,3140.991542
1446.939242,10510.924376,-4737.318029,2757.943793
1446.939571,10288.862594,-5329.482782,1991.848295
1446.939900,7624.121203,-7550.100608,612.876398
1446.940229,4737.318029,-10140.821405,536.266849
1446.940558,5477.523971,-11177.109724,-536.266849
1446.940888,4885.359217,-12879.583391,995.924147
1446.941217,4367.215058,-12435.459826,1072.533697
1446.941546,3923.091493,-9770.718434,689.485948
1446.941875,3997.112087,-7031.956449,842.705048
1446.942205,6069.688724,-5773.606348,1149.143247
1446.942534,8512.368333,-4219.173869,2757.943793
1446.942863,9474.636058,-2960.823768,3064.381992
1446.943192,8956.491898,-2960.823768,2528.115143
1446.943521,9252.574275,-2072.576638,1685.410096
1446.943851,10214.842000,-3478.967927,1302.362347
1446.944180,10510.924376,-3330.926739,1455.581446
1446.944509,9178.553681,-5477.523971,1608.800546
1446.944838,7550.100608,-7179.997637,0.000000
1446.945167,5033.400406,-8438.347739,-995.924147
1446.945497,3701.029710,-9918.759623,-536.266849
1446.945826,3478.967927,-12805.562797,-153.219100
1446.946155,3404.947333,-11621.233289,612.876398
1446.946484,3997.112087,-9030.512492,76.609550
1446.946813,5255.462188,-7920.203579,995.924147
1446.947143,7402.059420,-6291.750507,3064.381992
1446.947472,8364.327145,-4071.132681,2374.896044
1446.947801,8068.244768,-2664.741391,1915.238745
1446.948130,7624.121203,-2590.720797,1608.800546
1446.948459,8660.409521,-2220.617826,689.485948
1446.948789,9104.533087,-3108.864956,919.314598
1446.949118,10288.862594,-3849.070898,2145.067394
1446.949447,10732.986159,-6439.791695,1685.410096
1446.949776,8068.244768,-7328.038826,459.657299
1446.950105,4959.379811,-8808.450710,-153.219100
1446.950435,3923.091493,-11843.295072,-919.314598
1446.950764,3849.070898,-12287.418637,0.000000
1446.951093,3775.050304,-11547.212695,229.828649
1446.951422,4589.276840,-9622.677246,689.485948
1446.951751,6143.709319,-7698.141797,1685.410096
1446.952081,7698.141797,-6217.729913,2604.724693
1446.952410,8734.430116,-3923.091493,2757.943793
1446.952739,9104.533087,-1998.556043,2451.505594
1446.953068,8438.347739,-740.205942,1455.581446
1446.953397,8586.388927,-2294.638420,1072.533697
1446.953727,9252.574275,-3108.864956,1378.971896
1446.954056,8882.471304,-4293.194464,459.657299
1446.954385,7624.121203,-4885.359217,0.000000
1446.954714,5625.565159,-6439.791695,-229.828649
1446.955044,5625.565159,-11473.192101,766.095498
1446.955373,5107.421000,-12139.377449,383.047749
1446.955702,3701.029710,-11917.315666,1072.533697
1446.956031,3997.112087,-11103.089130,1149.143247
1446.956360,5921.647536,-9400.615463,1532.190996
1446.956690,6217.729913,-7105.977043,2145.067394
1446.957019,6809.894666,-3627.009116,2298.286494
1446.957348,8142.265362,-1850.514855,1762.019645
1446.957677,9326.594869,-1480.411884,1225.752797
1446.958006,9252.574275,-1110.308913,1915.238745
1446.958336,9918.759623,-2738.761985,1532.190996
1446.958665,10362.883188,-3108.864956,1302.362347
1446.958994,9252.574275,-5255.462188,689.485948
1446.959323,7328.038826,-7550.100608,229.828649
1446.959652,6069.688724,-9548.656652,0.000000
1446.959982,4811.338623,-11917.315666,-919.314598
1446.960311,4293.194464,-11399.171507,-612.876398
1446.960640,4515.256246,-11695.253884,229.828649
1446.960969,5329.482782,-11843.295072,1838.629195
1446.961298,5995.668130,-9696.697840,2145.067394
1446.961628,6661.853478,-5773.606348,2298.286494
1446.961957,7550.100608,-2960.823768,2145.067394
1446.962286,8586.388927,-2368.659014,1455.581446
1446.962615,8734.430116,-2072.576638,2298.286494
1446.962944,9918.759623,-740.205942,1149.143247
1446.963274,8734.430116,-1850.514855,-153.219100
1446.963603,7772.162391,-3701.029710,0.000000
1446.963932,6809.894666,-5921.647536,-919.314598
1446.964261,5773.606348,-10584.944971,-459.657299
1446.964590,5181.441594,-13989.892304,689.485948
1446.964920,4811.338623,-12879.583391,229.828649
1446.965249,5033.400406,-12287.418637,229.828649
1446.965578,5329.482782,-11399.171507,1532.190996
1446.965907,5847.626942,-10066.800811,1608.800546
1446.966237,7179.997637,-6143.709319,1685.410096
1446.966566,7105.977043,-3108.864956,2298.286494
1446.966895,7920.203579,-2072.576638,2298.286494
1446.967224,8734.430116,-444.123565,2374.896044
1446.967553,9770.718434,740.205942,1455.581446
1446.967883,9918.759623,-1480.411884,1455.581446
1446.968212,9474.636058,-3923.091493,1378.971896
1446.968541,7402.059420,-6143.709319,229.828649
1446.968870,5699.585753,-8586.388927,76.609550
1446.969199,5181.441594,-10658.965565,-229.828649
1446.969529,4219.173869,-12361.439231,0.000000
1446.969858,3552.988522,-12805.562797,383.047749
1446.970187,3404.947333,-11843.295072,1302.362347
1446.970516,5033.400406,-9178.553681,1302.362347
1446.970845,5699.585753,-5699.585753,995.924147
1446.971175,7105.977043,-3775.050304,1991.848295
1446.971504,8734.430116,-3627.009116,2374.896044
1446.971833,9622.677246,-2442.679609,2145.067394
1446.972162,9992.780217,-518.144159,2374.896044
1446.972491,10510.924376,-962.267725,1532.190996
1446.972821,9770.718434,-1702.473667,229.828649
1446.973150,7624.121203,-4959.379811,0.000000
1446.973479,7031.956449,-8068.244768,0.000000
1446.973808,6291.750507,-10510.924376,0.000000
1446.974137,4885.359217,-11991.336260,0.000000
1446.974467,4959.379811,-11991.336260,766.095498
1446.974796,5403.503377,-12805.562797,1225.752797
1446.975125,5255.462188,-10807.006753,1915.238745
1446.975454,4959.379811,-7994.224174,1378.971896
1446.975783,5551.544565,-4959.379811,919.314598
1446.976113,7105.977043,-3923.091493,1072.533697
1446.976442,8438.347739,-2368.659014,1991.848295
1446.976771,9622.677246,-1776.494261,2451.505594
1446.977100,9992.780217,-1850.514855,1455.581446
1446.977429,9104.533087,-2812.782580,536.266849
1446.977759,7920.203579,-4959.379811,383.047749
1446.978088,7846.182985,-6735.874072,1072.533697
1446.978417,6513.812290,-10362.883188,76.609550
1446.978746,4515.256246,-12065.356855,-383.047749
1446.979076,3997.112087,-10732.986159,-153.219100
1446.979405,4737.318029,-12657.521608,383.047749
1446.979734,6291.750507,-10881.027347,1762.019645
1446.980063,6439.791695,-7772.162391,2221.676944
1446.980392,6513.812290,-5477.523971,1225.752797
1446.980722,7105.977043,-4219.173869,1302.362347
1446.981051,7550.100608,-2294.638420,2068.457845
1446.981380,8290.306550,-1702.473667,1455.581446
1446.981709,9474.636058,-370.102971,459.657299
1446.982038,9622.677246,-1258.350101,1685.410096
1446.982368,9326.594869,-2294.638420,1225.752797
1446.982697,7476.080014,-4737.318029,1455.581446
1446.983026,6439.791695,-8438.347739,1302.362347
1446.983355,4811.338623,-11251.130318,-306.438199
1446.983684,3552.988522,-11843.295072,0.000000
1446.984014,4145.153275,-12435.459826,1302.362347
1446.984343,5033.400406,-11621.233289,842.705048
1446.984672,5033.400406,-8808.450710,919.314598
1446.985001,5551.544565,-5995.668130,995.924147
1446.985330,7105.977043,-5329.482782,1072.533697
1446.985660,8364.327145,-3256.906145,3064.381992
1446.985989,9030.512492,-2664.741391,2528.115143
1446.986318,9474.636058,-1036.288319,1915.238745
1446.986647,10288.862594,-1628.453072,689.485948
1446.986976,9770.718434,-2812.782580,919.314598
1446.987306,8142.265362,-4515.256246,536.266849
1446.987635,6735.874072,-8142.265362,0.000000
1446.987964,5033.400406,-10140.821405,-995.924147
1446.988293,4441.235652,-11325.150913,-306.438199
1446.988622,4885.359217,-12287.418637,1455.581446
1446.988952,6513.812290,-12953.603985,1685.410096
1446.989281,5995.668130,-9918.759623,1532.190996
1446.989610,5773.606348,-6883.915261,1685.410096
1446.989939,6661.853478,-5773.606348,1532.190996
1446.990269,7698.141797,-3923.091493,2681.334243
1446.990598,8068.244768,-2886.803174,2374.896044
1446.990927,8808.450710,-1184.329507,1455.581446
1446.991256,8956.491898,222.061783,842.705048
1446.991585,8512.368333,-1480.411884,0.000000
1446.991915,7772.162391,-3627.009116,689.485948
1446.992244,7476.080014,-7105.977043,689.485948
1446.992573,6217.729913,-10362.883188,-306.438199
1446.992902,4885.359217,-11843.295072,306.438199
1446.993231,5847.626942,-11991.336260,1225.752797
1446.993561,6735.874072,-12657.521608,1225.752797
1446.993890,5699.585753,-9992.780217,919.314598
1446.994219,5033.400406,-7105.977043,536.266849
1446.994548,6069.688724,-6069.688724,995.924147
1446.994877,7550.100608,-4589.276840,2145.067394
1446.995207,8290.306550,-2960.823768,2451.505594
1446.995536,9104.533087,-1924.535449,2757.943793
1446.995865,10066.800811,0.000000,1762.019645
1446.996194,9548.656652,-1406.391290,919.314598
1446.996523,8438.347739,-2516.700203,1302.362347
1446.996853,7402.059420,-5699.585753,612.876398
1446.997182,5477.523971,-8956.491898,0.000000
1446.997511,4071.132681,-9918.759623,-383.047749
1446.997840,4737.318029,-11917.315666,-306.438199
1446.998169,6365.771101,-12139.377449,459.657299
1446.998499,6439.791695,-10362.883188,1072.533697
1446.998828,5995.668130,-9474.636058,1378.971896
1446.999157,6883.915261,-6365.771101,2145.067394
1446.999486,6957.935855,-5699.585753,1302.362347
1446.999815,6809.894666,-4811.338623,1685.410096
1447.000145,7624.121203,-2368.659014,1915.238745
1447.000474,8660.409521,-2368.659014,919.314598
1447.000803,8290.306550,-370.102971,306.438199
1447.001132,7698.141797,-2072.576638,306.438199
1447.001461,8660.409521,-4811.338623,766.095498
1447.001791,8438.347739,-8290.306550,612.876398
1447.002120,6143.709319,-9474.636058,689.485948
1447.002449,6069.688724,-9400.615463,0.000000
1447.002778,6365.771101,-11251.130318,306.438199
1447.003108,6661.853478,-10584.944971,1608.800546
1447.003437,6217.729913,-9178.553681,1302.362347
1447.003766,6291.750507,-7105.977043,1608.800546
1447.004095,6587.832884,-6069.688724,1149.143247
1447.004424,7105.977043,-4441.235652,919.314598
1447.004754,7772.162391,-3478.967927,1072.533697
1447.005083,8364.327145,-2886.803174,1378.971896
1447.005412,7772.162391,-1406.391290,-306.438199
1447.005741,6883.915261,-3182.885551,689.485948
1447.006070,7624.121203,-4663.297435,1608.800546
1447.006400,7402.059420,-8068.244768,689.485948
1447.006729,5625.565159,-8142.265362,153.219100
1447.007058,5033.400406,-9548.656652,-229.828649
1447.007387,6365.771101,-11843.295072,229.828649
1447.007716,7031.956449,-9844.739029,1608.800546
1447.008046,7254.018232,-9104.533087,1378.971896
1447.008375,6883.915261,-6365.771101,1378.971896
1447.008704,5699.585753,-5329.482782,536.266849
1447.009033,6513.812290,-5773.606348,689.485948
1447.009362,7328.038826,-3330.926739,919.314598
1447.009692,8142.265362,-3034.844362,383.047749
1447.010021,8512.368333,-2590.720797,0.000000
1447.010350,7698.141797,-3775.050304,459.657299
1447.010679,7994.224174,-6291.750507,1608.800546
1447.011008,7920.203579,-8290.306550,1455.581446
1447.011338,6143.709319,-8068.244768,1302.362347
1447.011667,5181.441594,-9252.574275,-306.438199
1447.011996,5699.585753,-10881.027347,536.266849
1447.012325,6735.874072,-9770.718434,1915.238745
1447.012654,7179.997637,-9030.512492,1838.629195
1447.012984,7179.997637,-6809.894666,1532.190996
1447.013313,6809.894666,-6661.853478,1455.581446
1447.013642,6587.832884,-6069.688724,536.266849
1447.013971,6439.791695,-4145.153275,995.924147
1447.014301,7179.997637,-3775.050304,919.314598
1447.014630,7624.121203,-3330.926739,-459.657299
1447.014959,6587.832884,-4071.132681,76.609550
1447.015288,6809.894666,-5403.503377,842.705048
1447.015617,7179.997637,-8438.347739,842.705048
1447.015947,6661.853478,-10288.862594,1915.238745
1447.016276,5995.668130,-8734.430116,1072.533697
1447.016605,6365.771101,-8882.471304,766.095498
1447.016934,7254.018232,-7846.182985,1915.238745
1447.017263,8290.306550,-7179.997637,2757.943793
1447.017593,7846.182985,-5329.482782,2068.457845
1447.017922,6809.894666,-4589.276840,1915.238745
1447.018251,7105.977043,-5477.523971,2374.896044
1447.018580,7698.141797,-4219.173869,1838.629195
1447.018909,7772.162391,-4071.132681,1149.143247
1447.019239,7031.956449,-4737.318029,1072.533697
1447.019568,6883.915261,-5107.421000,459.657299
1447.019897,7105.977043,-6661.853478,689.485948
1447.020226,6957.935855,-7550.100608,1225.752797
1447.020555,5181.441594,-7624.121203,1225.752797
1447.020885,4811.338623,-7994.224174,536.266849
1447.021214,5329.482782,-8438.347739,229.828649
1447.021543,7328.038826,-7920.203579,2298.286494
1447.021872,9030.512492,-6957.935855,3064.381992
1447.022201,8956.491898,-6587.832884,2987.772442
1447.022531,7624.121203,-5551.544565,1838.629195
1447.022860,6513.812290,-6661.853478,766.095498
1447.023189,6809.894666,-5255.462188,383.047749
1447.023518,7550.100608,-5107.421000,306.438199
1447.023847,7328.038826,-5847.626942,153.219100
1447.024177,6809.894666,-4737.318029,-383.047749
1447.024506,6513.812290,-7031.956449,459.657299
1447.024835,6217.729913,-7920.203579,1762.019645
1447.025164,5255.462188,-9400.615463,995.924147
1447.025494,5625.565159,-8660.409521,1378.971896
1447.025823,6587.832884,-7920.203579,1378.971896
1447.026152,7402.059420,-6587.832884,2068.457845
1447.026481,7624.121203,-4515.256246,1608.800546
1447.026810,7105.977043,-4589.276840,1455.581446
1447.027140,6883.915261,-5033.400406,1072.533697
1447.027469,7328.038826,-5921.647536,995.924147
1447.027798,7105.977043,-5847.626942,842.705048
1447.028127,8068.244768,-6143.709319,1455.581446
1447.028456,7994.224174,-7550.100608,766.095498
1447.028786,6957.935855,-6587.832884,-76.609550
1447.029115,5847.626942,-7772.162391,0.000000
1447.029444,5551.544565,-8808.450710,229.828649
1447.029773,5033.400406,-8660.409521,0.000000
1447.030102,4589.276840,-7920.203579,-229.828649
1447.030432,5625.565159,-7105.977043,459.657299
1447.030761,7550.100608,-7476.080014,2374.896044
1447.031090,8882.471304,-5847.626942,3753.867940
1447.031419,8438.347739,-3627.009116,2528.115143
1447.031748,7994.224174,-4293.194464,2221.676944
1447.032078,7994.224174,-4737.318029,1532.190996
1447.032407,7105.977043,-5255.462188,919.314598
1447.032736,7402.059420,-5329.482782,229.828649
1447.033065,7698.141797,-6735.874072,-153.219100
1447.033394,6809.894666,-6957.935855,-842.705048
1447.033724,5033.400406,-8290.306550,-306.438199
1447.034053,4071.132681,-11547.212695,459.657299
1447.034382,4959.379811,-11843.295072,1762.019645
1447.034711,4663.297435,-9696.697840,459.657299
1447.035041,4663.297435,-7624.121203,1072.533697
1447.035370,6439.791695,-5033.400406,2145.067394
1447.035699,8290.306550,-4219.173869,2604.724693
1447.036028,8512.368333,-3182.885551,2834.553343
1447.036357,8068.244768,-2738.761985,2604.724693
1447.036687,8364.327145,-3849.070898,1225.752797
1447.037016,7772.162391,-4885.359217,1455.581446
1447.037345,8512.368333,-5329.482782,1302.362347
1447.037674,8660.409521,-7179.997637,229.828649
1447.038003,7402.059420,-6883.915261,229.828649
1447.038333,5551.544565,-7994.224174,-689.485948
1447.038662,5403.503377,-10436.903782,383.047749
1447.038991,5033.400406,-11029.068536,229.828649
1447.039320,4293.194464,-9992.780217,459.657299
1447.039649,4441.235652,-7994.224174,1378.971896
1447.039979,6661.853478,-6513.812290,1072.533697
1447.040308,8882.471304,-4663.297435,2528.115143
1447.040637,9326.594869,-3849.070898,3753.867940
1447.040966,9696.697840,-1924.535449,3064.381992
1447.041295,9104.533087,-2146.597232,1915.238745
1447.041625,8734.430116,-2960.823768,1532.190996
1447.041954,8956.491898,-4441.235652,1225.752797
1447.042283,8882.471304,-5551.544565,1149.143247
1447.042612,6809.894666,-5921.647536,-536.266849
1447.042941,5625.565159,-7920.203579,-1149.143247
1447.043271,5181.441594,-9844.739029,-459.657299
1447.043600,4145.153275,-13175.665768,229.828649
1447.043929,3775.050304,-12509.480420,919.314598
1447.044258,4885.359217,-8882.471304,306.438199
1447.044588,5773.606348,-6587.832884,153.219100
1447.044917,7476.080014,-5255.462188,2681.334243
1447.045246,8734.430116,-4663.297435,3524.039291
1447.045575,9178.553681,-2590.720797,2221.676944
1447.045904,8216.285956,-1998.556043,1302.362347
1447.046234,8660.409521,-2072.576638,1072.533697
1447.046563,9696.697840,-2960.823768,995.924147
1447.046892,9770.718434,-5699.585753,1762.019645
1447.047221,8068.244768,-6883.915261,306.438199
1447.047550,5921.647536,-7772.162391,-612.876398
1447.047880,5181.441594,-10140.821405,-612.876398
1447.048209,3923.091493,-12139.377449,0.000000
1447.048538,2960.823768,-13249.686362,383.047749
1447.048867,3997.112087,-10214.842000,-229.828649
1447.049196,5033.400406,-7772.162391,76.609550
1447.049526,6661.853478,-6291.750507,2068.457845
1447.049855,8438.347739,-3404.947333,3370.820191
1447.050184,9474.636058,-3034.844362,3064.381992
1447.050513,8660.409521,-2072.576638,2298.286494
1447.050842,7624.121203,-2368.659014,1302.362347
1447.051172,8808.450710,-4441.235652,1455.581446
1447.051501,9474.636058,-5329.482782,1608.800546
1447.051830,7920.203579,-5773.606348,0.000000
1447.052159,5625.565159,-7402.059420,-1685.410096
1447.052488,4737.318029,-9030.512492,-766.095498
1447.052818,4367.215058,-13175.665768,-306.438199
1447.053147,4219.173869,-12657.521608,383.047749
1447.053476,4515.256246,-10288.862594,842.705048
1447.053805,7105.977043,-9918.759623,1762.019645
1447.054135,7994.224174,-6661.853478,2757.943793
1447.054464,6957.935855,-3701.029710,2298.286494
1447.054793,7994.224174,-1924.535449,1762.019645
1447.055122,9030.512492,0.000000,1685.410096
1447.055451,9548.656652,148.041188,919.314598
1447.055781,9548.656652,-2368.659014,1532.190996
1447.056110,9992.780217,-4219.173869,2528.115143
1447.056439,9326.594869,-6143.709319,1149.143247
1447.056768,6439.791695,-7105.977043,-459.657299
1447.057097,5329.482782,-9474.636058,-383.047749
1447.057427,4885.359217,-12435.459826,-229.828649
1447.057756,3923.091493,-14211.954086,-153.219100
1447.058085,3034.844362,-11547.212695,-383.047749
1447.058414,4515.256246,-9770.718434,153.219100
1447.058743,5847.626942,-7624.121203,1072.533697
1447.059073,6661.853478,-4367.215058,1991.848295
1447.059402,7920.203579,-3552.988522,2757.943793
1447.059731,10066.800811,-1850.514855,2987.772442
1447.060060,9992.780217,-222.061783,1302.362347
1447.060389,9844.739029,-1480.411884,2298.286494
1447.060719,11029.068536,-2960.823768,2451.505594
1447.061048,10140.821405,-4737.318029,919.314598
1447.061377,7105.977043,-6291.750507,153.219100
1447.061706,5699.585753,-7105.977043,-306.438199
1447.062035,4663.297435,-11177.109724,-995.924147
1447.062365,3627.009116,-14063.912898,306.438199
1447.062694,3034.844362,-12731.542202,689.485948
1447.063023,4293.194464,-10436.903782,459.657299
1447.063352,6291.750507,-9474.636058,2451.505594
1447.063682,7105.977043,-4885.359217,2757.943793
1447.064011,7328.038826,-3330.926739,2681.334243
1447.064340,8068.244768,-1258.350101,1762.019645
1447.064669,8216.285956,1406.391290,1302.362347
1447.064998,8660.409521,-1036.288319,995.924147
1447.065328,9992.780217,-3034.844362,1762.019645
1447.065657,10288.862594,-5403.503377,2068.457845
1447.065986,9030.512492,-7994.224174,459.657299
1447.066315,6365.771101,-9104.533087,0.000000
1447.066644,4663.297435,-12287.418637,0.000000
1447.066974,4219.173869,-13619.789333,0.000000
1447.067303,3256.906145,-11695.253884,-76.609550
1447.067632,3404.947333,-9992.780217,459.657299
1447.067961,6069.688724,-7920.203579,689.485948
1447.068290,6883.915261,-5329.482782,1532.190996
1447.068620,7328.038826,-4071.132681,2911.162892
1447.068949,8808.450710,-1998.556043,2911.162892
1447.069278,10066.800811,-666.185348,2221.676944
1447.069607,9548.656652,-888.247130,2145.067394
1447.069936,9844.739029,-2738.761985,1378.971896
1447.070266,9104.533087,-4737.318029,1072.533697
1447.070595,7624.121203,-5699.585753,-383.047749
1447.070924,5477.523971,-8068.244768,-1149.143247
1447.071253,5107.421000,-11695.253884,-76.609550
1447.071582,4515.256246,-14804.118840,153.219100
1447.071912,3552.988522,-13323.706956,1302.362347
1447.072241,4663.297435,-12065.356855,1455.581446
1447.072570,5921.647536,-10584.944971,1762.019645
1447.072899,5773.606348,-6217.729913,1378.971896
1447.073229,5403.503377,-4071.132681,1302.362347
1447.073558,7698.141797,-1480.411884,842.705048
1447.073887,8808.450710,0.000000,1762.019645
1447.074216,10214.842000,666.185348,1532.190996
1447.074545,10807.006753,-1480.411884,2451.505594
1447.074875,10807.006753,-3552.988522,3370.820191
1447.075204,9400.615463,-5329.482782,536.266849
1447.075533,6439.791695,-7698.141797,0.000000
1447.075862,5181.441594,-9918.759623,0.000000
1447.076191,4737.318029,-13915.871710,-536.266849
1447.076521,3256.906145,-12731.542202,76.609550
1447.076850,2812.782580,-9918.759623,-306.438199
1447.077179,5107.421000,-10214.842000,536.266849
1447.077508,5995.668130,-7105.977043,1838.629195
1447.077837,6439.791695,-4737.318029,2834.553343
1447.078167,8216.285956,-2960.823768,2987.772442
1447.078496,10066.800811,-1850.514855,3677.258390
1447.078825,10214.842000,-370.102971,2757.943793
1447.079154,10436.903782,-1406.391290,1762.019645
1447.079483,10658.965565,-2072.576638,1608.800546
1447.079813,8142.265362,-3404.947333,-766.095498
1447.080142,5477.523971,-6143.709319,-1915.238745
1447.080471,4959.379811,-10732.986159,0.000000
1447.080800,5107.421000,-14063.912898,229.828649
1447.081130,3775.050304,-14211.954086,-766.095498
1447.081459,2960.823768,-12731.542202,919.314598
1447.081788,5033.400406,-11325.150913,1225.752797
1447.082117,6217.729913,-8438.347739,1838.629195
1447.082446,6143.709319,-5477.523971,2681.334243
1447.082776,7624.121203,-3552.988522,2757.943793
1447.083105,8734.430116,-888.247130,1455.581446
1447.083434,8438.347739,740.205942,1915.238745
1447.083763,9548.656652,0.000000,1455.581446
1447.084092,11473.192101,-666.185348,1532.190996
1447.084422,11177.109724,-3478.967927,1838.629195
1447.084751,8586.388927,-6217.729913,842.705048
1447.085080,6661.853478,-8808.450710,76.609550
1447.085409,4737.318029,-12953.603985,-383.047749
1447.085738,2738.761985,-14359.995275,-306.438199
1447.086068,2368.659014,-12583.501014,-383.047749
1447.086397,3775.050304,-12213.398043,229.828649
1447.086726,5107.421000,-8882.471304,1072.533697
1447.087055,5921.647536,-6735.874072,2451.505594
1447.087384,6587.832884,-5625.565159,3064.381992
1447.087714,8364.327145,-2960.823768,2528.115143
1447.088043,8882.471304,-1258.350101,2604.724693
1447.088372,9992.780217,592.164754,2987.772442
1447.088701,10732.986159,-592.164754,1762.019645
1447.089030,10510.924376,-1554.432478,536.266849
1447.089360,8290.306550,-3775.050304,229.828649
1447.089689,8142.265362,-7698.141797,0.000000
1447.090018,7179.997637,-12583.501014,1149.143247
1447.090347,4663.297435,-14508.036463,153.219100
1447.090677,3256.906145,-12287.418637,-1072.533697
1447.091006,3849.070898,-12953.603985,383.047749
1447.091335,5107.421000,-10955.047942,1302.362347
1447.091664,5847.626942,-5625.565159,1072.533697
1447.091993,5699.585753,-5107.421000,1608.800546
1447.092323,7772.162391,-2220.617826,2451.505594
1447.092652,9178.553681,-1924.535449,2298.286494
1447.092981,9252.574275,-370.102971,2298.286494
1447.093310,9252.574275,592.164754,689.485948
1447.093639,10214.842000,-1924.535449,842.705048
1447.093969,9622.677246,-3256.906145,842.705048
1447.094298,7624.121203,-6513.812290,459.657299
1447.094627,6291.750507,-11695.253884,689.485948
1447.094956,4145.153275,-13545.768739,-306.438199
1447.095285,2664.741391,-12805.562797,-842.705048
1447.095615,4071.132681,-13175.665768,306.438199
1447.095944,5255.462188,-11621.233289,1455.581446
1447.096273,5995.668130,-7179.997637,1225.752797
1447.096602,6291.750507,-5699.585753,1532.190996
1447.096931,8068.244768,-2886.803174,2145.067394
1447.097261,8808.450710,-2146.597232,842.705048
1447.097590,8438.347739,-1554.432478,2145.067394
1447.097919,9474.636058,0.000000,1072.533697
1447.098248,10140.821405,-1480.411884,0.000000
1447.098577,8512.368333,-2590.720797,229.828649
1447.098907,7994.224174,-7031.956449,1685.410096
1447.099236,8512.368333,-10881.027347,1762.019645
1447.099565,5625.565159,-12287.418637,459.657299
1447.099894,2812.782580,-12731.542202,0.000000
1447.100224,3997.112087,-11843.295072,459.657299
1447.100553,5033.400406,-10732.986159,1225.752797
1447.100882,4515.256246,-7179.997637,842.705048
1447.101211,4737.318029,-5773.606348,1149.143247
1447.101540,7698.141797,-3849.070898,1915.238745
1447.101870,9252.574275,-2442.679609,2221.676944
1447.102199,8438.347739,-1998.556043,1991.848295
1447.102528,8882.471304,-1554.432478,1302.362347
1447.102857,9992.780217,-3034.844362,306.438199
1447.103186,8512.368333,-3330.926739,0.000000
1447.103516,6957.935855,-5847.626942,153.219100
1447.103845,7328.038826,-9326.594869,995.924147
1447.104174,6735.874072,-11769.274478,229.828649
1447.104503,3775.050304,-13175.665768,306.438199
1447.104832,4515.256246,-11621.233289,612.876398
1447.105162,6513.812290,-10881.027347,1455.581446
1447.105491,6439.791695,-8068.244768,1838.629195
1447.105820,6069.688724,-4885.359217,1532.190996
1447.106149,7105.977043,-3997.112087,2221.676944
1447.106478,8660.409521,-2664.741391,2451.505594
1447.106808,8290.306550,-1554.432478,1378.971896
1447.107137,7920.203579,-888.247130,766.095498
1447.107466,9252.574275,-2590.720797,689.485948
1447.107795,8512.368333,-4737.318029,306.438199
1447.108124,7179.997637,-6735.874072,1072.533697
1447.108454,7105.977043,-9918.759623,842.705048
1447.108783,5847.626942,-11991.336260,459.657299
1447.109112,3627.009116,-11769.274478,842.705048
1447.109441,3404.947333,-11399.171507,0.000000
1447.109771,5255.462188,-9992.780217,1532.190996
1447.110100,6365.771101,-8438.347739,2068.457845
1447.110429,7328.038826,-6883.915261,3140.991542
1447.110758,8512.368333,-3478.967927,3217.601092
1447.111087,8956.491898,-2590.720797,2374.896044
1447.111417,7624.121203,-1184.329507,766.095498
1447.111746,7402.059420,-1110.308913,612.876398
1447.112075,8586.388927,-2738.761985,306.438199
1447.112404,8438.347739,-3404.947333,-153.219100
1447.112733,6587.832884,-6143.709319,919.314598
1447.113063,6809.894666,-9474.636058,536.266849
1447.113392,6143.709319,-11547.212695,919.314598
1447.113721,4737.318029,-12213.398043,1149.143247
1447.114050,4737.318029,-11473.192101,1072.533697
1447.114379,6143.709319,-8956.491898,1838.629195
1447.114709,7402.059420,-7105.977043,1762.019645
1447.115038,7772.162391,-5181.441594,2298.286494
1447.115367,8290.306550,-3849.070898,2757.943793
1447.115696,7179.997637,-3256.906145,1455.581446
1447.116025,7179.997637,-2368.659014,1072.533697
1447.116355,7105.977043,-3108.864956,536.266849
1447.116684,8586.388927,-4515.256246,306.438199
1447.117013,7994.224174,-5477.523971,0.000000
1447.117342,6809.894666,-7105.977043,-229.828649
1447.117671,6365.771101,-9474.636058,0.000000
1447.118001,5995.668130,-10881.027347,0.000000
1447.118330,4737.318029,-11547.212695,76.609550
1447.118659,4885.359217,-9918.759623,766.095498
1447.118988,7179.997637,-9400.615463,1762.019645
1447.119318,8438.347739,-7624.121203,3217.601092
1447.119647,8216.285956,-4885.359217,2451.505594
1447.119976,8586.388927,-3552.988522,2757.943793
1447.120305,8882.471304,-1628.453072,1378.971896
1447.120634,7179.997637,-2146.597232,689.485948
1447.120964,7105.977043,-2146.597232,306.438199
1447.121293,7698.141797,-3330.926739,0.000000
1447.121622,7105.977043,-5625.565159,-383.047749
1447.121951,6365.771101,-6143.709319,-842.705048
1447.122280,5995.668130,-10140.821405,383.047749
1447.122610,5921.647536,-11769.274478,689.485948
1447.122939,3923.091493,-11695.253884,383.047749
1447.123268,4071.132681,-11103.089130,536.266849
1447.123597,6735.874072,-8808.450710,1532.190996
1447.123926,8290.306550,-7105.977043,2451.505594
1447.124256,7624.121203,-4367.215058,2987.772442
1447.124585,7328.038826,-2664.741391,2298.286494
1447.124914,8142.265362,-3034.844362,2145.067394
1447.125243,7846.182985,-2886.803174,1149.143247
1447.125572,7105.977043,-4071.132681,995.924147
1447.125902,8512.368333,-5551.544565,383.047749
1447.126231,8142.265362,-6513.812290,-536.266849
1447.126560,6587.832884,-7105.977043,-1302.362347
1447.126889,5773.606348,-8512.368333,-1149.143247
1447.127218,5995.668130,-11103.089130,0.000000
1447.127547,4589.276840,-11547.212695,-306.438199
1447.127877,4441.235652,-10288.862594,459.657299
1447.128206,6513.812290,-8216.285956,1915.238745
1447.128535,8512.368333,-7402.059420,3064.381992
1447.128864,8438.347739,-4589.276840,3294.210641
1447.129193,7772.162391,-4145.153275,3447.429741
1447.129522,8142.265362,-3256.906145,2451.505594
1447.129852,7476.080014,-3182.885551,2068.457845
1447.130181,7328.038826,-3849.070898,1915.238745
1447.130510,8660.409521,-4737.318029,689.485948
1447.130839,7846.182985,-5107.421000,0.000000
1447.131168,5329.482782,-6069.688724,-1532.190996
1447.131497,4959.379811,-8364.327145,-689.485948
1447.131827,5847.626942,-10066.800811,229.828649
1447.132156,5329.482782,-11843.295072,306.438199
1447.132485,3997.112087,-9844.739029,1991.848295
1447.132814,5773.606348,-8290.306550,1991.848295
1447.133143,8142.265362,-7698.141797,1838.629195
1447.133472,8660.409521,-4737.318029,3447.429741
1447.133802,8290.306550,-3701.029710,3064.381992
1447.134131,8808.450710,-2590.720797,1762.019645
1447.134460,7994.224174,-2664.741391,1072.533697
1447.134789,7624.121203,-4071.132681,1302.362347
1447.135118,9474.636058,-4811.338623,1762.019645
1447.135448,9326.594869,-5255.462188,1378.971896
1447.135777,7105.977043,-6365.771101,0.000000
1447.136106,5847.626942,-8660.409521,536.266849
1447.136435,5773.606348,-10584.944971,153.219100
1447.136764,4441.235652,-11177.109724,-229.828649
1447.137093,3034.844362,-9622.677246,-229.828649
1447.137423,4663.297435,-7550.100608,383.047749
1447.137752,7179.997637,-6957.935855,1685.410096
1447.138081,7328.038826,-5181.441594,3064.381992
1447.138410,7846.182985,-3478.967927,2834.553343
1447.138739,9178.553681,-4219.173869,2757.943793
1447.139068,9252.574275,-4145.153275,2374.896044
1447.139398,8364.327145,-4663.297435,1302.362347
1447.139727,8290.306550,-5995.668130,1378.971896
1447.140056,8512.368333,-5477.523971,383.047749
1447.140385,6143.709319,-6735.874072,-1685.410096
1447.140714,4811.338623,-7105.977043,-1685.410096
1447.141043,4515.256246,-9474.636058,-995.924147
1447.141373,4737.318029,-11547.212695,153.219100
1447.141702,4663.297435,-9696.697840,689.485948
1447.142031,5551.544565,-8438.347739,1302.362347
1447.142360,7698.141797,-7550.100608,2298.286494
1447.142689,8290.306550,-4885.359217,3064.381992
1447.143018,9030.512492,-4145.153275,2987.772442
1447.143348,9844.739029,-2960.823768,2298.286494
1447.143677,9178.553681,-2442.679609,1072.533697
1447.144006,7698.141797,-3404.947333,76.609550
1447.144335,7550.100608,-5033.400406,766.095498
1447.144664,8364.327145,-5995.668130,1838.629195
1447.144993,7179.997637,-8216.285956,-459.657299
1447.145323,5255.462188,-8882.471304,0.000000
1447.145652,4959.379811,-10362.883188,536.266849
1447.145981,4515.256246,-11843.295072,-229.828649
1447.146310,3034.844362,-7920.203579,-842.705048
1447.146639,4293.194464,-7179.997637,0.000000
1447.146968,7179.997637,-6069.688724,1072.533697
1447.147298,8364.327145,-3923.091493,2298.286494
1447.147627,9178.553681,-4737.318029,3064.381992
1447.147956,10362.883188,-4737.318029,3753.867940
1447.148285,10214.842000,-4441.235652,3447.429741
1447.148614,8438.347739,-4441.235652,1532.190996
1447.148943,7698.141797,-4219.173869,229.828649
1447.149273,7476.080014,-4737.318029,-306.438199
1447.149602,7624.121203,-5995.668130,-689.485948
1447.149931,5773.606348,-7328.038826,-995.924147
1447.150260,5403.503377,-9474.636058,229.828649
1447.150589,4885.359217,-11399.171507,229.828649
1447.150918,3478.967927,-9992.780217,-306.438199
1447.151248,3701.029710,-8734.430116,1072.533697
1447.151577,6365.771101,-7624.121203,1915.238745
1447.151906,8660.409521,-4663.297435,2681.334243
1447.152235,9030.512492,-2220.617826,2757.943793
1447.152564,9474.636058,-2664.741391,2911.162892
1447.152893,9548.656652,-2146.597232,2221.676944
1447.153223,7994.224174,-4293.194464,1149.143247
1447.153552,7550.100608,-5773.606348,1225.752797
1447.153881,8290.306550,-7105.977043,995.924147
1447.154210,7402.059420,-7994.224174,76.609550
1447.154539,6143.709319,-8586.388927,76.609550
1447.154868,5403.503377,-10584.944971,-153.219100
1447.155198,4515.256246,-10066.800811,-995.924147
1447.155527,2442.679609,-9474.636058,-1302.362347
1447.155856,3849.070898,-7994.224174,383.047749
1447.156185,6735.874072,-6291.750507,919.314598
1447.156514,8734.430116,-5699.585753,2911.162892
1447.156843,9474.636058,-2886.803174,4979.620737
1447.157173,10584.944971,-3330.926739,4519.963438
1447.157502,10584.944971,-2516.700203,3294.210641
1447.157831,8808.450710,-2294.638420,1532.190996
1447.158160,8068.244768,-4071.132681,1072.533697
1447.158489,8364.327145,-5477.523971,-306.438199
1447.158819,6661.853478,-7402.059420,-1225.752797
1447.159148,5107.421000,-8808.450710,-612.876398
1447.159477,5255.462188,-10362.883188,-306.438199
1447.159806,4441.235652,-11325.150913,76.609550
1447.160135,3034.844362,-11621.233289,383.047749
1447.160464,4737.318029,-9844.739029,766.095498
1447.160794,7105.977043,-7476.080014,842.705048
1447.161123,7698.141797,-5551.544565,2221.676944
1447.161452,7846.182985,-3330.926739,1991.848295
1447.161781,9030.512492,-2516.700203,1838.629195
1447.162110,9178.553681,-1554.432478,1302.362347
1447.162439,8216.285956,-2516.700203,689.485948
1447.162769,8586.388927,-4441.235652,1685.410096
1447.163098,9548.656652,-6439.791695,1302.362347
1447.163427,8142.265362,-7476.080014,0.000000
1447.163756,5995.668130,-7328.038826,-1685.410096
1447.164085,5921.647536,-9474.636058,-995.924147
1447.164414,5255.462188,-11843.295072,-76.609550
1447.164744,3034.844362,-11695.253884,-612.876398
1447.165073,2886.803174,-9400.615463,-153.219100
