#time,accel_x,accel_y,accel_z
1438.284877,6809.894666,-6883.915261,1149.143247
1438.285208,7105.977043,-6587.832884,1149.143247
1438.285538,7105.977043,-6661.853478,536.266849
1438.285868,6883.915261,-6883.915261,1225.752797
1438.286199,6957.935855,-6809.894666,995.924147
1438.286529,6957.935855,-6587.832884,1149.143247
1438.286859,6439.791695,-6957.935855,995.924147
1438.287190,7031.956449,-6809.894666,995.924147
1438.287520,7105.977043,-6513.812290,1072.533697
1438.287850,7105.977043,-6661.853478,919.314598
1438.288181,7254.018232,-6661.853478,995.924147
1438.288511,7105.977043,-6365.771101,995.924147
1438.288841,7105.977043,-6587.832884,1378.971896
1438.289172,7254.018232,-5995.668130,1072.533697
1438.289502,7476.080014,-5921.647536,919.314598
1438.289832,7105.977043,-6069.688724,919.314598
1438.290163,7550.100608,-6143.709319,995.924147
1438.290493,7550.100608,-5921.647536,919.314598
1438.290823,7179.997637,-6291.750507,1072.533697
1438.291154,6957.935855,-6217.729913,766.095498
1438.291484,6735.874072,-6587.832884,842.705048
1438.291814,7105.977043,-6809.894666,919.314598
1438.292145,7105.977043,-6661.853478,995.924147
1438.292475,6883.915261,-6661.853478,1072.533697
1438.292805,7105.977043,-6735.874072,919.314598
1438.293136,6735.874072,-6661.853478,1991.848295
1438.293466,6513.812290,-6661.853478,1072.533697
1438.293796,6661.853478,-6883.915261,995.924147
1438.294127,6587.832884,-6957.935855,1072.533697
1438.294457,6661.853478,-7179.997637,995.924147
1438.294787,7402.059420,-7105.977043,1149.143247
1438.295118,7105.977043,-6735.874072,1225.752797
1438.295448,7031.956449,-6513.812290,919.314598
1438.295778,7105.977043,-6809.894666,1225.752797
1438.296109,7402.059420,-6513.812290,1072.533697
1438.296439,7105.977043,-6661.853478,919.314598
1438.296769,7031.956449,-6513.812290,1302.362347
1438.297100,7031.956449,-6587.832884,1378.971896
1438.297430,6809.894666,-6365.771101,1072.533697
1438.297760,6439.791695,-5995.668130,1608.800546
1438.298091,6883.915261,-6513.812290,1149.143247
1438.298421,6661.853478,-6291.750507,1455.581446
1438.298751,6883.915261,-6661.853478,919.314598
1438.299082,6587.832884,-6365.771101,842.705048
1438.299412,6809.894666,-6883.915261,689.485948
1438.299742,6809.894666,-6513.812290,995.924147
1438.300073,6735.874072,-6883.915261,995.924147
1438.300403,6809.894666,-6957.935855,1072.533697
1438.300733,6439.791695,-6365.771101,1302.362347
1438.301064,7105.977043,-6661.853478,919.314598
1438.301394,6735.874072,-6735.874072,919.314598
1438.301724,6587.832884,-6883.915261,1378.971896
1438.302055,7105.977043,-6587.832884,842.705048
1438.302385,7179.997637,-5921.647536,1838.629195
1438.302715,7031.956449,-6587.832884,689.485948
1438.303046,7254.018232,-6513.812290,1072.533697
1438.303376,7402.059420,-6217.729913,919.314598
1438.303706,7846.182985,-6291.750507,842.705048
1438.304037,7179.997637,-5847.626942,1225.752797
1438.304367,7624.121203,-6217.729913,1072.533697
1438.304697,7402.059420,-6217.729913,995.924147
1438.305028,7105.977043,-6587.832884,995.924147
1438.305358,7105.977043,-6513.812290,1302.362347
1438.305688,6809.894666,-6365.771101,919.314598
1438.306019,6809.894666,-6661.853478,995.924147
1438.306349,6809.894666,-6439.791695,919.314598
1438.306679,6957.935855,-6365.771101,766.095498
1438.307010,7179.997637,-6365.771101,1532.190996
1438.307340,6587.832884,-6365.771101,1302.362347
1438.307670,7031.956449,-6291.750507,689.485948
1438.308001,6883.915261,-6587.832884,1149.143247
1438.308331,6957.935855,-6957.935855,1225.752797
1438.308661,6735.874072,-6587.832884,1072.533697
1438.308992,6661.853478,-6883.915261,1072.533697
1438.309322,7031.956449,-7328.038826,766.095498
1438.309652,6957.935855,-6735.874072,995.924147
1438.309983,6957.935855,-6661.853478,766.095498
1438.310313,6587.832884,-6735.874072,536.266849
1438.310643,7031.956449,-6513.812290,1072.533697
1438.310974,7179.997637,-6809.894666,919.314598
1438.311304,7179.997637,-5625.565159,1455.581446
1438.311634,7105.977043,-6217.729913,1302.362347
1438.311965,7105.977043,-6513.812290,1149.143247
1438.312295,7031.956449,-6143.709319,1225.752797
1438.312625,6809.894666,-6661.853478,1149.143247
1438.312956,7254.018232,-6513.812290,1302.362347
1438.313286,7105.977043,-6587.832884,1302.362347
1438.313616,6809.894666,-6809.894666,1225.752797
1438.313947,6587.832884,-6809.894666,842.705048
1438.314277,7031.956449,-6809.894666,1149.143247
1438.314607,6809.894666,-6735.874072,1149.143247
1438.314938,6809.894666,-7105.977043,1149.143247
1438.315268,6735.874072,-6957.935855,1685.410096
1438.315598,6957.935855,-6513.812290,1225.752797
1438.315929,6957.935855,-7031.956449,1225.752797
1438.316259,6809.894666,-6439.791695,995.924147
1438.316589,6587.832884,-7105.977043,689.485948
1438.316920,7105.977043,-6735.874072,842.705048
1438.317250,7105.977043,-6291.750507,1225.752797
1438.317580,7328.038826,-6513.812290,1149.143247
1438.317911,7328.038826,-6513.812290,1225.752797
1438.318241,7476.080014,-6735.874072,1225.752797
1438.318572,7254.018232,-6587.832884,766.095498
1438.318902,7031.956449,-6217.729913,766.095498
1438.319232,7254.018232,-5921.647536,1149.143247
1438.319563,7179.997637,-5995.668130,1149.143247
1438.319893,7105.977043,-6143.709319,1072.533697
1438.320223,7254.018232,-5921.647536,995.924147
1438.320554,7328.038826,-6291.750507,612.876398
1438.320884,6957.935855,-6217.729913,995.924147
1438.321214,7105.977043,-6513.812290,1072.533697
1438.321545,6883.915261,-6661.853478,995.924147
1438.321875,6957.935855,-6587.832884,1072.533697
1438.322205,6809.894666,-6661.853478,689.485948
1438.322536,6809.894666,-7105.977043,1225.752797
1438.322866,6587.832884,-6513.812290,1149.143247
1438.323196,6809.894666,-6809.894666,612.876398
1438.323527,6217.729913,-6513.812290,1762.019645
1438.323857,6735.874072,-7105.977043,1302.362347
1438.324187,6883.915261,-6809.894666,842.705048
1438.324518,7105.977043,-6735.874072,1455.581446
1438.324848,7105.977043,-6735.874072,1378.971896
1438.325178,7328.038826,-6217.729913,1455.581446
1438.325509,7105.977043,-6809.894666,1302.362347
1438.325839,7105.977043,-6809.894666,995.924147
1438.326169,7105.977043,-6735.874072,1149.143247
1438.326500,7476.080014,-6661.853478,1149.143247
1438.326830,7105.977043,-6143.709319,842.705048
1438.327160,6661.853478,-6291.750507,1455.581446
1438.327491,6809.894666,-6883.915261,1149.143247
1438.327821,6957.935855,-6439.791695,1072.533697
1438.328151,7105.977043,-6513.812290,842.705048
1438.328482,6809.894666,-6069.688724,995.924147
1438.328812,6809.894666,-6365.771101,1072.533697
1438.329142,6883.915261,-6883.915261,1225.752797
1438.329473,6735.874072,-6735.874072,1455.581446
1438.329803,7031.956449,-6513.812290,536.266849
1438.330133,6957.935855,-6809.894666,1149.143247
1438.330464,6661.853478,-6957.935855,1455.581446
1438.330794,7031.956449,-7105.977043,1072.533697
1438.331124,6809.894666,-7328.038826,842.705048
1438.331455,7105.977043,-6809.894666,919.314598
1438.331785,7031.956449,-6439.791695,995.924147
1438.332115,7105.977043,-6217.729913,1225.752797
1438.332446,6883.915261,-6439.791695,689.485948
1438.332776,6883.915261,-6217.729913,766.095498
1438.333106,7402.059420,-6513.812290,1225.752797
1438.333437,7254.018232,-6439.791695,1149.143247
1438.333767,7328.038826,-6143.709319,1072.533697
1438.334097,7105.977043,-6513.812290,995.924147
1438.334428,7179.997637,-6291.750507,995.924147
1438.334758,6957.935855,-6365.771101,995.924147
1438.335088,7179.997637,-6069.688724,1149.143247
1438.335419,6809.894666,-6513.812290,1149.143247
1438.335749,7624.121203,-5921.647536,1762.019645
1438.336079,7031.956449,-6513.812290,1072.533697
1438.336410,6809.894666,-6291.750507,1072.533697
1438.336740,6735.874072,-6217.729913,1149.143247
1438.337070,6883.915261,-6217.729913,919.314598
1438.337401,6809.894666,-6587.832884,612.876398
1438.337731,6513.812290,-6809.894666,1072.533697
1438.338061,6661.853478,-6883.915261,689.485948
1438.338392,6587.832884,-6957.935855,995.924147
1438.338722,7031.956449,-7179.997637,1072.533697
1438.339052,6957.935855,-6957.935855,995.924147
1438.339383,6957.935855,-6365.771101,842.705048
1438.339713,7328.038826,-6735.874072,842.705048
1438.340043,7328.038826,-6587.832884,1149.143247
1438.340374,7772.162391,-6587.832884,1149.143247
1438.340704,7105.977043,-6587.832884,995.924147
1438.341034,6883.915261,-6365.771101,1072.533697
1438.341365,7402.059420,-6365.771101,1149.143247
1438.341695,6809.894666,-6809.894666,1225.752797
1438.342025,6883.915261,-6513.812290,1225.752797
1438.342356,7031.956449,-6661.853478,995.924147
1438.342686,7105.977043,-6661.853478,1225.752797
1438.343016,6957.935855,-6587.832884,919.314598
1438.343347,6883.915261,-6217.729913,1149.143247
1438.343677,6809.894666,-6439.791695,536.266849
1438.344007,6809.894666,-6883.915261,1378.971896
1438.344338,7031.956449,-6439.791695,1149.143247
1438.344668,6661.853478,-6883.915261,995.924147
1438.344998,7179.997637,-6513.812290,1378.971896
1438.345329,6809.894666,-6883.915261,1378.971896
1438.345659,6809.894666,-7105.977043,995.924147
1438.345989,6513.812290,-6735.874072,1225.752797
1438.346320,6883.915261,-6661.853478,689.485948
1438.346650,7105.977043,-6661.853478,919.314598
1438.346980,7105.977043,-6365.771101,1072.533697
1438.347311,7105.977043,-6291.750507,842.705048
1438.347641,7476.080014,-6143.709319,1149.143247
1438.347971,7402.059420,-6439.791695,1149.143247
1438.348302,7105.977043,-6143.709319,995.924147
1438.348632,7105.977043,-6217.729913,919.314598
1438.348962,7105.977043,-6217.729913,1072.533697
1438.349292,7402.059420,-6439.791695,689.485948
1438.349621,7105.977043,-6143.709319,1378.971896
1438.349950,7105.977043,-6291.750507,459.657299
1438.350280,6587.832884,-6365.771101,995.924147
1438.350609,6957.935855,-6439.791695,919.314598
1438.350939,6735.874072,-5921.647536,1072.533697
1438.351268,7031.956449,-6513.812290,1072.533697
1438.351598,6883.915261,-6735.874072,1302.362347
1438.351927,6883.915261,-6587.832884,689.485948
1438.352256,6513.812290,-6661.853478,766.095498
1438.352586,6217.729913,-6661.853478,1149.143247
1438.352915,6883.915261,-6735.874072,612.876398
1438.353245,6661.853478,-6587.832884,919.314598
1438.353574,6365.771101,-6883.915261,842.705048
1438.353903,7105.977043,-6809.894666,689.485948
1438.354233,7105.977043,-6735.874072,1149.143247
1438.354562,7254.018232,-6735.874072,842.705048
1438.354892,7105.977043,-6439.791695,919.314598
1438.355221,7105.977043,-6883.915261,919.314598
1438.355551,7105.977043,-6883.915261,766.095498
1438.355880,7105.977043,-6291.750507,1072.533697
1438.356209,7254.018232,-6587.832884,766.095498
1438.356539,7105.977043,-6883.915261,842.705048
1438.356868,6883.915261,-6513.812290,1302.362347
1438.357198,7328.038826,-6587.832884,1225.752797
1438.357527,7031.956449,-5995.668130,1072.533697
1438.357856,6883.915261,-6291.750507,1455.581446
1438.358186,6809.894666,-6217.729913,1149.143247
1438.358515,7254.018232,-6291.750507,1378.971896
1438.358845,6661.853478,-6735.874072,1149.143247
1438.359174,6735.874072,-6957.935855,1225.752797
1438.359504,7031.956449,-6513.812290,919.314598
1438.359833,7105.977043,-6291.750507,1378.971896
1438.360162,6809.894666,-6883.915261,1225.752797
1438.360492,6513.812290,-6735.874072,1072.533697
1438.360821,6735.874072,-6883.915261,1378.971896
1438.361151,6735.874072,-6735.874072,766.095498
1438.361480,7031.956449,-6291.750507,1378.971896
1438.361809,7105.977043,-6513.812290,919.314598
1438.362139,7328.038826,-6735.874072,919.314598
1438.362468,7328.038826,-6143.709319,1072.533697
1438.362798,7179.997637,-6735.874072,1072.533697
1438.363127,7031.956449,-6365.771101,1149.143247
1438.363457,6809.894666,-6291.750507,1378.971896
1438.363786,7179.997637,-6661.853478,919.314598
1438.364115,7328.038826,-6513.812290,1225.752797
1438.364445,7402.059420,-6661.853478,1072.533697
1438.364774,7328.038826,-6217.729913,1149.143247
1438.365104,6957.935855,-6439.791695,1378.971896
1438.365433,6957.935855,-6439.791695,1072.533697
1438.365763,6587.832884,-6439.791695,842.705048
1438.366092,6809.894666,-6587.832884,459.657299
1438.366421,6513.812290,-6735.874072,1225.752797
1438.366751,6735.874072,-6661.853478,842.705048
1438.367080,6809.894666,-6883.915261,1378.971896
1438.367410,5847.626942,-6143.709319,306.438199
1438.367739,6439.791695,-7031.956449,766.095498
1438.368068,6587.832884,-6735.874072,1072.533697
1438.368398,6735.874072,-7105.977043,1072.533697
1438.368727,7179.997637,-7105.977043,1302.362347
1438.369057,7402.059420,-5995.668130,536.266849
1438.369386,7105.977043,-7105.977043,995.924147
1438.369716,7105.977043,-6365.771101,1072.533697
1438.370045,6957.935855,-6513.812290,842.705048
1438.370374,6883.915261,-6143.709319,1149.143247
1438.370704,7031.956449,-6661.853478,1302.362347
1438.371033,7105.977043,-6513.812290,1072.533697
1438.371363,7105.977043,-6291.750507,229.828649
1438.371692,6957.935855,-6809.894666,1455.581446
1438.372021,7105.977043,-6217.729913,1685.410096
1438.372351,7031.956449,-6365.771101,1072.533697
1438.372680,6883.915261,-6661.853478,1378.971896
1438.373010,6735.874072,-6365.771101,766.095498
1438.373339,6809.894666,-6735.874072,995.924147
1438.373669,6809.894666,-6661.853478,1838.629195
1438.373998,6957.935855,-6587.832884,1149.143247
1438.374327,6883.915261,-6883.915261,1455.581446
1438.374657,6957.935855,-6735.874072,1225.752797
1438.374986,6883.915261,-7105.977043,919.314598
1438.375316,6957.935855,-7105.977043,842.705048
1438.375645,6809.894666,-7105.977043,1072.533697
1438.375974,7031.956449,-6661.853478,842.705048
1438.376304,7179.997637,-6439.791695,1072.533697
1438.376633,7105.977043,-6513.812290,1378.971896
1438.376963,7254.018232,-6291.750507,995.924147
1438.377292,7328.038826,-6661.853478,1608.800546
1438.377622,7254.018232,-6439.791695,766.095498
1438.377951,7328.038826,-5921.647536,766.095498
1438.378280,7105.977043,-6143.709319,1378.971896
1438.378610,7031.956449,-6661.853478,919.314598
1438.378939,7179.997637,-6217.729913,995.924147
1438.379269,6883.915261,-6513.812290,1149.143247
1438.379598,7550.100608,-6587.832884,995.924147
1438.379928,6735.874072,-6513.812290,1378.971896
1438.380257,7031.956449,-6365.771101,1302.362347
1438.380586,7105.977043,-6365.771101,919.314598
1438.380916,6883.915261,-6809.894666,689.485948
1438.381245,7254.018232,-6439.791695,1455.581446
1438.381575,6587.832884,-6365.771101,1225.752797
1438.381904,6809.894666,-6809.894666,1225.752797
1438.382233,6661.853478,-7031.956449,1225.752797
1438.382563,6513.812290,-7179.997637,1455.581446
1438.382892,6661.853478,-6809.894666,1302.362347
1438.383222,6439.791695,-7105.977043,689.485948
1438.383551,6735.874072,-6957.935855,995.924147
1438.383881,6883.915261,-6365.771101,1149.143247
1438.384210,7031.956449,-6069.688724,1302.362347
1438.384539,7179.997637,-6365.771101,1378.971896
1438.384869,7105.977043,-6587.832884,1378.971896
1438.385198,7031.956449,-6661.853478,842.705048
1438.385528,7105.977043,-6217.729913,766.095498
1438.385857,7031.956449,-6291.750507,1072.533697
1438.386186,6883.915261,-6661.853478,995.924147
1438.386516,6883.915261,-6513.812290,1225.752797
1438.386845,7031.956449,-6513.812290,1072.533697
1438.387175,7254.018232,-5995.668130,1302.362347
1438.387504,6883.915261,-6291.750507,1149.143247
1438.387834,6735.874072,-6365.771101,612.876398
1438.388163,6513.812290,-6661.853478,919.314598
1438.388492,6809.894666,-6661.853478,1072.533697
1438.388822,6809.894666,-6735.874072,1225.752797
1438.389151,6735.874072,-6809.894666,1225.752797
1438.389481,6883.915261,-6217.729913,1149.143247
1438.389810,6883.915261,-7105.977043,766.095498
1438.390139,6957.935855,-7105.977043,689.485948
1438.390469,6957.935855,-6661.853478,842.705048
1438.390798,7105.977043,-6957.935855,689.485948
1438.391128,7254.018232,-6439.791695,842.705048
1438.391457,7105.977043,-6957.935855,1072.533697
1438.391787,7179.997637,-6513.812290,536.266849
1438.392116,7254.018232,-6365.771101,1072.533697
1438.392445,7105.977043,-6587.832884,689.485948
1438.392775,7105.977043,-6143.709319,995.924147
1438.393104,7328.038826,-5699.585753,919.314598
1438.393434,7772.162391,-6291.750507,689.485948
1438.393763,7105.977043,-6365.771101,1149.143247
1438.394092,7179.997637,-6291.750507,1072.533697
1438.394422,6809.894666,-6365.771101,919.314598
1438.394751,7105.977043,-6217.729913,1455.581446
1438.395081,6809.894666,-6439.791695,1072.533697
1438.395410,6957.935855,-6587.832884,842.705048
1438.395740,7031.956449,-6957.935855,1225.752797
1438.396069,6661.853478,-6439.791695,1149.143247
1438.396398,6735.874072,-6439.791695,1455.581446
1438.396728,6587.832884,-6809.894666,1455.581446
1438.397057,7031.956449,-6809.894666,995.924147
1438.397387,6735.874072,-6735.874072,1149.143247
1438.397716,6883.915261,-6957.935855,1685.410096
1438.398046,6883.915261,-6957.935855,995.924147
1438.398375,7031.956449,-6439.791695,842.705048
1438.398704,6883.915261,-6735.874072,919.314598
1438.399034,7105.977043,-6809.894666,1072.533697
1438.399363,7328.038826,-5773.606348,1149.143247
1438.399693,7550.100608,-5329.482782,842.705048
1438.400022,7920.203579,-5625.565159,1072.533697
1438.400351,8290.306550,-5403.503377,1302.362347
1438.400681,8068.244768,-5921.647536,1072.533697
1438.401010,7698.141797,-6069.688724,995.924147
1438.401340,6365.771101,-6883.915261,153.219100
1438.401669,6069.688724,-7105.977043,0.000000
1438.401999,6513.812290,-6439.791695,612.876398
1438.402328,7328.038826,-6217.729913,1302.362347
1438.402657,7920.203579,-6217.729913,1149.143247
1438.402987,8216.285956,-5699.585753,1838.629195
1438.403316,8142.265362,-4515.256246,1455.581446
1438.403646,8142.265362,-4737.318029,1225.752797
1438.403975,7698.141797,-5181.441594,1455.581446
1438.404304,8438.347739,-4589.276840,1532.190996
1438.404634,8660.409521,-5329.482782,919.314598
1438.404963,8068.244768,-4737.318029,766.095498
1438.405293,7550.100608,-6291.750507,-153.219100
1438.405622,8290.306550,-5107.421000,306.438199
1438.405952,8512.368333,-5181.441594,459.657299
1438.406281,8364.327145,-6069.688724,689.485948
1438.406610,8586.388927,-5477.523971,995.924147
1438.406940,8290.306550,-5625.565159,766.095498
1438.407269,7846.182985,-5773.606348,919.314598
1438.407599,8216.285956,-4811.338623,842.705048
1438.407928,8660.409521,-4515.256246,612.876398
1438.408257,9104.533087,-4071.132681,1685.410096
1438.408587,9104.533087,-4441.235652,1608.800546
1438.408916,9622.677246,-3627.009116,1838.629195
1438.409246,9400.615463,-3552.988522,1302.362347
1438.409575,9104.533087,-3108.864956,1378.971896
1438.409905,9770.718434,-2664.741391,1455.581446
1438.410234,9696.697840,-3330.926739,1685.410096
1438.410563,9992.780217,-3108.864956,1608.800546
1438.410893,9844.739029,-3701.029710,1532.190996
1438.411222,9622.677246,-4145.153275,1532.190996
1438.411552,8734.430116,-4367.215058,1455.581446
1438.411881,8586.388927,-5477.523971,1685.410096
1438.412211,8142.265362,-5107.421000,842.705048
1438.412540,7550.100608,-5403.503377,1149.143247
1438.412869,7772.162391,-4885.359217,919.314598
1438.413199,8512.368333,-4737.318029,1149.143247
1438.413528,8882.471304,-4367.215058,995.924147
1438.413858,8438.347739,-5329.482782,842.705048
1438.414187,8068.244768,-5699.585753,459.657299
1438.414516,8512.368333,-4811.338623,153.219100
1438.414846,8734.430116,-5033.400406,76.609550
1438.415175,8882.471304,-4959.379811,306.438199
1438.415505,9622.677246,-5033.400406,459.657299
1438.415834,9548.656652,-4589.276840,766.095498
1438.416164,9622.677246,-4071.132681,919.314598
1438.416493,9770.718434,-4885.359217,1455.581446
1438.416822,9918.759623,-4071.132681,1302.362347
1438.417152,9326.594869,-4145.153275,995.924147
1438.417481,9178.553681,-3108.864956,1762.019645
1438.417811,9030.512492,-3701.029710,1608.800546
1438.418140,8956.491898,-4737.318029,2221.676944
1438.418469,8882.471304,-3923.091493,1762.019645
1438.418799,8512.368333,-4441.235652,1838.629195
1438.419128,8364.327145,-3701.029710,1685.410096
1438.419458,8956.491898,-3627.009116,919.314598
1438.419787,8808.450710,-3923.091493,229.828649
1438.420117,8660.409521,-4293.194464,306.438199
1438.420446,9400.615463,-4293.194464,-229.828649
1438.420775,9400.615463,-4145.153275,0.000000
1438.421105,8956.491898,-5477.523971,-229.828649
1438.421434,9326.594869,-5403.503377,76.609550
1438.421764,9474.636058,-5625.565159,766.095498
1438.422093,9400.615463,-6143.709319,536.266849
1438.422422,8808.450710,-5403.503377,1455.581446
1438.422752,8438.347739,-5107.421000,1532.190996
1438.423081,8956.491898,-4737.318029,1762.019645
1438.423411,8808.450710,-4367.215058,2298.286494
1438.423740,9030.512492,-3552.988522,1838.629195
1438.424070,9474.636058,-3034.844362,1608.800546
1438.424399,9474.636058,-2220.617826,1608.800546
1438.424728,9548.656652,-1406.391290,459.657299
1438.425058,9474.636058,-1554.432478,-536.266849
1438.425387,9696.697840,-2368.659014,0.000000
1438.425717,9992.780217,-3182.885551,0.000000
1438.426046,9696.697840,-4737.318029,536.266849
1438.426375,9474.636058,-5255.462188,612.876398
1438.426705,8660.409521,-6809.894666,842.705048
1438.427034,7772.162391,-8512.368333,919.314598
1438.427364,6809.894666,-8808.450710,995.924147
1438.427693,6513.812290,-8734.430116,536.266849
1438.428023,6513.812290,-7328.038826,306.438199
1438.428352,6587.832884,-6365.771101,689.485948
1438.428681,7920.203579,-5033.400406,1302.362347
1438.429011,9252.574275,-3330.926739,1532.190996
1438.429340,9622.677246,-2368.659014,1532.190996
1438.429670,10214.842000,-962.267725,1915.238745
1438.429999,10140.821405,-1184.329507,1149.143247
1438.430329,10955.047942,296.082377,612.876398
1438.430658,11177.109724,-1554.432478,1149.143247
1438.430987,12509.480420,-1258.350101,1532.190996
1438.431317,12953.603985,-1702.473667,2145.067394
1438.431646,11991.336260,-3330.926739,2221.676944
1438.431976,10214.842000,-4737.318029,2068.457845
1438.432305,8290.306550,-7402.059420,1762.019645
1438.432634,6217.729913,-8734.430116,2221.676944
1438.432964,3923.091493,-9030.512492,-229.828649
1438.433293,3404.947333,-9030.512492,-612.876398
1438.433623,4367.215058,-8216.285956,-536.266849
1438.433952,6217.729913,-8290.306550,229.828649
1438.434282,8808.450710,-6883.915261,1762.019645
1438.434611,9400.615463,-3775.050304,1685.410096
1438.434940,9770.718434,-1850.514855,1072.533697
1438.435270,10214.842000,-666.185348,842.705048
1438.435599,11177.109724,592.164754,995.924147
1438.435929,12287.418637,-296.082377,842.705048
1438.436258,12805.562797,-592.164754,2145.067394
1438.436587,13323.706956,-1184.329507,2374.896044
1438.436917,13101.645173,-2812.782580,2451.505594
1438.437246,11473.192101,-3552.988522,2681.334243
1438.437576,8956.491898,-5699.585753,1685.410096
1438.437905,6883.915261,-7254.018232,919.314598
1438.438235,5255.462188,-7105.977043,0.000000
1438.438564,4441.235652,-7846.182985,-919.314598
1438.438893,3701.029710,-7550.100608,-995.924147
1438.439223,5477.523971,-5995.668130,-383.047749
1438.439552,8216.285956,-4219.173869,-383.047749
1438.439882,11177.109724,-3478.967927,1378.971896
1438.440211,12509.480420,-814.226536,2298.286494
1438.440540,12361.439231,-1776.494261,1838.629195
1438.440870,10955.047942,-2590.720797,1991.848295
1438.441199,9844.739029,-2294.638420,1915.238745
1438.441529,9918.759623,-4293.194464,459.657299
1438.441858,9326.594869,-5625.565159,1072.533697
1438.442188,8290.306550,-7328.038826,1685.410096
1438.442517,8438.347739,-8660.409521,1762.019645
1438.442846,8142.265362,-7105.977043,1838.629195
1438.443176,7031.956449,-5107.421000,459.657299
1438.443505,7105.977043,-2812.782580,-536.266849
1438.443835,8142.265362,-3330.926739,-229.828649
1438.444164,9104.533087,-3330.926739,612.876398
1438.444493,9474.636058,-2516.700203,766.095498
1438.444823,10584.944971,-1776.494261,1302.362347
1438.445152,11177.109724,-1332.370696,306.438199
1438.445482,11251.130318,-2664.741391,1378.971896
1438.445811,11103.089130,-4515.256246,1915.238745
1438.446141,10881.027347,-5921.647536,2298.286494
1438.446470,9326.594869,-5699.585753,1532.190996
1438.446799,7994.224174,-5477.523971,536.266849
1438.447129,7846.182985,-4515.256246,306.438199
1438.447458,7031.956449,-6957.935855,612.876398
1438.447788,5995.668130,-9400.615463,2528.115143
1438.448117,6809.894666,-7179.997637,1149.143247
1438.448447,6513.812290,-5181.441594,76.609550
1438.448776,6513.812290,-4515.256246,-153.219100
1438.449105,7624.121203,-5847.626942,153.219100
1438.449435,8512.368333,-5477.523971,1838.629195
1438.449764,9326.594869,-3330.926739,1225.752797
1438.450094,9770.718434,-592.164754,1455.581446
1438.450423,11103.089130,962.267725,536.266849
1438.450752,11695.253884,-1702.473667,1532.190996
1438.451082,10288.862594,-3701.029710,1762.019645
1438.451411,9918.759623,-4515.256246,919.314598
1438.451740,9770.718434,-4515.256246,842.705048
1438.452069,10288.862594,-4367.215058,1991.848295
1438.452398,10584.944971,-5847.626942,2068.457845
1438.452727,9696.697840,-5329.482782,1608.800546
1438.453056,7550.100608,-5625.565159,766.095498
1438.453385,7105.977043,-3627.009116,536.266849
1438.453714,7846.182985,-5921.647536,1455.581446
1438.454044,8068.244768,-5477.523971,689.485948
1438.454373,6217.729913,-4885.359217,-1225.752797
1438.454702,5995.668130,-6587.832884,-766.095498
1438.455031,7624.121203,-6143.709319,766.095498
1438.455360,9992.780217,-6661.853478,2451.505594
1438.455689,11029.068536,-4145.153275,1378.971896
1438.456018,9918.759623,-2590.720797,1072.533697
1438.456347,8512.368333,-5181.441594,306.438199
1438.456677,7105.977043,-8216.285956,1302.362347
1438.457006,6957.935855,-7254.018232,919.314598
1438.457335,7402.059420,-4441.235652,-612.876398
1438.457664,8216.285956,-4293.194464,842.705048
1438.457993,9178.553681,-6365.771101,2451.505594
1438.458322,9918.759623,-4959.379811,2987.772442
1438.458651,10140.821405,-2516.700203,1532.190996
1438.458980,10658.965565,-1110.308913,612.876398
1438.459309,9992.780217,-1776.494261,1608.800546
1438.459639,8882.471304,-4515.256246,1608.800546
1438.459968,7031.956449,-4885.359217,919.314598
1438.460297,6883.915261,-6365.771101,306.438199
1438.460626,7328.038826,-7105.977043,919.314598
1438.460955,7550.100608,-7105.977043,536.266849
1438.461284,7031.956449,-9252.574275,766.095498
1438.461613,6439.791695,-7328.038826,919.314598
1438.461942,5921.647536,-8586.388927,0.000000
1438.462271,4885.359217,-7328.038826,0.000000
1438.462601,4737.318029,-7105.977043,612.876398
1438.462930,6291.750507,-7550.100608,-153.219100
1438.463259,7105.977043,-6069.688724,306.438199
1438.463588,7105.977043,-5921.647536,1455.581446
1438.463917,8660.409521,-6661.853478,1915.238745
1438.464246,9622.677246,-5773.606348,1838.629195
1438.464575,7772.162391,-5921.647536,1302.362347
1438.464904,6957.935855,-5329.482782,689.485948
1438.465233,6809.894666,-4811.338623,153.219100
1438.465563,6957.935855,-6735.874072,1149.143247
1438.465892,7476.080014,-6513.812290,2374.896044
1438.466221,8734.430116,-5847.626942,2451.505594
1438.466550,8734.430116,-4737.318029,2068.457845
1438.466879,7105.977043,-4367.215058,2221.676944
1438.467208,6957.935855,-4515.256246,1532.190996
1438.467537,8142.265362,-3330.926739,919.314598
1438.467866,8216.285956,-3182.885551,1225.752797
1438.468196,7994.224174,-2886.803174,689.485948
1438.468525,7920.203579,-5033.400406,383.047749
1438.468854,7772.162391,-6661.853478,1455.581446
1438.469183,7476.080014,-8660.409521,842.705048
1438.469512,6661.853478,-9252.574275,306.438199
1438.469841,5625.565159,-9030.512492,689.485948
1438.470170,5551.544565,-9770.718434,919.314598
1438.470499,6291.750507,-7698.141797,1072.533697
1438.470828,6587.832884,-7772.162391,1532.190996
1438.471158,6587.832884,-8068.244768,1149.143247
1438.471487,5773.606348,-7476.080014,842.705048
1438.471816,4293.194464,-8734.430116,383.047749
1438.472145,3997.112087,-8512.368333,153.219100
1438.472474,3923.091493,-6291.750507,-76.609550
1438.472803,4885.359217,-5773.606348,0.000000
1438.473132,6957.935855,-6439.791695,995.924147
1438.473461,9622.677246,-4663.297435,1991.848295
1438.473790,10362.883188,-5329.482782,2604.724693
1438.474120,8882.471304,-7105.977043,2451.505594
1438.474449,6957.935855,-6513.812290,1072.533697
1438.474778,5329.482782,-7402.059420,536.266849
1438.475107,5847.626942,-7031.956449,612.876398
1438.475436,6735.874072,-6069.688724,1225.752797
1438.475765,8142.265362,-6957.935855,2911.162892
1438.476094,7920.203579,-6587.832884,1838.629195
1438.476423,6365.771101,-6809.894666,1072.533697
1438.476753,5033.400406,-5403.503377,-153.219100
1438.477082,4885.359217,-6217.729913,-459.657299
1438.477411,6069.688724,-7328.038826,536.266849
1438.477740,6809.894666,-6513.812290,1302.362347
1438.478069,8068.244768,-5847.626942,1762.019645
1438.478398,9178.553681,-4367.215058,1378.971896
1438.478727,8438.347739,-6365.771101,995.924147
1438.479056,7550.100608,-7476.080014,1762.019645
1438.479385,7402.059420,-7105.977043,306.438199
1438.479715,7402.059420,-6957.935855,995.924147
1438.480044,6809.894666,-6883.915261,612.876398
1438.480373,7179.997637,-7105.977043,1762.019645
1438.480702,8142.265362,-6439.791695,1532.190996
1438.481031,7328.038826,-6143.709319,1378.971896
1438.481360,5995.668130,-5329.482782,229.828649
1438.481689,5551.544565,-5551.544565,-766.095498
1438.482018,7254.018232,-6883.915261,1378.971896
1438.482347,8808.450710,-4589.276840,919.314598
1438.482677,9252.574275,-5033.400406,1455.581446
1438.483006,8586.388927,-4811.338623,1225.752797
1438.483335,8364.327145,-5477.523971,689.485948
1438.483664,7698.141797,-6809.894666,919.314598
1438.483993,6365.771101,-7328.038826,1302.362347
1438.484322,5551.544565,-8512.368333,306.438199
1438.484651,5551.544565,-7772.162391,612.876398
1438.484980,5847.626942,-8364.327145,1149.143247
1438.485309,7105.977043,-7105.977043,1838.629195
1438.485639,7920.203579,-5033.400406,2068.457845
1438.485968,7254.018232,-5847.626942,995.924147
1438.486297,5699.585753,-5699.585753,536.266849
1438.486626,5921.647536,-6809.894666,306.438199
1438.486955,6809.894666,-6883.915261,-536.266849
1438.487284,6661.853478,-5921.647536,459.657299
1438.487613,7105.977043,-6439.791695,612.876398
1438.487942,7994.224174,-5921.647536,612.876398
1438.488272,7402.059420,-6809.894666,536.266849
1438.488601,6513.812290,-6957.935855,383.047749
1438.488930,6661.853478,-8290.306550,919.314598
1438.489259,7031.956449,-9326.594869,1072.533697
1438.489588,6143.709319,-8882.471304,995.924147
1438.489917,5329.482782,-8290.306550,842.705048
1438.490246,6365.771101,-6217.729913,1072.533697
1438.490575,7920.203579,-5699.585753,1608.800546
1438.490904,8142.265362,-4737.318029,1225.752797
1438.491234,7254.018232,-4515.256246,1225.752797
1438.491563,7254.018232,-5255.462188,1608.800546
1438.491892,7402.059420,-5995.668130,1149.143247
1438.492221,7031.956449,-6291.750507,689.485948
1438.492550,7105.977043,-5773.606348,1532.190996
1438.492879,8142.265362,-5551.544565,1225.752797
1438.493208,7920.203579,-6661.853478,1378.971896
1438.493537,6735.874072,-7550.100608,1302.362347
1438.493866,6217.729913,-8586.388927,1149.143247
1438.494196,6809.894666,-8290.306550,1149.143247
1438.494525,5403.503377,-7105.977043,689.485948
1438.494854,5847.626942,-7476.080014,1991.848295
1438.495183,7550.100608,-6365.771101,1608.800546
1438.495512,7698.141797,-5329.482782,2451.505594
1438.495841,7031.956449,-3849.070898,1225.752797
1438.496170,6809.894666,-4219.173869,1149.143247
1438.496499,6735.874072,-5403.503377,229.828649
1438.496828,6661.853478,-4737.318029,0.000000
1438.497158,6735.874072,-6587.832884,689.485948
1438.497487,7920.203579,-6587.832884,1072.533697
1438.497816,8734.430116,-6957.935855,536.266849
1438.498145,7698.141797,-9178.553681,1991.848295
1438.498474,6217.729913,-8956.491898,1838.629195
1438.498803,5329.482782,-9252.574275,689.485948
1438.499132,4663.297435,-8808.450710,919.314598
1438.499461,3775.050304,-7624.121203,229.828649
1438.499791,6143.709319,-7105.977043,2145.067394
1438.500120,7624.121203,-5033.400406,2451.505594
1438.500449,7624.121203,-4663.297435,1302.362347
1438.500778,6957.935855,-4367.215058,459.657299
1438.501107,6439.791695,-4737.318029,459.657299
1438.501436,7105.977043,-5921.647536,306.438199
1438.501765,7550.100608,-5773.606348,919.314598
1438.502094,8290.306550,-5773.606348,1149.143247
1438.502423,9326.594869,-6809.894666,766.095498
1438.502753,8956.491898,-7328.038826,1915.238745
1438.503082,7772.162391,-8364.327145,1225.752797
1438.503411,6365.771101,-8882.471304,383.047749
1438.503740,5181.441594,-7994.224174,76.609550
1438.504069,4441.235652,-9252.574275,229.828649
1438.504398,5477.523971,-6809.894666,612.876398
1438.504727,6587.832884,-6365.771101,1455.581446
1438.505056,7624.121203,-6069.688724,1762.019645
1438.505385,7698.141797,-3627.009116,1302.362347
1438.505715,7476.080014,-3997.112087,919.314598
1438.506044,7920.203579,-4441.235652,842.705048
1438.506373,9178.553681,-4071.132681,1302.362347
1438.506702,9696.697840,-4737.318029,1838.629195
1438.507031,9474.636058,-4885.359217,1915.238745
1438.507360,9030.512492,-6217.729913,1762.019645
1438.507689,8068.244768,-7994.224174,1455.581446
1438.508018,6365.771101,-8808.450710,459.657299
1438.508348,4293.194464,-8882.471304,153.219100
1438.508677,3182.885551,-9178.553681,-306.438199
1438.509006,3923.091493,-9770.718434,612.876398
1438.509335,5255.462188,-7402.059420,766.095498
1438.509664,6661.853478,-6587.832884,1455.581446
1438.509993,7476.080014,-6291.750507,1915.238745
1438.510322,7328.038826,-5033.400406,919.314598
1438.510651,7254.018232,-4515.256246,689.485948
1438.510980,7772.162391,-4515.256246,995.924147
1438.511310,9104.533087,-4367.215058,766.095498
1438.511639,9104.533087,-4367.215058,1302.362347
1438.511968,8882.471304,-6143.709319,1455.581446
1438.512297,9104.533087,-6735.874072,1455.581446
1438.512626,7772.162391,-7550.100608,1378.971896
1438.512955,5329.482782,-9030.512492,1072.533697
1438.513284,4145.153275,-8660.409521,306.438199
1438.513613,3256.906145,-9326.594869,-383.047749
1438.513942,3404.947333,-8808.450710,995.924147
1438.514272,4515.256246,-7846.182985,689.485948
1438.514601,6143.709319,-5699.585753,536.266849
1438.514930,6069.688724,-5477.523971,1149.143247
1438.515259,7550.100608,-5551.544565,1532.190996
1438.515588,8956.491898,-4515.256246,1455.581446
1438.515917,9770.718434,-3701.029710,2221.676944
1438.516246,9622.677246,-4663.297435,2068.457845
1438.516575,9474.636058,-3923.091493,1302.362347
1438.516904,8734.430116,-4811.338623,689.485948
1438.517234,8290.306550,-7031.956449,1302.362347
1438.517563,7624.121203,-9400.615463,1762.019645
1438.517892,5995.668130,-9844.739029,919.314598
1438.518221,4071.132681,-10140.821405,766.095498
1438.518550,3478.967927,-8882.471304,229.828649
1438.518879,4441.235652,-7254.018232,536.266849
1438.519208,5329.482782,-7105.977043,842.705048
1438.519537,5995.668130,-6439.791695,1072.533697
1438.519867,6957.935855,-5625.565159,1302.362347
1438.520196,7920.203579,-4293.194464,919.314598
1438.520525,8068.244768,-3478.967927,1378.971896
1438.520854,9252.574275,-3404.947333,1838.629195
1438.521183,10658.965565,-4145.153275,1762.019645
1438.521512,10214.842000,-4367.215058,2528.115143
1438.521841,8734.430116,-5847.626942,1225.752797
1438.522170,6809.894666,-7698.141797,1072.533697
1438.522499,5107.421000,-8734.430116,0.000000
1438.522829,3775.050304,-10955.047942,0.000000
1438.523158,3330.926739,-11029.068536,612.876398
1438.523487,3923.091493,-10436.903782,459.657299
1438.523816,4145.153275,-8290.306550,1072.533697
1438.524145,5551.544565,-5255.462188,1378.971896
1438.524474,7179.997637,-5403.503377,1838.629195
1438.524803,7550.100608,-3478.967927,1608.800546
1438.525132,7402.059420,-3552.988522,1072.533697
1438.525461,8808.450710,-4071.132681,1455.581446
1438.525791,9696.697840,-3108.864956,1149.143247
1438.526120,9252.574275,-4515.256246,1149.143247
1438.526449,8882.471304,-5699.585753,1762.019645
1438.526778,8956.491898,-7179.997637,1608.800546
1438.527107,8290.306550,-9474.636058,1762.019645
1438.527436,6143.709319,-9844.739029,1072.533697
1438.527765,4219.173869,-9548.656652,-229.828649
1438.528094,3182.885551,-9696.697840,76.609550
1438.528424,3182.885551,-9992.780217,-383.047749
1438.528753,4071.132681,-8364.327145,842.705048
1438.529082,5329.482782,-7031.956449,689.485948
1438.529411,6587.832884,-6513.812290,1532.190996
1438.529740,6587.832884,-4071.132681,842.705048
1438.530069,7402.059420,-4219.173869,612.876398
1438.530398,9474.636058,-3330.926739,1378.971896
1438.530727,10214.842000,-4071.132681,1991.848295
1438.531056,10140.821405,-4737.318029,2221.676944
1438.531386,10658.965565,-3775.050304,2145.067394
1438.531715,10214.842000,-6365.771101,2068.457845
1438.532044,7920.203579,-8586.388927,1225.752797
1438.532373,6143.709319,-9918.759623,2374.896044
1438.532702,4737.318029,-9622.677246,229.828649
1438.533031,4663.297435,-8438.347739,229.828649
1438.533360,4071.132681,-8216.285956,689.485948
1438.533689,4737.318029,-6143.709319,0.000000
1438.534018,4737.318029,-4663.297435,0.000000
1438.534348,5625.565159,-5551.544565,842.705048
1438.534677,7179.997637,-4737.318029,1072.533697
1438.535006,8586.388927,-3256.906145,1302.362347
1438.535335,9548.656652,-3849.070898,1838.629195
1438.535664,9622.677246,-2516.700203,1608.800546
1438.535993,9696.697840,-4145.153275,1762.019645
1438.536322,9474.636058,-6143.709319,2068.457845
1438.536651,7994.224174,-7105.977043,1149.143247
1438.536980,6735.874072,-8660.409521,1149.143247
1438.537310,5403.503377,-10436.903782,766.095498
1438.537639,4219.173869,-9696.697840,-229.828649
1438.537968,3182.885551,-9622.677246,229.828649
1438.538297,4293.194464,-9178.553681,536.266849
1438.538626,6365.771101,-6217.729913,536.266849
1438.538955,6513.812290,-4885.359217,766.095498
1438.539284,6513.812290,-4737.318029,229.828649
1438.539613,7254.018232,-4737.318029,689.485948
1438.539943,8216.285956,-4367.215058,0.000000
1438.540272,8734.430116,-4145.153275,1072.533697
1438.540601,10214.842000,-3775.050304,1915.238745
1438.540930,10510.924376,-3923.091493,1991.848295
1438.541259,9400.615463,-6957.935855,1915.238745
1438.541588,8586.388927,-9326.594869,1991.848295
1438.541917,7179.997637,-7920.203579,1532.190996
1438.542246,5551.544565,-9844.739029,919.314598
1438.542575,4959.379811,-9770.718434,1072.533697
1438.542905,5255.462188,-8364.327145,0.000000
1438.543234,5107.421000,-9030.512492,153.219100
1438.543563,4959.379811,-7254.018232,306.438199
1438.543892,4959.379811,-7179.997637,76.609550
1438.544221,5921.647536,-5625.565159,229.828649
1438.544550,6439.791695,-4441.235652,459.657299
1438.544879,7698.141797,-4515.256246,689.485948
1438.545208,8438.347739,-2368.659014,995.924147
1438.545537,9844.739029,-4145.153275,919.314598
1438.545867,11029.068536,-3923.091493,2068.457845
1438.546196,9622.677246,-5181.441594,2834.553343
1438.546525,8586.388927,-8512.368333,2298.286494
1438.546854,6587.832884,-8586.388927,1455.581446
1438.547183,5255.462188,-9474.636058,766.095498
1438.547512,4589.276840,-9400.615463,-229.828649
1438.547841,4293.194464,-8660.409521,153.219100
1438.548170,4811.338623,-8142.265362,689.485948
1438.548499,5033.400406,-7254.018232,229.828649
1438.548829,4515.256246,-6069.688724,-76.609550
1438.549158,4959.379811,-5181.441594,153.219100
1438.549487,6217.729913,-4885.359217,612.876398
1438.549816,8438.347739,-3404.947333,1378.971896
1438.550145,9770.718434,-2294.638420,1685.410096
1438.550474,10658.965565,-3108.864956,2374.896044
1438.550803,11769.274478,-2812.782580,2911.162892
1438.551132,10066.800811,-6217.729913,2757.943793
1438.551462,8216.285956,-8216.285956,1991.848295
1438.551791,5921.647536,-8068.244768,1225.752797
1438.552120,5107.421000,-10436.903782,995.924147
1438.552449,4441.235652,-9844.739029,383.047749
1438.552778,3775.050304,-9400.615463,536.266849
1438.553107,4219.173869,-9104.533087,76.609550
1438.553437,4367.215058,-7179.997637,-229.828649
1438.553766,4367.215058,-5921.647536,0.000000
1438.554095,5921.647536,-5033.400406,689.485948
1438.554424,7846.182985,-4737.318029,766.095498
1438.554754,9474.636058,-2368.659014,842.705048
1438.555083,9548.656652,-3182.885551,1302.362347
1438.555412,10955.047942,-4737.318029,2528.115143
1438.555741,11991.336260,-5329.482782,2451.505594
1438.556071,10066.800811,-6883.915261,2604.724693
1438.556400,7105.977043,-8438.347739,1915.238745
1438.556729,5847.626942,-9474.636058,76.609550
1438.557059,4515.256246,-10066.800811,306.438199
1438.557388,4293.194464,-10584.944971,766.095498
1438.557717,4515.256246,-10288.862594,995.924147
1438.558046,4515.256246,-7328.038826,-612.876398
1438.558376,2960.823768,-9252.574275,0.000000
1438.558705,3627.009116,-6439.791695,-459.657299
1438.559034,5921.647536,-4737.318029,-76.609550
1438.559363,7328.038826,-4367.215058,1072.533697
1438.559693,8512.368333,-2812.782580,842.705048
1438.560022,10288.862594,-2368.659014,1762.019645
1438.560351,11769.274478,-3108.864956,2298.286494
1438.560681,11103.089130,-5033.400406,2834.553343
1438.561010,10140.821405,-5921.647536,2911.162892
1438.561339,9252.574275,-7624.121203,1991.848295
1438.561668,7328.038826,-9252.574275,1225.752797
1438.561998,4959.379811,-9178.553681,1149.143247
1438.562327,4071.132681,-9844.739029,612.876398
1438.562656,4737.318029,-8586.388927,229.828649
1438.562985,4071.132681,-7846.182985,-229.828649
1438.563315,3182.885551,-8068.244768,-306.438199
1438.563644,4367.215058,-6143.709319,-306.438199
1438.563973,6291.750507,-5255.462188,383.047749
1438.564303,7105.977043,-3627.009116,766.095498
1438.564632,8660.409521,-2886.803174,1149.143247
1438.564961,10658.965565,-2072.576638,1608.800546
1438.565290,11325.150913,-3552.988522,2681.334243
1438.565620,11251.130318,-5625.565159,3677.258390
1438.565949,10658.965565,-5847.626942,3064.381992
1438.566278,8956.491898,-7105.977043,2068.457845
1438.566607,6513.812290,-9104.533087,1532.190996
1438.566937,5107.421000,-9770.718434,766.095498
1438.567266,4145.153275,-10288.862594,1072.533697
1438.567595,2812.782580,-9770.718434,306.438199
1438.567925,1776.494261,-9400.615463,-1072.533697
1438.568254,1776.494261,-8068.244768,-1762.019645
1438.568583,3108.864956,-7031.956449,-383.047749
1438.568912,5773.606348,-6365.771101,0.000000
1438.569242,7476.080014,-3627.009116,536.266849
1438.569571,9770.718434,-2738.761985,1302.362347
1438.569900,12065.356855,-3108.864956,2221.676944
1438.570230,12583.501014,-3404.947333,2911.162892
1438.570559,10881.027347,-6513.812290,2834.553343
1438.570888,9844.739029,-7624.121203,2911.162892
1438.571217,7772.162391,-8142.265362,1302.362347
1438.571547,5477.523971,-9548.656652,1455.581446
1438.571876,4663.297435,-9622.677246,689.485948
1438.572205,4589.276840,-9844.739029,766.095498
1438.572534,4441.235652,-8512.368333,153.219100
1438.572864,2812.782580,-8068.244768,-919.314598
1438.573193,2368.659014,-6883.915261,-383.047749
1438.573522,4293.194464,-5921.647536,0.000000
1438.573852,6365.771101,-5403.503377,229.828649
1438.574181,7920.203579,-2664.741391,306.438199
1438.574510,9178.553681,-3182.885551,1149.143247
1438.574839,11251.130318,-3330.926739,2451.505594
1438.575169,12065.356855,-4737.318029,3294.210641
1438.575498,11843.295072,-6217.729913,3524.039291
1438.575827,10066.800811,-5329.482782,2911.162892
1438.576156,7550.100608,-6735.874072,1532.190996
1438.576486,5773.606348,-7772.162391,1455.581446
1438.576815,5403.503377,-9030.512492,995.924147
1438.577144,5255.462188,-8808.450710,842.705048
1438.577474,3701.029710,-7698.141797,459.657299
1438.577803,3182.885551,-7179.997637,-383.047749
1438.578132,3997.112087,-6291.750507,-766.095498
1438.578461,4959.379811,-6143.709319,153.219100
1438.578791,5847.626942,-5181.441594,0.000000
1438.579120,7402.059420,-3775.050304,383.047749
1438.579449,9474.636058,-3701.029710,1455.581446
1438.579778,10436.903782,-4589.276840,1838.629195
1438.580108,10732.986159,-5995.668130,3064.381992
1438.580437,10214.842000,-7031.956449,3370.820191
1438.580766,8734.430116,-6587.832884,2987.772442
1438.581096,7328.038826,-7698.141797,1608.800546
1438.581425,5847.626942,-7772.162391,1225.752797
1438.581754,5477.523971,-9326.594869,1149.143247
1438.582083,4515.256246,-10436.903782,612.876398
1438.582413,2368.659014,-9474.636058,0.000000
1438.582742,1776.494261,-8660.409521,-1149.143247
1438.583071,2294.638420,-7328.038826,-1762.019645
1438.583400,4293.194464,-6143.709319,-383.047749
1438.583730,6587.832884,-5773.606348,76.609550
1438.584059,8808.450710,-4293.194464,306.438199
1438.584388,10658.965565,-4293.194464,1455.581446
1438.584718,11399.171507,-3478.967927,2145.067394
1438.585047,10955.047942,-5551.544565,2681.334243
1438.585376,10066.800811,-6587.832884,2298.286494
1438.585705,8660.409521,-8290.306550,2221.676944
1438.586035,7550.100608,-8068.244768,2451.505594
1438.586364,7105.977043,-7254.018232,1685.410096
1438.586693,6883.915261,-7550.100608,1991.848295
1438.587022,5033.400406,-6217.729913,1225.752797
1438.587352,3108.864956,-7550.100608,-612.876398
1438.587681,3404.947333,-5921.647536,459.657299
1438.588010,4663.297435,-5625.565159,0.000000
1438.588340,6439.791695,-4811.338623,0.000000
1438.588669,7328.038826,-2294.638420,842.705048
1438.588998,8808.450710,-3478.967927,536.266849
1438.589327,10066.800811,-3997.112087,1455.581446
1438.589657,9918.759623,-4959.379811,2834.553343
1438.589986,9622.677246,-7254.018232,2528.115143
1438.590315,7994.224174,-7105.977043,1532.190996
1438.590644,5921.647536,-9252.574275,1532.190996
1438.590974,5773.606348,-8586.388927,536.266849
1438.591303,6587.832884,-9326.594869,2374.896044
1438.591632,7328.038826,-7772.162391,2068.457845
1438.591962,6883.915261,-7031.956449,1225.752797
1438.592291,5551.544565,-6661.853478,306.438199
1438.592620,5033.400406,-5699.585753,-306.438199
1438.592949,4737.318029,-6661.853478,-383.047749
1438.593279,4737.318029,-5329.482782,-153.219100
1438.593608,6143.709319,-3849.070898,-612.876398
1438.593937,7772.162391,-3997.112087,306.438199
1438.594266,9400.615463,-5699.585753,2068.457845
1438.594596,8956.491898,-6957.935855,1762.019645
1438.594925,7550.100608,-7920.203579,1915.238745
1438.595254,6735.874072,-9252.574275,1915.238745
1438.595584,6365.771101,-9326.594869,1302.362347
1438.595913,6439.791695,-8956.491898,1838.629195
1438.596242,6291.750507,-9400.615463,1915.238745
1438.596571,6957.935855,-7772.162391,1302.362347
1438.596901,6439.791695,-7846.182985,919.314598
1438.597230,5107.421000,-5921.647536,306.438199
1438.597559,5403.503377,-5107.421000,76.609550
1438.597889,6069.688724,-4589.276840,229.828649
1438.598218,5773.606348,-4145.153275,-536.266849
1438.598547,6513.812290,-4071.132681,689.485948
1438.598876,8956.491898,-3478.967927,842.705048
1438.599206,9696.697840,-5329.482782,1302.362347
1438.599535,8956.491898,-6291.750507,2068.457845
1438.599864,8364.327145,-7624.121203,1608.800546
1438.600193,7624.121203,-8512.368333,1455.581446
1438.600523,6883.915261,-9104.533087,2145.067394
1438.600852,7772.162391,-8586.388927,2374.896044
1438.601181,8882.471304,-6365.771101,2374.896044
1438.601511,7624.121203,-6661.853478,1455.581446
1438.601840,5477.523971,-5551.544565,1225.752797
1438.602169,5181.441594,-4737.318029,383.047749
1438.602498,6365.771101,-3997.112087,536.266849
1438.602828,6291.750507,-4663.297435,76.609550
1438.603157,6069.688724,-4737.318029,689.485948
1438.603486,7328.038826,-3923.091493,995.924147
1438.603815,7550.100608,-4959.379811,536.266849
1438.604145,7328.038826,-7402.059420,1378.971896
1438.604474,7698.141797,-7550.100608,1608.800546
1438.604803,8512.368333,-8512.368333,919.314598
1438.605133,7476.080014,-9400.615463,1838.629195
1438.605462,6513.812290,-9844.739029,2298.286494
1438.605791,7328.038826,-9178.553681,1532.190996
1438.606120,6291.750507,-7105.977043,842.705048
1438.606450,4959.379811,-7402.059420,306.438199
1438.606779,5181.441594,-6513.812290,153.219100
1438.607108,5921.647536,-4885.359217,0.000000
1438.607437,5995.668130,-5329.482782,383.047749
1438.607767,6735.874072,-5329.482782,1072.533697
1438.608096,7105.977043,-3478.967927,919.314598
1438.608425,7328.038826,-4293.194464,76.609550
1438.608755,7920.203579,-6069.688724,612.876398
1438.609084,8660.409521,-6439.791695,1532.190996
1438.609413,8216.285956,-7920.203579,1838.629195
1438.609742,7402.059420,-9844.739029,2145.067394
1438.610072,7031.956449,-7846.182985,1685.410096
1438.610401,6439.791695,-8808.450710,1455.581446
1438.610730,6291.750507,-7994.224174,1685.410096
1438.611059,7105.977043,-5921.647536,1302.362347
1438.611389,5625.565159,-6883.915261,1072.533697
1438.611718,5329.482782,-5477.523971,536.266849
1438.612047,6217.729913,-5403.503377,459.657299
1438.612377,6735.874072,-4885.359217,536.266849
1438.612706,7179.997637,-3627.009116,1149.143247
1438.613035,8512.368333,-4737.318029,842.705048
1438.613364,9326.594869,-4737.318029,1608.800546
1438.613694,8586.388927,-6291.750507,1302.362347
1438.614023,7994.224174,-7179.997637,1302.362347
1438.614352,7105.977043,-7402.059420,1378.971896
1438.614681,6809.894666,-9030.512492,1072.533697
1438.615011,6439.791695,-8660.409521,1225.752797
1438.615340,6217.729913,-9474.636058,2298.286494
1438.615669,7328.038826,-6661.853478,1302.362347
1438.615999,7105.977043,-5329.482782,842.705048
1438.616328,4885.359217,-6143.709319,153.219100
1438.616657,4737.318029,-5107.421000,153.219100
1438.616986,5699.585753,-6661.853478,0.000000
1438.617316,6439.791695,-5921.647536,1149.143247
1438.617645,6883.915261,-5847.626942,689.485948
1438.617974,7920.203579,-5699.585753,842.705048
1438.618303,7994.224174,-5329.482782,766.095498
1438.618633,7328.038826,-8734.430116,2374.896044
1438.618962,7105.977043,-7550.100608,1455.581446
1438.619291,6735.874072,-7031.956449,1072.533697
1438.619621,6587.832884,-8734.430116,842.705048
1438.619950,6809.894666,-8290.306550,2068.457845
1438.620279,6957.935855,-7031.956449,1991.848295
1438.620608,7179.997637,-5847.626942,1072.533697
1438.620938,6217.729913,-5699.585753,1225.752797
1438.621267,5995.668130,-5699.585753,612.876398
1438.621596,5699.585753,-6143.709319,842.705048
1438.621925,5329.482782,-5107.421000,306.438199
1438.622255,5773.606348,-5255.462188,-229.828649
1438.622584,7624.121203,-5477.523971,1608.800546
1438.622913,9104.533087,-6069.688724,2374.896044
1438.623243,9326.594869,-6439.791695,1838.629195
1438.623572,7920.203579,-6809.894666,1915.238745
1438.623901,7476.080014,-7624.121203,1532.190996
1438.624230,7254.018232,-7105.977043,842.705048
1438.624560,6217.729913,-7920.203579,2068.457845
1438.624889,7624.121203,-7994.224174,1991.848295
1438.625218,7402.059420,-6069.688724,1608.800546
1438.625548,6439.791695,-4959.379811,919.314598
1438.625877,5255.462188,-6661.853478,229.828649
1438.626206,5773.606348,-5477.523971,1072.533697
1438.626535,5995.668130,-5995.668130,536.266849
1438.626865,6291.750507,-6217.729913,459.657299
1438.627194,7031.956449,-5699.585753,1072.533697
1438.627523,7846.182985,-5181.441594,0.000000
1438.627852,8364.327145,-6661.853478,1532.190996
1438.628182,7994.224174,-8734.430116,2145.067394
1438.628511,7846.182985,-8364.327145,1302.362347
1438.628840,6735.874072,-7772.162391,919.314598
1438.629170,5847.626942,-8068.244768,612.876398
1438.629499,5551.544565,-7179.997637,0.000000
1438.629828,6439.791695,-7624.121203,842.705048
1438.630157,7179.997637,-6143.709319,1225.752797
1438.630487,7179.997637,-5477.523971,766.095498
1438.630816,6735.874072,-5773.606348,1991.848295
1438.631145,6217.729913,-4885.359217,612.876398
1438.631474,6291.750507,-5181.441594,-536.266849
1438.631804,6661.853478,-5625.565159,459.657299
1438.632133,7624.121203,-6661.853478,1225.752797
1438.632462,8808.450710,-5625.565159,1608.800546
1438.632792,8586.388927,-6439.791695,2145.067394
1438.633121,7328.038826,-7846.182985,1149.143247
1438.633450,6365.771101,-8808.450710,536.266849
1438.633779,6069.688724,-8734.430116,1608.800546
1438.634109,6291.750507,-8290.306550,1302.362347
1438.634438,6587.832884,-7031.956449,1225.752797
1438.634767,6291.750507,-5847.626942,1378.971896
1438.635096,7105.977043,-4959.379811,153.219100
1438.635426,7476.080014,-5329.482782,383.047749
1438.635755,6513.812290,-5625.565159,1378.971896
1438.636084,7328.038826,-5107.421000,842.705048
1438.636414,8068.244768,-4663.297435,536.266849
1438.636743,7254.018232,-3552.988522,0.000000
1438.637072,7328.038826,-6883.915261,842.705048
1438.637401,8882.471304,-6439.791695,1532.190996
1438.637731,8364.327145,-8512.368333,1455.581446
1438.638060,7179.997637,-8956.491898,1455.581446
1438.638389,6735.874072,-8438.347739,1838.629195
1438.638718,5773.606348,-9326.594869,689.485948
1438.639048,5255.462188,-8660.409521,766.095498
1438.639377,6217.729913,-7254.018232,1608.800546
1438.639706,7698.141797,-5107.421000,919.314598
1438.640036,7550.100608,-4219.173869,459.657299
1438.640365,5921.647536,-4885.359217,1149.143247
1438.640694,6661.853478,-4663.297435,459.657299
1438.641023,7031.956449,-5255.462188,536.266849
1438.641353,7179.997637,-3997.112087,1072.533697
1438.641682,8364.327145,-4367.215058,229.828649
1438.642011,9178.553681,-5551.544565,2068.457845
1438.642340,9326.594869,-6513.812290,2068.457845
1438.642670,8512.368333,-7402.059420,1378.971896
1438.642999,6809.894666,-7254.018232,995.924147
1438.643328,5329.482782,-9622.677246,536.266849
1438.643658,4959.379811,-10732.986159,842.705048
1438.643987,4367.215058,-8808.450710,76.609550
1438.644316,4737.318029,-8216.285956,842.705048
1438.644645,6735.874072,-6883.915261,1225.752797
1438.644975,6809.894666,-5773.606348,306.438199
1438.645304,6069.688724,-5699.585753,536.266849
1438.645633,6439.791695,-4219.173869,689.485948
1438.645962,7179.997637,-3627.009116,459.657299
1438.646292,7254.018232,-3552.988522,383.047749
1438.646621,8882.471304,-4663.297435,1532.190996
1438.646950,10362.883188,-5181.441594,2298.286494
1438.647280,9918.759623,-5625.565159,2834.553343
1438.647609,8142.265362,-7254.018232,2681.334243
1438.647938,7031.956449,-7994.224174,1991.848295
1438.648267,5625.565159,-9030.512492,766.095498
1438.648597,3404.947333,-9622.677246,689.485948
1438.648926,3330.926739,-8882.471304,459.657299
1438.649255,4811.338623,-8586.388927,766.095498
1438.649585,6439.791695,-6513.812290,1762.019645
1438.649914,7179.997637,-5255.462188,766.095498
1438.650243,6957.935855,-4737.318029,995.924147
1438.650572,7105.977043,-4811.338623,842.705048
1438.650902,8290.306550,-3923.091493,536.266849
1438.651231,8882.471304,-2738.761985,1225.752797
1438.651560,9770.718434,-3552.988522,1149.143247
1438.651889,9918.759623,-5107.421000,2681.334243
1438.652219,9178.553681,-6735.874072,2145.067394
1438.652548,7402.059420,-9030.512492,1685.410096
1438.652877,6143.709319,-9400.615463,842.705048
1438.653207,5329.482782,-9696.697840,766.095498
1438.653536,5255.462188,-10658.965565,1302.362347
1438.653865,5033.400406,-10066.800811,612.876398
1438.654194,4515.256246,-8068.244768,306.438199
1438.654524,4441.235652,-6291.750507,-153.219100
1438.654853,4737.318029,-6439.791695,536.266849
1438.655182,6735.874072,-5181.441594,536.266849
1438.655512,6735.874072,-4737.318029,689.485948
1438.655841,7105.977043,-4219.173869,919.314598
1438.656170,8290.306550,-3923.091493,689.485948
1438.656499,9252.574275,-4293.194464,1838.629195
1438.656829,9844.739029,-4293.194464,1915.238745
1438.657158,9252.574275,-7105.977043,2145.067394
1438.657487,8216.285956,-8882.471304,2451.505594
1438.657817,6143.709319,-8586.388927,1149.143247
1438.658146,5921.647536,-9548.656652,76.609550
1438.658475,5551.544565,-8734.430116,459.657299
1438.658804,6143.709319,-8438.347739,1149.143247
1438.659134,6809.894666,-6809.894666,919.314598
1438.659463,6513.812290,-5403.503377,536.266849
1438.659792,6365.771101,-5033.400406,919.314598
1438.660122,6365.771101,-3552.988522,0.000000
1438.660451,6513.812290,-3478.967927,229.828649
1438.660780,7105.977043,-3330.926739,306.438199
1438.661109,9030.512492,-3849.070898,1915.238745
1438.661439,10584.944971,-4663.297435,2374.896044
1438.661768,10362.883188,-5107.421000,2451.505594
1438.662097,9178.553681,-7772.162391,2298.286494
1438.662427,7772.162391,-7994.224174,2068.457845
1438.662756,6291.750507,-8956.491898,842.705048
1438.663085,5255.462188,-10066.800811,842.705048
1438.663414,5403.503377,-9474.636058,919.314598
1438.663744,5625.565159,-8808.450710,995.924147
1438.664073,5477.523971,-6439.791695,383.047749
1438.664402,5329.482782,-6365.771101,0.000000
1438.664731,5329.482782,-6069.688724,-153.219100
1438.665061,5699.585753,-4885.359217,76.609550
1438.665390,6291.750507,-4737.318029,76.609550
1438.665719,7179.997637,-3701.029710,689.485948
1438.666049,8512.368333,-4885.359217,1149.143247
1438.666378,9178.553681,-5255.462188,1455.581446
1438.666707,8438.347739,-6735.874072,2145.067394
1438.667036,8216.285956,-9474.636058,1608.800546
1438.667366,6957.935855,-9252.574275,1608.800546
1438.667695,5921.647536,-9104.533087,1225.752797
1438.668024,5995.668130,-9548.656652,1149.143247
1438.668354,6365.771101,-8808.450710,766.095498
1438.668683,5921.647536,-7550.100608,1225.752797
1438.669012,5551.544565,-6291.750507,995.924147
1438.669341,5699.585753,-5329.482782,459.657299
1438.669671,6143.709319,-4515.256246,153.219100
1438.670000,6735.874072,-3256.906145,153.219100
1438.670329,7254.018232,-3478.967927,0.000000
1438.670659,8290.306550,-3701.029710,1685.410096
1438.670988,9252.574275,-4145.153275,2374.896044
1438.671317,9474.636058,-5773.606348,2221.676944
1438.671646,8068.244768,-5995.668130,2451.505594
1438.671976,6809.894666,-8364.327145,1378.971896
1438.672305,6439.791695,-9474.636058,1225.752797
1438.672634,5921.647536,-9918.759623,1072.533697
1438.672964,5995.668130,-10362.883188,1455.581446
1438.673293,6439.791695,-8364.327145,1149.143247
1438.673622,6143.709319,-9030.512492,1072.533697
1438.673951,6143.709319,-5255.462188,459.657299
1438.674281,5181.441594,-6587.832884,-76.609550
1438.674610,5107.421000,-6143.709319,536.266849
1438.674939,6291.750507,-3330.926739,0.000000
1438.675269,7550.100608,-3775.050304,766.095498
1438.675598,7624.121203,-3552.988522,1149.143247
1438.675927,7698.141797,-5403.503377,1455.581446
1438.676256,8512.368333,-5329.482782,2528.115143
1438.676586,7772.162391,-8216.285956,1838.629195
1438.676915,7179.997637,-8956.491898,2834.553343
1438.677244,6365.771101,-8660.409521,1991.848295
1438.677574,5921.647536,-10066.800811,842.705048
1438.677903,5625.565159,-10140.821405,1762.019645
1438.678232,6365.771101,-8512.368333,1225.752797
1438.678561,7179.997637,-7328.038826,1072.533697
1438.678891,6143.709319,-5329.482782,536.266849
1438.679220,4885.359217,-5329.482782,153.219100
1438.679549,6143.709319,-4367.215058,-536.266849
1438.679879,6069.688724,-3701.029710,153.219100
1438.680208,7624.121203,-2368.659014,536.266849
1438.680537,9696.697840,-2960.823768,1532.190996
1438.680866,9696.697840,-3849.070898,2298.286494
1438.681196,8956.491898,-6069.688724,2068.457845
1438.681525,7476.080014,-8216.285956,1915.238745
1438.681854,6809.894666,-9252.574275,1532.190996
1438.682184,7105.977043,-9992.780217,1149.143247
1438.682513,7402.059420,-9252.574275,2298.286494
1438.682842,8142.265362,-9474.636058,2374.896044
1438.683171,7179.997637,-7920.203579,2068.457845
1438.683501,6069.688724,-6291.750507,842.705048
1438.683830,5329.482782,-5921.647536,-995.924147
1438.684159,4663.297435,-5107.421000,-383.047749
1438.684489,4737.318029,-5847.626942,383.047749
1438.684818,5995.668130,-3923.091493,-383.047749
1438.685147,5995.668130,-3552.988522,229.828649
1438.685476,8142.265362,-5329.482782,1608.800546
1438.685806,9696.697840,-4589.276840,1149.143247
1438.686135,9104.533087,-7179.997637,2374.896044
1438.686464,7772.162391,-8290.306550,1915.238745
1438.686793,8142.265362,-9252.574275,1685.410096
1438.687123,8586.388927,-9326.594869,2528.115143
1438.687452,7254.018232,-8364.327145,1608.800546
1438.687781,6587.832884,-8956.491898,1302.362347
1438.688111,6587.832884,-8068.244768,1225.752797
1438.688440,6217.729913,-6513.812290,459.657299
1438.688769,4737.318029,-6587.832884,153.219100
1438.689098,4663.297435,-5477.523971,153.219100
1438.689428,5403.503377,-4367.215058,-689.485948
1438.689757,5107.421000,-4441.235652,-306.438199
1438.690086,6735.874072,-3182.885551,612.876398
1438.690416,8512.368333,-4219.173869,1455.581446
1438.690745,9844.739029,-4663.297435,1685.410096
1438.691074,9178.553681,-7550.100608,2145.067394
1438.691403,8586.388927,-9252.574275,2451.505594
1438.691733,7994.224174,-8512.368333,2221.676944
1438.692062,7105.977043,-9252.574275,1838.629195
1438.692391,6735.874072,-8956.491898,1302.362347
1438.692721,6587.832884,-7920.203579,1991.848295
1438.693050,6217.729913,-6735.874072,1072.533697
1438.693379,4441.235652,-7105.977043,-536.266849
1438.693708,4145.153275,-6069.688724,-306.438199
1438.694038,5699.585753,-4737.318029,-459.657299
1438.694367,6587.832884,-3775.050304,-229.828649
1438.694696,7846.182985,-3108.864956,612.876398
1438.695026,9400.615463,-4367.215058,1455.581446
1438.695355,10362.883188,-3552.988522,1915.238745
1438.695684,9400.615463,-5921.647536,2451.505594
1438.696013,7476.080014,-7402.059420,2374.896044
1438.696343,6365.771101,-8882.471304,1838.629195
1438.696672,5847.626942,-9252.574275,1072.533697
1438.697001,6513.812290,-10066.800811,1302.362347
1438.697331,7994.224174,-9696.697840,3294.210641
1438.697660,8734.430116,-6957.935855,2298.286494
1438.697989,7105.977043,-5921.647536,459.657299
1438.698318,4663.297435,-5255.462188,0.000000
1438.698648,3552.988522,-6069.688724,-1072.533697
1438.698977,4367.215058,-5625.565159,-842.705048
1438.699306,4663.297435,-6069.688724,0.000000
1438.699636,7179.997637,-4367.215058,229.828649
1438.699965,10140.821405,-4737.318029,1532.190996
1438.700294,10807.006753,-5181.441594,2911.162892
1438.700623,9252.574275,-5847.626942,2451.505594
1438.700953,7994.224174,-6143.709319,2451.505594
1438.701282,7105.977043,-6143.709319,1225.752797
1438.701611,6735.874072,-7550.100608,1378.971896
1438.701941,6883.915261,-8290.306550,1762.019645
1438.702270,7550.100608,-9030.512492,1685.410096
1438.702599,7698.141797,-7994.224174,1685.410096
1438.702928,6513.812290,-7328.038826,842.705048
1438.703258,5329.482782,-7031.956449,-306.438199
1438.703587,5255.462188,-6365.771101,153.219100
1438.703916,4885.359217,-7402.059420,76.609550
1438.704246,5773.606348,-5181.441594,-229.828649
1438.704575,6587.832884,-4145.153275,-306.438199
1438.704904,7550.100608,-4589.276840,1532.190996
1438.705233,8956.491898,-5477.523971,1302.362347
1438.705563,8364.327145,-6883.915261,2298.286494
1438.705892,8142.265362,-7105.977043,2451.505594
1438.706221,7105.977043,-8882.471304,2145.067394
1438.706551,6883.915261,-7031.956449,2451.505594
1438.706880,6439.791695,-8142.265362,1915.238745
1438.707209,6513.812290,-8438.347739,2145.067394
1438.707538,7105.977043,-5847.626942,1378.971896
1438.707868,6143.709319,-7698.141797,689.485948
1438.708197,5847.626942,-6291.750507,1072.533697
1438.708526,5921.647536,-5403.503377,76.609550
1438.708855,6661.853478,-5329.482782,0.000000
1438.709185,6513.812290,-3849.070898,153.219100
1438.709514,7698.141797,-4737.318029,995.924147
1438.709843,8956.491898,-4219.173869,689.485948
1438.710173,8660.409521,-4811.338623,1685.410096
1438.710502,7698.141797,-6439.791695,1532.190996
1438.710831,7994.224174,-6809.894666,1991.848295
1438.711160,7105.977043,-8882.471304,1608.800546
1438.711490,6809.894666,-10066.800811,2298.286494
1438.711819,7550.100608,-8142.265362,2451.505594
1438.712148,7698.141797,-7994.224174,1762.019645
1438.712478,6291.750507,-7994.224174,1149.143247
1438.712807,4737.318029,-7254.018232,842.705048
1438.713136,4145.153275,-7105.977043,-306.438199
1438.713465,4441.235652,-5329.482782,-1302.362347
1438.713795,4589.276840,-6513.812290,0.000000
1438.714124,7031.956449,-4441.235652,306.438199
1438.714453,7624.121203,-5107.421000,76.609550
1438.714783,7920.203579,-5255.462188,1072.533697
1438.715112,7920.203579,-6217.729913,995.924147
1438.715441,8290.306550,-6587.832884,612.876398
1438.715770,6957.935855,-8364.327145,1455.581446
1438.716100,5921.647536,-9770.718434,766.095498
1438.716429,7254.018232,-9474.636058,1762.019645
1438.716758,8438.347739,-8290.306550,2221.676944
1438.717088,8660.409521,-7328.038826,2374.896044
1438.717417,7328.038826,-6069.688724,1532.190996
1438.717746,5995.668130,-5477.523971,229.828649
1438.718075,5255.462188,-4589.276840,-306.438199
1438.718405,4959.379811,-4737.318029,306.438199
1438.718734,5625.565159,-4811.338623,-229.828649
1438.719063,7476.080014,-4441.235652,536.266849
1438.719393,8882.471304,-4367.215058,1302.362347
1438.719722,9400.615463,-4885.359217,1762.019645
1438.720051,9474.636058,-5329.482782,2221.676944
1438.720380,8660.409521,-7031.956449,995.924147
1438.720710,7698.141797,-8290.306550,2145.067394
1438.721039,8216.285956,-7846.182985,1455.581446
1438.721368,7994.224174,-8660.409521,2221.676944
1438.721698,7920.203579,-7550.100608,2298.286494
1438.722027,7402.059420,-6365.771101,1378.971896
1438.722356,6661.853478,-6291.750507,1225.752797
1438.722685,5255.462188,-6143.709319,153.219100
1438.723015,4737.318029,-5403.503377,-459.657299
1438.723344,4219.173869,-5551.544565,-766.095498
1438.723673,4515.256246,-5699.585753,-919.314598
1438.724003,6365.771101,-6217.729913,306.438199
1438.724332,8068.244768,-5773.606348,1072.533697
1438.724661,8734.430116,-6735.874072,1838.629195
1438.724990,8956.491898,-7624.121203,2374.896044
1438.725320,8586.388927,-7624.121203,1455.581446
1438.725649,7920.203579,-7994.224174,1532.190996
1438.725978,7254.018232,-8364.327145,2374.896044
1438.726308,7328.038826,-6661.853478,1455.581446
1438.726637,7105.977043,-6439.791695,1455.581446
1438.726966,5847.626942,-6217.729913,1149.143247
1438.727295,4663.297435,-7105.977043,306.438199
1438.727625,4737.318029,-6143.709319,229.828649
1438.727954,4219.173869,-6587.832884,383.047749
1438.728283,4515.256246,-5625.565159,-459.657299
1438.728613,5773.606348,-4959.379811,459.657299
1438.728942,7328.038826,-5329.482782,1072.533697
1438.729271,9178.553681,-6069.688724,2221.676944
1438.729600,8882.471304,-6809.894666,1915.238745
1438.729930,8142.265362,-6883.915261,1455.581446
1438.730259,7994.224174,-7254.018232,1608.800546
1438.730588,7772.162391,-7920.203579,1685.410096
1438.730917,7994.224174,-8660.409521,2528.115143
1438.731247,7698.141797,-5847.626942,2145.067394
1438.731576,7179.997637,-5255.462188,1149.143247
1438.731905,5625.565159,-5255.462188,536.266849
1438.732235,5403.503377,-6439.791695,1149.143247
1438.732564,5403.503377,-5477.523971,0.000000
1438.732893,5403.503377,-5107.421000,153.219100
1438.733222,6513.812290,-6217.729913,995.924147
1438.733552,7772.162391,-5329.482782,1072.533697
1438.733881,8734.430116,-6217.729913,1685.410096
1438.734210,7920.203579,-7105.977043,1838.629195
1438.734540,7105.977043,-7105.977043,1072.533697
1438.734869,6217.729913,-7846.182985,842.705048
1438.735198,6217.729913,-8364.327145,1991.848295
1438.735527,7105.977043,-9400.615463,1532.190996
1438.735857,8586.388927,-7476.080014,2604.724693
1438.736186,8512.368333,-5625.565159,2757.943793
1438.736515,7698.141797,-5625.565159,1762.019645
1438.736845,6069.688724,-5551.544565,0.000000
1438.737174,4737.318029,-5699.585753,0.000000
1438.737503,4515.256246,-6069.688724,-995.924147
1438.737832,5625.565159,-5921.647536,-383.047749
1438.738162,6439.791695,-6365.771101,76.609550
1438.738491,7179.997637,-7402.059420,459.657299
1438.738820,7105.977043,-7328.038826,306.438199
1438.739150,6513.812290,-7920.203579,383.047749
1438.739479,5995.668130,-9400.615463,689.485948
1438.739808,6513.812290,-8882.471304,536.266849
1438.740137,6957.935855,-7550.100608,842.705048
1438.740467,7328.038826,-8364.327145,1915.238745
1438.740796,8290.306550,-5551.544565,2145.067394
1438.741125,8364.327145,-4441.235652,1532.190996
1438.741455,7254.018232,-4811.338623,0.000000
1438.741784,6809.894666,-4737.318029,1302.362347
1438.742113,6809.894666,-5625.565159,842.705048
1438.742442,5921.647536,-5477.523971,153.219100
1438.742772,5699.585753,-5625.565159,612.876398
1438.743101,6217.729913,-5773.606348,0.000000
1438.743430,7920.203579,-4737.318029,612.876398
1438.743760,8438.347739,-6883.915261,2145.067394
1438.744089,8808.450710,-7624.121203,2451.505594
1438.744418,8734.430116,-7698.141797,1915.238745
1438.744747,6957.935855,-6957.935855,766.095498
1438.745077,6661.853478,-6883.915261,1072.533697
1438.745406,7328.038826,-6957.935855,1915.238745
1438.745735,8512.368333,-5699.585753,1685.410096
1438.746065,8290.306550,-5329.482782,995.924147
1438.746394,7772.162391,-5551.544565,1685.410096
1438.746723,7994.224174,-4663.297435,536.266849
1438.747052,6735.874072,-4737.318029,-153.219100
1438.747382,5551.544565,-5033.400406,0.000000
1438.747711,6143.709319,-5477.523971,-383.047749
1438.748040,7476.080014,-5773.606348,76.609550
1438.748370,8068.244768,-7402.059420,1378.971896
1438.748699,7772.162391,-7772.162391,1532.190996
1438.749028,8512.368333,-8068.244768,1838.629195
1438.749357,6143.709319,-9178.553681,536.266849
1438.749687,5255.462188,-7846.182985,459.657299
1438.750016,5847.626942,-8364.327145,1225.752797
1438.750345,7179.997637,-6883.915261,1838.629195
1438.750675,7328.038826,-5699.585753,1225.752797
1438.751004,6735.874072,-5551.544565,995.924147
1438.751333,5033.400406,-7254.018232,459.657299
1438.751662,4663.297435,-6735.874072,229.828649
1438.751992,4885.359217,-5773.606348,0.000000
1438.752321,5995.668130,-5551.544565,-229.828649
1438.752650,7550.100608,-5033.400406,766.095498
1438.752979,8290.306550,-6291.750507,1532.190996
1438.753309,9400.615463,-6365.771101,2298.286494
1438.753638,9474.636058,-5847.626942,2068.457845
1438.753967,8142.265362,-6587.832884,1378.971896
1438.754296,6809.894666,-7476.080014,1149.143247
1438.754625,6069.688724,-8512.368333,1762.019645
1438.754954,6217.729913,-7698.141797,1455.581446
1438.755283,6143.709319,-7105.977043,2068.457845
1438.755613,6957.935855,-5477.523971,1378.971896
1438.755942,6883.915261,-4959.379811,689.485948
1438.756271,5625.565159,-6069.688724,1072.533697
1438.756600,5255.462188,-5107.421000,383.047749
1438.756929,6661.853478,-4737.318029,229.828649
1438.757258,8290.306550,-4737.318029,1149.143247
1438.757587,9326.594869,-5329.482782,2374.896044
1438.757916,9696.697840,-5403.503377,1608.800546
1438.758245,8290.306550,-5625.565159,1685.410096
1438.758574,7254.018232,-8290.306550,1455.581446
1438.758903,7105.977043,-8660.409521,1225.752797
1438.759232,6439.791695,-8364.327145,1378.971896
1438.759561,4737.318029,-9474.636058,536.266849
1438.759891,4367.215058,-7698.141797,612.876398
1438.760220,5403.503377,-7846.182985,1378.971896
1438.760549,6809.894666,-6513.812290,995.924147
1438.760878,6069.688724,-5625.565159,1225.752797
1438.761207,4811.338623,-6587.832884,842.705048
1438.761536,5033.400406,-6291.750507,0.000000
1438.761865,4959.379811,-6661.853478,-536.266849
1438.762194,5847.626942,-6513.812290,0.000000
1438.762523,7031.956449,-7105.977043,229.828649
1438.762852,7476.080014,-8142.265362,1149.143247
1438.763181,6661.853478,-9918.759623,1302.362347
1438.763510,6291.750507,-10732.986159,1915.238745
1438.763839,5551.544565,-10362.883188,1149.143247
1438.764169,3775.050304,-10732.986159,536.266849
1438.764498,4441.235652,-8438.347739,766.095498
1438.764827,5033.400406,-8808.450710,919.314598
1438.765156,6513.812290,-5921.647536,1302.362347
1438.765485,6513.812290,-6217.729913,2604.724693
1438.765814,7476.080014,-5551.544565,1225.752797
1438.766143,7105.977043,-3034.844362,0.000000
1438.766472,6587.832884,-5107.421000,766.095498
1438.766801,7328.038826,-4663.297435,689.485948
1438.767130,8364.327145,-5329.482782,1225.752797
1438.767459,8586.388927,-6365.771101,2374.896044
1438.767788,7920.203579,-6661.853478,1685.410096
1438.768117,6439.791695,-9178.553681,1608.800546
1438.768447,4589.276840,-10584.944971,76.609550
1438.768776,2516.700203,-12287.418637,-306.438199
1438.769105,2220.617826,-12509.480420,-536.266849
1438.769434,3182.885551,-12435.459826,76.609550
1438.769763,4737.318029,-11547.212695,2298.286494
1438.770092,5551.544565,-7994.224174,2221.676944
1438.770421,5773.606348,-5773.606348,1608.800546
1438.770750,6513.812290,-3627.009116,2374.896044
1438.771079,7105.977043,-3182.885551,1991.848295
1438.771408,7402.059420,-2812.782580,2298.286494
1438.771737,6661.853478,-4737.318029,1378.971896
1438.772066,6365.771101,-6143.709319,229.828649
1438.772395,5033.400406,-8290.306550,229.828649
1438.772725,4219.173869,-11251.130318,689.485948
1438.773054,4071.132681,-12287.418637,383.047749
1438.773383,4145.153275,-13323.706956,612.876398
1438.773712,2442.679609,-14508.036463,0.000000
1438.774041,1036.288319,-12805.562797,-995.924147
1438.774370,1554.432478,-12805.562797,0.000000
1438.774699,3775.050304,-11695.253884,3140.991542
1438.775028,5181.441594,-7920.203579,1225.752797
1438.775357,5033.400406,-5255.462188,1685.410096
1438.775686,6217.729913,-2738.761985,1685.410096
1438.776015,7698.141797,-4515.256246,1302.362347
1438.776344,7550.100608,-5773.606348,2757.943793
1438.776673,5699.585753,-5181.441594,1838.629195
1438.777003,5329.482782,-5033.400406,-995.924147
1438.777332,4071.132681,-9474.636058,612.876398
1438.777661,3182.885551,-14211.954086,2911.162892
1438.777990,2590.720797,-13841.851115,229.828649
1438.778319,2886.803174,-12287.418637,229.828649
1438.778648,3330.926739,-12953.603985,1378.971896
1438.778977,5551.544565,-11103.089130,2911.162892
1438.779306,5699.585753,-10732.986159,2834.553343
1438.779635,3627.009116,-6809.894666,1532.190996
1438.779964,3256.906145,-5403.503377,0.000000
1438.780293,3997.112087,-5255.462188,1225.752797
1438.780622,5033.400406,-6957.935855,2757.943793
1438.780951,5847.626942,-6513.812290,1532.190996
1438.781281,6587.832884,-4071.132681,0.000000
1438.781610,5699.585753,-5773.606348,-536.266849
1438.781939,6735.874072,-8734.430116,1455.581446
1438.782268,7846.182985,-9918.759623,2221.676944
1438.782597,5773.606348,-11325.150913,459.657299
1438.782926,4367.215058,-10881.027347,0.000000
1438.783255,3404.947333,-12065.356855,-612.876398
1438.783584,4367.215058,-13767.830521,459.657299
1438.783913,5033.400406,-12583.501014,2068.457845
1438.784242,5255.462188,-8142.265362,612.876398
1438.784571,4737.318029,-5477.523971,-842.705048
1438.784900,4663.297435,-6735.874072,1455.581446
1438.785229,5921.647536,-7920.203579,2911.162892
1438.785559,6365.771101,-6735.874072,1378.971896
1438.785888,5921.647536,-3849.070898,1991.848295
1438.786217,6143.709319,-2886.803174,536.266849
1438.786546,6587.832884,-4885.359217,1302.362347
1438.786875,6587.832884,-8290.306550,2298.286494
1438.787204,5847.626942,-9770.718434,1149.143247
1438.787533,4959.379811,-10362.883188,229.828649
1438.787862,3256.906145,-12287.418637,919.314598
1438.788191,3997.112087,-12065.356855,919.314598
1438.788520,5033.400406,-9622.677246,306.438199
1438.788849,4663.297435,-8068.244768,229.828649
1438.789178,4811.338623,-8882.471304,1608.800546
1438.789507,5329.482782,-7105.977043,2145.067394
1438.789837,5403.503377,-6439.791695,1072.533697
1438.790166,4663.297435,-6513.812290,0.000000
1438.790495,4293.194464,-7105.977043,-612.876398
1438.790824,3849.070898,-9770.718434,383.047749
1438.791153,4737.318029,-10436.903782,1072.533697
1438.791482,5699.585753,-8808.450710,1685.410096
1438.791811,5403.503377,-8512.368333,459.657299
1438.792140,4441.235652,-10510.924376,1072.533697
1438.792469,4071.132681,-11621.233289,1378.971896
1438.792798,4737.318029,-11029.068536,1149.143247
1438.793127,5181.441594,-8438.347739,1608.800546
1438.793456,5847.626942,-6587.832884,2145.067394
1438.793785,5773.606348,-6587.832884,2451.505594
1438.794115,5107.421000,-8290.306550,2451.505594
1438.794444,4293.194464,-9400.615463,1991.848295
1438.794773,2368.659014,-8734.430116,306.438199
1438.795102,1036.288319,-9474.636058,-383.047749
1438.795431,1776.494261,-10288.862594,-842.705048
1438.795760,3330.926739,-11843.295072,766.095498
1438.796089,4071.132681,-11991.336260,995.924147
1438.796418,4515.256246,-11251.130318,1225.752797
1438.796747,4811.338623,-9252.574275,842.705048
1438.797076,4959.379811,-8808.450710,766.095498
1438.797405,5699.585753,-7994.224174,1072.533697
1438.797734,6513.812290,-7179.997637,1915.238745
1438.798063,6735.874072,-6661.853478,1762.019645
1438.798393,6217.729913,-6809.894666,2451.505594
1438.798722,6439.791695,-6735.874072,2757.943793
1438.799051,5625.565159,-7550.100608,1991.848295
1438.799380,3627.009116,-8364.327145,1762.019645
1438.799709,2368.659014,-9918.759623,1149.143247
1438.800038,3108.864956,-9770.718434,-153.219100
1438.800367,4071.132681,-8438.347739,0.000000
1438.800696,5255.462188,-8290.306550,919.314598
1438.801025,6365.771101,-8438.347739,1608.800546
1438.801354,6069.688724,-8956.491898,1915.238745
1438.801683,5107.421000,-8512.368333,1149.143247
1438.802012,4737.318029,-7476.080014,1225.752797
1438.802341,5995.668130,-7105.977043,1685.410096
1438.802671,7105.977043,-6809.894666,1762.019645
1438.803000,7402.059420,-6291.750507,1762.019645
1438.803329,7624.121203,-6291.750507,1455.581446
1438.803658,6513.812290,-6735.874072,536.266849
1438.803987,5995.668130,-7772.162391,306.438199
1438.804316,5329.482782,-9326.594869,766.095498
1438.804645,4737.318029,-10584.944971,612.876398
1438.804974,4145.153275,-10732.986159,1455.581446
1438.805303,4071.132681,-11251.130318,842.705048
1438.805632,3849.070898,-9844.739029,0.000000
1438.805961,4145.153275,-9622.677246,306.438199
1438.806290,4145.153275,-10288.862594,1149.143247
1438.806619,4663.297435,-9622.677246,919.314598
1438.806949,5107.421000,-7402.059420,1302.362347
1438.807278,6217.729913,-5033.400406,1225.752797
1438.807607,7254.018232,-4811.338623,1455.581446
1438.807936,7550.100608,-4293.194464,1378.971896
1438.808265,6439.791695,-5255.462188,1532.190996
1438.808594,5329.482782,-7105.977043,689.485948
1438.808923,4885.359217,-9252.574275,842.705048
1438.809252,3256.906145,-11251.130318,1072.533697
1438.809581,3034.844362,-12509.480420,536.266849
1438.809910,2886.803174,-13027.624579,842.705048
1438.810239,3256.906145,-13101.645173,766.095498
1438.810568,3478.967927,-10658.965565,919.314598
1438.810897,3923.091493,-8956.491898,1608.800546
1438.811227,3923.091493,-7698.141797,536.266849
1438.811556,3775.050304,-6957.935855,459.657299
1438.811885,3997.112087,-5625.565159,76.609550
1438.812214,4885.359217,-5625.565159,-306.438199
1438.812543,6069.688724,-6291.750507,612.876398
1438.812872,6587.832884,-7772.162391,995.924147
1438.813201,5921.647536,-9548.656652,1072.533697
1438.813530,5033.400406,-9696.697840,153.219100
1438.813859,4515.256246,-11325.150913,689.485948
1438.814188,4293.194464,-11991.336260,1378.971896
1438.814517,4959.379811,-11769.274478,2068.457845
1438.814846,5255.462188,-11029.068536,2451.505594
1438.815175,5403.503377,-8956.491898,3140.991542
1438.815505,5625.565159,-7698.141797,2987.772442
1438.815834,6143.709319,-6513.812290,3064.381992
1438.816163,5921.647536,-5181.441594,3140.991542
1438.816492,5847.626942,-5033.400406,2834.553343
1438.816821,4737.318029,-4737.318029,1762.019645
1438.817150,4441.235652,-6069.688724,1608.800546
1438.817479,4441.235652,-7994.224174,1225.752797
1438.817808,4071.132681,-9326.594869,1149.143247
1438.818137,4071.132681,-10140.821405,1455.581446
1438.818466,4737.318029,-11399.171507,2068.457845
1438.818795,5329.482782,-11251.130318,3064.381992
1438.819124,6143.709319,-9992.780217,3370.820191
1438.819453,7105.977043,-8660.409521,3524.039291
1438.819783,7402.059420,-6957.935855,4290.134789
1438.820112,7179.997637,-5773.606348,3677.258390
1438.820441,7031.956449,-4071.132681,3370.820191
1438.820770,7476.080014,-3775.050304,3217.601092
1438.821099,7698.141797,-4441.235652,2604.724693
1438.821428,6809.894666,-5403.503377,2987.772442
1438.821757,6143.709319,-6735.874072,3140.991542
1438.822086,6217.729913,-7179.997637,2987.772442
1438.822415,5995.668130,-8068.244768,3524.039291
1438.822744,5995.668130,-8068.244768,3677.258390
1438.823073,5921.647536,-8290.306550,3753.867940
1438.823402,6143.709319,-8068.244768,3677.258390
1438.823731,6439.791695,-7476.080014,4136.915689
1438.824060,7254.018232,-6069.688724,4213.525239
1438.824390,7772.162391,-5699.585753,4213.525239
1438.824719,7624.121203,-4885.359217,4903.011187
1438.825048,8290.306550,-4589.276840,4979.620737
1438.825377,8512.368333,-4145.153275,5439.278036
1438.825706,8216.285956,-4293.194464,4596.572988
1438.826035,7624.121203,-5181.441594,4213.525239
1438.826364,6735.874072,-5773.606348,3830.477490
1438.826693,6069.688724,-7402.059420,3370.820191
1438.827022,5551.544565,-8882.471304,3370.820191
1438.827351,5255.462188,-10066.800811,4213.525239
1438.827680,4515.256246,-10436.903782,3524.039291
1438.828009,4071.132681,-10732.986159,3600.648841
1438.828338,3849.070898,-10584.944971,3294.210641
1438.828668,3997.112087,-9992.780217,3753.867940
1438.828997,4885.359217,-8142.265362,3907.087040
1438.829326,6291.750507,-6883.915261,4596.572988
1438.829655,7994.224174,-5033.400406,5592.497135
1438.829984,9252.574275,-3849.070898,6205.373534
1438.830313,8956.491898,-3182.885551,6205.373534
1438.830642,8882.471304,-3108.864956,6205.373534
1438.830971,8660.409521,-2590.720797,5286.058936
1438.831300,8734.430116,-3182.885551,4903.011187
1438.831629,8660.409521,-4589.276840,4979.620737
1438.831958,8660.409521,-5181.441594,4979.620737
1438.832287,8364.327145,-6957.935855,4826.401637
1438.832616,6735.874072,-8068.244768,4060.306139
1438.832946,4885.359217,-9326.594869,3370.820191
1438.833275,3849.070898,-11177.109724,3064.381992
1438.833604,3256.906145,-11547.212695,2757.943793
1438.833933,2590.720797,-10288.862594,2987.772442
1438.834262,3034.844362,-9992.780217,2987.772442
1438.834591,4441.235652,-7772.162391,4060.306139
1438.834920,5773.606348,-6291.750507,4213.525239
1438.835249,7920.203579,-5329.482782,4443.353888
1438.835578,9252.574275,-3256.906145,5362.668486
1438.835907,9992.780217,-2960.823768,5898.935335
1438.836236,10732.986159,-1850.514855,5822.325785
1438.836565,10214.842000,-2516.700203,4826.401637
1438.836894,9696.697840,-3330.926739,4366.744339
1438.837224,8142.265362,-5773.606348,4366.744339
1438.837553,7402.059420,-7402.059420,3753.867940
1438.837882,6143.709319,-8808.450710,3217.601092
1438.838211,5329.482782,-10214.842000,2221.676944
1438.838540,4293.194464,-10510.924376,2911.162892
1438.838869,4589.276840,-9474.636058,3140.991542
1438.839198,5107.421000,-8216.285956,3600.648841
1438.839527,6291.750507,-5551.544565,4519.963438
1438.839856,7994.224174,-4441.235652,3907.087040
1438.840185,8882.471304,-3701.029710,4290.134789
1438.840514,9400.615463,-4367.215058,4290.134789
1438.840843,9178.553681,-4959.379811,3677.258390
1438.841172,8364.327145,-4737.318029,3140.991542
1438.841502,7179.997637,-6291.750507,2681.334243
1438.841831,6883.915261,-7105.977043,3140.991542
1438.842160,6439.791695,-7994.224174,3447.429741
1438.842489,6439.791695,-8290.306550,3140.991542
1438.842818,6217.729913,-7624.121203,3753.867940
1438.843147,6735.874072,-7328.038826,3524.039291
1438.843476,7031.956449,-7105.977043,4136.915689
1438.843805,7550.100608,-7105.977043,4519.963438
1438.844134,7328.038826,-6069.688724,4903.011187
1438.844463,6957.935855,-4515.256246,3830.477490
1438.844792,7402.059420,-2886.803174,3524.039291
1438.845121,8142.265362,-2516.700203,3600.648841
1438.845450,8364.327145,-4441.235652,4443.353888
1438.845780,8290.306550,-5329.482782,3907.087040
1438.846109,7105.977043,-6439.791695,3983.696590
1438.846438,5995.668130,-8512.368333,2757.943793
1438.846767,5033.400406,-10214.842000,3064.381992
1438.847096,4441.235652,-10955.047942,3983.696590
1438.847425,4589.276840,-10436.903782,3294.210641
1438.847754,4145.153275,-8956.491898,3064.381992
1438.848083,4959.379811,-7105.977043,2987.772442
1438.848412,5847.626942,-5403.503377,3217.601092
1438.848741,7105.977043,-4737.318029,4060.306139
1438.849070,8068.244768,-5033.400406,5056.230287
1438.849399,9030.512492,-4515.256246,5745.716235
1438.849728,9696.697840,-3997.112087,5822.325785
1438.850058,9696.697840,-3108.864956,5592.497135
1438.850387,9474.636058,-3182.885551,4519.963438
1438.850716,8216.285956,-5255.462188,3677.258390
1438.851045,6661.853478,-7402.059420,3524.039291
1438.851374,5181.441594,-9104.533087,2834.553343
1438.851703,5033.400406,-9696.697840,3217.601092
1438.852032,4663.297435,-10510.924376,3677.258390
1438.852361,4737.318029,-10362.883188,3830.477490
1438.852690,4811.338623,-9252.574275,3677.258390
1438.853019,5107.421000,-7031.956449,3830.477490
1438.853348,6809.894666,-4589.276840,3983.696590
1438.853677,8512.368333,-3404.947333,5362.668486
1438.854006,9474.636058,-2738.761985,6128.763984
1438.854335,9992.780217,-2516.700203,5669.106685
1438.854664,9400.615463,-2960.823768,5132.839837
1438.854993,7994.224174,-4219.173869,4673.182538
1438.855322,7994.224174,-6661.853478,4519.963438
1438.855651,7698.141797,-8512.368333,4749.792088
1438.855980,7698.141797,-9178.553681,4443.353888
1438.856309,7105.977043,-10066.800811,3294.210641
1438.856638,5625.565159,-9326.594869,3524.039291
1438.856967,4367.215058,-8734.430116,2911.162892
1438.857296,4071.132681,-7328.038826,2681.334243
1438.857625,4811.338623,-6957.935855,3983.696590
1438.857954,6809.894666,-6291.750507,4826.401637
1438.858283,8290.306550,-5329.482782,5669.106685
1438.858612,8290.306550,-5477.523971,5822.325785
1438.858941,7550.100608,-4737.318029,5209.449386
1438.859270,7550.100608,-3849.070898,4366.744339
1438.859599,7624.121203,-4145.153275,4749.792088
1438.859928,7846.182985,-3552.988522,3983.696590
1438.860257,7476.080014,-5255.462188,3677.258390
1438.860586,6883.915261,-6217.729913,3294.210641
1438.860915,6809.894666,-8808.450710,3600.648841
1438.861244,7105.977043,-9844.739029,4903.011187
1438.861573,6809.894666,-8956.491898,4443.353888
1438.861902,5181.441594,-8364.327145,2528.115143
1438.862231,4441.235652,-8142.265362,3447.429741
1438.862560,4811.338623,-8586.388927,3524.039291
1438.862889,6735.874072,-5403.503377,3983.696590
1438.863218,7476.080014,-3182.885551,4366.744339
1438.863547,8290.306550,-3182.885551,3983.696590
1438.863876,9030.512492,-4441.235652,4979.620737
1438.864205,8290.306550,-6069.688724,4826.401637
1438.864534,7254.018232,-5477.523971,4290.134789
1438.864863,7328.038826,-6587.832884,4213.525239
1438.865192,7179.997637,-7994.224174,3447.429741
1438.865521,5699.585753,-8438.347739,4290.134789
1438.865851,5033.400406,-9474.636058,4443.353888
1438.866180,6143.709319,-7105.977043,4136.915689
1438.866509,7105.977043,-6439.791695,4290.134789
1438.866838,7624.121203,-6217.729913,4136.915689
1438.867167,7328.038826,-5403.503377,4213.525239
1438.867496,6439.791695,-4885.359217,3983.696590
1438.867825,5847.626942,-5107.421000,2298.286494
1438.868154,6291.750507,-5699.585753,2451.505594
1438.868483,7550.100608,-6291.750507,3140.991542
1438.868812,8956.491898,-4589.276840,3217.601092
1438.869141,8142.265362,-6143.709319,3370.820191
1438.869470,7624.121203,-8586.388927,3600.648841
1438.869799,6735.874072,-9252.574275,2987.772442
1438.870128,6439.791695,-8586.388927,2681.334243
1438.870457,6439.791695,-7698.141797,2528.115143
1438.870786,6143.709319,-9104.533087,3140.991542
1438.871115,5995.668130,-8956.491898,3294.210641
1438.871444,5921.647536,-5625.565159,3064.381992
1438.871773,7550.100608,-3775.050304,3447.429741
1438.872102,9252.574275,-2812.782580,3447.429741
1438.872431,8586.388927,-4737.318029,3217.601092
1438.872760,7105.977043,-4515.256246,2911.162892
1438.873089,6883.915261,-3997.112087,1762.019645
1438.873418,7179.997637,-3701.029710,1149.143247
1438.873747,7402.059420,-5329.482782,1608.800546
1438.874076,8586.388927,-7698.141797,2374.896044
1438.874405,8290.306550,-6957.935855,2068.457845
1438.874734,6809.894666,-7328.038826,1455.581446
1438.875063,5921.647536,-8068.244768,612.876398
1438.875392,5625.565159,-9474.636058,1072.533697
1438.875721,4885.359217,-10288.862594,1915.238745
1438.876050,4367.215058,-9474.636058,1762.019645
1438.876379,5255.462188,-7105.977043,1455.581446
1438.876708,6587.832884,-5329.482782,1838.629195
1438.877037,8068.244768,-5107.421000,2987.772442
1438.877366,9178.553681,-5255.462188,3677.258390
1438.877695,9326.594869,-2442.679609,2834.553343
1438.878024,7846.182985,-2220.617826,1608.800546
1438.878353,7105.977043,-4219.173869,1455.581446
1438.878682,7328.038826,-5847.626942,2145.067394
1438.879011,9400.615463,-5847.626942,919.314598
1438.879340,8734.430116,-6439.791695,919.314598
1438.879669,6735.874072,-8216.285956,0.000000
1438.879998,5477.523971,-10214.842000,0.000000
1438.880327,4959.379811,-9992.780217,76.609550
1438.880656,4737.318029,-9326.594869,0.000000
1438.880985,4589.276840,-9844.739029,229.828649
1438.881314,4293.194464,-9326.594869,536.266849
1438.881643,5329.482782,-6291.750507,766.095498
1438.881972,7698.141797,-5329.482782,1915.238745
1438.882301,9474.636058,-4145.153275,2911.162892
1438.882630,10066.800811,-3627.009116,3677.258390
1438.882959,8586.388927,-3849.070898,2068.457845
1438.883288,7105.977043,-3775.050304,383.047749
1438.883617,7772.162391,-3849.070898,1302.362347
1438.883946,8660.409521,-5329.482782,689.485948
1438.884275,7846.182985,-5699.585753,1149.143247
1438.884604,6809.894666,-8068.244768,383.047749
1438.884933,6439.791695,-9696.697840,0.000000
1438.885262,5329.482782,-9474.636058,0.000000
1438.885591,4441.235652,-11547.212695,536.266849
1438.885920,4145.153275,-11103.089130,689.485948
1438.886249,4441.235652,-8660.409521,0.000000
1438.886578,5625.565159,-6513.812290,766.095498
1438.886907,7105.977043,-5773.606348,2298.286494
1438.887236,8734.430116,-3627.009116,2681.334243
1438.887565,7698.141797,-2590.720797,1991.848295
1438.887894,7846.182985,-2368.659014,2221.676944
1438.888223,8364.327145,-3627.009116,1991.848295
1438.888552,9696.697840,-4293.194464,2681.334243
1438.888881,10362.883188,-3404.947333,2451.505594
1438.889210,9992.780217,-5551.544565,1608.800546
1438.889539,8216.285956,-6069.688724,842.705048
1438.889868,4885.359217,-8290.306550,-459.657299
1438.890197,3997.112087,-9992.780217,-1302.362347
1438.890526,4145.153275,-11769.274478,-536.266849
1438.890855,3849.070898,-12509.480420,76.609550
1438.891184,4071.132681,-10214.842000,536.266849
1438.891513,5403.503377,-8142.265362,1072.533697
1438.891842,7698.141797,-7179.997637,2145.067394
1438.892171,9104.533087,-5033.400406,2834.553343
1438.892500,8068.244768,-1998.556043,2374.896044
1438.892829,7105.977043,-1776.494261,995.924147
1438.893158,7920.203579,-2516.700203,459.657299
1438.893487,9178.553681,-1924.535449,1685.410096
1438.893816,9992.780217,-3478.967927,1225.752797
1438.894145,9696.697840,-4811.338623,1225.752797
1438.894474,8142.265362,-7476.080014,536.266849
1438.894803,7105.977043,-9622.677246,0.000000
1438.895132,6217.729913,-11473.192101,306.438199
1438.895461,4145.153275,-13175.665768,-536.266849
1438.895790,2590.720797,-10807.006753,-306.438199
1438.896119,2886.803174,-9474.636058,-689.485948
1438.896448,5329.482782,-8068.244768,1685.410096
1438.896777,7031.956449,-4885.359217,2145.067394
1438.897106,7624.121203,-4515.256246,2757.943793
1438.897435,8216.285956,-3108.864956,2604.724693
1438.897764,8216.285956,-3478.967927,1838.629195
1438.898093,8438.347739,-2146.597232,1685.410096
1438.898422,9178.553681,-2146.597232,995.924147
1438.898751,10510.924376,-2590.720797,919.314598
1438.899080,9178.553681,-3330.926739,-612.876398
1438.899409,7328.038826,-6661.853478,-459.657299
1438.899739,6587.832884,-9474.636058,0.000000
1438.900068,5995.668130,-12583.501014,229.828649
1438.900397,3923.091493,-14434.015869,76.609550
1438.900726,2960.823768,-12213.398043,306.438199
1438.901055,4515.256246,-9918.759623,153.219100
1438.901384,6217.729913,-8660.409521,1455.581446
1438.901713,6513.812290,-5403.503377,1532.190996
1438.902042,7402.059420,-2664.741391,1149.143247
1438.902371,7772.162391,-2294.638420,1455.581446
1438.902700,7476.080014,-2442.679609,1685.410096
1438.903029,8512.368333,-2886.803174,2451.505594
1438.903358,10140.821405,-2442.679609,2298.286494
1438.903687,10658.965565,-3108.864956,1532.190996
1438.904016,8882.471304,-4737.318029,919.314598
1438.904345,7698.141797,-7105.977043,1225.752797
1438.904674,6883.915261,-9548.656652,76.609550
1438.905003,4219.173869,-11547.212695,-536.266849
1438.905332,2146.597232,-12213.398043,-995.924147
1438.905661,2812.782580,-11177.109724,229.828649
1438.905990,5181.441594,-10807.006753,1685.410096
1438.906319,5921.647536,-8438.347739,2298.286494
1438.906648,7105.977043,-5477.523971,2528.115143
1438.906977,8734.430116,-3775.050304,2681.334243
1438.907306,9030.512492,-2220.617826,1991.848295
1438.907635,7402.059420,-1924.535449,2374.896044
1438.907964,8290.306550,-2368.659014,1532.190996
1438.908293,9252.574275,-1554.432478,306.438199
1438.908622,8290.306550,-3701.029710,0.000000
1438.908951,7179.997637,-5403.503377,689.485948
1438.909280,7254.018232,-8882.471304,76.609550
1438.909609,6513.812290,-11399.171507,612.876398
1438.909938,4589.276840,-12139.377449,842.705048
1438.910267,3552.988522,-12065.356855,689.485948
1438.910596,4219.173869,-9696.697840,1378.971896
1438.910925,5403.503377,-8512.368333,1915.238745
1438.911254,6365.771101,-5625.565159,1915.238745
1438.911583,7772.162391,-2960.823768,1532.190996
1438.911912,8290.306550,-2738.761985,2145.067394
1438.912241,8216.285956,-2146.597232,2374.896044
1438.912570,8068.244768,-3108.864956,1532.190996
1438.912899,8734.430116,-2516.700203,1149.143247
1438.913228,9770.718434,-3108.864956,612.876398
1438.913557,9474.636058,-5847.626942,919.314598
1438.913886,8364.327145,-7254.018232,689.485948
1438.914215,6587.832884,-9474.636058,76.609550
1438.914544,5551.544565,-10436.903782,-612.876398
1438.914873,3404.947333,-12435.459826,-766.095498
1438.915202,3404.947333,-12509.480420,-766.095498
1438.915531,4737.318029,-10732.986159,1685.410096
1438.915860,7031.956449,-8808.450710,2145.067394
1438.916189,7624.121203,-5181.441594,2298.286494
1438.916518,7846.182985,-2812.782580,2451.505594
1438.916847,7772.162391,-2960.823768,1378.971896
1438.917176,7550.100608,-1406.391290,1378.971896
1438.917505,7624.121203,-1924.535449,1072.533697
1438.917834,9400.615463,-1480.411884,0.000000
1438.918163,9474.636058,-2664.741391,1378.971896
1438.918492,8808.450710,-6217.729913,919.314598
1438.918821,7772.162391,-8586.388927,383.047749
1438.919150,6587.832884,-10066.800811,459.657299
1438.919479,4737.318029,-12879.583391,-229.828649
1438.919808,2812.782580,-13397.727550,0.000000
1438.920137,3404.947333,-11029.068536,536.266849
1438.920466,5403.503377,-9178.553681,1378.971896
1438.920795,6809.894666,-6587.832884,1685.410096
1438.921124,7328.038826,-3849.070898,2374.896044
1438.921453,7105.977043,-2738.761985,2068.457845
1438.921782,7698.141797,-2368.659014,1378.971896
1438.922111,7624.121203,-1850.514855,1838.629195
1438.922440,8734.430116,-2294.638420,842.705048
1438.922769,10066.800811,-3330.926739,1149.143247
1438.923098,9770.718434,-4441.235652,1072.533697
1438.923427,8290.306550,-6365.771101,76.609550
1438.923756,6217.729913,-7994.224174,-306.438199
1438.924085,5477.523971,-10881.027347,0.000000
1438.924414,4737.318029,-12213.398043,0.000000
1438.924743,3997.112087,-11769.274478,306.438199
1438.925072,4959.379811,-9918.759623,1455.581446
1438.925401,6957.935855,-8364.327145,2451.505594
1438.925730,7994.224174,-5995.668130,4290.134789
1438.926059,7698.141797,-2812.782580,2374.896044
1438.926388,7920.203579,-1924.535449,1608.800546
1438.926717,7624.121203,-1924.535449,995.924147
1438.927046,7698.141797,-3849.070898,842.705048
1438.927375,8586.388927,-3997.112087,2068.457845
1438.927704,8956.491898,-3627.009116,689.485948
1438.928033,7476.080014,-5625.565159,-306.438199
1438.928362,5773.606348,-7846.182985,-306.438199
1438.928691,4663.297435,-10140.821405,-229.828649
1438.929020,4589.276840,-12435.459826,-306.438199
1438.929349,4145.153275,-12213.398043,306.438199
1438.929678,4737.318029,-9696.697840,612.876398
1438.930007,6957.935855,-8882.471304,1532.190996
1438.930336,8586.388927,-8142.265362,3447.429741
1438.930665,8956.491898,-6069.688724,3370.820191
1438.930994,8808.450710,-2886.803174,2681.334243
1438.931323,7994.224174,-1776.494261,1915.238745
1438.931652,8068.244768,-2590.720797,1762.019645
1438.931981,8290.306550,-2664.741391,2145.067394
1438.932310,8586.388927,-2442.679609,229.828649
1438.932639,8290.306550,-3849.070898,0.000000
1438.932968,7550.100608,-5625.565159,383.047749
1438.933297,6439.791695,-8660.409521,459.657299
1438.933627,5477.523971,-10732.986159,0.000000
1438.933956,4367.215058,-12953.603985,306.438199
1438.934285,3627.009116,-12287.418637,229.828649
1438.934614,4145.153275,-9178.553681,153.219100
1438.934943,6809.894666,-8290.306550,2451.505594
1438.935272,9030.512492,-5551.544565,3217.601092
1438.935601,9474.636058,-3256.906145,3064.381992
1438.935930,8882.471304,-2442.679609,3064.381992
1438.936259,8882.471304,-2368.659014,2681.334243
1438.936588,7550.100608,-3775.050304,1532.190996
1438.936917,7254.018232,-2072.576638,689.485948
1438.937246,7179.997637,-3701.029710,-612.876398
1438.937575,7402.059420,-5921.647536,-766.095498
1438.937904,6069.688724,-7550.100608,-459.657299
1438.938233,5625.565159,-9326.594869,-383.047749
1438.938562,5255.462188,-9770.718434,-612.876398
1438.938891,4071.132681,-11843.295072,-536.266849
1438.939220,4219.173869,-11547.212695,1149.143247
1438.939549,5847.626942,-9030.512492,1762.019645
1438.939878,9104.533087,-7476.080014,2987.772442
1438.940207,9770.718434,-4515.256246,3907.087040
1438.940536,9622.677246,-2812.782580,3370.820191
1438.940865,9474.636058,-2664.741391,2374.896044
1438.941194,7698.141797,-2516.700203,1455.581446
1438.941523,6809.894666,-3404.947333,689.485948
1438.941852,7031.956449,-3404.947333,-995.924147
1438.942181,7476.080014,-5033.400406,-842.705048
1438.942510,7254.018232,-7476.080014,153.219100
1438.942839,6217.729913,-8364.327145,-1225.752797
1438.943168,5107.421000,-10510.924376,-306.438199
1438.943497,4441.235652,-11621.233289,0.000000
1438.943826,4145.153275,-11621.233289,0.000000
1438.944155,5033.400406,-9696.697840,459.657299
1438.944484,6883.915261,-8586.388927,1838.629195
1438.944813,9178.553681,-6365.771101,2834.553343
1438.945142,10066.800811,-3701.029710,3217.601092
1438.945471,8882.471304,-1702.473667,2528.115143
1438.945800,8808.450710,-1702.473667,1225.752797
1438.946129,7254.018232,-2886.803174,766.095498
1438.946458,7179.997637,-4071.132681,536.266849
1438.946787,8290.306550,-4737.318029,1608.800546
1438.947116,9252.574275,-6439.791695,536.266849
1438.947445,6513.812290,-5921.647536,-1608.800546
1438.947774,3627.009116,-7550.100608,-1915.238745
1438.948103,3701.029710,-10066.800811,-1915.238745
1438.948432,3627.009116,-10362.883188,-766.095498
1438.948761,4293.194464,-10881.027347,153.219100
1438.949090,6513.812290,-8956.491898,2145.067394
1438.949419,9474.636058,-7846.182985,3600.648841
1438.949748,9770.718434,-6513.812290,4826.401637
1438.950077,9104.533087,-2886.803174,3524.039291
1438.950406,8364.327145,-2960.823768,2451.505594
1438.950735,7994.224174,-2442.679609,766.095498
1438.951064,6291.750507,-4293.194464,-229.828649
1438.951393,6735.874072,-4219.173869,995.924147
1438.951722,8068.244768,-5181.441594,-459.657299
1438.952051,7254.018232,-7476.080014,-383.047749
1438.952380,5551.544565,-8068.244768,0.000000
1438.952709,4959.379811,-10288.862594,-842.705048
1438.953038,5551.544565,-10140.821405,-459.657299
1438.953367,4441.235652,-11695.253884,536.266849
1438.953696,5255.462188,-10436.903782,919.314598
1438.954025,7476.080014,-7402.059420,1685.410096
1438.954354,8808.450710,-6809.894666,3064.381992
1438.954683,8882.471304,-4367.215058,3830.477490
1438.955013,9474.636058,-2738.761985,3600.648841
1438.955342,9104.533087,-2590.720797,2068.457845
1438.955671,7328.038826,-3923.091493,2068.457845
1438.956000,7105.977043,-5551.544565,2298.286494
1438.956329,7328.038826,-4219.173869,612.876398
1438.956658,6957.935855,-4959.379811,0.000000
1438.956988,5847.626942,-7105.977043,-306.438199
1438.957317,5181.441594,-8586.388927,-919.314598
1438.957646,4219.173869,-9548.656652,-995.924147
1438.957975,3775.050304,-10510.924376,-229.828649
1438.958304,3552.988522,-11695.253884,153.219100
1438.958634,5921.647536,-8956.491898,1915.238745
1438.958963,8068.244768,-6883.915261,3600.648841
1438.959292,10066.800811,-5329.482782,3677.258390
1438.959621,9844.739029,-2886.803174,4213.525239
1438.959950,9400.615463,-2442.679609,3217.601092
1438.960280,8586.388927,-2294.638420,1991.848295
1438.960609,7254.018232,-3256.906145,2221.676944
1438.960938,7328.038826,-4293.194464,612.876398
1438.961267,7328.038826,-5477.523971,-306.438199
1438.961596,6735.874072,-7846.182985,229.828649
1438.961926,5921.647536,-7550.100608,-306.438199
1438.962255,5329.482782,-9474.636058,-1225.752797
1438.962584,4589.276840,-10584.944971,306.438199
1438.962913,3849.070898,-10436.903782,0.000000
1438.963242,4145.153275,-9992.780217,612.876398
1438.963572,5921.647536,-7772.162391,2374.896044
1438.963901,8586.388927,-5329.482782,2757.943793
1438.964230,10140.821405,-4737.318029,4060.306139
1438.964559,10436.903782,-2664.741391,4366.744339
1438.964888,9696.697840,-2442.679609,2757.943793
1438.965218,8660.409521,-3552.988522,1149.143247
1438.965547,7105.977043,-4515.256246,383.047749
1438.965876,6513.812290,-6365.771101,306.438199
1438.966205,7772.162391,-8364.327145,229.828649
1438.966534,6365.771101,-9030.512492,-689.485948
1438.966864,4589.276840,-9252.574275,-1532.190996
1438.967193,4219.173869,-10732.986159,-995.924147
1438.967522,4589.276840,-10658.965565,-459.657299
1438.967851,3478.967927,-9844.739029,-1149.143247
1438.968180,4071.132681,-7920.203579,-76.609550
1438.968509,6809.894666,-5995.668130,1608.800546
1438.968839,9696.697840,-6143.709319,4213.525239
1438.969168,10288.862594,-4589.276840,5056.230287
1438.969497,10288.862594,-1702.473667,4443.353888
1438.969826,10066.800811,-666.185348,1838.629195
1438.970155,7920.203579,-2738.761985,919.314598
1438.970485,7328.038826,-4737.318029,1378.971896
1438.970814,8660.409521,-5255.462188,536.266849
1438.971143,8438.347739,-5625.565159,-459.657299
1438.971472,5107.421000,-7402.059420,-1225.752797
1438.971801,3552.988522,-9844.739029,-1532.190996
1438.972131,3552.988522,-11251.130318,-1532.190996
1438.972460,3182.885551,-13619.789333,-536.266849
1438.972789,3404.947333,-11473.192101,0.000000
1438.973118,4959.379811,-8660.409521,0.000000
1438.973447,7179.997637,-7105.977043,1838.629195
1438.973777,8882.471304,-5033.400406,3217.601092
1438.974106,10140.821405,-3775.050304,3677.258390
1438.974435,9992.780217,-1850.514855,3447.429741
1438.974764,9252.574275,-1850.514855,1608.800546
1438.975093,8438.347739,-3108.864956,1762.019645
1438.975423,8660.409521,-4589.276840,1149.143247
1438.975752,9252.574275,-6291.750507,1685.410096
1438.976081,7550.100608,-7105.977043,229.828649
1438.976410,5847.626942,-8068.244768,-459.657299
1438.976739,4145.153275,-8882.471304,-1762.019645
1438.977069,3775.050304,-11399.171507,-1225.752797
1438.977398,2664.741391,-12805.562797,-689.485948
1438.977727,2442.679609,-10732.986159,-842.705048
1438.978056,4737.318029,-8290.306550,1455.581446
1438.978385,7476.080014,-6439.791695,2374.896044
1438.978714,9696.697840,-5033.400406,4213.525239
1438.979044,10732.986159,-2886.803174,5132.839837
1438.979373,10214.842000,-2368.659014,3294.210641
1438.979702,9400.615463,-2294.638420,2145.067394
1438.980031,7994.224174,-2812.782580,1532.190996
1438.980360,8882.471304,-3923.091493,1072.533697
1438.980690,7846.182985,-5403.503377,153.219100
1438.981019,6143.709319,-7031.956449,-383.047749
1438.981348,4737.318029,-9252.574275,-1608.800546
1438.981677,4589.276840,-9400.615463,-689.485948
1438.982006,3256.906145,-12287.418637,-459.657299
1438.982336,3404.947333,-11695.253884,-383.047749
1438.982665,4737.318029,-10214.842000,459.657299
1438.982994,7031.956449,-7920.203579,1685.410096
1438.983323,9104.533087,-5033.400406,3294.210641
1438.983652,10584.944971,-3182.885551,4443.353888
1438.983982,10881.027347,-1480.411884,3600.648841
1438.984311,10140.821405,-1110.308913,2451.505594
1438.984640,8882.471304,-2294.638420,2298.286494
1438.984969,8216.285956,-3627.009116,1302.362347
1438.985298,8882.471304,-5329.482782,1685.410096
1438.985628,7846.182985,-7031.956449,842.705048
1438.985957,5255.462188,-8142.265362,-1608.800546
1438.986286,2590.720797,-9400.615463,-1685.410096
1438.986615,2886.803174,-11695.253884,-919.314598
1438.986944,3256.906145,-12805.562797,-1532.190996
1438.987274,2960.823768,-12139.377449,76.609550
1438.987603,4959.379811,-8808.450710,995.924147
1438.987932,7772.162391,-7550.100608,2145.067394
1438.988261,8956.491898,-6143.709319,4366.744339
1438.988590,9918.759623,-2886.803174,4903.011187
1438.988920,10881.027347,-444.123565,2451.505594
1438.989249,9770.718434,592.164754,2068.457845
1438.989578,8586.388927,-1702.473667,1072.533697
1438.989907,9400.615463,-4219.173869,1225.752797
1438.990236,9400.615463,-4737.318029,995.924147
1438.990565,6809.894666,-6883.915261,-1149.143247
1438.990895,4959.379811,-9326.594869,-1302.362347
1438.991224,4145.153275,-11251.130318,-1532.190996
1438.991553,3627.009116,-14211.954086,-536.266849
1438.991882,2368.659014,-14211.954086,0.000000
1438.992211,2664.741391,-10140.821405,-459.657299
1438.992541,4737.318029,-6513.812290,-766.095498
1438.992870,7402.059420,-7031.956449,2298.286494
1438.993199,9992.780217,-4367.215058,4903.011187
1438.993528,10881.027347,-2368.659014,4519.963438
1438.993857,10510.924376,666.185348,2757.943793
1438.994187,9326.594869,1110.308913,1685.410096
1438.994516,9770.718434,-2812.782580,1915.238745
1438.994845,9696.697840,-3997.112087,1532.190996
1438.995174,7698.141797,-4737.318029,-536.266849
1438.995503,5921.647536,-7994.224174,-1608.800546
1438.995833,5477.523971,-9770.718434,-1608.800546
1438.996162,4515.256246,-13101.645173,-1149.143247
1438.996491,2960.823768,-14952.160028,229.828649
1438.996820,1998.556043,-14582.057057,-689.485948
1438.997149,2294.638420,-8956.491898,-1532.190996
1438.997479,4071.132681,-6809.894666,0.000000
1438.997808,8216.285956,-6661.853478,2987.772442
1438.998137,11695.253884,-3627.009116,5439.278036
1438.998466,11251.130318,-1776.494261,3983.696590
1438.998795,9696.697840,1480.411884,2451.505594
1438.999125,9992.780217,740.205942,2528.115143
1438.999454,10955.047942,-2072.576638,2068.457845
1438.999783,10214.842000,-1924.535449,1685.410096
1439.000112,8216.285956,-5625.565159,229.828649
1439.000441,6661.853478,-8142.265362,-1608.800546
1439.000771,4959.379811,-10807.006753,-1225.752797
1439.001100,3552.988522,-14878.139434,0.000000
1439.001429,2072.576638,-15396.283594,-995.924147
1439.001758,444.123565,-14137.933492,-1762.019645
1439.002087,888.247130,-10436.903782,-689.485948
1439.002416,5107.421000,-7772.162391,1225.752797
1439.002746,9104.533087,-5995.668130,4366.744339
1439.003075,10807.006753,-1924.535449,4290.134789
1439.003404,10066.800811,-74.020594,2757.943793
1439.003733,9918.759623,518.144159,2451.505594
1439.004062,10584.944971,296.082377,2604.724693
1439.004392,11177.109724,-2146.597232,2757.943793
1439.004721,10955.047942,-2960.823768,2145.067394
1439.005050,8438.347739,-4441.235652,-459.657299
1439.005379,4737.318029,-8808.450710,-1685.410096
1439.005708,4145.153275,-11103.089130,-459.657299
1439.006038,4219.173869,-14582.057057,0.000000
1439.006367,2220.617826,-15100.201217,-459.657299
1439.006696,814.226536,-12065.356855,-612.876398
1439.007025,2220.617826,-9474.636058,0.000000
1439.007354,6217.729913,-8290.306550,2681.334243
1439.007684,9030.512492,-4367.215058,4366.744339
1439.008013,10362.883188,-1776.494261,4826.401637
1439.008342,10362.883188,888.247130,2145.067394
1439.008671,9178.553681,1924.535449,1915.238745
1439.009000,10288.862594,0.000000,2145.067394
1439.009330,11843.295072,-2368.659014,1915.238745
1439.009659,11029.068536,-4441.235652,2068.457845
1439.009988,7772.162391,-7402.059420,-229.828649
1439.010317,5255.462188,-9992.780217,-383.047749
1439.010646,5107.421000,-13249.686362,-383.047749
1439.010976,3256.906145,-15174.221811,-842.705048
1439.011305,296.082377,-14656.077652,-1762.019645
1439.011634,1480.411884,-11621.233289,-1302.362347
1439.011963,4737.318029,-8512.368333,306.438199
1439.012292,7772.162391,-7105.977043,2757.943793
1439.012622,9770.718434,-3775.050304,4290.134789
1439.012951,10436.903782,-1480.411884,3140.991542
1439.013280,9326.594869,370.102971,1991.848295
1439.013609,8586.388927,888.247130,1685.410096
1439.013938,11103.089130,-740.205942,2528.115143
1439.014267,12583.501014,-1850.514855,2068.457845
1439.014597,9918.759623,-4145.153275,1149.143247
1439.014926,6069.688724,-7772.162391,0.000000
1439.015255,4737.318029,-10881.027347,-1225.752797
1439.015584,3108.864956,-13989.892304,-919.314598
1439.015913,1406.391290,-17024.736666,0.000000
1439.016243,1110.308913,-14508.036463,0.000000
1439.016572,2072.576638,-10140.821405,-612.876398
1439.016901,4293.194464,-8956.491898,383.047749
1439.017230,7772.162391,-6587.832884,3447.429741
1439.017559,10288.862594,-3034.844362,3600.648841
1439.017889,9326.594869,0.000000,1915.238745
1439.018218,8808.450710,962.267725,1685.410096
1439.018547,10288.862594,296.082377,2374.896044
1439.018876,12361.439231,-1258.350101,2068.457845
1439.019205,11473.192101,-2886.803174,2298.286494
1439.019535,8956.491898,-4737.318029,689.485948
1439.019864,6365.771101,-8290.306550,-1838.629195
1439.020193,4441.235652,-11917.315666,-689.485948
1439.020522,2886.803174,-14434.015869,0.000000
1439.020851,1554.432478,-15766.386565,-919.314598
1439.021181,1258.350101,-12805.562797,-383.047749
1439.021510,3330.926739,-10066.800811,842.705048
1439.021839,6809.894666,-8068.244768,2528.115143
1439.022168,8808.450710,-4811.338623,4136.915689
1439.022497,8734.430116,-1924.535449,3217.601092
1439.022827,8734.430116,0.000000,2221.676944
1439.023156,9178.553681,1702.473667,1838.629195
1439.023485,11177.109724,-444.123565,2451.505594
1439.023814,12509.480420,-1480.411884,2604.724693
1439.024143,11029.068536,-3923.091493,2221.676944
1439.024472,8216.285956,-6143.709319,-612.876398
1439.024802,4811.338623,-9326.594869,-2221.676944
1439.025131,3552.988522,-12509.480420,-919.314598
1439.025460,3404.947333,-15100.201217,-766.095498
1439.025789,1480.411884,-15248.242405,-766.095498
1439.026118,2294.638420,-12213.398043,459.657299
1439.026448,4959.379811,-11103.089130,1532.190996
1439.026777,7105.977043,-7846.182985,2528.115143
1439.027106,7624.121203,-4515.256246,2911.162892
1439.027435,8734.430116,-2368.659014,2987.772442
1439.027764,9474.636058,0.000000,2528.115143
1439.028094,9400.615463,1258.350101,2834.553343
1439.028423,11251.130318,740.205942,2298.286494
1439.028752,12657.521608,0.000000,2374.896044
1439.029081,11029.068536,-2442.679609,1532.190996
1439.029410,6439.791695,-6809.894666,-383.047749
1439.029740,4737.318029,-10584.944971,-383.047749
1439.030069,4441.235652,-13693.809927,612.876398
1439.030398,2590.720797,-16284.530724,-612.876398
1439.030727,1554.432478,-15026.180623,229.828649
1439.031056,3256.906145,-11399.171507,919.314598
1439.031386,5625.565159,-9400.615463,2068.457845
1439.031715,7105.977043,-4959.379811,2681.334243
1439.032044,8660.409521,-1998.556043,2834.553343
1439.032373,9548.656652,-1406.391290,2834.553343
1439.032702,8882.471304,148.041188,2068.457845
1439.033032,9104.533087,-222.061783,1072.533697
1439.033361,11473.192101,0.000000,2221.676944
1439.033690,12065.356855,-1480.411884,1532.190996
1439.034019,9178.553681,-4737.318029,229.828649
1439.034348,5995.668130,-8438.347739,-229.828649
1439.034678,4885.359217,-10510.924376,-2145.067394
1439.035007,3478.967927,-13323.706956,-1149.143247
1439.035336,2220.617826,-14952.160028,0.000000
1439.035665,3256.906145,-13471.748144,306.438199
1439.035994,5403.503377,-10807.006753,1149.143247
1439.036323,6661.853478,-9030.512492,3217.601092
1439.036653,8142.265362,-4885.359217,3677.258390
1439.036982,9326.594869,-2294.638420,3294.210641
1439.037311,8438.347739,0.000000,2221.676944
1439.037640,7550.100608,1406.391290,1838.629195
1439.037969,8734.430116,0.000000,995.924147
1439.038299,9696.697840,-592.164754,919.314598
1439.038628,9844.739029,-4663.297435,153.219100
1439.038957,8068.244768,-6513.812290,-536.266849
1439.039286,5625.565159,-10288.862594,-1149.143247
1439.039615,4293.194464,-13619.789333,-536.266849
1439.039945,2960.823768,-14730.098246,-306.438199
1439.040274,1776.494261,-14359.995275,-1302.362347
1439.040603,3552.988522,-11473.192101,0.000000
1439.040932,6365.771101,-9474.636058,1915.238745
1439.041261,7846.182985,-6957.935855,3140.991542
1439.041591,8586.388927,-3997.112087,3677.258390
1439.041920,9178.553681,-1406.391290,2604.724693
1439.042249,9326.594869,518.144159,1149.143247
1439.042578,8808.450710,592.164754,1762.019645
1439.042907,10288.862594,-1702.473667,2068.457845
1439.043237,11621.233289,-2294.638420,1991.848295
1439.043566,8586.388927,-2738.761985,-536.266849
1439.043895,4737.318029,-5921.647536,-2528.115143
1439.044224,4145.153275,-10807.006753,-1762.019645
1439.044553,4663.297435,-13175.665768,-459.657299
1439.044883,2516.700203,-15840.407159,-766.095498
1439.045212,1924.535449,-14211.954086,0.000000
1439.045541,4515.256246,-11103.089130,2145.067394
1439.045870,7328.038826,-8956.491898,2451.505594
1439.046199,7994.224174,-4811.338623,3677.258390
1439.046529,8512.368333,-2812.782580,3294.210641
1439.046858,9474.636058,-1998.556043,1762.019645
1439.047187,8882.471304,888.247130,1378.971896
1439.047516,9030.512492,-444.123565,1149.143247
1439.047845,10732.986159,-740.205942,842.705048
1439.048174,10510.924376,-2960.823768,1149.143247
1439.048504,8216.285956,-6587.832884,-153.219100
1439.048833,5551.544565,-9104.533087,-383.047749
1439.049162,5107.421000,-11917.315666,-612.876398
1439.049491,4219.173869,-14137.933492,-383.047749
1439.049820,2664.741391,-14434.015869,-536.266849
1439.050150,2960.823768,-11843.295072,536.266849
1439.050479,5699.585753,-9252.574275,1225.752797
1439.050808,7550.100608,-7031.956449,3140.991542
1439.051137,9400.615463,-3478.967927,3600.648841
1439.051466,9844.739029,-1258.350101,3370.820191
1439.051796,8882.471304,-1036.288319,2987.772442
1439.052125,8216.285956,-592.164754,2528.115143
1439.052454,9252.574275,-1332.370696,1838.629195
1439.052783,10066.800811,-2220.617826,842.705048
1439.053112,9104.533087,-4737.318029,689.485948
1439.053442,5699.585753,-6957.935855,-995.924147
1439.053771,3997.112087,-10214.842000,-1685.410096
1439.054100,3034.844362,-13101.645173,-1149.143247
1439.054429,2812.782580,-14730.098246,76.609550
1439.054759,3256.906145,-12731.542202,306.438199
1439.055088,4811.338623,-9844.739029,1225.752797
1439.055417,6809.894666,-8882.471304,3600.648841
1439.055746,8808.450710,-6217.729913,4136.915689
1439.056076,10288.862594,-2738.761985,4596.572988
1439.056405,9696.697840,0.000000,2681.334243
1439.056734,8364.327145,370.102971,1915.238745
1439.057063,8216.285956,-444.123565,842.705048
1439.057393,9252.574275,-1628.453072,536.266849
1439.057722,9178.553681,-3034.844362,919.314598
1439.058051,8290.306550,-5847.626942,306.438199
1439.058380,5699.585753,-8808.450710,-689.485948
1439.058710,3701.029710,-11547.212695,-1149.143247
1439.059039,4293.194464,-14434.015869,-612.876398
1439.059368,2516.700203,-14804.118840,-76.609550
1439.059697,2664.741391,-11399.171507,0.000000
1439.060027,4737.318029,-8586.388927,229.828649
1439.060356,8290.306550,-5995.668130,3600.648841
1439.060685,10658.965565,-3997.112087,4366.744339
1439.061014,10510.924376,-1924.535449,3983.696590
1439.061344,9844.739029,-888.247130,2221.676944
1439.061673,8882.471304,-2294.638420,1302.362347
1439.062002,7846.182985,-3034.844362,1685.410096
1439.062331,8290.306550,-4219.173869,0.000000
1439.062660,8216.285956,-4811.338623,-536.266849
1439.062990,6143.709319,-7254.018232,-2068.457845
1439.063319,4811.338623,-10436.903782,-1302.362347
1439.063648,4441.235652,-11547.212695,-612.876398
1439.063977,3478.967927,-13471.748144,-612.876398
1439.064307,2738.761985,-12879.583391,76.609550
1439.064636,4219.173869,-10955.047942,1685.410096
1439.064965,7254.018232,-7920.203579,2987.772442
1439.065294,9326.594869,-4293.194464,4060.306139
1439.065624,9696.697840,-1776.494261,3830.477490
1439.065953,10140.821405,148.041188,3370.820191
1439.066282,9474.636058,-296.082377,1762.019645
1439.066611,7994.224174,-1702.473667,1762.019645
1439.066941,7179.997637,-3775.050304,1149.143247
1439.067270,8290.306550,-5255.462188,306.438199
1439.067599,7179.997637,-7105.977043,-689.485948
1439.067928,5107.421000,-9252.574275,-995.924147
1439.068258,4589.276840,-11843.295072,-919.314598
1439.068587,3997.112087,-12509.480420,-1455.581446
1439.068916,2590.720797,-12731.542202,-1685.410096
1439.069245,3034.844362,-11103.089130,-306.438199
1439.069575,5921.647536,-7476.080014,1149.143247
1439.069904,8068.244768,-6513.812290,2834.553343
1439.070233,9696.697840,-4515.256246,4519.963438
1439.070562,10658.965565,-1998.556043,3983.696590
1439.070892,11177.109724,-740.205942,3370.820191
1439.071221,10140.821405,-962.267725,2604.724693
1439.071550,9104.533087,-3256.906145,612.876398
1439.071879,8142.265362,-4145.153275,-383.047749
1439.072209,7624.121203,-5403.503377,-995.924147
1439.072538,6661.853478,-7031.956449,-2068.457845
1439.072867,5107.421000,-9696.697840,-1455.581446
1439.073196,4071.132681,-12139.377449,-995.924147
1439.073526,3404.947333,-13101.645173,-459.657299
1439.073855,2886.803174,-13471.748144,306.438199
1439.074184,3627.009116,-9474.636058,842.705048
1439.074513,5995.668130,-6883.915261,1608.800546
1439.074843,9326.594869,-4663.297435,3830.477490
1439.075172,10214.842000,-1998.556043,4136.915689
1439.075501,10066.800811,-1036.288319,3907.087040
1439.075830,9104.533087,-370.102971,2757.943793
1439.076160,8512.368333,-2368.659014,1762.019645
1439.076489,7994.224174,-4219.173869,1378.971896
1439.076818,7846.182985,-5403.503377,612.876398
1439.077147,7550.100608,-7920.203579,536.266849
1439.077476,5033.400406,-9474.636058,-1378.971896
1439.077806,4071.132681,-11029.068536,-1608.800546
1439.078135,3775.050304,-11991.336260,-995.924147
1439.078464,3108.864956,-11325.150913,-306.438199
1439.078793,3108.864956,-11621.233289,-229.828649
1439.079123,4959.379811,-7920.203579,1455.581446
1439.079452,8364.327145,-6883.915261,3370.820191
1439.079781,11399.171507,-4441.235652,5592.497135
1439.080110,12213.398043,-518.144159,5515.887586
1439.080440,10881.027347,0.000000,3370.820191
1439.080769,9696.697840,-74.020594,2451.505594
1439.081098,8068.244768,-3034.844362,1378.971896
1439.081427,7105.977043,-5107.421000,689.485948
1439.081757,7550.100608,-5625.565159,0.000000
1439.082086,5329.482782,-9622.677246,-766.095498
1439.082415,4219.173869,-10881.027347,-1149.143247
1439.082744,3775.050304,-12139.377449,-766.095498
1439.083074,3478.967927,-12731.542202,-766.095498
1439.083403,2368.659014,-12287.418637,0.000000
1439.083732,3256.906145,-9622.677246,153.219100
1439.084061,6513.812290,-6217.729913,2374.896044
1439.084391,9474.636058,-4885.359217,3983.696590
1439.084720,10732.986159,-2812.782580,4673.182538
1439.085049,10436.903782,74.020594,3983.696590
1439.085378,10362.883188,0.000000,1991.848295
1439.085708,10066.800811,-1258.350101,2298.286494
1439.086037,8660.409521,-3849.070898,1302.362347
1439.086366,8142.265362,-6957.935855,1762.019645
1439.086695,7772.162391,-7402.059420,229.828649
1439.087025,4737.318029,-9326.594869,-1225.752797
1439.087354,2664.741391,-9918.759623,-2911.162892
1439.087683,3034.844362,-12065.356855,-1532.190996
1439.088012,3330.926739,-11917.315666,-1149.143247
1439.088342,3034.844362,-10807.006753,-766.095498
1439.088671,4071.132681,-8734.430116,995.924147
1439.089000,7994.224174,-5329.482782,3140.991542
1439.089329,10955.047942,-3701.029710,4290.134789
1439.089659,10955.047942,-1850.514855,4903.011187
1439.089988,10807.006753,0.000000,3830.477490
1439.090317,10288.862594,-814.226536,1838.629195
1439.090646,8808.450710,-1924.535449,842.705048
1439.090976,7920.203579,-5773.606348,612.876398
1439.091305,8808.450710,-6957.935855,-229.828649
1439.091634,6957.935855,-8290.306550,-995.924147
1439.091963,4367.215058,-10140.821405,-1915.238745
1439.092292,4071.132681,-10732.986159,-1838.629195
1439.092622,3701.029710,-11695.253884,-1838.629195
1439.092951,2812.782580,-11991.336260,-1608.800546
1439.093280,2664.741391,-10658.965565,0.000000
1439.093609,5033.400406,-8068.244768,919.314598
1439.093939,8068.244768,-5995.668130,2834.553343
1439.094268,9918.759623,-3923.091493,3907.087040
1439.094597,11399.171507,-666.185348,4826.401637
1439.094926,11917.315666,0.000000,4136.915689
1439.095256,11695.253884,-888.247130,3524.039291
