#time,accel_x,accel_y,accel_z
1235.652355,7624.121203,-6217.729913,1225.752797
1235.652685,7105.977043,-6217.729913,919.314598
1235.653015,6957.935855,-6809.894666,842.705048
1235.653345,6587.832884,-6735.874072,995.924147
1235.653675,6957.935855,-6217.729913,919.314598
1235.654005,7328.038826,-6069.688724,919.314598
1235.654335,7105.977043,-6143.709319,1455.581446
1235.654665,7550.100608,-6291.750507,1072.533697
1235.654995,7105.977043,-6587.832884,1225.752797
1235.655325,6661.853478,-6735.874072,1072.533697
1235.655655,6217.729913,-6291.750507,842.705048
1235.655985,6143.709319,-7105.977043,919.314598
1235.656315,6291.750507,-6365.771101,1532.190996
1235.656645,6957.935855,-6735.874072,1072.533697
1235.656975,7031.956449,-6587.832884,1225.752797
1235.657305,6957.935855,-6513.812290,1302.362347
1235.657635,6735.874072,-7328.038826,689.485948
1235.657965,6217.729913,-7105.977043,919.314598
1235.658296,5995.668130,-7105.977043,1072.533697
1235.658626,6957.935855,-7105.977043,842.705048
1235.658956,7105.977043,-6661.853478,1532.190996
1235.659286,7994.224174,-6957.935855,689.485948
1235.659616,7476.080014,-6587.832884,995.924147
1235.659946,6957.935855,-6439.791695,1072.533697
1235.660276,6957.935855,-6735.874072,383.047749
1235.660606,6143.709319,-6217.729913,1302.362347
1235.660936,7105.977043,-5995.668130,919.314598
1235.661266,7328.038826,-5921.647536,842.705048
1235.661596,7254.018232,-6513.812290,1302.362347
1235.661926,7476.080014,-6291.750507,1149.143247
1235.662256,7476.080014,-5995.668130,612.876398
1235.662586,6957.935855,-6143.709319,689.485948
1235.662916,6365.771101,-6883.915261,383.047749
1235.663246,6513.812290,-6883.915261,842.705048
1235.663576,7031.956449,-6883.915261,1149.143247
1235.663906,7254.018232,-6587.832884,1302.362347
1235.664236,7105.977043,-6069.688724,1302.362347
1235.664566,7105.977043,-6587.832884,1072.533697
1235.664896,6661.853478,-7105.977043,612.876398
1235.665226,6587.832884,-6513.812290,1225.752797
1235.665556,6439.791695,-6809.894666,919.314598
1235.665886,7031.956449,-6809.894666,689.485948
1235.666216,7402.059420,-6365.771101,995.924147
1235.666546,7254.018232,-6217.729913,1072.533697
1235.666876,7328.038826,-6217.729913,1302.362347
1235.667206,7402.059420,-6365.771101,1072.533697
1235.667536,7031.956449,-6513.812290,766.095498
1235.667866,6735.874072,-6735.874072,842.705048
1235.668196,7031.956449,-6069.688724,1455.581446
1235.668526,7550.100608,-5995.668130,766.095498
1235.668856,7105.977043,-5995.668130,1455.581446
1235.669186,7105.977043,-6291.750507,1608.800546
1235.669517,7031.956449,-6735.874072,1149.143247
1235.669847,6735.874072,-6143.709319,1608.800546
1235.670177,5329.482782,-6661.853478,383.047749
1235.670507,6365.771101,-6957.935855,689.485948
1235.670837,7031.956449,-6809.894666,1302.362347
1235.671167,7105.977043,-6883.915261,1072.533697
1235.671497,6735.874072,-6513.812290,1455.581446
1235.671827,6661.853478,-6809.894666,1455.581446
1235.672157,6587.832884,-7698.141797,842.705048
1235.672487,6217.729913,-6883.915261,766.095498
1235.672817,6291.750507,-6883.915261,919.314598
1235.673147,6587.832884,-7105.977043,842.705048
1235.673477,7031.956449,-6809.894666,1302.362347
1235.673807,7179.997637,-6365.771101,1302.362347
1235.674137,7328.038826,-6587.832884,612.876398
1235.674467,7179.997637,-6587.832884,1149.143247
1235.674797,6587.832884,-6957.935855,919.314598
1235.675127,6735.874072,-6883.915261,1302.362347
1235.675457,7105.977043,-6365.771101,842.705048
1235.675787,7476.080014,-5773.606348,1149.143247
1235.676117,7179.997637,-6217.729913,1378.971896
1235.676447,7105.977043,-6365.771101,1378.971896
1235.676777,7402.059420,-6291.750507,1149.143247
1235.677107,6661.853478,-6069.688724,1072.533697
1235.677437,5995.668130,-6291.750507,919.314598
1235.677767,6365.771101,-6809.894666,459.657299
1235.678097,6957.935855,-6809.894666,1149.143247
1235.678427,7254.018232,-6957.935855,842.705048
1235.678757,7179.997637,-6439.791695,2145.067394
1235.679087,7031.956449,-6809.894666,1455.581446
1235.679417,6883.915261,-6661.853478,459.657299
1235.679747,6587.832884,-7105.977043,612.876398
1235.680077,6735.874072,-6809.894666,766.095498
1235.680407,7254.018232,-6291.750507,1225.752797
1235.680738,7476.080014,-6069.688724,1532.190996
1235.681068,7698.141797,-6217.729913,919.314598
1235.681398,7476.080014,-6143.709319,1149.143247
1235.681728,7105.977043,-6217.729913,995.924147
1235.682058,7179.997637,-6883.915261,459.657299
1235.682388,7031.956449,-6217.729913,995.924147
1235.682718,7105.977043,-6217.729913,612.876398
1235.683048,7476.080014,-6069.688724,995.924147
1235.683378,7328.038826,-6069.688724,1455.581446
1235.683708,7328.038826,-6291.750507,1608.800546
1235.684038,7254.018232,-6735.874072,919.314598
1235.684368,6809.894666,-6365.771101,919.314598
1235.684698,6143.709319,-6439.791695,536.266849
1235.685028,6513.812290,-6735.874072,1225.752797
1235.685358,6513.812290,-6661.853478,1149.143247
1235.685688,6809.894666,-6587.832884,1149.143247
1235.686018,6661.853478,-6513.812290,1149.143247
1235.686348,6587.832884,-6661.853478,919.314598
1235.686678,6587.832884,-7105.977043,842.705048
1235.687008,6217.729913,-6883.915261,766.095498
1235.687338,6439.791695,-7105.977043,919.314598
1235.687668,6809.894666,-7179.997637,919.314598
1235.687998,7328.038826,-6809.894666,1685.410096
1235.688328,7402.059420,-6587.832884,1225.752797
1235.688658,7476.080014,-6809.894666,1302.362347
1235.688988,7105.977043,-6365.771101,919.314598
1235.689318,6439.791695,-6883.915261,689.485948
1235.689648,6513.812290,-6291.750507,1072.533697
1235.689978,6809.894666,-6069.688724,766.095498
1235.690308,7550.100608,-5995.668130,1149.143247
1235.690638,7105.977043,-6217.729913,1455.581446
1235.690968,7328.038826,-6439.791695,1149.143247
1235.691298,7105.977043,-6809.894666,842.705048
1235.691628,6735.874072,-6513.812290,919.314598
1235.691959,6143.709319,-6587.832884,536.266849
1235.692289,6809.894666,-6809.894666,995.924147
1235.692619,7105.977043,-6957.935855,995.924147
1235.692949,6883.915261,-7105.977043,1455.581446
1235.693279,7105.977043,-6291.750507,1378.971896
1235.693609,7105.977043,-6883.915261,766.095498
1235.693939,7031.956449,-6735.874072,1149.143247
1235.694269,6439.791695,-6883.915261,383.047749
1235.694599,6735.874072,-6661.853478,0.000000
1235.694929,7105.977043,-6661.853478,1149.143247
1235.695259,7624.121203,-6217.729913,1225.752797
1235.695589,7328.038826,-5847.626942,1685.410096
1235.695919,7698.141797,-6365.771101,1149.143247
1235.696249,7476.080014,-6661.853478,842.705048
1235.696579,6809.894666,-6883.915261,536.266849
1235.696909,7031.956449,-6439.791695,842.705048
1235.697239,7624.121203,-5921.647536,612.876398
1235.697569,7179.997637,-6217.729913,995.924147
1235.697899,7179.997637,-5995.668130,1302.362347
1235.698229,7328.038826,-6291.750507,1149.143247
1235.698559,7105.977043,-5921.647536,1532.190996
1235.698889,6809.894666,-5773.606348,536.266849
1235.699219,6439.791695,-6587.832884,766.095498
1235.699549,6513.812290,-6809.894666,842.705048
1235.699879,6957.935855,-6587.832884,1149.143247
1235.700209,7031.956449,-6513.812290,1455.581446
1235.700539,7031.956449,-6661.853478,1225.752797
1235.700869,6587.832884,-7031.956449,1149.143247
1235.701199,6513.812290,-7254.018232,842.705048
1235.701529,6439.791695,-6883.915261,995.924147
1235.701859,6809.894666,-6883.915261,842.705048
1235.702189,7105.977043,-6587.832884,1149.143247
1235.702519,7328.038826,-6661.853478,1532.190996
1235.702849,7328.038826,-6587.832884,1149.143247
1235.703180,7105.977043,-6291.750507,1685.410096
1235.703510,6809.894666,-6365.771101,842.705048
1235.703840,6735.874072,-6957.935855,536.266849
1235.704170,6809.894666,-7105.977043,1225.752797
1235.704500,7328.038826,-6439.791695,1225.752797
1235.704830,7328.038826,-6217.729913,689.485948
1235.705160,6957.935855,-5995.668130,1532.190996
1235.705490,7105.977043,-6661.853478,995.924147
1235.705820,7105.977043,-6513.812290,1532.190996
1235.706150,6587.832884,-6439.791695,1455.581446
1235.706480,6439.791695,-6513.812290,842.705048
1235.706810,6735.874072,-6661.853478,1378.971896
1235.707140,6809.894666,-6439.791695,1225.752797
1235.707470,6957.935855,-6587.832884,1225.752797
1235.707800,6809.894666,-6217.729913,1072.533697
1235.708130,6735.874072,-6957.935855,1149.143247
1235.708460,6809.894666,-6809.894666,612.876398
1235.708790,6365.771101,-7105.977043,919.314598
1235.709120,6587.832884,-6883.915261,1072.533697
1235.709450,7254.018232,-6735.874072,842.705048
1235.709780,7328.038826,-6143.709319,1072.533697
1235.710110,7550.100608,-6291.750507,1072.533697
1235.710440,7698.141797,-6217.729913,1072.533697
1235.710770,7105.977043,-6069.688724,1072.533697
1235.711100,7031.956449,-6513.812290,689.485948
1235.711430,6957.935855,-5921.647536,766.095498
1235.711760,7105.977043,-6439.791695,766.095498
1235.712090,6957.935855,-6217.729913,1072.533697
1235.712420,7105.977043,-6143.709319,1225.752797
1235.712750,7328.038826,-6587.832884,1302.362347
1235.713080,7402.059420,-6661.853478,995.924147
1235.713410,6587.832884,-6217.729913,689.485948
1235.713740,6365.771101,-6217.729913,689.485948
1235.714070,6439.791695,-6883.915261,1149.143247
1235.714401,6513.812290,-6587.832884,995.924147
1235.714731,7031.956449,-6661.853478,1149.143247
1235.715061,7179.997637,-6513.812290,1225.752797
1235.715391,6883.915261,-6291.750507,1685.410096
1235.715721,6513.812290,-6883.915261,766.095498
1235.716051,5995.668130,-7105.977043,842.705048
1235.716380,6587.832884,-7031.956449,306.438199
1235.716710,7402.059420,-7031.956449,1302.362347
1235.717040,7254.018232,-6439.791695,1685.410096
1235.717369,7624.121203,-6587.832884,1225.752797
1235.717699,7550.100608,-6291.750507,1072.533697
1235.718028,6957.935855,-6513.812290,919.314598
1235.718358,6735.874072,-6513.812290,1072.533697
1235.718688,6809.894666,-6365.771101,919.314598
1235.719017,7031.956449,-6439.791695,842.705048
1235.719347,7105.977043,-6513.812290,1302.362347
1235.719677,7328.038826,-5921.647536,1225.752797
1235.720006,7328.038826,-6217.729913,995.924147
1235.720336,7105.977043,-6291.750507,1225.752797
1235.720666,6587.832884,-6957.935855,842.705048
1235.720995,6365.771101,-6957.935855,995.924147
1235.721325,6957.935855,-7105.977043,1532.190996
1235.721654,7105.977043,-6513.812290,1149.143247
1235.721984,7179.997637,-6439.791695,1072.533697
1235.722314,7179.997637,-6365.771101,1532.190996
1235.722643,6661.853478,-7105.977043,1378.971896
1235.722973,6513.812290,-6587.832884,536.266849
1235.723303,6217.729913,-6957.935855,919.314598
1235.723632,6513.812290,-7031.956449,612.876398
1235.723962,7105.977043,-6513.812290,1072.533697
1235.724291,7550.100608,-6217.729913,1532.190996
1235.724621,7624.121203,-6365.771101,1225.752797
1235.724951,7402.059420,-6143.709319,1302.362347
1235.725280,7179.997637,-6291.750507,842.705048
1235.725610,6809.894666,-6735.874072,1149.143247
1235.725940,7624.121203,-6143.709319,1838.629195
1235.726269,7179.997637,-6069.688724,689.485948
1235.726599,7105.977043,-5847.626942,1149.143247
1235.726929,7254.018232,-6291.750507,1378.971896
1235.727258,7402.059420,-6143.709319,1149.143247
1235.727588,7179.997637,-6439.791695,1149.143247
1235.727917,6513.812290,-5995.668130,919.314598
1235.728247,6069.688724,-6439.791695,766.095498
1235.728577,6661.853478,-6439.791695,1302.362347
1235.728906,7105.977043,-6143.709319,1762.019645
1235.729236,7031.956449,-6439.791695,1225.752797
1235.729566,6957.935855,-6217.729913,1149.143247
1235.729895,6809.894666,-6957.935855,995.924147
1235.730225,6291.750507,-7031.956449,689.485948
1235.730555,6291.750507,-6661.853478,1149.143247
1235.730884,6587.832884,-7105.977043,612.876398
1235.731214,7328.038826,-7179.997637,1072.533697
1235.731543,7402.059420,-6513.812290,1302.362347
1235.731873,7328.038826,-6365.771101,1225.752797
1235.732203,7402.059420,-6291.750507,1455.581446
1235.732532,6809.894666,-6365.771101,1072.533697
1235.732862,6661.853478,-6587.832884,842.705048
1235.733192,6735.874072,-6217.729913,842.705048
1235.733521,7105.977043,-6217.729913,229.828649
1235.733851,6809.894666,-6439.791695,1149.143247
1235.734180,7105.977043,-6513.812290,1455.581446
1235.734510,7328.038826,-6587.832884,919.314598
1235.734840,7031.956449,-6735.874072,1225.752797
1235.735169,6291.750507,-6809.894666,995.924147
1235.735499,6217.729913,-7105.977043,1149.143247
1235.735829,6809.894666,-6809.894666,1225.752797
1235.736158,7105.977043,-6735.874072,1302.362347
1235.736488,7624.121203,-6809.894666,1072.533697
1235.736818,7105.977043,-6735.874072,1149.143247
1235.737147,7031.956449,-6883.915261,842.705048
1235.737477,6513.812290,-6883.915261,689.485948
1235.737806,6809.894666,-6661.853478,1072.533697
1235.738136,6735.874072,-6439.791695,0.000000
1235.738466,7179.997637,-6291.750507,1072.533697
1235.738795,7105.977043,-6513.812290,1838.629195
1235.739125,7624.121203,-6513.812290,1455.581446
1235.739455,7254.018232,-5699.585753,1378.971896
1235.739784,7031.956449,-6439.791695,919.314598
1235.740114,6883.915261,-6661.853478,1072.533697
1235.740443,7105.977043,-6069.688724,995.924147
1235.740773,7402.059420,-6069.688724,766.095498
1235.741103,7772.162391,-6069.688724,1608.800546
1235.741432,7328.038826,-5699.585753,1762.019645
1235.741762,7402.059420,-6439.791695,1149.143247
1235.742092,6809.894666,-6217.729913,1072.533697
1235.742421,6217.729913,-6587.832884,842.705048
1235.742751,6587.832884,-6883.915261,536.266849
1235.743081,6809.894666,-7105.977043,1378.971896
1235.743410,6957.935855,-6735.874072,1149.143247
1235.743740,7105.977043,-6661.853478,1378.971896
1235.744069,6957.935855,-6291.750507,1991.848295
1235.744399,6735.874072,-6809.894666,842.705048
1235.744729,6439.791695,-6883.915261,689.485948
1235.745058,6439.791695,-6661.853478,842.705048
1235.745388,7105.977043,-6957.935855,842.705048
1235.745718,7179.997637,-6957.935855,1378.971896
1235.746047,7105.977043,-6513.812290,995.924147
1235.746377,7550.100608,-6439.791695,459.657299
1235.746707,7105.977043,-6439.791695,1072.533697
1235.747036,7402.059420,-6883.915261,459.657299
1235.747366,7031.956449,-6661.853478,766.095498
1235.747695,7031.956449,-6217.729913,1225.752797
1235.748025,7179.997637,-6365.771101,1149.143247
1235.748355,7105.977043,-5921.647536,1685.410096
1235.748684,7550.100608,-6587.832884,1149.143247
1235.749014,7402.059420,-6513.812290,919.314598
1235.749344,7105.977043,-6439.791695,995.924147
1235.749673,6439.791695,-6661.853478,842.705048
1235.750003,6883.915261,-6883.915261,995.924147
1235.750332,7031.956449,-7105.977043,1225.752797
1235.750662,6883.915261,-6587.832884,1685.410096
1235.750992,6957.935855,-6587.832884,1072.533697
1235.751321,7031.956449,-6587.832884,1455.581446
1235.751651,6661.853478,-6883.915261,1149.143247
1235.751981,6735.874072,-6957.935855,689.485948
1235.752310,6809.894666,-6587.832884,919.314598
1235.752640,7105.977043,-6661.853478,612.876398
1235.752970,7179.997637,-6957.935855,1225.752797
1235.753299,7550.100608,-6809.894666,1149.143247
1235.753629,7550.100608,-6587.832884,995.924147
1235.753958,7402.059420,-6217.729913,1378.971896
1235.754288,6883.915261,-6809.894666,1149.143247
1235.754618,6513.812290,-7031.956449,1072.533697
1235.754947,6809.894666,-6217.729913,1072.533697
1235.755277,7105.977043,-6069.688724,995.924147
1235.755607,7105.977043,-6069.688724,1302.362347
1235.755936,7402.059420,-6069.688724,1532.190996
1235.756266,7772.162391,-6143.709319,995.924147
1235.756595,7105.977043,-5847.626942,1072.533697
1235.756925,6513.812290,-6291.750507,536.266849
1235.757255,6365.771101,-6883.915261,766.095498
1235.757584,6513.812290,-6661.853478,766.095498
1235.757914,6661.853478,-7031.956449,1072.533697
1235.758244,6809.894666,-6957.935855,1302.362347
1235.758573,7105.977043,-6809.894666,1455.581446
1235.758903,6439.791695,-7105.977043,689.485948
1235.759233,5699.585753,-6735.874072,1455.581446
1235.759562,6291.750507,-6809.894666,842.705048
1235.759892,6735.874072,-6883.915261,842.705048
1235.760221,7179.997637,-6291.750507,1225.752797
1235.760551,7402.059420,-5847.626942,1532.190996
1235.760881,7698.141797,-5551.544565,1762.019645
1235.761210,7254.018232,-6513.812290,1149.143247
1235.761540,6883.915261,-6587.832884,536.266849
1235.761870,7031.956449,-7105.977043,919.314598
1235.762199,7105.977043,-7105.977043,153.219100
1235.762529,6957.935855,-6809.894666,842.705048
1235.762859,6883.915261,-6661.853478,1225.752797
1235.763188,7105.977043,-6587.832884,1225.752797
1235.763518,7179.997637,-6365.771101,1149.143247
1235.763847,7179.997637,-5625.565159,1302.362347
1235.764177,6587.832884,-6513.812290,1149.143247
1235.764507,6809.894666,-6513.812290,766.095498
1235.764836,6883.915261,-6513.812290,919.314598
1235.765166,6957.935855,-5625.565159,1302.362347
1235.765496,7698.141797,-5181.441594,1378.971896
1235.765825,7994.224174,-5773.606348,1378.971896
1235.766155,8142.265362,-6143.709319,995.924147
1235.766484,7698.141797,-6439.791695,766.095498
1235.766814,6883.915261,-6883.915261,0.000000
1235.767144,6217.729913,-7476.080014,0.000000
1235.767473,5995.668130,-7179.997637,612.876398
1235.767803,7476.080014,-6587.832884,995.924147
1235.768133,8660.409521,-6365.771101,1149.143247
1235.768462,8438.347739,-5329.482782,1685.410096
1235.768792,8068.244768,-5181.441594,1302.362347
1235.769122,7994.224174,-3849.070898,1072.533697
1235.769451,8216.285956,-4145.153275,1072.533697
1235.769781,8438.347739,-3923.091493,1072.533697
1235.770110,8882.471304,-3849.070898,1685.410096
1235.770440,9178.553681,-4293.194464,1762.019645
1235.770770,8956.491898,-4367.215058,919.314598
1235.771099,8290.306550,-4885.359217,995.924147
1235.771429,7698.141797,-5033.400406,306.438199
1235.771759,8142.265362,-5625.565159,612.876398
1235.772088,8512.368333,-6365.771101,1455.581446
1235.772418,8142.265362,-5699.585753,1149.143247
1235.772748,7550.100608,-5625.565159,1072.533697
1235.773077,7476.080014,-5699.585753,1149.143247
1235.773407,7254.018232,-5625.565159,383.047749
1235.773736,7550.100608,-5033.400406,612.876398
1235.774066,7846.182985,-4737.318029,1225.752797
1235.774396,8734.430116,-5033.400406,919.314598
1235.774725,9178.553681,-3478.967927,1608.800546
1235.775055,9622.677246,-3404.947333,1608.800546
1235.775385,10288.862594,-3182.885551,1378.971896
1235.775714,10140.821405,-2738.761985,1455.581446
1235.776044,9474.636058,-3923.091493,1532.190996
1235.776373,8734.430116,-4145.153275,1149.143247
1235.776703,9400.615463,-4589.276840,1149.143247
1235.777033,8882.471304,-4959.379811,842.705048
1235.777362,8586.388927,-5181.441594,1685.410096
1235.777692,8660.409521,-5329.482782,1762.019645
1235.778022,9030.512492,-5329.482782,1225.752797
1235.778351,8068.244768,-5329.482782,1455.581446
1235.778681,7920.203579,-4589.276840,842.705048
1235.779011,8956.491898,-4367.215058,919.314598
1235.779340,8290.306550,-3849.070898,612.876398
1235.779670,8364.327145,-4737.318029,842.705048
1235.779999,9252.574275,-4293.194464,842.705048
1235.780329,9400.615463,-4441.235652,1225.752797
1235.780659,9030.512492,-4737.318029,536.266849
1235.780988,8734.430116,-5329.482782,536.266849
1235.781318,8660.409521,-6217.729913,0.000000
1235.781648,8512.368333,-5625.565159,153.219100
1235.781977,8808.450710,-5329.482782,459.657299
1235.782307,9030.512492,-5033.400406,0.000000
1235.782636,8956.491898,-5033.400406,766.095498
1235.782966,8882.471304,-5551.544565,1072.533697
1235.783296,9400.615463,-4219.173869,1149.143247
1235.783625,8660.409521,-4589.276840,1608.800546
1235.783955,8512.368333,-4441.235652,1532.190996
1235.784285,9104.533087,-3330.926739,1302.362347
1235.784614,8882.471304,-4219.173869,1991.848295
1235.784944,9474.636058,-4145.153275,2451.505594
1235.785274,9030.512492,-4515.256246,1225.752797
1235.785603,8216.285956,-3478.967927,842.705048
1235.785933,7920.203579,-4663.297435,459.657299
1235.786262,7994.224174,-5551.544565,229.828649
1235.786592,8364.327145,-5773.606348,306.438199
1235.786922,7772.162391,-6513.812290,0.000000
1235.787251,8068.244768,-5699.585753,229.828649
1235.787581,7846.182985,-6661.853478,612.876398
1235.787911,7624.121203,-7105.977043,1532.190996
1235.788240,7328.038826,-8290.306550,1225.752797
1235.788570,7179.997637,-6809.894666,689.485948
1235.788900,7105.977043,-7328.038826,1072.533697
1235.789229,7105.977043,-7105.977043,1915.238745
1235.789559,7920.203579,-5995.668130,1838.629195
1235.789888,8438.347739,-6365.771101,1915.238745
1235.790218,7698.141797,-5403.503377,1302.362347
1235.790548,6809.894666,-5107.421000,842.705048
1235.790877,6661.853478,-4441.235652,919.314598
1235.791207,7476.080014,-4737.318029,-995.924147
1235.791537,7550.100608,-4589.276840,-383.047749
1235.791866,7846.182985,-4441.235652,0.000000
1235.792196,8956.491898,-5403.503377,0.000000
1235.792525,9178.553681,-5773.606348,1455.581446
1235.792855,8808.450710,-6291.750507,1302.362347
1235.793185,8512.368333,-6735.874072,1991.848295
1235.793514,8068.244768,-7772.162391,2451.505594
1235.793844,7105.977043,-8216.285956,2757.943793
1235.794174,6735.874072,-7920.203579,1685.410096
1235.794503,5551.544565,-7994.224174,1532.190996
1235.794833,4811.338623,-7624.121203,689.485948
1235.795163,4367.215058,-7550.100608,229.828649
1235.795492,4589.276840,-6143.709319,-306.438199
1235.795822,5181.441594,-5995.668130,-689.485948
1235.796151,6217.729913,-5921.647536,-383.047749
1235.796481,6957.935855,-5329.482782,0.000000
1235.796811,7550.100608,-5477.523971,459.657299
1235.797140,8882.471304,-5403.503377,2681.334243
1235.797470,9326.594869,-5625.565159,2451.505594
1235.797800,9474.636058,-5477.523971,2528.115143
1235.798129,9770.718434,-4071.132681,3294.210641
1235.798459,9770.718434,-4219.173869,2834.553343
1235.798788,8808.450710,-4515.256246,2528.115143
1235.799118,7179.997637,-6217.729913,2374.896044
1235.799448,6439.791695,-6069.688724,612.876398
1235.799777,5255.462188,-5995.668130,0.000000
1235.800107,5403.503377,-7105.977043,76.609550
1235.800437,5699.585753,-7402.059420,1302.362347
1235.800766,7105.977043,-7254.018232,1608.800546
1235.801096,7328.038826,-7254.018232,1685.410096
1235.801426,7402.059420,-6957.935855,1225.752797
1235.801755,7402.059420,-7105.977043,919.314598
1235.802085,6439.791695,-8290.306550,766.095498
1235.802414,5551.544565,-8734.430116,0.000000
1235.802744,4737.318029,-8290.306550,76.609550
1235.803074,5403.503377,-8438.347739,459.657299
1235.803403,6365.771101,-8068.244768,612.876398
1235.803733,5921.647536,-7772.162391,1455.581446
1235.804063,5995.668130,-6957.935855,1225.752797
1235.804392,6217.729913,-6143.709319,1455.581446
1235.804722,7179.997637,-5477.523971,2451.505594
1235.805052,7994.224174,-6217.729913,2374.896044
1235.805381,8142.265362,-5107.421000,2451.505594
1235.805711,8142.265362,-3923.091493,1302.362347
1235.806040,7550.100608,-4367.215058,1532.190996
1235.806370,7846.182985,-4515.256246,1149.143247
1235.806700,8142.265362,-5181.441594,612.876398
1235.807029,7920.203579,-4959.379811,306.438199
1235.807359,6957.935855,-6587.832884,536.266849
1235.807689,6439.791695,-7254.018232,383.047749
1235.808018,6069.688724,-7476.080014,842.705048
1235.808348,6439.791695,-7920.203579,1072.533697
1235.808677,6513.812290,-8364.327145,1915.238745
1235.809007,6291.750507,-8882.471304,2298.286494
1235.809337,5329.482782,-8734.430116,1532.190996
1235.809666,4737.318029,-7846.182985,-153.219100
1235.809996,4589.276840,-7328.038826,-612.876398
1235.810326,5699.585753,-6809.894666,-459.657299
1235.810655,7179.997637,-5773.606348,306.438199
1235.810985,8290.306550,-5033.400406,612.876398
1235.811315,9400.615463,-4589.276840,842.705048
1235.811644,9474.636058,-3997.112087,1149.143247
1235.811974,8808.450710,-4811.338623,1072.533697
1235.812303,8216.285956,-5773.606348,1455.581446
1235.812633,8364.327145,-5551.544565,1302.362347
1235.812963,8290.306550,-5477.523971,995.924147
1235.813292,7920.203579,-6069.688724,1608.800546
1235.813622,7846.182985,-5773.606348,1915.238745
1235.813952,7772.162391,-6365.771101,1302.362347
1235.814281,6809.894666,-5995.668130,306.438199
1235.814611,5699.585753,-5921.647536,0.000000
1235.814940,5403.503377,-7105.977043,459.657299
1235.815270,6735.874072,-7105.977043,1072.533697
1235.815600,7254.018232,-6809.894666,1608.800546
1235.815929,7624.121203,-6069.688724,1762.019645
1235.816259,7920.203579,-5329.482782,1915.238745
1235.816589,7846.182985,-6291.750507,1915.238745
1235.816918,6957.935855,-6883.915261,842.705048
1235.817248,5625.565159,-7105.977043,76.609550
1235.817578,5329.482782,-7550.100608,-842.705048
1235.817907,5477.523971,-8216.285956,0.000000
1235.818237,5847.626942,-8512.368333,383.047749
1235.818566,6291.750507,-8586.388927,229.828649
1235.818896,6365.771101,-8512.368333,1149.143247
1235.819225,6365.771101,-8438.347739,1225.752797
1235.819554,6365.771101,-8438.347739,1378.971896
1235.819884,6439.791695,-6217.729913,1685.410096
1235.820213,6957.935855,-5551.544565,919.314598
1235.820543,7328.038826,-5033.400406,2068.457845
1235.820872,8068.244768,-3701.029710,1915.238745
1235.821202,9030.512492,-3849.070898,1838.629195
1235.821531,8586.388927,-2960.823768,1072.533697
1235.821860,8068.244768,-3997.112087,459.657299
1235.822190,7920.203579,-5551.544565,842.705048
1235.822519,7402.059420,-6661.853478,919.314598
1235.822849,6957.935855,-7031.956449,842.705048
1235.823178,6587.832884,-8142.265362,1225.752797
1235.823507,6735.874072,-8660.409521,1838.629195
1235.823837,5995.668130,-9992.780217,1762.019645
1235.824166,5551.544565,-9326.594869,919.314598
1235.824496,4589.276840,-8364.327145,229.828649
1235.824825,4737.318029,-7624.121203,0.000000
1235.825154,5403.503377,-6439.791695,229.828649
1235.825484,5995.668130,-5699.585753,229.828649
1235.825813,7254.018232,-4737.318029,459.657299
1235.826143,7994.224174,-4737.318029,1149.143247
1235.826472,8438.347739,-4811.338623,1225.752797
1235.826801,8068.244768,-5181.441594,1608.800546
1235.827131,7994.224174,-5625.565159,1762.019645
1235.827460,9104.533087,-6217.729913,919.314598
1235.827790,8068.244768,-6661.853478,1685.410096
1235.828119,7624.121203,-6661.853478,1532.190996
1235.828449,7402.059420,-7105.977043,1378.971896
1235.828778,7105.977043,-6883.915261,689.485948
1235.829107,5551.544565,-7179.997637,0.000000
1235.829437,5403.503377,-7179.997637,536.266849
1235.829766,5847.626942,-6957.935855,306.438199
1235.830096,5773.606348,-5921.647536,612.876398
1235.830425,6661.853478,-6217.729913,919.314598
1235.830754,7772.162391,-6143.709319,2145.067394
1235.831084,7846.182985,-6069.688724,2298.286494
1235.831413,7550.100608,-5921.647536,1302.362347
1235.831743,6957.935855,-5699.585753,1455.581446
1235.832072,7402.059420,-7031.956449,689.485948
1235.832401,7698.141797,-7105.977043,995.924147
1235.832731,7105.977043,-7402.059420,306.438199
1235.833060,6661.853478,-7550.100608,-306.438199
1235.833390,6883.915261,-8142.265362,229.828649
1235.833719,6069.688724,-8734.430116,459.657299
1235.834049,6069.688724,-8364.327145,689.485948
1235.834378,5403.503377,-7476.080014,612.876398
1235.834707,5773.606348,-6365.771101,536.266849
1235.835037,7031.956449,-6291.750507,1532.190996
1235.835366,7550.100608,-5699.585753,2298.286494
1235.835696,8438.347739,-4737.318029,1991.848295
1235.836025,8512.368333,-3478.967927,1608.800546
1235.836354,8512.368333,-2664.741391,1302.362347
1235.836684,9326.594869,-3923.091493,1072.533697
1235.837013,8586.388927,-5255.462188,1149.143247
1235.837343,7994.224174,-5921.647536,1225.752797
1235.837672,7846.182985,-7254.018232,1149.143247
1235.838001,7105.977043,-7328.038826,2451.505594
1235.838331,6735.874072,-9178.553681,1455.581446
1235.838660,5699.585753,-9252.574275,995.924147
1235.838990,4811.338623,-9326.594869,459.657299
1235.839319,4219.173869,-8734.430116,-229.828649
1235.839648,4367.215058,-7476.080014,0.000000
1235.839978,4441.235652,-6587.832884,76.609550
1235.840307,6365.771101,-6069.688724,76.609550
1235.840637,7105.977043,-6069.688724,459.657299
1235.840966,8216.285956,-5329.482782,612.876398
1235.841296,8068.244768,-5329.482782,1915.238745
1235.841625,8882.471304,-4885.359217,2068.457845
1235.841954,9400.615463,-5033.400406,1915.238745
1235.842284,9030.512492,-5847.626942,2145.067394
1235.842613,8882.471304,-4959.379811,1455.581446
1235.842943,8068.244768,-6587.832884,1608.800546
1235.843272,7402.059420,-6661.853478,919.314598
1235.843601,6513.812290,-6809.894666,383.047749
1235.843931,5477.523971,-6661.853478,612.876398
1235.844260,5329.482782,-6735.874072,229.828649
1235.844590,5255.462188,-7179.997637,612.876398
1235.844919,5995.668130,-6809.894666,1072.533697
1235.845248,6809.894666,-6291.750507,1608.800546
1235.845578,7402.059420,-5699.585753,2298.286494
1235.845907,7254.018232,-5921.647536,1838.629195
1235.846237,7328.038826,-6291.750507,1762.019645
1235.846566,7476.080014,-6809.894666,1685.410096
1235.846896,7105.977043,-7179.997637,1455.581446
1235.847225,6809.894666,-7105.977043,612.876398
1235.847554,6809.894666,-7624.121203,76.609550
1235.847884,6513.812290,-8438.347739,229.828649
1235.848213,6069.688724,-8512.368333,0.000000
1235.848543,5995.668130,-8290.306550,612.876398
1235.848872,6439.791695,-7550.100608,536.266849
1235.849201,6513.812290,-6809.894666,1455.581446
1235.849531,6291.750507,-6217.729913,1532.190996
1235.849860,6587.832884,-5625.565159,2451.505594
1235.850190,7328.038826,-4441.235652,2145.067394
1235.850519,8364.327145,-2886.803174,1608.800546
1235.850848,8290.306550,-3404.947333,1455.581446
1235.851178,8586.388927,-4071.132681,1225.752797
1235.851507,8956.491898,-4515.256246,766.095498
1235.851837,7772.162391,-6217.729913,919.314598
1235.852166,7031.956449,-7772.162391,842.705048
1235.852496,7179.997637,-8142.265362,536.266849
1235.852825,7031.956449,-9474.636058,995.924147
1235.853154,6661.853478,-9844.739029,1608.800546
1235.853484,5181.441594,-9548.656652,383.047749
1235.853813,4737.318029,-9326.594869,229.828649
1235.854143,4663.297435,-7994.224174,-229.828649
1235.854472,4367.215058,-7031.956449,0.000000
1235.854801,5033.400406,-6439.791695,-229.828649
1235.855131,5995.668130,-5551.544565,229.828649
1235.855460,7105.977043,-5403.503377,612.876398
1235.855790,8068.244768,-5329.482782,1302.362347
1235.856119,8808.450710,-4737.318029,2221.676944
1235.856448,9178.553681,-4737.318029,1915.238745
1235.856778,8512.368333,-5921.647536,1685.410096
1235.857107,9178.553681,-6217.729913,1991.848295
1235.857437,8882.471304,-6735.874072,2145.067394
1235.857766,8808.450710,-6143.709319,1915.238745
1235.858095,7031.956449,-6587.832884,842.705048
1235.858425,5551.544565,-6883.915261,0.000000
1235.858754,5255.462188,-6291.750507,229.828649
1235.859084,5403.503377,-5699.585753,-459.657299
1235.859413,5477.523971,-6513.812290,919.314598
1235.859743,6143.709319,-5625.565159,1149.143247
1235.860072,7179.997637,-5477.523971,1378.971896
1235.860401,8216.285956,-5625.565159,2757.943793
1235.860731,8512.368333,-5477.523971,2451.505594
1235.861060,8586.388927,-6143.709319,2068.457845
1235.861390,8216.285956,-5995.668130,1838.629195
1235.861719,7402.059420,-6957.935855,1149.143247
1235.862048,7920.203579,-7179.997637,842.705048
1235.862378,6661.853478,-7994.224174,306.438199
1235.862707,5921.647536,-9030.512492,-459.657299
1235.863037,5107.421000,-9104.533087,-306.438199
1235.863366,5033.400406,-8586.388927,0.000000
1235.863695,5033.400406,-8364.327145,766.095498
1235.864025,5329.482782,-7624.121203,919.314598
1235.864354,5921.647536,-6883.915261,1608.800546
1235.864684,7031.956449,-6291.750507,2298.286494
1235.865013,7476.080014,-4589.276840,2374.896044
1235.865343,8290.306550,-2664.741391,1838.629195
1235.865672,8660.409521,-2664.741391,1532.190996
1235.866001,9178.553681,-3108.864956,1685.410096
1235.866331,9474.636058,-4441.235652,1072.533697
1235.866660,7994.224174,-5329.482782,1072.533697
1235.866990,7624.121203,-7105.977043,383.047749
1235.867319,6143.709319,-9030.512492,306.438199
1235.867648,5255.462188,-10288.862594,1149.143247
1235.867978,5329.482782,-9992.780217,995.924147
1235.868307,5255.462188,-9326.594869,1225.752797
1235.868637,5181.441594,-9178.553681,1378.971896
1235.868966,4959.379811,-7772.162391,76.609550
1235.869295,4663.297435,-7328.038826,0.000000
1235.869625,5033.400406,-6069.688724,0.000000
1235.869954,6217.729913,-5403.503377,76.609550
1235.870284,7772.162391,-4737.318029,1072.533697
1235.870613,9104.533087,-3923.091493,1378.971896
1235.870942,9104.533087,-4219.173869,1915.238745
1235.871272,9548.656652,-5033.400406,2221.676944
1235.871601,8956.491898,-5921.647536,2145.067394
1235.871931,8882.471304,-6365.771101,1685.410096
1235.872260,8216.285956,-6661.853478,1455.581446
1235.872590,7328.038826,-7624.121203,612.876398
1235.872919,6439.791695,-7476.080014,919.314598
1235.873248,5625.565159,-7402.059420,306.438199
1235.873578,5033.400406,-6957.935855,0.000000
1235.873907,5107.421000,-6439.791695,306.438199
1235.874237,5699.585753,-6587.832884,995.924147
1235.874566,6291.750507,-6143.709319,689.485948
1235.874895,6587.832884,-5403.503377,1455.581446
1235.875225,7550.100608,-5403.503377,2068.457845
1235.875554,8660.409521,-5403.503377,2068.457845
1235.875884,9104.533087,-5107.421000,1991.848295
1235.876213,8290.306550,-6365.771101,1685.410096
1235.876542,7920.203579,-7031.956449,1378.971896
1235.876872,7328.038826,-7254.018232,536.266849
1235.877201,6365.771101,-7772.162391,0.000000
1235.877531,5847.626942,-8216.285956,0.000000
1235.877860,5551.544565,-8438.347739,0.000000
1235.878190,5107.421000,-8586.388927,536.266849
1235.878519,4959.379811,-7698.141797,689.485948
1235.878848,5995.668130,-6513.812290,1378.971896
1235.879178,6735.874072,-5403.503377,1762.019645
1235.879507,7476.080014,-4145.153275,2068.457845
1235.879837,7920.203579,-3552.988522,2068.457845
1235.880166,9178.553681,-3034.844362,1915.238745
1235.880495,9104.533087,-2368.659014,1302.362347
1235.880825,8956.491898,-3775.050304,1149.143247
1235.881154,9030.512492,-4737.318029,842.705048
1235.881484,7994.224174,-7031.956449,536.266849
1235.881813,7402.059420,-8438.347739,1072.533697
1235.882142,6513.812290,-9400.615463,459.657299
1235.882472,5625.565159,-9696.697840,459.657299
1235.882801,5773.606348,-10658.965565,766.095498
1235.883131,4737.318029,-10362.883188,1225.752797
1235.883460,4219.173869,-9104.533087,0.000000
1235.883790,3775.050304,-8290.306550,-306.438199
1235.884119,4367.215058,-7254.018232,-229.828649
1235.884448,5699.585753,-7698.141797,383.047749
1235.884778,7031.956449,-5403.503377,1685.410096
1235.885107,8290.306550,-4219.173869,842.705048
1235.885437,8808.450710,-4441.235652,1225.752797
1235.885766,9400.615463,-4145.153275,1838.629195
1235.886095,9548.656652,-5255.462188,2298.286494
1235.886425,9696.697840,-5699.585753,2298.286494
1235.886754,8512.368333,-5477.523971,1838.629195
1235.887084,7624.121203,-6809.894666,1762.019645
1235.887413,7254.018232,-7179.997637,1915.238745
1235.887742,6809.894666,-7328.038826,1302.362347
1235.888072,5995.668130,-6735.874072,383.047749
1235.888401,5181.441594,-6069.688724,0.000000
1235.888731,5033.400406,-6217.729913,383.047749
1235.889060,5403.503377,-6439.791695,306.438199
1235.889389,5773.606348,-5995.668130,459.657299
1235.889719,6587.832884,-6143.709319,995.924147
1235.890048,8068.244768,-6513.812290,2068.457845
1235.890378,8586.388927,-5773.606348,2221.676944
1235.890707,8882.471304,-6069.688724,1838.629195
1235.891037,8364.327145,-6587.832884,1302.362347
1235.891366,7920.203579,-7402.059420,842.705048
1235.891695,6735.874072,-8142.265362,459.657299
1235.892025,5699.585753,-7920.203579,0.000000
1235.892354,5773.606348,-7698.141797,-536.266849
1235.892684,5181.441594,-8438.347739,306.438199
1235.893013,4885.359217,-8660.409521,536.266849
1235.893342,5699.585753,-8216.285956,1455.581446
1235.893672,6143.709319,-6809.894666,1838.629195
1235.894001,6513.812290,-5847.626942,919.314598
1235.894331,6735.874072,-4737.318029,2298.286494
1235.894660,8364.327145,-3330.926739,2451.505594
1235.894989,9918.759623,-2368.659014,2068.457845
1235.895319,10140.821405,-2368.659014,2068.457845
1235.895648,9474.636058,-3478.967927,1225.752797
1235.895978,8734.430116,-4589.276840,459.657299
1235.896307,7624.121203,-6587.832884,76.609550
1235.896637,6957.935855,-8660.409521,919.314598
1235.896966,6661.853478,-8956.491898,1302.362347
1235.897295,6439.791695,-9548.656652,1225.752797
1235.897625,5477.523971,-9474.636058,919.314598
1235.897954,4811.338623,-9548.656652,689.485948
1235.898284,4811.338623,-8734.430116,153.219100
1235.898613,4071.132681,-8142.265362,-612.876398
1235.898942,3923.091493,-8142.265362,-459.657299
1235.899272,5255.462188,-6513.812290,153.219100
1235.899601,7031.956449,-5477.523971,536.266849
1235.899931,8142.265362,-5551.544565,1455.581446
1235.900260,8438.347739,-4663.297435,1762.019645
1235.900589,9326.594869,-4959.379811,1532.190996
1235.900919,9178.553681,-5625.565159,1838.629195
1235.901248,8734.430116,-6069.688724,1685.410096
1235.901578,8364.327145,-6587.832884,1149.143247
1235.901907,7920.203579,-7476.080014,1685.410096
1235.902237,7105.977043,-7179.997637,1225.752797
1235.902566,6143.709319,-6809.894666,995.924147
1235.902895,5699.585753,-6439.791695,689.485948
1235.903225,5921.647536,-5921.647536,306.438199
1235.903554,5847.626942,-5329.482782,306.438199
1235.903884,5847.626942,-5551.544565,919.314598
1235.904213,6365.771101,-5255.462188,995.924147
1235.904542,7254.018232,-5255.462188,1532.190996
1235.904872,8290.306550,-5329.482782,2221.676944
1235.905201,8882.471304,-5625.565159,2298.286494
1235.905531,9030.512492,-6439.791695,2298.286494
1235.905860,7846.182985,-7254.018232,1685.410096
1235.906189,7105.977043,-8290.306550,766.095498
1235.906519,5995.668130,-7846.182985,229.828649
1235.906848,5847.626942,-7920.203579,-383.047749
1235.907178,5329.482782,-8142.265362,-306.438199
1235.907507,5255.462188,-8512.368333,153.219100
1235.907836,5329.482782,-8734.430116,459.657299
1235.908166,5329.482782,-7772.162391,306.438199
1235.908495,5477.523971,-7476.080014,1838.629195
1235.908825,5847.626942,-6439.791695,1838.629195
1235.909154,7031.956449,-5255.462188,2604.724693
1235.909484,7994.224174,-3256.906145,2374.896044
1235.909813,9178.553681,-2664.741391,1762.019645
1235.910142,10140.821405,-2368.659014,2145.067394
1235.910472,9326.594869,-3330.926739,842.705048
1235.910801,9030.512492,-4663.297435,383.047749
1235.911131,7328.038826,-6069.688724,536.266849
1235.911460,6957.935855,-8290.306550,383.047749
1235.911789,7031.956449,-8734.430116,919.314598
1235.912119,6217.729913,-9252.574275,1378.971896
1235.912448,6217.729913,-9696.697840,1608.800546
1235.912778,5033.400406,-9178.553681,536.266849
1235.913107,4219.173869,-8586.388927,0.000000
1235.913436,3775.050304,-8808.450710,-689.485948
1235.913766,3997.112087,-7920.203579,76.609550
1235.914095,5699.585753,-6883.915261,229.828649
1235.914425,6587.832884,-5995.668130,383.047749
1235.914754,7772.162391,-5033.400406,842.705048
1235.915084,8956.491898,-4959.379811,1149.143247
1235.915413,9696.697840,-4293.194464,1455.581446
1235.915742,9104.533087,-5403.503377,1685.410096
1235.916072,8660.409521,-6143.709319,1685.410096
1235.916401,8216.285956,-7031.956449,1455.581446
1235.916731,7698.141797,-6587.832884,1149.143247
1235.917060,7328.038826,-7402.059420,1072.533697
1235.917389,6883.915261,-6883.915261,1149.143247
1235.917719,6217.729913,-6439.791695,383.047749
1235.918048,5847.626942,-5847.626942,-383.047749
1235.918378,5995.668130,-5181.441594,306.438199
1235.918707,5773.606348,-6143.709319,153.219100
1235.919036,6217.729913,-5995.668130,995.924147
1235.919366,7328.038826,-5699.585753,1762.019645
1235.919695,8586.388927,-5847.626942,2451.505594
1235.920025,9030.512492,-5181.441594,2604.724693
1235.920354,8734.430116,-5477.523971,1915.238745
1235.920683,8364.327145,-6735.874072,1532.190996
1235.921012,7476.080014,-7031.956449,766.095498
1235.921342,6143.709319,-6957.935855,0.000000
1235.921671,5551.544565,-7846.182985,0.000000
1235.922000,5699.585753,-8364.327145,-306.438199
1235.922329,5699.585753,-8734.430116,153.219100
1235.922658,5477.523971,-8438.347739,689.485948
1235.922987,5107.421000,-8068.244768,919.314598
1235.923317,5403.503377,-7550.100608,995.924147
1235.923646,6217.729913,-6513.812290,1072.533697
1235.923975,6809.894666,-5847.626942,1608.800546
1235.924304,8068.244768,-4441.235652,2374.896044
1235.924633,8808.450710,-3404.947333,2145.067394
1235.924962,9474.636058,-3404.947333,2145.067394
1235.925291,9104.533087,-2960.823768,1762.019645
1235.925621,8808.450710,-4515.256246,1072.533697
1235.925950,7402.059420,-6587.832884,995.924147
1235.926279,7105.977043,-7698.141797,689.485948
1235.926608,6217.729913,-8512.368333,689.485948
1235.926937,6217.729913,-9326.594869,842.705048
1235.927266,6143.709319,-9474.636058,766.095498
1235.927596,5551.544565,-9474.636058,536.266849
1235.927925,4885.359217,-8882.471304,612.876398
1235.928254,4959.379811,-7772.162391,-229.828649
1235.928583,5403.503377,-7031.956449,0.000000
1235.928912,5773.606348,-6365.771101,766.095498
1235.929241,6957.935855,-5625.565159,842.705048
1235.929571,7698.141797,-4293.194464,1225.752797
1235.929900,8512.368333,-4071.132681,1455.581446
1235.930229,9030.512492,-4589.276840,2374.896044
1235.930558,9326.594869,-5625.565159,2145.067394
1235.930887,8660.409521,-6661.853478,1991.848295
1235.931216,7476.080014,-6883.915261,1838.629195
1235.931546,6957.935855,-7994.224174,1225.752797
1235.931875,6883.915261,-7920.203579,995.924147
1235.932204,5921.647536,-7920.203579,536.266849
1235.932533,5773.606348,-7105.977043,0.000000
1235.932862,5847.626942,-6217.729913,153.219100
1235.933191,6291.750507,-6365.771101,-306.438199
1235.933520,6365.771101,-5551.544565,689.485948
1235.933850,6587.832884,-5625.565159,766.095498
1235.934179,7624.121203,-5107.421000,1608.800546
1235.934508,8290.306550,-5033.400406,2374.896044
1235.934837,8660.409521,-5625.565159,2221.676944
1235.935166,8808.450710,-6735.874072,2681.334243
1235.935495,8364.327145,-6587.832884,1991.848295
1235.935825,7476.080014,-6735.874072,1072.533697
1235.936154,6587.832884,-7476.080014,383.047749
1235.936483,5995.668130,-7846.182985,-306.438199
1235.936812,6143.709319,-8882.471304,76.609550
1235.937141,5625.565159,-8290.306550,76.609550
1235.937470,4737.318029,-8216.285956,153.219100
1235.937800,4515.256246,-7105.977043,995.924147
1235.938129,5255.462188,-6661.853478,995.924147
1235.938458,6069.688724,-6291.750507,1225.752797
1235.938787,7179.997637,-5403.503377,2145.067394
1235.939116,7994.224174,-4737.318029,2374.896044
1235.939445,8364.327145,-3182.885551,1991.848295
1235.939775,8808.450710,-3108.864956,1225.752797
1235.940104,9104.533087,-4145.153275,1685.410096
1235.940433,9400.615463,-5255.462188,1455.581446
1235.940762,8512.368333,-5847.626942,1455.581446
1235.941091,8216.285956,-6513.812290,766.095498
1235.941420,7105.977043,-7920.203579,306.438199
1235.941750,6513.812290,-9178.553681,1455.581446
1235.942079,5773.606348,-10955.047942,995.924147
1235.942408,5181.441594,-9400.615463,306.438199
1235.942737,4441.235652,-8290.306550,-612.876398
1235.943066,4145.153275,-7772.162391,0.000000
1235.943395,4663.297435,-7105.977043,0.000000
1235.943724,5477.523971,-6957.935855,536.266849
1235.944054,6587.832884,-5551.544565,995.924147
1235.944383,7328.038826,-4663.297435,919.314598
1235.944712,7994.224174,-4737.318029,1302.362347
1235.945041,8956.491898,-5477.523971,1915.238745
1235.945370,9104.533087,-5773.606348,2298.286494
1235.945699,9030.512492,-6291.750507,2068.457845
1235.946029,8216.285956,-6439.791695,2145.067394
1235.946358,7920.203579,-6957.935855,1149.143247
1235.946687,6883.915261,-7105.977043,995.924147
1235.947016,6957.935855,-7105.977043,612.876398
1235.947345,6069.688724,-6439.791695,153.219100
1235.947674,5921.647536,-6217.729913,76.609550
1235.948004,5921.647536,-5033.400406,0.000000
1235.948333,5995.668130,-5477.523971,995.924147
1235.948662,6661.853478,-6365.771101,1149.143247
1235.948991,6883.915261,-6291.750507,1685.410096
1235.949320,7624.121203,-6587.832884,1915.238745
1235.949649,8216.285956,-5921.647536,2221.676944
1235.949979,8808.450710,-6735.874072,2451.505594
1235.950308,8290.306550,-7105.977043,1762.019645
1235.950637,7254.018232,-7105.977043,689.485948
1235.950966,6661.853478,-7476.080014,153.219100
1235.951295,6513.812290,-7994.224174,229.828649
1235.951624,5995.668130,-7254.018232,0.000000
1235.951953,4959.379811,-8142.265362,153.219100
1235.952283,5107.421000,-8364.327145,76.609550
1235.952612,4959.379811,-7476.080014,689.485948
1235.952941,5773.606348,-6291.750507,612.876398
1235.953270,6513.812290,-6069.688724,1608.800546
1235.953599,7550.100608,-5773.606348,2374.896044
1235.953928,7994.224174,-4589.276840,1915.238745
1235.954258,8364.327145,-3701.029710,1838.629195
1235.954587,9400.615463,-3701.029710,1838.629195
1235.954916,9548.656652,-3701.029710,1532.190996
1235.955245,9400.615463,-4737.318029,1532.190996
1235.955574,8142.265362,-4959.379811,995.924147
1235.955903,7698.141797,-6365.771101,459.657299
1235.956233,6661.853478,-7846.182985,383.047749
1235.956562,5995.668130,-9252.574275,689.485948
1235.956891,5625.565159,-9474.636058,766.095498
1235.957220,4959.379811,-8438.347739,306.438199
1235.957549,4663.297435,-9104.533087,536.266849
1235.957878,4737.318029,-7920.203579,383.047749
1235.958208,5551.544565,-7476.080014,612.876398
1235.958537,6365.771101,-6809.894666,536.266849
1235.958866,6809.894666,-5403.503377,689.485948
1235.959195,7698.141797,-4737.318029,766.095498
1235.959524,8364.327145,-4811.338623,1378.971896
1235.959853,9030.512492,-5033.400406,1991.848295
1235.960182,8734.430116,-5921.647536,1915.238745
1235.960512,8216.285956,-5699.585753,1685.410096
1235.960841,7772.162391,-6883.915261,1685.410096
1235.961170,6957.935855,-7772.162391,1532.190996
1235.961499,6957.935855,-7402.059420,612.876398
1235.961828,5551.544565,-7402.059420,306.438199
1235.962157,5107.421000,-7105.977043,536.266849
1235.962487,5921.647536,-6365.771101,383.047749
1235.962816,6439.791695,-6069.688724,306.438199
1235.963145,6809.894666,-5847.626942,919.314598
1235.963474,7402.059420,-6069.688724,1149.143247
1235.963803,7772.162391,-6069.688724,919.314598
1235.964132,7994.224174,-6365.771101,2221.676944
1235.964462,8438.347739,-5921.647536,2145.067394
1235.964791,8290.306550,-6735.874072,1991.848295
1235.965120,7476.080014,-6883.915261,1225.752797
1235.965449,7031.956449,-7105.977043,842.705048
1235.965778,6735.874072,-7772.162391,76.609550
1235.966107,5847.626942,-7772.162391,0.000000
1235.966437,5181.441594,-8290.306550,-306.438199
1235.966766,4737.318029,-8882.471304,0.000000
1235.967095,5255.462188,-8142.265362,229.828649
1235.967424,5625.565159,-7846.182985,1149.143247
1235.967753,5921.647536,-6661.853478,1685.410096
1235.968082,6809.894666,-4959.379811,2145.067394
1235.968412,8068.244768,-4367.215058,1991.848295
1235.968741,8364.327145,-3552.988522,2451.505594
1235.969070,9030.512492,-3256.906145,1608.800546
1235.969399,9104.533087,-3404.947333,1685.410096
1235.969728,8216.285956,-3849.070898,1838.629195
1235.970057,7920.203579,-4737.318029,689.485948
1235.970386,8142.265362,-6069.688724,842.705048
1235.970716,7772.162391,-6809.894666,766.095498
1235.971045,6957.935855,-9104.533087,1149.143247
1235.971374,5847.626942,-8956.491898,766.095498
1235.971703,5699.585753,-9400.615463,766.095498
1235.972032,5107.421000,-9104.533087,536.266849
1235.972361,4737.318029,-8808.450710,536.266849
1235.972691,5181.441594,-8586.388927,0.000000
1235.973020,5181.441594,-7402.059420,612.876398
1235.973349,5625.565159,-5995.668130,383.047749
1235.973678,6735.874072,-5255.462188,536.266849
1235.974007,7624.121203,-4737.318029,842.705048
1235.974336,8734.430116,-4737.318029,1072.533697
1235.974666,8734.430116,-5329.482782,1685.410096
1235.974995,8438.347739,-5477.523971,1532.190996
1235.975324,8364.327145,-6735.874072,1762.019645
1235.975653,7994.224174,-7031.956449,1378.971896
1235.975982,7254.018232,-7254.018232,1225.752797
1235.976311,6661.853478,-7624.121203,766.095498
1235.976641,6069.688724,-7328.038826,536.266849
1235.976970,5921.647536,-6661.853478,383.047749
1235.977299,5995.668130,-5625.565159,459.657299
1235.977628,6143.709319,-5403.503377,229.828649
1235.977957,6735.874072,-5551.544565,459.657299
1235.978286,7031.956449,-5847.626942,1455.581446
1235.978615,8068.244768,-5625.565159,2068.457845
1235.978945,9178.553681,-5033.400406,2145.067394
1235.979274,9104.533087,-5847.626942,2298.286494
1235.979603,8438.347739,-6365.771101,2298.286494
1235.979932,7920.203579,-7402.059420,1608.800546
1235.980261,7031.956449,-7476.080014,1302.362347
1235.980590,5995.668130,-7624.121203,229.828649
1235.980920,5181.441594,-7846.182985,-459.657299
1235.981249,5033.400406,-8216.285956,0.000000
1235.981578,5329.482782,-8512.368333,153.219100
1235.981907,5255.462188,-7624.121203,306.438199
1235.982236,5403.503377,-7254.018232,766.095498
1235.982565,6365.771101,-6735.874072,1072.533697
1235.982895,6661.853478,-6439.791695,1762.019645
1235.983224,7402.059420,-4885.359217,2298.286494
1235.983553,8586.388927,-4293.194464,2221.676944
1235.983882,9326.594869,-3552.988522,1762.019645
1235.984211,9104.533087,-3627.009116,1762.019645
1235.984540,9030.512492,-4071.132681,1225.752797
1235.984870,9030.512492,-4959.379811,689.485948
1235.985199,7846.182985,-5995.668130,689.485948
1235.985528,6291.750507,-7476.080014,306.438199
1235.985857,6143.709319,-8142.265362,766.095498
1235.986186,5995.668130,-8660.409521,536.266849
1235.986515,5477.523971,-9252.574275,919.314598
1235.986844,4959.379811,-9030.512492,919.314598
1235.987174,5033.400406,-8512.368333,689.485948
1235.987503,4811.338623,-7624.121203,383.047749
1235.987832,5181.441594,-6883.915261,536.266849
1235.988161,6513.812290,-6587.832884,766.095498
1235.988490,7624.121203,-5699.585753,306.438199
1235.988819,7550.100608,-4811.338623,919.314598
1235.989149,7994.224174,-4959.379811,1302.362347
1235.989478,8364.327145,-5181.441594,2068.457845
1235.989807,8290.306550,-6513.812290,1838.629195
1235.990136,7772.162391,-6809.894666,1762.019645
1235.990465,7105.977043,-6735.874072,1149.143247
1235.990794,7920.203579,-7179.997637,766.095498
1235.991124,7031.956449,-7550.100608,1455.581446
1235.991453,6513.812290,-6735.874072,842.705048
1235.991782,6661.853478,-6069.688724,306.438199
1235.992111,6439.791695,-5477.523971,0.000000
1235.992440,6957.935855,-5625.565159,76.609550
1235.992769,6809.894666,-5625.565159,919.314598
1235.993099,7476.080014,-5847.626942,1532.190996
1235.993428,7772.162391,-5477.523971,1685.410096
1235.993757,7476.080014,-5699.585753,2221.676944
1235.994086,8068.244768,-6217.729913,1762.019645
1235.994415,7550.100608,-6957.935855,1455.581446
1235.994744,7105.977043,-7476.080014,1455.581446
1235.995074,6735.874072,-7476.080014,689.485948
1235.995403,6069.688724,-7698.141797,1149.143247
1235.995732,5773.606348,-8290.306550,0.000000
1235.996061,5107.421000,-7698.141797,-306.438199
1235.996390,5033.400406,-8290.306550,76.609550
1235.996719,5699.585753,-8216.285956,766.095498
1235.997048,6217.729913,-7254.018232,612.876398
1235.997378,6587.832884,-6661.853478,1149.143247
1235.997707,6957.935855,-6069.688724,2298.286494
1235.998036,7772.162391,-5773.606348,1991.848295
1235.998365,7920.203579,-4737.318029,2681.334243
1235.998694,8068.244768,-4145.153275,1838.629195
1235.999023,8438.347739,-3923.091493,1225.752797
1235.999353,8808.450710,-3552.988522,1302.362347
1235.999682,8660.409521,-4959.379811,995.924147
1236.000011,8290.306550,-6217.729913,612.876398
1236.000340,7846.182985,-6143.709319,689.485948
1236.000669,7254.018232,-6883.915261,612.876398
1236.000998,6587.832884,-7772.162391,1302.362347
1236.001328,6439.791695,-8290.306550,1532.190996
1236.001657,6883.915261,-8216.285956,1608.800546
1236.001986,5625.565159,-7402.059420,842.705048
1236.002315,5329.482782,-7550.100608,459.657299
1236.002644,5847.626942,-7402.059420,536.266849
1236.002973,6143.709319,-6957.935855,689.485948
1236.003303,5773.606348,-6291.750507,0.000000
1236.003632,5995.668130,-6143.709319,306.438199
1236.003961,7105.977043,-6365.771101,995.924147
1236.004290,7698.141797,-6513.812290,995.924147
1236.004619,7772.162391,-6661.853478,1532.190996
1236.004948,7402.059420,-7031.956449,1225.752797
1236.005277,7402.059420,-7402.059420,1455.581446
1236.005607,7105.977043,-7328.038826,1455.581446
1236.005936,7179.997637,-7105.977043,995.924147
1236.006265,6957.935855,-6217.729913,536.266849
1236.006594,6439.791695,-6069.688724,153.219100
1236.006923,6661.853478,-5847.626942,229.828649
1236.007252,6809.894666,-5699.585753,536.266849
1236.007582,7031.956449,-5403.503377,0.000000
1236.007911,7105.977043,-5255.462188,766.095498
1236.008240,7550.100608,-5921.647536,1838.629195
1236.008569,8216.285956,-6661.853478,2145.067394
1236.008898,8586.388927,-6883.915261,2757.943793
1236.009227,7254.018232,-6883.915261,1915.238745
1236.009557,6291.750507,-7105.977043,995.924147
1236.009886,5921.647536,-7624.121203,536.266849
1236.010215,6143.709319,-7772.162391,153.219100
1236.010544,6143.709319,-7698.141797,-229.828649
1236.010873,5995.668130,-7550.100608,0.000000
1236.011202,5773.606348,-7254.018232,229.828649
1236.011532,5921.647536,-7179.997637,306.438199
1236.011861,5699.585753,-7328.038826,459.657299
1236.012190,6291.750507,-6809.894666,1378.971896
1236.012519,7328.038826,-5921.647536,1762.019645
1236.012848,7920.203579,-5403.503377,2145.067394
1236.013177,8290.306550,-4959.379811,2221.676944
1236.013506,8808.450710,-4515.256246,2374.896044
1236.013836,8586.388927,-4441.235652,1149.143247
1236.014165,7846.182985,-4737.318029,383.047749
1236.014494,7920.203579,-5551.544565,995.924147
1236.014823,7328.038826,-6439.791695,536.266849
1236.015152,7328.038826,-6661.853478,459.657299
1236.015481,6735.874072,-7846.182985,1225.752797
1236.015811,6439.791695,-8216.285956,1302.362347
1236.016140,6587.832884,-8364.327145,1225.752797
1236.016469,6365.771101,-7624.121203,1072.533697
1236.016798,5625.565159,-7920.203579,919.314598
1236.017127,5551.544565,-7624.121203,842.705048
1236.017456,5625.565159,-7031.956449,536.266849
1236.017786,6143.709319,-6587.832884,306.438199
1236.018115,6883.915261,-6069.688724,1072.533697
1236.018444,7254.018232,-6143.709319,1072.533697
1236.018773,7402.059420,-6069.688724,1225.752797
1236.019102,7550.100608,-5995.668130,1225.752797
1236.019431,7772.162391,-6439.791695,1149.143247
1236.019761,7772.162391,-6661.853478,1225.752797
1236.020090,7254.018232,-7105.977043,1532.190996
1236.020419,6735.874072,-7476.080014,1072.533697
1236.020748,7031.956449,-7179.997637,919.314598
1236.021077,6809.894666,-5995.668130,612.876398
1236.021406,6439.791695,-5921.647536,306.438199
1236.021735,6587.832884,-6291.750507,766.095498
1236.022065,7179.997637,-5329.482782,689.485948
1236.022394,7031.956449,-5773.606348,1072.533697
1236.022723,7105.977043,-5551.544565,1532.190996
1236.023052,7402.059420,-5699.585753,1762.019645
1236.023381,8068.244768,-6143.709319,2451.505594
1236.023710,7994.224174,-6069.688724,2145.067394
1236.024040,7328.038826,-6735.874072,2298.286494
1236.024369,7254.018232,-6957.935855,1378.971896
1236.024698,6661.853478,-7031.956449,919.314598
1236.025027,5847.626942,-7402.059420,306.438199
1236.025356,6069.688724,-7698.141797,-153.219100
1236.025685,6365.771101,-7994.224174,919.314598
1236.026016,5477.523971,-8068.244768,0.000000
1236.026345,5773.606348,-7698.141797,459.657299
1236.026675,5921.647536,-7105.977043,766.095498
1236.027004,6809.894666,-6957.935855,1455.581446
1236.027333,7105.977043,-6291.750507,2298.286494
1236.027662,7402.059420,-5699.585753,2298.286494
1236.027992,8364.327145,-4663.297435,2145.067394
1236.028321,8808.450710,-3627.009116,1532.190996
1236.028650,8956.491898,-4219.173869,1532.190996
1236.028979,8512.368333,-4515.256246,1685.410096
1236.029308,7698.141797,-4663.297435,383.047749
1236.029638,7179.997637,-5329.482782,229.828649
1236.029967,7105.977043,-6661.853478,459.657299
1236.030296,7105.977043,-7846.182985,1762.019645
1236.030625,6735.874072,-8660.409521,1149.143247
1236.030955,6069.688724,-8734.430116,1149.143247
1236.031284,5255.462188,-8512.368333,766.095498
1236.031613,5033.400406,-8586.388927,1302.362347
1236.031942,5329.482782,-8068.244768,995.924147
1236.032272,5255.462188,-7772.162391,383.047749
1236.032601,5995.668130,-6661.853478,919.314598
1236.032930,6513.812290,-5847.626942,306.438199
1236.033259,7476.080014,-5551.544565,842.705048
1236.033589,7402.059420,-6069.688724,1302.362347
1236.033918,7772.162391,-5477.523971,1072.533697
1236.034247,7698.141797,-6217.729913,766.095498
1236.034576,7550.100608,-6883.915261,1838.629195
1236.034906,7624.121203,-7179.997637,1762.019645
1236.035235,7772.162391,-6439.791695,1149.143247
1236.035564,7254.018232,-6661.853478,689.485948
1236.035893,6883.915261,-6587.832884,459.657299
1236.036223,7254.018232,-6217.729913,1072.533697
1236.036552,7105.977043,-5773.606348,229.828649
1236.036881,6661.853478,-5699.585753,536.266849
1236.037210,6439.791695,-5921.647536,1072.533697
1236.037540,7031.956449,-6439.791695,1302.362347
1236.037869,7105.977043,-5921.647536,1838.629195
1236.038198,7550.100608,-6143.709319,2068.457845
1236.038527,8142.265362,-6143.709319,1532.190996
1236.038857,7624.121203,-6365.771101,1685.410096
1236.039186,7105.977043,-7105.977043,1378.971896
1236.039515,6439.791695,-7105.977043,536.266849
1236.039844,6217.729913,-7254.018232,306.438199
1236.040174,5995.668130,-7994.224174,153.219100
1236.040503,5921.647536,-7772.162391,0.000000
1236.040832,5847.626942,-7994.224174,76.609550
1236.041161,5773.606348,-7772.162391,536.266849
1236.041491,6069.688724,-8068.244768,842.705048
1236.041820,6365.771101,-7105.977043,1455.581446
1236.042149,7031.956449,-6735.874072,1685.410096
1236.042478,7772.162391,-5773.606348,1915.238745
1236.042808,7846.182985,-5477.523971,1762.019645
1236.043137,7846.182985,-5107.421000,1608.800546
1236.043466,8142.265362,-4367.215058,1072.533697
1236.043795,8512.368333,-3997.112087,842.705048
1236.044124,8808.450710,-4367.215058,842.705048
1236.044454,8364.327145,-5403.503377,1455.581446
1236.044783,7994.224174,-6661.853478,1072.533697
1236.045112,7476.080014,-6883.915261,842.705048
1236.045441,6883.915261,-7698.141797,1455.581446
1236.045771,6439.791695,-8142.265362,1608.800546
1236.046100,6291.750507,-8882.471304,1378.971896
1236.046429,5477.523971,-8142.265362,1149.143247
1236.046758,5033.400406,-8364.327145,76.609550
1236.047088,5033.400406,-7328.038826,306.438199
1236.047417,6217.729913,-7031.956449,536.266849
1236.047746,6365.771101,-6513.812290,306.438199
1236.048075,5995.668130,-5995.668130,229.828649
1236.048405,6809.894666,-5995.668130,536.266849
1236.048734,7550.100608,-6291.750507,919.314598
1236.049063,7772.162391,-5995.668130,1608.800546
1236.049392,8512.368333,-6291.750507,1685.410096
1236.049722,8512.368333,-6587.832884,2145.067394
1236.050051,8512.368333,-6587.832884,2221.676944
1236.050380,7402.059420,-7254.018232,919.314598
1236.050709,6809.894666,-6217.729913,536.266849
1236.051039,6217.729913,-5625.565159,-153.219100
1236.051368,6513.812290,-5551.544565,153.219100
1236.051697,6883.915261,-6661.853478,1302.362347
1236.052026,7105.977043,-6217.729913,1302.362347
1236.052356,6883.915261,-6069.688724,1608.800546
1236.052685,6957.935855,-5329.482782,1532.190996
1236.053014,7031.956449,-6069.688724,1991.848295
1236.053343,7624.121203,-7328.038826,2374.896044
1236.053673,7624.121203,-6735.874072,2221.676944
1236.054002,6809.894666,-6809.894666,1149.143247
1236.054331,7031.956449,-5995.668130,689.485948
1236.054660,6513.812290,-7402.059420,612.876398
1236.054990,6143.709319,-8216.285956,153.219100
1236.055319,5403.503377,-7994.224174,76.609550
1236.055648,4959.379811,-7846.182985,-383.047749
1236.055977,5625.565159,-8216.285956,0.000000
1236.056307,5625.565159,-7994.224174,919.314598
1236.056636,6365.771101,-8142.265362,1302.362347
1236.056965,6883.915261,-6957.935855,1455.581446
1236.057294,7105.977043,-5551.544565,1991.848295
1236.057623,7624.121203,-5625.565159,2068.457845
1236.057953,8734.430116,-4071.132681,2068.457845
1236.058282,8956.491898,-3404.947333,1378.971896
1236.058611,8956.491898,-3627.009116,766.095498
1236.058940,7994.224174,-3775.050304,1532.190996
1236.059270,8734.430116,-5033.400406,1378.971896
1236.059599,8142.265362,-5847.626942,1302.362347
1236.059928,7402.059420,-6957.935855,919.314598
1236.060257,6735.874072,-8290.306550,1455.581446
1236.060587,6143.709319,-8956.491898,919.314598
1236.060916,5773.606348,-8808.450710,1378.971896
1236.061245,5403.503377,-8586.388927,689.485948
1236.061574,5477.523971,-7846.182985,306.438199
1236.061904,5181.441594,-8290.306550,689.485948
1236.062233,5403.503377,-7624.121203,76.609550
1236.062562,5921.647536,-5995.668130,536.266849
1236.062891,6957.935855,-5625.565159,76.609550
1236.063221,7254.018232,-5477.523971,995.924147
1236.063550,7994.224174,-5107.421000,1225.752797
1236.063879,8586.388927,-5699.585753,1455.581446
1236.064208,8586.388927,-5477.523971,1915.238745
1236.064538,8142.265362,-6069.688724,1838.629195
1236.064867,8364.327145,-6217.729913,1838.629195
1236.065196,7846.182985,-6439.791695,1608.800546
1236.065525,7179.997637,-5921.647536,536.266849
1236.065855,6217.729913,-6069.688724,229.828649
1236.066184,6143.709319,-6143.709319,306.438199
1236.066513,6809.894666,-6809.894666,612.876398
1236.066842,6735.874072,-6513.812290,919.314598
1236.067172,6513.812290,-6809.894666,1072.533697
1236.067501,6513.812290,-6735.874072,1762.019645
1236.067830,6661.853478,-7105.977043,2068.457845
1236.068159,7476.080014,-6957.935855,1225.752797
1236.068489,6217.729913,-6365.771101,1455.581446
1236.068818,7105.977043,-6809.894666,1608.800546
1236.069147,7328.038826,-7031.956449,1225.752797
1236.069476,6587.832884,-6365.771101,536.266849
1236.069806,6365.771101,-7550.100608,76.609550
1236.070135,5921.647536,-7254.018232,-459.657299
1236.070464,5921.647536,-8290.306550,459.657299
1236.070793,5995.668130,-8660.409521,766.095498
1236.071122,6291.750507,-7476.080014,1762.019645
1236.071452,6439.791695,-6513.812290,842.705048
1236.071781,6217.729913,-6291.750507,766.095498
1236.072110,6735.874072,-6513.812290,1608.800546
1236.072439,7920.203579,-5551.544565,1532.190996
1236.072769,7624.121203,-4367.215058,1378.971896
1236.073098,7920.203579,-3923.091493,1225.752797
1236.073427,8290.306550,-3478.967927,1302.362347
1236.073756,8734.430116,-4515.256246,1302.362347
1236.074086,8808.450710,-4811.338623,1991.848295
1236.074415,7994.224174,-5699.585753,919.314598
1236.074744,7328.038826,-7254.018232,1225.752797
1236.075073,7031.956449,-8216.285956,1302.362347
1236.075403,6883.915261,-8808.450710,1608.800546
1236.075732,6217.729913,-8438.347739,1072.533697
1236.076061,5625.565159,-8808.450710,842.705048
1236.076390,4811.338623,-8364.327145,459.657299
1236.076720,4515.256246,-7994.224174,0.000000
1236.077049,4885.359217,-7550.100608,-229.828649
1236.077378,5847.626942,-6513.812290,-229.828649
1236.077707,6735.874072,-6291.750507,689.485948
1236.078037,7402.059420,-5773.606348,1455.581446
1236.078366,8660.409521,-5625.565159,1532.190996
1236.078695,8808.450710,-5477.523971,2068.457845
1236.079024,8216.285956,-5699.585753,1685.410096
1236.079354,8068.244768,-6661.853478,1838.629195
1236.079683,8586.388927,-6513.812290,1838.629195
1236.080012,8586.388927,-5921.647536,1302.362347
1236.080341,6587.832884,-6069.688724,689.485948
1236.080671,6809.894666,-5921.647536,612.876398
1236.081000,6809.894666,-6291.750507,766.095498
1236.081329,6365.771101,-6365.771101,612.876398
1236.081658,6291.750507,-6217.729913,1378.971896
1236.081988,6587.832884,-6069.688724,689.485948
1236.082317,6883.915261,-5773.606348,1302.362347
1236.082646,6883.915261,-6143.709319,1991.848295
1236.082975,7328.038826,-6809.894666,2374.896044
1236.083305,7105.977043,-6291.750507,1838.629195
1236.083634,7031.956449,-7031.956449,1455.581446
1236.083963,6587.832884,-7698.141797,919.314598
1236.084292,6365.771101,-7772.162391,766.095498
1236.084621,6143.709319,-8216.285956,-306.438199
1236.084951,5995.668130,-8290.306550,0.000000
1236.085280,5847.626942,-8068.244768,229.828649
1236.085609,6365.771101,-8142.265362,76.609550
1236.085938,6143.709319,-7624.121203,536.266849
1236.086268,5625.565159,-7254.018232,383.047749
1236.086597,6217.729913,-7476.080014,1608.800546
1236.086926,6661.853478,-5551.544565,995.924147
1236.087255,7105.977043,-4959.379811,1302.362347
1236.087585,7698.141797,-4441.235652,2298.286494
1236.087914,8216.285956,-3478.967927,2068.457845
1236.088243,9252.574275,-3849.070898,1762.019645
1236.088572,8956.491898,-3330.926739,995.924147
1236.088902,8438.347739,-4515.256246,1225.752797
1236.089231,8216.285956,-5921.647536,1302.362347
1236.089560,7402.059420,-6735.874072,1149.143247
1236.089889,7254.018232,-7550.100608,1455.581446
1236.090219,6883.915261,-8660.409521,1532.190996
1236.090548,6513.812290,-8364.327145,919.314598
1236.090877,5699.585753,-9622.677246,842.705048
1236.091206,4737.318029,-8586.388927,0.000000
1236.091536,4441.235652,-7476.080014,-459.657299
1236.091865,4811.338623,-7476.080014,0.000000
1236.092194,5699.585753,-5995.668130,612.876398
1236.092523,6735.874072,-5921.647536,919.314598
1236.092853,7550.100608,-5625.565159,1072.533697
1236.093182,8216.285956,-5403.503377,1608.800546
1236.093511,8586.388927,-5995.668130,1915.238745
1236.093840,8364.327145,-5847.626942,1915.238745
1236.094170,8586.388927,-5625.565159,1915.238745
1236.094499,8734.430116,-6143.709319,1685.410096
1236.094828,7772.162391,-6365.771101,1685.410096
1236.095157,7846.182985,-6217.729913,536.266849
1236.095487,6809.894666,-6661.853478,536.266849
1236.095816,6439.791695,-5773.606348,153.219100
1236.096145,5773.606348,-6587.832884,689.485948
1236.096474,5921.647536,-6291.750507,689.485948
1236.096804,6143.709319,-6439.791695,1072.533697
1236.097133,6291.750507,-6365.771101,919.314598
1236.097462,6735.874072,-5995.668130,1378.971896
1236.097791,7328.038826,-6587.832884,2374.896044
1236.098121,7179.997637,-7031.956449,1838.629195
1236.098450,6735.874072,-7179.997637,1762.019645
1236.098779,6957.935855,-7105.977043,919.314598
1236.099108,6883.915261,-7402.059420,536.266849
1236.099437,6735.874072,-7550.100608,306.438199
1236.099767,6439.791695,-7772.162391,229.828649
1236.100096,6291.750507,-7624.121203,76.609550
1236.100425,5921.647536,-7920.203579,536.266849
1236.100754,5847.626942,-7772.162391,766.095498
1236.101084,6365.771101,-7254.018232,995.924147
1236.101413,6661.853478,-5995.668130,1532.190996
1236.101742,6883.915261,-5477.523971,1532.190996
1236.102071,7328.038826,-5329.482782,1762.019645
1236.102401,8216.285956,-4219.173869,2068.457845
1236.102730,8882.471304,-3849.070898,919.314598
1236.103059,8586.388927,-3849.070898,1072.533697
1236.103388,8364.327145,-3923.091493,766.095498
1236.103718,7994.224174,-5847.626942,1072.533697
1236.104047,7994.224174,-6587.832884,1532.190996
1236.104376,7328.038826,-7550.100608,995.924147
1236.104705,7031.956449,-7772.162391,1225.752797
1236.105035,6661.853478,-9104.533087,1685.410096
1236.105364,6217.729913,-9252.574275,1225.752797
1236.105693,5847.626942,-8512.368333,1455.581446
1236.106022,4737.318029,-8142.265362,306.438199
1236.106352,4959.379811,-7550.100608,-536.266849
1236.106681,5477.523971,-6735.874072,306.438199
1236.107010,6365.771101,-5995.668130,229.828649
1236.107339,7031.956449,-5403.503377,1149.143247
1236.107669,7402.059420,-5477.523971,1149.143247
1236.107998,8142.265362,-5477.523971,1455.581446
1236.108327,8438.347739,-6143.709319,1838.629195
1236.108656,8290.306550,-5921.647536,1532.190996
1236.108986,7994.224174,-5847.626942,1455.581446
1236.109315,7624.121203,-6143.709319,1608.800546
1236.109644,7920.203579,-6217.729913,1532.190996
1236.109973,7772.162391,-6661.853478,1072.533697
1236.110303,7105.977043,-6069.688724,1302.362347
1236.110632,6365.771101,-5699.585753,383.047749
1236.110961,5921.647536,-6217.729913,459.657299
1236.111290,6069.688724,-6365.771101,536.266849
1236.111620,5921.647536,-6883.915261,1149.143247
1236.111949,6439.791695,-5995.668130,1532.190996
1236.112278,6957.935855,-6587.832884,1838.629195
1236.112607,7031.956449,-6809.894666,1838.629195
1236.112936,6957.935855,-6661.853478,1532.190996
1236.113266,6883.915261,-7105.977043,1532.190996
1236.113595,7105.977043,-7254.018232,919.314598
1236.113924,6809.894666,-7105.977043,919.314598
1236.114253,6661.853478,-7105.977043,383.047749
1236.114583,6587.832884,-7624.121203,153.219100
1236.114912,6365.771101,-7846.182985,-153.219100
1236.115241,6143.709319,-8734.430116,229.828649
1236.115570,6069.688724,-8512.368333,1072.533697
1236.115900,6365.771101,-7698.141797,1149.143247
1236.116229,5773.606348,-6661.853478,1378.971896
1236.116558,6069.688724,-6513.812290,1608.800546
1236.116887,7105.977043,-5625.565159,1608.800546
1236.117217,7772.162391,-4515.256246,1532.190996
1236.117546,8216.285956,-3775.050304,1608.800546
1236.117875,8660.409521,-3478.967927,1302.362347
1236.118204,8808.450710,-3849.070898,1149.143247
1236.118534,8290.306550,-4737.318029,689.485948
1236.118863,7550.100608,-6439.791695,1455.581446
1236.119192,7476.080014,-7105.977043,1225.752797
1236.119521,7698.141797,-7624.121203,1838.629195
1236.119851,7105.977043,-7994.224174,1302.362347
1236.120180,6439.791695,-8586.388927,1302.362347
1236.120509,5921.647536,-8808.450710,995.924147
1236.120838,5107.421000,-8216.285956,306.438199
1236.121168,4663.297435,-7105.977043,-229.828649
1236.121497,4959.379811,-6809.894666,-306.438199
1236.121826,5921.647536,-6365.771101,76.609550
1236.122155,6661.853478,-6217.729913,459.657299
1236.122484,7402.059420,-5477.523971,1302.362347
1236.122814,8290.306550,-4811.338623,1225.752797
1236.123143,8586.388927,-4737.318029,1149.143247
1236.123472,8586.388927,-5033.400406,1762.019645
1236.123801,8586.388927,-5847.626942,2068.457845
1236.124130,8586.388927,-5847.626942,1838.629195
1236.124460,8438.347739,-6291.750507,1608.800546
1236.124789,7402.059420,-6439.791695,995.924147
1236.125118,6735.874072,-6957.935855,536.266849
1236.125447,6365.771101,-6883.915261,0.000000
1236.125776,5181.441594,-7254.018232,383.047749
1236.126106,4959.379811,-7105.977043,0.000000
1236.126435,5699.585753,-6883.915261,536.266849
1236.126764,6291.750507,-6957.935855,1149.143247
1236.127093,6883.915261,-7031.956449,1685.410096
1236.127422,7402.059420,-6291.750507,1991.848295
1236.127752,7550.100608,-6069.688724,1608.800546
1236.128081,7550.100608,-6143.709319,1302.362347
1236.128410,8216.285956,-6513.812290,1685.410096
1236.128739,8068.244768,-6365.771101,919.314598
1236.129068,7550.100608,-6661.853478,536.266849
1236.129398,6809.894666,-7254.018232,229.828649
1236.129727,5847.626942,-8068.244768,0.000000
1236.130056,5921.647536,-8512.368333,306.438199
1236.130385,6143.709319,-8364.327145,842.705048
1236.130714,5699.585753,-7846.182985,919.314598
1236.131044,5773.606348,-7402.059420,1072.533697
1236.131373,6365.771101,-6439.791695,1991.848295
1236.131702,6957.935855,-5847.626942,1762.019645
1236.132031,7254.018232,-3923.091493,1225.752797
1236.132360,7846.182985,-4293.194464,1225.752797
1236.132690,8438.347739,-3552.988522,1072.533697
1236.133019,9178.553681,-3478.967927,1225.752797
1236.133348,8956.491898,-4737.318029,1225.752797
1236.133677,8586.388927,-5625.565159,1455.581446
1236.134007,7550.100608,-6957.935855,1532.190996
1236.134336,6957.935855,-8216.285956,1149.143247
1236.134665,6883.915261,-9252.574275,1378.971896
1236.134994,6069.688724,-9104.533087,1149.143247
1236.135323,5477.523971,-8808.450710,612.876398
1236.135653,4737.318029,-8512.368333,536.266849
1236.135982,4589.276840,-7476.080014,459.657299
1236.136311,5181.441594,-6587.832884,153.219100
1236.136640,5699.585753,-5847.626942,-383.047749
1236.136969,6291.750507,-5551.544565,0.000000
1236.137299,7476.080014,-5255.462188,995.924147
1236.137628,8142.265362,-4811.338623,1685.410096
1236.137957,8512.368333,-5255.462188,2145.067394
1236.138286,9104.533087,-5329.482782,2451.505594
1236.138615,9400.615463,-5403.503377,2298.286494
1236.138945,9030.512492,-5699.585753,2374.896044
1236.139274,7624.121203,-5699.585753,1302.362347
1236.139603,7105.977043,-6291.750507,229.828649
1236.139932,6365.771101,-6661.853478,536.266849
1236.140261,5847.626942,-6661.853478,76.609550
1236.140591,5995.668130,-6957.935855,0.000000
1236.140920,5921.647536,-6513.812290,383.047749
1236.141249,6069.688724,-6957.935855,612.876398
1236.141578,6217.729913,-6957.935855,1149.143247
1236.141907,7031.956449,-6661.853478,1685.410096
1236.142237,7846.182985,-6217.729913,1378.971896
1236.142566,7772.162391,-6069.688724,2145.067394
1236.142895,7550.100608,-5995.668130,2221.676944
1236.143224,7402.059420,-6809.894666,1225.752797
1236.143553,7105.977043,-7105.977043,766.095498
1236.143883,6809.894666,-7328.038826,76.609550
1236.144212,6143.709319,-8438.347739,0.000000
1236.144541,5403.503377,-9030.512492,306.438199
1236.144870,5181.441594,-9030.512492,0.000000
1236.145199,5107.421000,-7772.162391,1072.533697
1236.145529,6291.750507,-7476.080014,1302.362347
1236.145858,7105.977043,-6587.832884,1072.533697
1236.146187,7402.059420,-5699.585753,1838.629195
1236.146516,7550.100608,-5033.400406,1455.581446
1236.146845,7846.182985,-4071.132681,1072.533697
1236.147175,7698.141797,-3849.070898,1149.143247
1236.147504,8438.347739,-3404.947333,1378.971896
1236.147833,8734.430116,-4145.153275,995.924147
1236.148162,8438.347739,-4589.276840,2451.505594
1236.148491,7402.059420,-6291.750507,1532.190996
1236.148821,7179.997637,-7031.956449,919.314598
1236.149150,6735.874072,-7920.203579,1455.581446
1236.149479,6143.709319,-9474.636058,1455.581446
1236.149808,5921.647536,-8956.491898,1149.143247
1236.150137,5181.441594,-8956.491898,842.705048
1236.150467,5033.400406,-8882.471304,0.000000
1236.150796,5477.523971,-7624.121203,612.876398
1236.151125,5255.462188,-5699.585753,76.609550
1236.151454,5921.647536,-5921.647536,0.000000
1236.151783,6957.935855,-5255.462188,536.266849
1236.152113,7698.141797,-4959.379811,842.705048
1236.152442,8068.244768,-5329.482782,1225.752797
1236.152771,8660.409521,-5107.421000,2451.505594
1236.153100,8586.388927,-5699.585753,1838.629195
1236.153429,8586.388927,-6069.688724,2145.067394
1236.153759,8290.306550,-6587.832884,2221.676944
1236.154088,8216.285956,-7105.977043,1608.800546
1236.154417,6957.935855,-7031.956449,842.705048
1236.154746,6513.812290,-6809.894666,459.657299
1236.155075,5847.626942,-6957.935855,153.219100
1236.155405,5773.606348,-6587.832884,229.828649
1236.155734,5477.523971,-6217.729913,536.266849
1236.156063,6217.729913,-6291.750507,383.047749
1236.156392,6365.771101,-6217.729913,1532.190996
1236.156721,7031.956449,-6217.729913,1072.533697
1236.157051,7994.224174,-5847.626942,1915.238745
1236.157380,7624.121203,-5995.668130,1685.410096
1236.157709,7920.203579,-6661.853478,1378.971896
1236.158038,7624.121203,-6735.874072,1532.190996
1236.158368,7328.038826,-7105.977043,689.485948
1236.158697,7031.956449,-8068.244768,76.609550
1236.159026,6291.750507,-7772.162391,536.266849
1236.159355,5921.647536,-8142.265362,0.000000
1236.159684,5551.544565,-8216.285956,306.438199
1236.160014,5255.462188,-8216.285956,612.876398
1236.160343,6365.771101,-7772.162391,76.609550
1236.160672,6143.709319,-6661.853478,1149.143247
1236.161001,6365.771101,-6143.709319,1225.752797
1236.161330,6735.874072,-5403.503377,1225.752797
1236.161660,7772.162391,-4885.359217,1915.238745
1236.161989,8438.347739,-3775.050304,1532.190996
1236.162318,9104.533087,-3404.947333,995.924147
1236.162647,9030.512492,-3997.112087,1532.190996
1236.162976,8512.368333,-5033.400406,842.705048
1236.163306,7476.080014,-6217.729913,1455.581446
1236.163635,7328.038826,-7105.977043,1378.971896
1236.163964,7179.997637,-8438.347739,1225.752797
1236.164293,6439.791695,-9252.574275,1608.800546
1236.164622,5403.503377,-9030.512492,689.485948
1236.164952,5033.400406,-8734.430116,306.438199
1236.165281,4589.276840,-8142.265362,229.828649
1236.165610,4737.318029,-7254.018232,-459.657299
1236.165939,5255.462188,-7179.997637,0.000000
1236.166268,6513.812290,-6217.729913,689.485948
1236.166598,7328.038826,-5625.565159,76.609550
1236.166927,7402.059420,-5625.565159,1072.533697
1236.167256,7772.162391,-5255.462188,1455.581446
1236.167585,8512.368333,-5699.585753,1838.629195
1236.167914,8734.430116,-5403.503377,2298.286494
1236.168244,8364.327145,-6661.853478,2145.067394
1236.168573,7994.224174,-6513.812290,1915.238745
1236.168902,7105.977043,-6735.874072,1225.752797
1236.169231,5995.668130,-6513.812290,612.876398
1236.169560,6069.688724,-6365.771101,153.219100
1236.169890,5847.626942,-6661.853478,306.438199
1236.170219,5847.626942,-6883.915261,383.047749
1236.170548,6143.709319,-6069.688724,612.876398
1236.170877,6587.832884,-5773.606348,1072.533697
1236.171206,7179.997637,-5699.585753,1302.362347
1236.171536,7772.162391,-6365.771101,2298.286494
1236.171865,8290.306550,-6069.688724,2221.676944
1236.172194,8660.409521,-5477.523971,2374.896044
1236.172523,8216.285956,-5625.565159,1685.410096
1236.172852,7476.080014,-6069.688724,995.924147
1236.173182,7550.100608,-7254.018232,842.705048
1236.173511,6957.935855,-7105.977043,229.828649
1236.173840,6365.771101,-6735.874072,306.438199
1236.174169,5329.482782,-7698.141797,0.000000
1236.174498,5847.626942,-8512.368333,383.047749
1236.174828,5847.626942,-8512.368333,842.705048
1236.175157,5995.668130,-7402.059420,766.095498
1236.175486,5773.606348,-6365.771101,1378.971896
1236.175815,6513.812290,-6809.894666,1455.581446
1236.176144,7105.977043,-5995.668130,1762.019645
1236.176474,8068.244768,-4515.256246,1455.581446
1236.176803,8808.450710,-4441.235652,1455.581446
1236.177132,8734.430116,-3627.009116,1455.581446
1236.177461,8586.388927,-4589.276840,995.924147
1236.177790,8142.265362,-5403.503377,1072.533697
1236.178120,7772.162391,-5995.668130,842.705048
1236.178449,7254.018232,-7105.977043,842.705048
1236.178778,6957.935855,-7846.182985,995.924147
1236.179107,6513.812290,-9178.553681,1378.971896
1236.179436,6069.688724,-8956.491898,536.266849
1236.179766,5033.400406,-9104.533087,689.485948
1236.180095,4663.297435,-8068.244768,0.000000
1236.180424,4811.338623,-7550.100608,0.000000
1236.180753,5847.626942,-7105.977043,76.609550
1236.181083,6809.894666,-5773.606348,306.438199
1236.181412,7179.997637,-5033.400406,766.095498
1236.181741,7698.141797,-4959.379811,1378.971896
1236.182070,8660.409521,-4885.359217,1532.190996
1236.182399,8512.368333,-4959.379811,1991.848295
1236.182729,8216.285956,-5329.482782,2374.896044
1236.183058,8660.409521,-5995.668130,1608.800546
1236.183387,7994.224174,-6587.832884,1838.629195
1236.183716,7105.977043,-7031.956449,1378.971896
1236.184045,6439.791695,-7402.059420,842.705048
1236.184375,6513.812290,-7031.956449,0.000000
1236.184704,5181.441594,-7105.977043,0.000000
1236.185033,5181.441594,-7254.018232,0.000000
1236.185362,5551.544565,-6661.853478,306.438199
1236.185691,5921.647536,-6661.853478,306.438199
1236.186021,7476.080014,-5847.626942,1072.533697
1236.186350,7846.182985,-6439.791695,2451.505594
1236.186679,9104.533087,-5921.647536,2451.505594
1236.187008,8216.285956,-5551.544565,2221.676944
1236.187337,7179.997637,-6291.750507,1378.971896
1236.187667,7328.038826,-6069.688724,1072.533697
1236.187996,7402.059420,-6809.894666,766.095498
1236.188325,6883.915261,-7328.038826,536.266849
1236.188654,6291.750507,-7476.080014,229.828649
1236.188983,5921.647536,-7772.162391,383.047749
1236.189313,5773.606348,-8734.430116,536.266849
1236.189642,5773.606348,-7920.203579,1378.971896
1236.189971,6217.729913,-7624.121203,1302.362347
1236.190300,6365.771101,-7105.977043,995.924147
1236.190629,6883.915261,-6217.729913,1149.143247
1236.190959,7179.997637,-5699.585753,1532.190996
1236.191288,7846.182985,-4293.194464,1225.752797
1236.191617,8364.327145,-3627.009116,1762.019645
1236.191946,9030.512492,-3108.864956,919.314598
1236.192275,8956.491898,-3775.050304,1455.581446
1236.192605,8660.409521,-4885.359217,1378.971896
1236.192934,8290.306550,-6143.709319,1225.752797
1236.193263,7550.100608,-6735.874072,1149.143247
1236.193592,7105.977043,-8512.368333,1838.629195
1236.193921,6513.812290,-9326.594869,1225.752797
1236.194251,5255.462188,-9326.594869,1072.533697
1236.194580,4515.256246,-9844.739029,229.828649
1236.194909,4441.235652,-8956.491898,229.828649
1236.195238,4737.318029,-7698.141797,0.000000
1236.195567,5403.503377,-6365.771101,0.000000
1236.195897,5773.606348,-5847.626942,383.047749
1236.196226,6809.894666,-4811.338623,842.705048
1236.196555,7698.141797,-5033.400406,1225.752797
1236.196884,8290.306550,-4663.297435,1608.800546
1236.197213,8438.347739,-4811.338623,2145.067394
1236.197543,8586.388927,-5921.647536,2374.896044
1236.197872,8364.327145,-6365.771101,2374.896044
1236.198201,7920.203579,-6809.894666,2451.505594
1236.198530,7402.059420,-7179.997637,1685.410096
1236.198859,6957.935855,-7402.059420,1302.362347
1236.199189,5773.606348,-7994.224174,229.828649
1236.199518,5255.462188,-7402.059420,536.266849
1236.199847,5181.441594,-6883.915261,-306.438199
1236.200176,5107.421000,-6809.894666,0.000000
1236.200505,5921.647536,-5625.565159,612.876398
1236.200835,6883.915261,-6069.688724,1072.533697
1236.201164,8660.409521,-5773.606348,2451.505594
1236.201493,8660.409521,-5921.647536,2834.553343
1236.201822,8586.388927,-6143.709319,2068.457845
1236.202151,8290.306550,-5625.565159,1838.629195
1236.202481,7772.162391,-6291.750507,1072.533697
1236.202810,7328.038826,-7031.956449,612.876398
1236.203139,6143.709319,-7254.018232,0.000000
1236.203468,6069.688724,-7772.162391,-459.657299
1236.203797,5625.565159,-8364.327145,76.609550
1236.204127,5773.606348,-8068.244768,536.266849
1236.204456,5551.544565,-8808.450710,766.095498
1236.204785,5477.523971,-8438.347739,689.485948
1236.205114,5625.565159,-6439.791695,1225.752797
1236.205444,5995.668130,-5699.585753,1378.971896
1236.205773,7179.997637,-4589.276840,1608.800546
1236.206102,8142.265362,-4219.173869,1685.410096
1236.206431,8660.409521,-3552.988522,1072.533697
1236.206760,9030.512492,-3182.885551,1149.143247
1236.207090,9622.677246,-3923.091493,1072.533697
1236.207419,9400.615463,-5403.503377,1455.581446
1236.207748,8734.430116,-6365.771101,1225.752797
1236.208077,7624.121203,-7550.100608,1072.533697
1236.208406,7179.997637,-8364.327145,1225.752797
1236.208736,6809.894666,-9474.636058,1072.533697
1236.209065,5921.647536,-9474.636058,842.705048
1236.209394,5181.441594,-9326.594869,229.828649
1236.209723,4145.153275,-8068.244768,-306.438199
1236.210052,3997.112087,-7402.059420,-306.438199
1236.210382,4737.318029,-6661.853478,0.000000
1236.210711,6365.771101,-5181.441594,229.828649
1236.211040,7328.038826,-5033.400406,536.266849
1236.211369,7994.224174,-4145.153275,919.314598
1236.211698,8364.327145,-4293.194464,1455.581446
1236.212028,9030.512492,-5255.462188,2068.457845
1236.212357,8956.491898,-5625.565159,2068.457845
1236.212686,8586.388927,-6365.771101,2298.286494
1236.213015,8364.327145,-6587.832884,1838.629195
1236.213344,8290.306550,-7328.038826,1532.190996
1236.213674,6661.853478,-7624.121203,689.485948
1236.214003,5995.668130,-7698.141797,229.828649
1236.214332,5329.482782,-7031.956449,0.000000
1236.214661,5107.421000,-6735.874072,-383.047749
1236.214990,4885.359217,-6513.812290,153.219100
1236.215320,5921.647536,-6069.688724,306.438199
1236.215649,6883.915261,-6735.874072,1532.190996
1236.215978,8068.244768,-5033.400406,2068.457845
1236.216307,8364.327145,-6069.688724,2528.115143
1236.216636,9030.512492,-6069.688724,2068.457845
1236.216966,8882.471304,-5551.544565,1915.238745
1236.217295,8438.347739,-6883.915261,1608.800546
1236.217624,7772.162391,-6883.915261,1378.971896
1236.217953,6587.832884,-7105.977043,306.438199
1236.218282,5921.647536,-7772.162391,0.000000
1236.218612,5255.462188,-7624.121203,0.000000
1236.218941,4959.379811,-9178.553681,306.438199
1236.219270,5181.441594,-8216.285956,995.924147
1236.219599,5255.462188,-7772.162391,995.924147
1236.219928,5625.565159,-6735.874072,1072.533697
1236.220258,6217.729913,-5181.441594,1532.190996
1236.220587,7179.997637,-5329.482782,1762.019645
1236.220916,8290.306550,-3627.009116,1149.143247
1236.221245,8808.450710,-3627.009116,1762.019645
1236.221574,9178.553681,-3034.844362,1225.752797
1236.221904,9400.615463,-3997.112087,1378.971896
1236.222233,8734.430116,-5699.585753,2068.457845
1236.222562,8142.265362,-7105.977043,1685.410096
1236.222891,7105.977043,-8142.265362,1072.533697
1236.223220,6291.750507,-8660.409521,689.485948
1236.223550,5551.544565,-9548.656652,766.095498
1236.223879,5329.482782,-9548.656652,1302.362347
1236.224208,4959.379811,-9178.553681,766.095498
1236.224537,4663.297435,-7994.224174,0.000000
1236.224866,4663.297435,-6957.935855,306.438199
1236.225196,5699.585753,-5773.606348,0.000000
1236.225525,6513.812290,-5107.421000,306.438199
1236.225854,7402.059420,-4663.297435,919.314598
1236.226183,7920.203579,-4145.153275,1149.143247
1236.226512,8660.409521,-4441.235652,1685.410096
1236.226842,9326.594869,-5699.585753,2451.505594
1236.227171,8660.409521,-6439.791695,1991.848295
1236.227500,8142.265362,-7105.977043,1762.019645
1236.227829,7550.100608,-7772.162391,1838.629195
1236.228158,6957.935855,-8438.347739,459.657299
1236.228487,5773.606348,-7994.224174,459.657299
1236.228817,5255.462188,-7254.018232,-306.438199
1236.229146,5477.523971,-7105.977043,229.828649
1236.229475,5995.668130,-6439.791695,306.438199
1236.229804,6217.729913,-5403.503377,612.876398
1236.230133,6809.894666,-4737.318029,612.876398
1236.230463,7476.080014,-4885.359217,1455.581446
1236.230792,8512.368333,-5625.565159,2145.067394
1236.231121,9030.512492,-5329.482782,2604.724693
1236.231450,8882.471304,-4959.379811,2298.286494
1236.231779,8142.265362,-6217.729913,1455.581446
1236.232109,7105.977043,-7402.059420,1455.581446
1236.232438,6735.874072,-7920.203579,919.314598
1236.232767,6587.832884,-7994.224174,76.609550
1236.233096,5181.441594,-7772.162391,76.609550
1236.233425,4737.318029,-8882.471304,-153.219100
1236.233755,4589.276840,-8956.491898,153.219100
1236.234084,4589.276840,-8290.306550,612.876398
1236.234413,5403.503377,-7550.100608,919.314598
1236.234742,6069.688724,-6439.791695,1378.971896
1236.235071,7105.977043,-5847.626942,1915.238745
1236.235401,7846.182985,-5255.462188,1991.848295
1236.235730,8734.430116,-2960.823768,1915.238745
1236.236059,9474.636058,-2812.782580,1532.190996
1236.236388,9844.739029,-2886.803174,1302.362347
1236.236717,9474.636058,-3849.070898,1378.971896
1236.237047,9178.553681,-5403.503377,1225.752797
1236.237376,8586.388927,-6291.750507,995.924147
1236.237705,7105.977043,-7846.182985,1149.143247
1236.238034,6439.791695,-9696.697840,1225.752797
1236.238363,5403.503377,-9844.739029,1072.533697
1236.238693,4737.318029,-9252.574275,306.438199
1236.239022,4071.132681,-9030.512492,0.000000
1236.239351,3997.112087,-8216.285956,689.485948
1236.239680,5033.400406,-7179.997637,306.438199
1236.240009,5921.647536,-6069.688724,536.266849
1236.240339,6661.853478,-4811.338623,612.876398
1236.240668,7550.100608,-4293.194464,612.876398
1236.240997,8586.388927,-4737.318029,1225.752797
1236.241326,9178.553681,-4737.318029,1915.238745
1236.241655,9104.533087,-5773.606348,1838.629195
1236.241984,9178.553681,-6217.729913,2528.115143
1236.242314,8068.244768,-7624.121203,1762.019645
1236.242643,7105.977043,-8216.285956,1455.581446
1236.242972,6069.688724,-7994.224174,766.095498
1236.243301,5551.544565,-8068.244768,-306.438199
1236.243630,5181.441594,-8068.244768,153.219100
1236.243960,5403.503377,-7254.018232,76.609550
1236.244289,5699.585753,-6439.791695,0.000000
1236.244618,6143.709319,-5551.544565,153.219100
1236.244947,6809.894666,-5181.441594,689.485948
1236.245276,7550.100608,-5551.544565,1608.800546
1236.245606,8586.388927,-5329.482782,2681.334243
1236.245935,9326.594869,-5033.400406,2681.334243
1236.246264,8734.430116,-5403.503377,2298.286494
1236.246593,8216.285956,-5847.626942,2068.457845
1236.246922,8142.265362,-7105.977043,1532.190996
1236.247252,7105.977043,-6957.935855,689.485948
1236.247581,6069.688724,-7550.100608,0.000000
1236.247910,5699.585753,-8364.327145,0.000000
1236.248239,4885.359217,-8586.388927,0.000000
1236.248568,4367.215058,-8660.409521,153.219100
1236.248898,4441.235652,-7920.203579,0.000000
1236.249227,5255.462188,-7105.977043,842.705048
1236.249556,6809.894666,-6439.791695,1608.800546
1236.249885,7105.977043,-5773.606348,1608.800546
1236.250214,7772.162391,-4219.173869,1991.848295
1236.250544,8512.368333,-3552.988522,1455.581446
1236.250873,9400.615463,-4293.194464,1149.143247
1236.251202,9178.553681,-3849.070898,1532.190996
1236.251531,8586.388927,-4441.235652,612.876398
1236.251860,8808.450710,-5329.482782,1302.362347
1236.252190,8142.265362,-6587.832884,1149.143247
1236.252519,7476.080014,-8216.285956,919.314598
1236.252848,7105.977043,-8364.327145,1149.143247
1236.253177,5773.606348,-8956.491898,689.485948
1236.253506,4811.338623,-8956.491898,1149.143247
1236.253835,4441.235652,-8808.450710,612.876398
1236.254165,4885.359217,-7920.203579,919.314598
1236.254494,5699.585753,-6883.915261,383.047749
1236.254823,5699.585753,-6291.750507,306.438199
1236.255152,6809.894666,-5995.668130,612.876398
1236.255481,7105.977043,-5107.421000,1072.533697
1236.255811,8216.285956,-4441.235652,919.314598
1236.256140,8364.327145,-4737.318029,1378.971896
1236.256469,8808.450710,-5995.668130,2068.457845
1236.256798,8586.388927,-6883.915261,1991.848295
1236.257127,8364.327145,-6957.935855,1762.019645
1236.257457,7402.059420,-7105.977043,1762.019645
1236.257786,6809.894666,-7846.182985,1072.533697
1236.258115,5921.647536,-7476.080014,383.047749
1236.258444,5773.606348,-7550.100608,383.047749
1236.258773,5995.668130,-6883.915261,229.828649
1236.259103,6069.688724,-6217.729913,229.828649
1236.259432,6217.729913,-5625.565159,229.828649
1236.259761,6513.812290,-5329.482782,689.485948
1236.260090,7994.224174,-5403.503377,1838.629195
1236.260419,8438.347739,-5181.441594,2221.676944
1236.260749,8808.450710,-6143.709319,2451.505594
1236.261078,8216.285956,-5699.585753,2145.067394
1236.261407,8142.265362,-6735.874072,1838.629195
1236.261736,7550.100608,-6735.874072,1608.800546
1236.262065,6809.894666,-7772.162391,842.705048
1236.262395,5995.668130,-8586.388927,383.047749
1236.262724,4959.379811,-8734.430116,76.609550
1236.263053,5033.400406,-8512.368333,153.219100
1236.263382,4737.318029,-8512.368333,0.000000
1236.263711,4959.379811,-8290.306550,536.266849
1236.264041,5107.421000,-8216.285956,612.876398
1236.264370,5773.606348,-6587.832884,1072.533697
1236.264699,6735.874072,-4811.338623,1225.752797
1236.265028,8216.285956,-4959.379811,1838.629195
1236.265357,8956.491898,-3923.091493,2298.286494
1236.265686,9474.636058,-3701.029710,1685.410096
1236.266016,9770.718434,-3330.926739,1455.581446
1236.266345,8956.491898,-3923.091493,1455.581446
1236.266674,8586.388927,-5403.503377,842.705048
1236.267003,7994.224174,-6513.812290,1302.362347
1236.267332,7105.977043,-7624.121203,995.924147
1236.267662,6291.750507,-7772.162391,612.876398
1236.267991,5551.544565,-9252.574275,1149.143247
1236.268320,5329.482782,-9474.636058,919.314598
1236.268649,4737.318029,-8438.347739,536.266849
1236.268978,4515.256246,-7476.080014,229.828649
1236.269308,4885.359217,-7624.121203,0.000000
1236.269637,5551.544565,-6883.915261,229.828649
1236.269966,6587.832884,-5773.606348,536.266849
1236.270295,7254.018232,-5033.400406,995.924147
1236.270624,8290.306550,-4737.318029,1532.190996
1236.270954,8734.430116,-4885.359217,1685.410096
1236.271283,8882.471304,-5921.647536,2068.457845
1236.271612,8808.450710,-6513.812290,2145.067394
1236.271941,8438.347739,-6513.812290,1838.629195
1236.272270,7846.182985,-7105.977043,2451.505594
1236.272600,7105.977043,-7402.059420,1532.190996
1236.272929,6291.750507,-7179.997637,536.266849
1236.273258,5995.668130,-7254.018232,0.000000
1236.273587,5625.565159,-6957.935855,0.000000
1236.273916,5995.668130,-6439.791695,-76.609550
1236.274246,5921.647536,-5921.647536,306.438199
1236.274575,6365.771101,-5699.585753,0.000000
1236.274904,6957.935855,-5995.668130,995.924147
1236.275233,7920.203579,-6291.750507,1762.019645
1236.275562,8216.285956,-5699.585753,2451.505594
1236.275892,8586.388927,-5995.668130,2145.067394
1236.276221,7994.224174,-6143.709319,1608.800546
1236.276550,7920.203579,-7105.977043,1608.800546
1236.276879,7179.997637,-8068.244768,1149.143247
1236.277208,6217.729913,-7920.203579,306.438199
1236.277538,5255.462188,-7476.080014,0.000000
1236.277867,5329.482782,-7994.224174,0.000000
1236.278196,5551.544565,-8586.388927,306.438199
1236.278525,5403.503377,-7698.141797,1149.143247
1236.278854,5551.544565,-6957.935855,766.095498
1236.279183,5847.626942,-6143.709319,842.705048
1236.279513,6809.894666,-5995.668130,1225.752797
1236.279842,8068.244768,-5255.462188,1608.800546
1236.280171,8216.285956,-3849.070898,1149.143247
1236.280500,9326.594869,-3627.009116,1455.581446
1236.280829,9474.636058,-3775.050304,1532.190996
1236.281159,9622.677246,-4737.318029,1455.581446
1236.281488,9104.533087,-5847.626942,1532.190996
1236.281817,8290.306550,-5995.668130,1225.752797
1236.282146,7254.018232,-7476.080014,689.485948
1236.282475,6291.750507,-8660.409521,995.924147
1236.282805,5921.647536,-8660.409521,1838.629195
1236.283134,5551.544565,-9030.512492,919.314598
1236.283463,4589.276840,-8882.471304,383.047749
1236.283792,4071.132681,-8438.347739,0.000000
1236.284121,4145.153275,-7624.121203,-153.219100
1236.284451,4811.338623,-6217.729913,0.000000
1236.284780,5551.544565,-5625.565159,76.609550
1236.285109,6883.915261,-4959.379811,306.438199
1236.285438,8290.306550,-5033.400406,1302.362347
1236.285767,9030.512492,-5847.626942,1991.848295
1236.286097,9104.533087,-5921.647536,2451.505594
1236.286426,8734.430116,-6217.729913,2145.067394
1236.286755,8808.450710,-6883.915261,1991.848295
1236.287084,8364.327145,-6735.874072,2145.067394
1236.287413,7994.224174,-6513.812290,1072.533697
1236.287743,7105.977043,-6661.853478,612.876398
1236.288072,6143.709319,-6809.894666,842.705048
1236.288401,5551.544565,-6661.853478,-229.828649
1236.288730,5995.668130,-5921.647536,0.000000
1236.289059,6217.729913,-5329.482782,459.657299
1236.289389,5921.647536,-5625.565159,306.438199
1236.289718,6587.832884,-6217.729913,1532.190996
1236.290047,8216.285956,-5699.585753,2221.676944
1236.290376,9178.553681,-5847.626942,2068.457845
1236.290705,8364.327145,-5773.606348,2221.676944
1236.291034,7550.100608,-6587.832884,1991.848295
1236.291364,7402.059420,-7550.100608,1455.581446
1236.291693,7179.997637,-7698.141797,1149.143247
1236.292022,6291.750507,-7550.100608,383.047749
1236.292351,5921.647536,-8068.244768,229.828649
1236.292680,5551.544565,-8586.388927,459.657299
1236.293010,5033.400406,-8586.388927,459.657299
1236.293339,5477.523971,-7698.141797,995.924147
1236.293668,5255.462188,-6883.915261,536.266849
1236.293997,5847.626942,-7105.977043,766.095498
1236.294326,6883.915261,-5773.606348,1532.190996
1236.294656,7698.141797,-5033.400406,1455.581446
1236.294985,8586.388927,-3923.091493,2298.286494
1236.295314,9326.594869,-3775.050304,1762.019645
1236.295643,9696.697840,-4219.173869,1302.362347
1236.295972,9844.739029,-4293.194464,1532.190996
1236.296302,8956.491898,-5181.441594,1608.800546
1236.296631,7920.203579,-6439.791695,1608.800546
1236.296960,7105.977043,-7624.121203,1302.362347
1236.297289,6587.832884,-8290.306550,1302.362347
1236.297618,6143.709319,-8882.471304,1378.971896
1236.297948,4811.338623,-8512.368333,995.924147
1236.298277,4293.194464,-8956.491898,0.000000
1236.298606,4145.153275,-8438.347739,0.000000
1236.298935,4515.256246,-7772.162391,0.000000
1236.299264,5107.421000,-6957.935855,0.000000
1236.299594,5477.523971,-5699.585753,306.438199
1236.299923,6439.791695,-6217.729913,766.095498
1236.300252,7402.059420,-5921.647536,919.314598
1236.300581,8290.306550,-5551.544565,1991.848295
1236.300910,9104.533087,-5477.523971,2374.896044
1236.301240,9252.574275,-5847.626942,2298.286494
1236.301569,8438.347739,-6291.750507,2145.067394
1236.301898,7846.182985,-6069.688724,1608.800546
1236.302227,7476.080014,-6291.750507,1149.143247
1236.302556,6957.935855,-6291.750507,1455.581446
1236.302885,6661.853478,-6735.874072,306.438199
1236.303215,6217.729913,-6513.812290,383.047749
1236.303544,5847.626942,-5699.585753,0.000000
1236.303873,5625.565159,-6143.709319,536.266849
1236.304202,5699.585753,-6217.729913,1149.143247
1236.304531,6735.874072,-6069.688724,1149.143247
1236.304861,7550.100608,-6217.729913,1838.629195
1236.305190,7698.141797,-5921.647536,2145.067394
1236.305519,7920.203579,-7031.956449,1685.410096
1236.305848,7550.100608,-7254.018232,1762.019645
1236.306177,7254.018232,-6883.915261,1685.410096
1236.306507,6587.832884,-7179.997637,766.095498
1236.306836,6513.812290,-6883.915261,459.657299
1236.307165,6069.688724,-8142.265362,0.000000
1236.307494,5995.668130,-7846.182985,229.828649
1236.307823,6143.709319,-7920.203579,536.266849
1236.308153,5699.585753,-7624.121203,536.266849
1236.308482,5477.523971,-7179.997637,1149.143247
1236.308811,6217.729913,-6587.832884,1532.190996
1236.309140,7105.977043,-6069.688724,1532.190996
1236.309469,7846.182985,-4811.338623,1378.971896
1236.309799,7994.224174,-3849.070898,1072.533697
1236.310128,8734.430116,-4441.235652,919.314598
1236.310457,8882.471304,-3997.112087,1838.629195
1236.310786,9178.553681,-4441.235652,1455.581446
1236.311115,8364.327145,-5329.482782,1302.362347
1236.311445,7772.162391,-5625.565159,1455.581446
1236.311774,7254.018232,-7031.956449,919.314598
1236.312103,7031.956449,-8512.368333,1685.410096
1236.312432,6587.832884,-8438.347739,1532.190996
1236.312761,5921.647536,-8882.471304,919.314598
1236.313091,4959.379811,-8290.306550,1455.581446
1236.313420,4811.338623,-8068.244768,0.000000
1236.313749,4811.338623,-8068.244768,-229.828649
1236.314078,5255.462188,-7031.956449,0.000000
1236.314407,5699.585753,-6291.750507,306.438199
1236.314737,6809.894666,-5403.503377,842.705048
1236.315066,7550.100608,-5625.565159,1225.752797
1236.315395,8142.265362,-5477.523971,1762.019645
1236.315724,8364.327145,-5921.647536,1915.238745
1236.316053,8290.306550,-6513.812290,1838.629195
1236.316382,8068.244768,-6439.791695,1762.019645
1236.316712,7994.224174,-6439.791695,1762.019645
1236.317041,7328.038826,-6661.853478,1378.971896
1236.317370,7476.080014,-6809.894666,919.314598
1236.317699,7476.080014,-5403.503377,689.485948
1236.318028,6809.894666,-5847.626942,306.438199
1236.318358,5847.626942,-5551.544565,153.219100
1236.318687,5625.565159,-6291.750507,306.438199
1236.319016,6291.750507,-5921.647536,306.438199
1236.319345,6587.832884,-5847.626942,1608.800546
1236.319675,7105.977043,-6587.832884,1455.581446
1236.320004,7328.038826,-6661.853478,1762.019645
1236.320333,7476.080014,-7105.977043,1915.238745
1236.320663,7105.977043,-6883.915261,2145.067394
1236.320992,6587.832884,-7698.141797,1302.362347
1236.321321,6587.832884,-7994.224174,536.266849
1236.321650,6143.709319,-7624.121203,229.828649
1236.321980,5847.626942,-7920.203579,-153.219100
1236.322309,5921.647536,-7772.162391,459.657299
1236.322638,6143.709319,-7624.121203,459.657299
1236.322968,6365.771101,-7105.977043,995.924147
1236.323297,6365.771101,-6809.894666,919.314598
1236.323626,6587.832884,-5699.585753,1455.581446
1236.323955,7105.977043,-5033.400406,1378.971896
1236.324285,7624.121203,-4811.338623,1225.752797
1236.324614,8438.347739,-4293.194464,1072.533697
1236.324943,8734.430116,-4071.132681,1378.971896
1236.325273,9474.636058,-4515.256246,1378.971896
1236.325602,9030.512492,-4811.338623,1455.581446
1236.325931,8660.409521,-5921.647536,1225.752797
1236.326261,8142.265362,-6735.874072,1072.533697
1236.326590,7105.977043,-7254.018232,1532.190996
1236.326919,6291.750507,-7698.141797,995.924147
1236.327248,5921.647536,-8956.491898,766.095498
1236.327578,5255.462188,-9178.553681,995.924147
1236.327907,4885.359217,-8438.347739,995.924147
1236.328236,4737.318029,-8216.285956,459.657299
1236.328566,4959.379811,-7105.977043,459.657299
1236.328895,5255.462188,-6957.935855,0.000000
1236.329224,6291.750507,-6069.688724,306.438199
1236.329553,7179.997637,-5551.544565,919.314598
1236.329883,8290.306550,-5699.585753,1149.143247
1236.330212,8290.306550,-5551.544565,1915.238745
1236.330541,8068.244768,-6069.688724,1762.019645
1236.330871,8586.388927,-6439.791695,2145.067394
1236.331200,8660.409521,-6069.688724,1762.019645
1236.331529,7698.141797,-5847.626942,1532.190996
1236.331858,7402.059420,-6513.812290,1225.752797
1236.332188,6957.935855,-6291.750507,1072.533697
1236.332517,6587.832884,-6587.832884,306.438199
1236.332846,6069.688724,-6513.812290,153.219100
1236.333176,6217.729913,-6143.709319,383.047749
1236.333505,6513.812290,-6291.750507,459.657299
1236.333834,6735.874072,-6069.688724,995.924147
1236.334163,7328.038826,-6439.791695,1838.629195
1236.334493,7328.038826,-6217.729913,1838.629195
1236.334822,8364.327145,-6217.729913,2145.067394
1236.335151,7772.162391,-6513.812290,1991.848295
1236.335481,7179.997637,-7031.956449,1838.629195
1236.335810,7254.018232,-7402.059420,1225.752797
1236.336139,6069.688724,-7328.038826,76.609550
1236.336468,5255.462188,-7920.203579,0.000000
1236.336798,5033.400406,-8142.265362,0.000000
1236.337127,5625.565159,-8586.388927,76.609550
1236.337456,4885.359217,-8364.327145,153.219100
1236.337786,5477.523971,-7550.100608,842.705048
1236.338115,6365.771101,-7254.018232,536.266849
1236.338444,6957.935855,-7254.018232,995.924147
1236.338774,7105.977043,-5403.503377,1991.848295
1236.339103,8068.244768,-5107.421000,1762.019645
1236.339432,8882.471304,-3701.029710,1455.581446
1236.339761,9104.533087,-3775.050304,1608.800546
1236.340091,9252.574275,-4071.132681,1762.019645
1236.340420,9400.615463,-3552.988522,1762.019645
1236.340749,8364.327145,-4737.318029,995.924147
1236.341079,7254.018232,-5477.523971,995.924147
1236.341408,6587.832884,-6661.853478,536.266849
1236.341737,6957.935855,-9178.553681,766.095498
1236.342066,5921.647536,-9252.574275,1225.752797
1236.342396,5477.523971,-8882.471304,1149.143247
1236.342725,5255.462188,-9030.512492,459.657299
1236.343054,4811.338623,-8512.368333,306.438199
1236.343384,4959.379811,-8068.244768,459.657299
1236.343713,5477.523971,-7179.997637,0.000000
1236.344042,5921.647536,-6439.791695,76.609550
1236.344371,7105.977043,-6069.688724,229.828649
1236.344701,7698.141797,-5477.523971,1149.143247
1236.345030,8290.306550,-5255.462188,1608.800546
1236.345359,8512.368333,-6069.688724,2068.457845
1236.345689,7920.203579,-5921.647536,1762.019645
1236.346018,7328.038826,-6291.750507,1608.800546
1236.346347,7476.080014,-6217.729913,1915.238745
1236.346676,7179.997637,-6513.812290,1072.533697
1236.347006,6809.894666,-6291.750507,689.485948
1236.347335,6217.729913,-6217.729913,383.047749
1236.347664,6735.874072,-6439.791695,995.924147
1236.347994,6809.894666,-5699.585753,459.657299
1236.348323,6439.791695,-5477.523971,766.095498
1236.348652,6735.874072,-5699.585753,1225.752797
1236.348981,7105.977043,-6291.750507,1302.362347
1236.349311,7031.956449,-6217.729913,2145.067394
1236.349640,7698.141797,-6217.729913,2374.896044
1236.349969,7624.121203,-6735.874072,1378.971896
1236.350299,7105.977043,-7179.997637,1838.629195
1236.350628,6513.812290,-7920.203579,766.095498
1236.350957,6365.771101,-7328.038826,459.657299
1236.351287,5699.585753,-7846.182985,0.000000
1236.351616,5403.503377,-8808.450710,0.000000
1236.351945,5403.503377,-8290.306550,0.000000
1236.352274,5699.585753,-7698.141797,536.266849
1236.352604,6661.853478,-7550.100608,766.095498
1236.352933,6957.935855,-6735.874072,1225.752797
1236.353262,7179.997637,-5847.626942,1455.581446
1236.353592,8068.244768,-5033.400406,1991.848295
1236.353921,8438.347739,-3775.050304,1762.019645
1236.354250,8734.430116,-3404.947333,1455.581446
1236.354579,9326.594869,-3182.885551,1532.190996
1236.354909,9622.677246,-3552.988522,1685.410096
1236.355238,9030.512492,-4145.153275,1378.971896
1236.355567,8586.388927,-4737.318029,1149.143247
1236.355897,7105.977043,-6291.750507,612.876398
1236.356226,6439.791695,-7772.162391,842.705048
1236.356555,5921.647536,-8882.471304,842.705048
1236.356884,5551.544565,-8956.491898,766.095498
1236.357214,5477.523971,-9178.553681,689.485948
1236.357543,5329.482782,-8882.471304,536.266849
1236.357872,4811.338623,-8882.471304,0.000000
1236.358202,4811.338623,-7624.121203,0.000000
1236.358531,5551.544565,-6809.894666,-306.438199
1236.358860,6439.791695,-6217.729913,0.000000
1236.359189,7105.977043,-5403.503377,995.924147
1236.359519,8364.327145,-5625.565159,1455.581446
1236.359848,8660.409521,-4737.318029,1838.629195
1236.360177,8808.450710,-5181.441594,2528.115143
1236.360507,8216.285956,-5995.668130,2068.457845
1236.360836,8068.244768,-6217.729913,1838.629195
1236.361165,7550.100608,-6809.894666,1378.971896
1236.361495,7476.080014,-7105.977043,1685.410096
1236.361824,6735.874072,-7105.977043,766.095498
1236.362153,6439.791695,-6883.915261,459.657299
1236.362482,5773.606348,-6587.832884,0.000000
1236.362812,5403.503377,-6217.729913,0.000000
1236.363141,5477.523971,-6365.771101,383.047749
1236.363470,6513.812290,-6883.915261,995.924147
1236.363800,6883.915261,-6143.709319,1608.800546
1236.364129,7624.121203,-6143.709319,1991.848295
1236.364458,7624.121203,-6069.688724,2451.505594
1236.364787,7994.224174,-6365.771101,2451.505594
1236.365117,7402.059420,-7031.956449,1685.410096
1236.365446,6809.894666,-7105.977043,1378.971896
1236.365775,6217.729913,-6883.915261,689.485948
1236.366105,5921.647536,-7402.059420,76.609550
1236.366434,6143.709319,-7624.121203,536.266849
1236.366763,5995.668130,-7772.162391,76.609550
1236.367092,5995.668130,-7772.162391,76.609550
1236.367422,5773.606348,-6809.894666,153.219100
1236.367751,5995.668130,-7031.956449,229.828649
1236.368080,6735.874072,-6661.853478,1685.410096
1236.368410,7179.997637,-5995.668130,1608.800546
1236.368739,7550.100608,-5255.462188,1455.581446
1236.369068,7920.203579,-4293.194464,919.314598
1236.369397,8882.471304,-3923.091493,1608.800546
1236.369727,9474.636058,-4293.194464,1685.410096
1236.370056,9326.594869,-4219.173869,1762.019645
1236.370385,8660.409521,-5329.482782,1225.752797
1236.370715,7994.224174,-5921.647536,1149.143247
1236.371044,7179.997637,-6513.812290,1225.752797
1236.371373,6661.853478,-7994.224174,1302.362347
1236.371702,6735.874072,-8660.409521,1608.800546
1236.372032,6513.812290,-8808.450710,1532.190996
1236.372361,5255.462188,-8512.368333,612.876398
1236.372690,4589.276840,-8216.285956,0.000000
1236.373020,4219.173869,-7698.141797,-689.485948
1236.373349,5033.400406,-7402.059420,-536.266849
1236.373678,5847.626942,-6883.915261,383.047749
1236.374008,6735.874072,-6291.750507,229.828649
1236.374337,8142.265362,-5477.523971,1072.533697
1236.374666,8734.430116,-5847.626942,1762.019645
1236.374995,9326.594869,-5921.647536,2221.676944
1236.375325,8956.491898,-5699.585753,1991.848295
1236.375654,8364.327145,-5625.565159,1608.800546
1236.375983,7994.224174,-6069.688724,1302.362347
1236.376313,7550.100608,-6883.915261,1455.581446
1236.376642,7105.977043,-6217.729913,1685.410096
1236.376971,6957.935855,-6587.832884,536.266849
1236.377300,6291.750507,-6291.750507,0.000000
1236.377630,5773.606348,-6291.750507,0.000000
1236.377959,5699.585753,-6587.832884,153.219100
1236.378288,5995.668130,-6291.750507,842.705048
1236.378618,6587.832884,-6513.812290,1225.752797
1236.378947,7550.100608,-6513.812290,1762.019645
1236.379276,7550.100608,-6735.874072,2374.896044
1236.379605,7920.203579,-7402.059420,1838.629195
1236.379935,6957.935855,-7031.956449,1685.410096
1236.380264,6513.812290,-7328.038826,1072.533697
1236.380593,6069.688724,-7476.080014,842.705048
1236.380923,5921.647536,-6809.894666,76.609550
1236.381252,6291.750507,-8068.244768,-306.438199
1236.381581,6439.791695,-7772.162391,383.047749
1236.381910,6217.729913,-7402.059420,766.095498
1236.382240,6291.750507,-7328.038826,459.657299
1236.382569,6217.729913,-6883.915261,1532.190996
1236.382898,7105.977043,-5847.626942,1149.143247
1236.383228,7254.018232,-5625.565159,1455.581446
1236.383557,7920.203579,-5107.421000,1915.238745
1236.383886,8586.388927,-4293.194464,2145.067394
1236.384215,8586.388927,-3775.050304,2145.067394
1236.384545,8586.388927,-3701.029710,842.705048
1236.384874,7772.162391,-4737.318029,919.314598
1236.385203,7624.121203,-5921.647536,842.705048
1236.385533,7105.977043,-6217.729913,842.705048
1236.385862,6883.915261,-7328.038826,1378.971896
1236.386191,6513.812290,-7994.224174,1149.143247
1236.386521,5921.647536,-9030.512492,1455.581446
1236.386850,5773.606348,-8956.491898,612.876398
1236.387179,5477.523971,-9030.512492,766.095498
1236.387508,5255.462188,-8290.306550,-306.438199
1236.387838,5181.441594,-7624.121203,229.828649
1236.388167,5477.523971,-6957.935855,306.438199
1236.388496,6809.894666,-6661.853478,306.438199
1236.388826,7179.997637,-5921.647536,766.095498
1236.389155,7772.162391,-5329.482782,1455.581446
1236.389484,8364.327145,-5699.585753,1762.019645
1236.389813,8734.430116,-5255.462188,2451.505594
1236.390143,8512.368333,-5033.400406,1838.629195
1236.390472,7476.080014,-5403.503377,1532.190996
1236.390801,7550.100608,-6291.750507,1608.800546
1236.391131,7698.141797,-6809.894666,995.924147
1236.391460,7402.059420,-6809.894666,1302.362347
1236.391789,7105.977043,-5921.647536,536.266849
1236.392118,6661.853478,-6513.812290,153.219100
1236.392448,6365.771101,-6365.771101,919.314598
1236.392777,6143.709319,-6587.832884,612.876398
1236.393106,6513.812290,-6513.812290,612.876398
1236.393436,6809.894666,-6217.729913,1455.581446
1236.393765,7328.038826,-7254.018232,2068.457845
1236.394094,7402.059420,-6587.832884,1608.800546
1236.394423,6957.935855,-7179.997637,1685.410096
1236.394753,6809.894666,-6439.791695,1685.410096
1236.395082,6883.915261,-7031.956449,1072.533697
1236.395411,6661.853478,-7402.059420,766.095498
1236.395741,6217.729913,-7328.038826,0.000000
1236.396070,5773.606348,-7624.121203,-153.219100
1236.396399,5625.565159,-7402.059420,76.609550
1236.396728,5995.668130,-7402.059420,766.095498
1236.397058,6587.832884,-7254.018232,1302.362347
1236.397387,6513.812290,-6217.729913,995.924147
1236.397716,6809.894666,-5847.626942,1378.971896
1236.398046,7698.141797,-5329.482782,1838.629195
1236.398375,8660.409521,-4441.235652,2221.676944
1236.398704,8586.388927,-3849.070898,2451.505594
1236.399034,8364.327145,-3849.070898,1915.238745
1236.399363,8216.285956,-4145.153275,2145.067394
1236.399692,7920.203579,-5181.441594,1532.190996
1236.400021,7328.038826,-5625.565159,689.485948
1236.400351,6957.935855,-6661.853478,766.095498
1236.400680,6587.832884,-6809.894666,919.314598
1236.401009,6513.812290,-7550.100608,689.485948
1236.401339,6513.812290,-8586.388927,919.314598
1236.401668,5921.647536,-8512.368333,1149.143247
1236.401997,5773.606348,-8734.430116,306.438199
1236.402326,5403.503377,-7105.977043,995.924147
1236.402656,5773.606348,-7179.997637,229.828649
1236.402985,6513.812290,-7105.977043,459.657299
1236.403314,6883.915261,-6069.688724,536.266849
1236.403644,7105.977043,-6291.750507,153.219100
1236.403973,7624.121203,-5625.565159,1762.019645
1236.404302,8364.327145,-5921.647536,1685.410096
1236.404631,7920.203579,-6217.729913,1302.362347
1236.404961,7179.997637,-6217.729913,1149.143247
1236.405290,7105.977043,-7179.997637,1608.800546
1236.405619,7179.997637,-6587.832884,1378.971896
1236.405949,7179.997637,-7031.956449,689.485948
1236.406278,6957.935855,-6661.853478,612.876398
1236.406607,6661.853478,-6439.791695,0.000000
1236.406936,6365.771101,-6069.688724,0.000000
1236.407266,6143.709319,-6439.791695,306.438199
1236.407595,6143.709319,-7179.997637,459.657299
1236.407924,6735.874072,-6291.750507,842.705048
1236.408254,7031.956449,-6143.709319,1455.581446
1236.408583,7328.038826,-6291.750507,2221.676944
1236.408912,8068.244768,-6661.853478,2451.505594
1236.409242,7846.182985,-6883.915261,2068.457845
1236.409571,7254.018232,-6143.709319,1302.362347
1236.409900,6439.791695,-6069.688724,1225.752797
1236.410229,6587.832884,-6809.894666,229.828649
1236.410559,5773.606348,-7254.018232,229.828649
1236.410888,5477.523971,-7254.018232,-306.438199
1236.411217,5773.606348,-7476.080014,0.000000
1236.411547,5773.606348,-6957.935855,306.438199
1236.411876,6217.729913,-7476.080014,612.876398
1236.412205,6217.729913,-7550.100608,1072.533697
1236.412534,6661.853478,-7402.059420,1608.800546
1236.412864,7550.100608,-6217.729913,1762.019645
1236.413193,8142.265362,-4959.379811,2374.896044
1236.413522,8660.409521,-4515.256246,2145.067394
1236.413852,8512.368333,-4071.132681,2068.457845
1236.414181,8586.388927,-3775.050304,1302.362347
1236.414510,8808.450710,-3849.070898,1225.752797
1236.414839,8290.306550,-4663.297435,1072.533697
1236.415169,7550.100608,-5699.585753,1149.143247
1236.415498,6587.832884,-7105.977043,995.924147
1236.415827,5329.482782,-7550.100608,842.705048
1236.416157,5995.668130,-8734.430116,1072.533697
1236.416486,5477.523971,-9992.780217,766.095498
1236.416815,5551.544565,-9474.636058,612.876398
1236.417144,5329.482782,-8808.450710,0.000000
1236.417474,5921.647536,-7772.162391,306.438199
1236.417803,6291.750507,-7105.977043,459.657299
1236.418132,7031.956449,-6217.729913,536.266849
1236.418462,7328.038826,-6143.709319,383.047749
1236.418791,7772.162391,-5329.482782,1225.752797
1236.419120,7994.224174,-5033.400406,1838.629195
1236.419449,8142.265362,-5921.647536,2068.457845
1236.419779,7772.162391,-5033.400406,1991.848295
1236.420108,7624.121203,-6069.688724,1685.410096
1236.420437,7698.141797,-5477.523971,1838.629195
1236.420767,7550.100608,-5625.565159,1225.752797
1236.421096,6957.935855,-7105.977043,689.485948
1236.421425,6365.771101,-6957.935855,536.266849
1236.421754,5921.647536,-6587.832884,0.000000
1236.422083,5625.565159,-6957.935855,153.219100
1236.422412,6143.709319,-7402.059420,842.705048
1236.422742,6291.750507,-7550.100608,919.314598
1236.423071,6883.915261,-7328.038826,1455.581446
1236.423400,7402.059420,-6217.729913,1762.019645
1236.423729,7328.038826,-6291.750507,1608.800546
1236.424058,7772.162391,-6143.709319,1685.410096
1236.424387,7254.018232,-6883.915261,1378.971896
1236.424717,7105.977043,-6661.853478,766.095498
1236.425046,7328.038826,-6439.791695,383.047749
1236.425375,6957.935855,-6661.853478,0.000000
1236.425704,6217.729913,-7179.997637,76.609550
1236.426033,5921.647536,-7550.100608,0.000000
1236.426362,5921.647536,-8142.265362,306.438199
1236.426691,6069.688724,-7846.182985,995.924147
1236.427021,6069.688724,-7550.100608,1149.143247
1236.427350,6365.771101,-6809.894666,1378.971896
1236.427679,7031.956449,-6291.750507,1532.190996
1236.428008,7105.977043,-5699.585753,1532.190996
1236.428337,8068.244768,-4737.318029,2145.067394
1236.428666,8586.388927,-3997.112087,1915.238745
1236.428996,8808.450710,-4071.132681,1685.410096
1236.429325,8068.244768,-3552.988522,1072.533697
1236.429654,8290.306550,-4737.318029,1378.971896
1236.429983,7550.100608,-6365.771101,919.314598
1236.430312,7179.997637,-6883.915261,995.924147
1236.430641,6883.915261,-7254.018232,1455.581446
1236.430971,6957.935855,-8290.306550,1149.143247
1236.431300,6291.750507,-8660.409521,1455.581446
1236.431629,5477.523971,-8882.471304,612.876398
1236.431958,5107.421000,-8068.244768,0.000000
1236.432287,5329.482782,-7328.038826,76.609550
1236.432616,5995.668130,-6809.894666,306.438199
1236.432945,6809.894666,-6513.812290,766.095498
1236.433275,7624.121203,-5847.626942,689.485948
1236.433604,7550.100608,-5403.503377,919.314598
1236.433933,7846.182985,-5181.441594,1608.800546
1236.434262,7698.141797,-5551.544565,2068.457845
1236.434591,8290.306550,-5995.668130,1915.238745
1236.434920,7846.182985,-5403.503377,1455.581446
1236.435250,7402.059420,-6439.791695,1608.800546
1236.435579,7402.059420,-7105.977043,1608.800546
1236.435908,6883.915261,-6809.894666,766.095498
1236.436237,6291.750507,-6883.915261,383.047749
1236.436566,6217.729913,-6143.709319,76.609550
1236.436895,6143.709319,-6735.874072,76.609550
1236.437224,6143.709319,-6735.874072,0.000000
1236.437554,6217.729913,-6661.853478,842.705048
1236.437883,6957.935855,-6217.729913,1302.362347
1236.438212,7476.080014,-6587.832884,1838.629195
1236.438541,7920.203579,-5995.668130,2604.724693
1236.438870,8438.347739,-6809.894666,2298.286494
1236.439199,7698.141797,-6587.832884,1608.800546
1236.439529,7105.977043,-7254.018232,1378.971896
1236.439858,6365.771101,-7179.997637,306.438199
1236.440187,6291.750507,-6883.915261,229.828649
1236.440516,6143.709319,-7698.141797,0.000000
1236.440845,5995.668130,-7994.224174,383.047749
1236.441174,5699.585753,-7846.182985,612.876398
1236.441504,6143.709319,-7550.100608,689.485948
1236.441833,6291.750507,-7179.997637,1072.533697
1236.442162,6513.812290,-5995.668130,919.314598
1236.442491,6957.935855,-6217.729913,1685.410096
1236.442820,7624.121203,-5551.544565,1685.410096
1236.443149,8660.409521,-4737.318029,2221.676944
1236.443478,8956.491898,-3849.070898,1762.019645
1236.443808,9030.512492,-3701.029710,1608.800546
1236.444137,8586.388927,-4441.235652,1685.410096
1236.444466,7920.203579,-5255.462188,842.705048
1236.444795,7476.080014,-5699.585753,459.657299
1236.445124,7031.956449,-7105.977043,842.705048
1236.445453,6513.812290,-8142.265362,766.095498
1236.445783,6069.688724,-8438.347739,1225.752797
1236.446112,5995.668130,-8808.450710,842.705048
1236.446441,5551.544565,-8290.306550,689.485948
1236.446770,5033.400406,-8512.368333,76.609550
1236.447099,5107.421000,-7550.100608,0.000000
1236.447428,5477.523971,-7031.956449,229.828649
1236.447758,6439.791695,-5847.626942,0.000000
1236.448087,7105.977043,-5921.647536,459.657299
1236.448416,7402.059420,-5699.585753,1532.190996
1236.448745,8512.368333,-4959.379811,1915.238745
1236.449074,8956.491898,-4737.318029,2451.505594
1236.449403,9252.574275,-4663.297435,1838.629195
1236.449732,8142.265362,-5699.585753,1838.629195
1236.450062,7994.224174,-6513.812290,1838.629195
1236.450391,7698.141797,-6661.853478,1532.190996
1236.450720,6587.832884,-5921.647536,1225.752797
1236.451049,5847.626942,-7031.956449,229.828649
1236.451378,5329.482782,-7328.038826,229.828649
1236.451707,5329.482782,-7402.059420,-229.828649
1236.452037,5625.565159,-7624.121203,459.657299
1236.452366,6143.709319,-6661.853478,842.705048
1236.452695,6661.853478,-7031.956449,689.485948
1236.453024,7328.038826,-6883.915261,2068.457845
1236.453353,8142.265362,-6439.791695,2298.286494
1236.453682,8290.306550,-5847.626942,1455.581446
1236.454011,7772.162391,-6513.812290,1685.410096
1236.454341,7624.121203,-6587.832884,1302.362347
1236.454670,7550.100608,-6587.832884,1072.533697
1236.454999,6735.874072,-6587.832884,229.828649
1236.455328,5847.626942,-7476.080014,-153.219100
1236.455657,5403.503377,-7772.162391,0.000000
1236.455986,5625.565159,-8216.285956,536.266849
1236.456316,5255.462188,-8290.306550,536.266849
1236.456645,5847.626942,-7254.018232,766.095498
1236.456974,6143.709319,-6883.915261,1302.362347
1236.457303,6661.853478,-6365.771101,1915.238745
1236.457632,7624.121203,-5477.523971,2145.067394
1236.457961,8438.347739,-4589.276840,1915.238745
1236.458291,8364.327145,-3701.029710,1685.410096
1236.458620,8290.306550,-3923.091493,1608.800546
1236.458949,8586.388927,-3849.070898,1225.752797
1236.459278,8734.430116,-4663.297435,1149.143247
1236.459607,8364.327145,-5551.544565,919.314598
1236.459936,7772.162391,-6661.853478,766.095498
1236.460265,6661.853478,-7846.182985,919.314598
1236.460595,5847.626942,-8808.450710,919.314598
1236.460924,5995.668130,-9178.553681,766.095498
1236.461253,5255.462188,-8808.450710,612.876398
1236.461582,4737.318029,-8734.430116,0.000000
1236.461911,4737.318029,-8068.244768,536.266849
1236.462240,5403.503377,-6957.935855,0.000000
1236.462570,6069.688724,-6513.812290,76.609550
1236.462899,6883.915261,-5773.606348,1302.362347
1236.463228,7772.162391,-5477.523971,1378.971896
1236.463557,8512.368333,-5107.421000,2145.067394
1236.463886,8512.368333,-4663.297435,2145.067394
1236.464215,8364.327145,-4885.359217,1762.019645
1236.464544,8142.265362,-5329.482782,1455.581446
1236.464874,8438.347739,-5699.585753,2068.457845
1236.465203,7772.162391,-6661.853478,1532.190996
1236.465532,7402.059420,-6661.853478,1149.143247
1236.465861,6439.791695,-6143.709319,995.924147
1236.466190,6069.688724,-6883.915261,229.828649
1236.466519,5625.565159,-7105.977043,153.219100
1236.466849,5551.544565,-7031.956449,76.609550
1236.467178,5847.626942,-7105.977043,383.047749
1236.467507,7031.956449,-6587.832884,1149.143247
1236.467836,7550.100608,-7105.977043,1685.410096
