#time,accel_x,accel_y,accel_z
1380.375678,7105.977043,-6809.894666,1072.533697
1380.376008,7254.018232,-6809.894666,1225.752797
1380.376338,7105.977043,-6365.771101,1072.533697
1380.376668,7031.956449,-6143.709319,919.314598
1380.376998,7031.956449,-6291.750507,1072.533697
1380.377328,7031.956449,-6143.709319,1149.143247
1380.377658,6809.894666,-6217.729913,1072.533697
1380.377988,7105.977043,-6217.729913,1072.533697
1380.378318,6883.915261,-5921.647536,536.266849
1380.378648,7105.977043,-6365.771101,842.705048
1380.378979,6883.915261,-6217.729913,766.095498
1380.379309,6957.935855,-6513.812290,995.924147
1380.379639,6883.915261,-6291.750507,995.924147
1380.379969,6883.915261,-6291.750507,1225.752797
1380.380299,6957.935855,-6587.832884,919.314598
1380.380629,7105.977043,-6957.935855,1225.752797
1380.380959,6957.935855,-6661.853478,612.876398
1380.381289,6735.874072,-6513.812290,1225.752797
1380.381619,6735.874072,-6587.832884,1149.143247
1380.381949,6883.915261,-6957.935855,995.924147
1380.382279,6809.894666,-6883.915261,995.924147
1380.382610,7105.977043,-6883.915261,766.095498
1380.382940,7179.997637,-6661.853478,1991.848295
1380.383270,7402.059420,-6291.750507,919.314598
1380.383600,7476.080014,-6661.853478,842.705048
1380.383930,7328.038826,-6587.832884,842.705048
1380.384260,7254.018232,-6513.812290,919.314598
1380.384590,7105.977043,-6365.771101,1608.800546
1380.384920,7105.977043,-6291.750507,919.314598
1380.385250,7105.977043,-6291.750507,842.705048
1380.385580,6809.894666,-6439.791695,995.924147
1380.385910,7105.977043,-6587.832884,1685.410096
1380.386240,7105.977043,-5921.647536,919.314598
1380.386571,7105.977043,-6365.771101,1225.752797
1380.386901,6513.812290,-6217.729913,995.924147
1380.387231,6809.894666,-6513.812290,766.095498
1380.387561,6291.750507,-6661.853478,1455.581446
1380.387891,6661.853478,-6883.915261,1302.362347
1380.388221,6883.915261,-6661.853478,1149.143247
1380.388551,6883.915261,-6587.832884,995.924147
1380.388881,6809.894666,-7105.977043,1455.581446
1380.389211,6661.853478,-6661.853478,689.485948
1380.389541,6513.812290,-6883.915261,919.314598
1380.389871,6365.771101,-7031.956449,766.095498
1380.390201,6735.874072,-6735.874072,842.705048
1380.390532,6957.935855,-6587.832884,919.314598
1380.390862,7254.018232,-6661.853478,1072.533697
1380.391192,7550.100608,-6439.791695,766.095498
1380.391522,7254.018232,-6291.750507,842.705048
1380.391852,7105.977043,-6365.771101,536.266849
1380.392182,7105.977043,-6439.791695,689.485948
1380.392512,6957.935855,-6439.791695,1072.533697
1380.392842,6957.935855,-6439.791695,1149.143247
1380.393172,7105.977043,-6439.791695,995.924147
1380.393502,6883.915261,-6291.750507,1378.971896
1380.393832,7105.977043,-6439.791695,1378.971896
1380.394162,6957.935855,-6217.729913,1072.533697
1380.394493,6883.915261,-6883.915261,919.314598
1380.394823,6957.935855,-6661.853478,919.314598
1380.395153,7105.977043,-6291.750507,1532.190996
1380.395483,6883.915261,-6587.832884,1072.533697
1380.395813,6957.935855,-6735.874072,1149.143247
1380.396143,7105.977043,-6957.935855,1302.362347
1380.396473,7179.997637,-7031.956449,919.314598
1380.396803,6365.771101,-6365.771101,1225.752797
1380.397133,6661.853478,-6809.894666,766.095498
1380.397463,7105.977043,-6957.935855,995.924147
1380.397793,7179.997637,-6365.771101,1455.581446
1380.398123,7550.100608,-6587.832884,536.266849
1380.398454,7105.977043,-6661.853478,1915.238745
1380.398784,7179.997637,-6291.750507,1225.752797
1380.399114,7105.977043,-6513.812290,1072.533697
1380.399444,6809.894666,-6439.791695,995.924147
1380.399774,7031.956449,-6143.709319,1455.581446
1380.400104,7031.956449,-6439.791695,1072.533697
1380.400434,7105.977043,-6513.812290,842.705048
1380.400764,6883.915261,-6513.812290,1149.143247
1380.401094,7179.997637,-5847.626942,1225.752797
1380.401424,6883.915261,-6735.874072,1149.143247
1380.401754,6809.894666,-6513.812290,919.314598
1380.402084,6513.812290,-6883.915261,842.705048
1380.402415,6439.791695,-6809.894666,1302.362347
1380.402745,6661.853478,-6513.812290,1455.581446
1380.403075,6735.874072,-6735.874072,612.876398
1380.403405,6735.874072,-6513.812290,1149.143247
1380.403735,6661.853478,-6957.935855,612.876398
1380.404065,6809.894666,-6735.874072,689.485948
1380.404395,6957.935855,-7105.977043,1149.143247
1380.404725,7105.977043,-6735.874072,842.705048
1380.405055,7105.977043,-6661.853478,919.314598
1380.405385,7031.956449,-6883.915261,995.924147
1380.405715,6957.935855,-6291.750507,1532.190996
1380.406045,7328.038826,-6439.791695,995.924147
1380.406376,7179.997637,-6957.935855,689.485948
1380.406706,7105.977043,-6291.750507,1225.752797
1380.407036,7105.977043,-6439.791695,1149.143247
1380.407366,7179.997637,-6069.688724,1149.143247
1380.407696,7105.977043,-6291.750507,1072.533697
1380.408026,6957.935855,-6291.750507,995.924147
1380.408356,7031.956449,-6291.750507,995.924147
1380.408686,7105.977043,-6217.729913,1608.800546
1380.409016,6883.915261,-6661.853478,766.095498
1380.409346,6735.874072,-6513.812290,766.095498
1380.409676,6883.915261,-6809.894666,919.314598
1380.410006,6809.894666,-6957.935855,1225.752797
1380.410337,6883.915261,-6217.729913,766.095498
1380.410667,6587.832884,-6661.853478,995.924147
1380.410997,6661.853478,-6957.935855,1225.752797
1380.411327,7031.956449,-6661.853478,689.485948
1380.411657,6217.729913,-6143.709319,766.095498
1380.411987,6661.853478,-7031.956449,842.705048
1380.412317,7105.977043,-6587.832884,766.095498
1380.412647,7328.038826,-6661.853478,995.924147
1380.412977,7179.997637,-6735.874072,919.314598
1380.413307,7550.100608,-6661.853478,1455.581446
1380.413637,7550.100608,-6587.832884,612.876398
1380.413967,6883.915261,-6957.935855,1149.143247
1380.414298,7031.956449,-6291.750507,1149.143247
1380.414628,7179.997637,-6513.812290,536.266849
1380.414958,7772.162391,-6587.832884,1072.533697
1380.415288,7031.956449,-6439.791695,1302.362347
1380.415618,7105.977043,-5995.668130,919.314598
1380.415948,7031.956449,-6439.791695,919.314598
1380.416278,6661.853478,-6217.729913,1608.800546
1380.416608,6957.935855,-6069.688724,766.095498
1380.416938,6735.874072,-6587.832884,1149.143247
1380.417268,6735.874072,-6735.874072,995.924147
1380.417598,6809.894666,-6883.915261,1072.533697
1380.417928,6735.874072,-6291.750507,1225.752797
1380.418259,6809.894666,-6735.874072,919.314598
1380.418589,6809.894666,-7179.997637,919.314598
1380.418919,6513.812290,-7105.977043,1149.143247
1380.419249,6883.915261,-6587.832884,306.438199
1380.419579,7031.956449,-7031.956449,1072.533697
1380.419909,7179.997637,-6143.709319,1378.971896
1380.420239,7179.997637,-6513.812290,689.485948
1380.420569,7031.956449,-6439.791695,1455.581446
1380.420899,7550.100608,-6735.874072,842.705048
1380.421229,7328.038826,-6365.771101,842.705048
1380.421559,7105.977043,-6291.750507,995.924147
1380.421889,7105.977043,-6513.812290,1072.533697
1380.422220,7402.059420,-6587.832884,1149.143247
1380.422550,7254.018232,-6513.812290,1302.362347
1380.422880,6883.915261,-6365.771101,689.485948
1380.423210,6957.935855,-6735.874072,1225.752797
1380.423540,7179.997637,-6439.791695,995.924147
1380.423870,6957.935855,-6365.771101,919.314598
1380.424200,6809.894666,-6735.874072,919.314598
1380.424530,6809.894666,-6809.894666,1608.800546
1380.424860,6883.915261,-6513.812290,919.314598
1380.425190,7031.956449,-6661.853478,1149.143247
1380.425520,6957.935855,-6365.771101,1302.362347
1380.425851,7105.977043,-6587.832884,919.314598
1380.426181,6809.894666,-6735.874072,842.705048
1380.426511,6735.874072,-7031.956449,995.924147
1380.426841,7031.956449,-6587.832884,1072.533697
1380.427171,7328.038826,-6809.894666,1072.533697
1380.427501,7031.956449,-6661.853478,995.924147
1380.427831,6883.915261,-6661.853478,842.705048
1380.428161,7254.018232,-6513.812290,919.314598
1380.428491,7031.956449,-6439.791695,1225.752797
1380.428821,7031.956449,-6217.729913,1149.143247
1380.429151,7105.977043,-6217.729913,1072.533697
1380.429481,7328.038826,-6217.729913,919.314598
1380.429812,6735.874072,-5477.523971,842.705048
1380.430142,7031.956449,-6365.771101,919.314598
1380.430472,6957.935855,-6365.771101,1149.143247
1380.430802,6809.894666,-6587.832884,766.095498
1380.431132,6513.812290,-6661.853478,995.924147
1380.431462,7031.956449,-6809.894666,1532.190996
1380.431792,6957.935855,-7031.956449,995.924147
1380.432122,6809.894666,-7031.956449,1072.533697
1380.432452,6587.832884,-6661.853478,842.705048
1380.432782,6587.832884,-6661.853478,1225.752797
1380.433112,7031.956449,-6883.915261,842.705048
1380.433442,6809.894666,-6957.935855,919.314598
1380.433773,6957.935855,-6661.853478,1072.533697
1380.434103,6957.935855,-6957.935855,612.876398
1380.434433,6661.853478,-6365.771101,1225.752797
1380.434763,7105.977043,-6217.729913,1225.752797
1380.435093,6957.935855,-6809.894666,1225.752797
1380.435423,7179.997637,-6513.812290,1072.533697
1380.435753,7328.038826,-6513.812290,919.314598
1380.436083,7254.018232,-6439.791695,919.314598
1380.436413,7105.977043,-6069.688724,766.095498
1380.436743,7105.977043,-6513.812290,1149.143247
1380.437073,7105.977043,-6661.853478,1302.362347
1380.437403,7031.956449,-6365.771101,1608.800546
1380.437734,7254.018232,-6291.750507,612.876398
1380.438064,6809.894666,-6439.791695,919.314598
1380.438394,6735.874072,-6291.750507,1072.533697
1380.438724,6439.791695,-6883.915261,1072.533697
1380.439054,6291.750507,-6069.688724,1149.143247
1380.439384,6883.915261,-6587.832884,1149.143247
1380.439714,6883.915261,-6513.812290,689.485948
1380.440044,7031.956449,-6809.894666,1378.971896
1380.440374,6735.874072,-6587.832884,919.314598
1380.440704,7254.018232,-7328.038826,842.705048
1380.441034,7031.956449,-6883.915261,842.705048
1380.441364,7031.956449,-6883.915261,919.314598
1380.441694,7402.059420,-6809.894666,1072.533697
1380.442023,7328.038826,-6513.812290,1685.410096
1380.442352,7254.018232,-6291.750507,1072.533697
1380.442682,7402.059420,-6365.771101,919.314598
1380.443011,7179.997637,-6365.771101,919.314598
1380.443340,7105.977043,-6513.812290,842.705048
1380.443670,7179.997637,-6661.853478,1302.362347
1380.443999,7179.997637,-6365.771101,842.705048
1380.444328,7179.997637,-6439.791695,995.924147
1380.444658,7179.997637,-6291.750507,1378.971896
1380.444987,7402.059420,-6291.750507,995.924147
1380.445316,7254.018232,-6143.709319,995.924147
1380.445645,6957.935855,-6661.853478,1225.752797
1380.445975,6661.853478,-6365.771101,842.705048
1380.446304,6513.812290,-6809.894666,995.924147
1380.446633,6661.853478,-6661.853478,1838.629195
1380.446963,6809.894666,-6439.791695,842.705048
1380.447292,6809.894666,-6291.750507,1225.752797
1380.447621,6735.874072,-6809.894666,995.924147
1380.447951,6661.853478,-6883.915261,919.314598
1380.448280,6513.812290,-6661.853478,766.095498
1380.448609,6513.812290,-6883.915261,1072.533697
1380.448939,6809.894666,-6587.832884,612.876398
1380.449268,7105.977043,-6513.812290,919.314598
1380.449597,7031.956449,-6735.874072,1225.752797
1380.449926,7624.121203,-6513.812290,1302.362347
1380.450256,7254.018232,-6809.894666,842.705048
1380.450585,7105.977043,-6217.729913,1149.143247
1380.450914,7254.018232,-6143.709319,842.705048
1380.451244,7105.977043,-6069.688724,842.705048
1380.451573,7105.977043,-6291.750507,995.924147
1380.451902,6957.935855,-6069.688724,1072.533697
1380.452232,6735.874072,-6365.771101,919.314598
1380.452561,6809.894666,-6513.812290,689.485948
1380.452890,7254.018232,-6217.729913,1225.752797
1380.453219,6809.894666,-6291.750507,1149.143247
1380.453549,6883.915261,-6735.874072,995.924147
1380.453878,7105.977043,-6883.915261,1302.362347
1380.454207,6957.935855,-6513.812290,842.705048
1380.454537,6661.853478,-6883.915261,1072.533697
1380.454866,6883.915261,-6735.874072,1149.143247
1380.455195,6809.894666,-6883.915261,1149.143247
1380.455525,6735.874072,-6809.894666,1072.533697
1380.455854,6735.874072,-6661.853478,995.924147
1380.456183,7031.956449,-6883.915261,919.314598
1380.456513,7179.997637,-6513.812290,919.314598
1380.456842,7179.997637,-6291.750507,1149.143247
1380.457171,7624.121203,-6661.853478,1225.752797
1380.457500,7179.997637,-6217.729913,1302.362347
1380.457830,7254.018232,-6513.812290,919.314598
1380.458159,7105.977043,-6217.729913,919.314598
1380.458488,7328.038826,-6069.688724,1149.143247
1380.458818,7550.100608,-5995.668130,536.266849
1380.459147,7254.018232,-6809.894666,1225.752797
1380.459476,7031.956449,-6513.812290,995.924147
1380.459806,7031.956449,-6439.791695,612.876398
1380.460135,6661.853478,-6661.853478,1455.581446
1380.460464,6587.832884,-6365.771101,1149.143247
1380.460794,6883.915261,-6291.750507,766.095498
1380.461123,6735.874072,-6735.874072,1149.143247
1380.461452,6809.894666,-6587.832884,1072.533697
1380.461781,7105.977043,-6661.853478,766.095498
1380.462111,6809.894666,-6439.791695,1225.752797
1380.462440,6809.894666,-6883.915261,1149.143247
1380.462769,6661.853478,-6957.935855,995.924147
1380.463099,6587.832884,-6809.894666,1378.971896
1380.463428,7179.997637,-7402.059420,842.705048
1380.463757,6809.894666,-6809.894666,1302.362347
1380.464087,6957.935855,-6439.791695,1225.752797
1380.464416,6883.915261,-6883.915261,689.485948
1380.464745,7105.977043,-6217.729913,1762.019645
1380.465075,6957.935855,-6439.791695,1225.752797
1380.465404,6883.915261,-6439.791695,919.314598
1380.465733,7031.956449,-6439.791695,1225.752797
1380.466062,7179.997637,-6587.832884,995.924147
1380.466392,6883.915261,-6143.709319,1455.581446
1380.466721,6735.874072,-6439.791695,1455.581446
1380.467050,7105.977043,-6217.729913,995.924147
1380.467380,7031.956449,-6439.791695,995.924147
1380.467709,6809.894666,-6957.935855,689.485948
1380.468038,6957.935855,-6439.791695,919.314598
1380.468368,7031.956449,-6587.832884,995.924147
1380.468697,6957.935855,-6735.874072,995.924147
1380.469026,6883.915261,-6365.771101,995.924147
1380.469356,6661.853478,-6661.853478,766.095498
1380.469685,6883.915261,-6661.853478,1225.752797
1380.470014,6883.915261,-6957.935855,995.924147
1380.470343,6735.874072,-7031.956449,689.485948
1380.470673,7105.977043,-6809.894666,689.485948
1380.471002,7624.121203,-6735.874072,1149.143247
1380.471331,7328.038826,-6365.771101,995.924147
1380.471661,7550.100608,-6957.935855,919.314598
1380.471990,7402.059420,-6291.750507,995.924147
1380.472319,7254.018232,-6439.791695,1455.581446
1380.472649,7105.977043,-6513.812290,1302.362347
1380.472978,7105.977043,-6217.729913,919.314598
1380.473307,7328.038826,-6069.688724,612.876398
1380.473637,7105.977043,-6217.729913,766.095498
1380.473966,7031.956449,-5995.668130,1149.143247
1380.474295,6957.935855,-6365.771101,1302.362347
1380.474624,7031.956449,-6217.729913,1225.752797
1380.474954,6957.935855,-6143.709319,1149.143247
1380.475283,6883.915261,-6809.894666,1225.752797
1380.475612,6957.935855,-6809.894666,1225.752797
1380.475942,6661.853478,-6587.832884,689.485948
1380.476271,6809.894666,-6735.874072,1149.143247
1380.476600,6735.874072,-6809.894666,1225.752797
1380.476930,6957.935855,-6291.750507,1072.533697
1380.477259,6661.853478,-7031.956449,612.876398
1380.477588,6513.812290,-6735.874072,995.924147
1380.477918,6513.812290,-6883.915261,1225.752797
1380.478247,6883.915261,-6735.874072,1072.533697
1380.478576,6883.915261,-6513.812290,1455.581446
1380.478905,7179.997637,-6661.853478,1072.533697
1380.479235,7105.977043,-6809.894666,1149.143247
1380.479564,7105.977043,-6513.812290,995.924147
1380.479893,7254.018232,-6217.729913,383.047749
1380.480223,6883.915261,-6513.812290,1072.533697
1380.480552,7105.977043,-6513.812290,1149.143247
1380.480881,7179.997637,-6439.791695,919.314598
1380.481211,7105.977043,-6365.771101,1302.362347
1380.481540,6957.935855,-6365.771101,1302.362347
1380.481869,6957.935855,-6513.812290,995.924147
1380.482198,6735.874072,-6735.874072,1072.533697
1380.482528,6809.894666,-6661.853478,689.485948
1380.482857,6957.935855,-6883.915261,919.314598
1380.483186,6513.812290,-6809.894666,1225.752797
1380.483516,6957.935855,-6661.853478,1225.752797
1380.483845,7031.956449,-6439.791695,536.266849
1380.484174,7105.977043,-6883.915261,1072.533697
1380.484504,6957.935855,-6513.812290,1149.143247
1380.484833,6735.874072,-6809.894666,766.095498
1380.485162,6883.915261,-6809.894666,919.314598
1380.485492,7105.977043,-6883.915261,842.705048
1380.485821,7476.080014,-6661.853478,1685.410096
1380.486150,7698.141797,-6513.812290,1225.752797
1380.486479,7179.997637,-6661.853478,995.924147
1380.486809,7105.977043,-6365.771101,1072.533697
1380.487138,7031.956449,-6735.874072,459.657299
1380.487467,7254.018232,-5847.626942,919.314598
1380.487797,7105.977043,-6291.750507,919.314598
1380.488126,7328.038826,-6291.750507,766.095498
1380.488455,7179.997637,-6069.688724,1072.533697
1380.488785,7105.977043,-6291.750507,1225.752797
1380.489114,7031.956449,-6069.688724,1225.752797
1380.489443,6957.935855,-6217.729913,1225.752797
1380.489773,6587.832884,-6439.791695,995.924147
1380.490102,6661.853478,-6143.709319,1072.533697
1380.490431,6957.935855,-6883.915261,1532.190996
1380.490760,7105.977043,-7105.977043,1225.752797
1380.491090,6809.894666,-6735.874072,1302.362347
1380.491419,6587.832884,-6661.853478,1225.752797
1380.491748,6587.832884,-6809.894666,1072.533697
1380.492078,6587.832884,-7105.977043,1149.143247
1380.492407,6661.853478,-6957.935855,689.485948
1380.492736,6661.853478,-6735.874072,1225.752797
1380.493066,7105.977043,-5773.606348,919.314598
1380.493395,7772.162391,-5255.462188,1149.143247
1380.493724,7772.162391,-5403.503377,1378.971896
1380.494054,8512.368333,-5551.544565,1455.581446
1380.494383,8216.285956,-6365.771101,1072.533697
1380.494712,6957.935855,-6809.894666,459.657299
1380.495041,6143.709319,-7105.977043,842.705048
1380.495371,6143.709319,-6883.915261,0.000000
1380.495700,6661.853478,-6661.853478,612.876398
1380.496029,7476.080014,-6735.874072,1149.143247
1380.496359,8364.327145,-5699.585753,1455.581446
1380.496688,9178.553681,-4293.194464,1838.629195
1380.497017,8216.285956,-3701.029710,1225.752797
1380.497347,7698.141797,-4811.338623,1302.362347
1380.497676,8068.244768,-4589.276840,1149.143247
1380.498005,8512.368333,-4515.256246,1149.143247
1380.498335,8142.265362,-4885.359217,689.485948
1380.498664,7550.100608,-5033.400406,766.095498
1380.498993,8216.285956,-5995.668130,842.705048
1380.499322,8290.306550,-5181.441594,306.438199
1380.499652,8290.306550,-5847.626942,383.047749
1380.499981,7994.224174,-6217.729913,919.314598
1380.500310,8290.306550,-5625.565159,153.219100
1380.500640,8290.306550,-5625.565159,766.095498
1380.500969,7772.162391,-4589.276840,995.924147
1380.501298,8438.347739,-4959.379811,919.314598
1380.501628,9104.533087,-3997.112087,1455.581446
1380.501957,9178.553681,-3923.091493,1149.143247
1380.502286,9474.636058,-3552.988522,1378.971896
1380.502616,9992.780217,-2590.720797,1072.533697
1380.502945,9992.780217,-3627.009116,1455.581446
1380.503274,9770.718434,-2664.741391,1225.752797
1380.503603,9918.759623,-3034.844362,995.924147
1380.503933,10288.862594,-3182.885551,1378.971896
1380.504262,10140.821405,-3478.967927,995.924147
1380.504591,9622.677246,-4885.359217,2068.457845
1380.504921,9400.615463,-4663.297435,1225.752797
1380.505250,8882.471304,-5699.585753,1532.190996
1380.505579,8290.306550,-4663.297435,1608.800546
1380.505909,8142.265362,-5403.503377,536.266849
1380.506238,7624.121203,-5403.503377,1455.581446
1380.506567,7772.162391,-5255.462188,766.095498
1380.506897,7698.141797,-5181.441594,1225.752797
1380.507226,7624.121203,-4145.153275,1455.581446
1380.507555,7920.203579,-5329.482782,536.266849
1380.507884,8290.306550,-5033.400406,612.876398
1380.508214,8882.471304,-4589.276840,76.609550
1380.508543,9474.636058,-5033.400406,1072.533697
1380.508872,10066.800811,-3849.070898,612.876398
1380.509202,10362.883188,-4811.338623,919.314598
1380.509531,9992.780217,-4441.235652,1225.752797
1380.509860,9474.636058,-3923.091493,919.314598
1380.510190,9474.636058,-3775.050304,1455.581446
1380.510519,9326.594869,-4219.173869,1991.848295
1380.510848,8882.471304,-4663.297435,1608.800546
1380.511177,8734.430116,-4145.153275,1455.581446
1380.511507,8216.285956,-4219.173869,1532.190996
1380.511836,8660.409521,-4885.359217,1915.238745
1380.512165,8586.388927,-3997.112087,2145.067394
1380.512495,8660.409521,-4071.132681,2145.067394
1380.512824,8290.306550,-3627.009116,1072.533697
1380.513153,9104.533087,-3478.967927,689.485948
1380.513483,8882.471304,-4589.276840,842.705048
1380.513812,9104.533087,-4589.276840,459.657299
1380.514141,8660.409521,-4885.359217,0.000000
1380.514471,8808.450710,-4515.256246,-536.266849
1380.514800,8734.430116,-5699.585753,229.828649
1380.515129,9104.533087,-5995.668130,229.828649
1380.515458,8882.471304,-6069.688724,919.314598
1380.515788,8586.388927,-6069.688724,1225.752797
1380.516117,8734.430116,-5033.400406,1455.581446
1380.516446,8512.368333,-5699.585753,1685.410096
1380.516776,8438.347739,-5329.482782,1838.629195
1380.517105,8882.471304,-4219.173869,2068.457845
1380.517434,9326.594869,-3404.947333,1915.238745
1380.517764,10066.800811,-2072.576638,2451.505594
1380.518093,11251.130318,-1036.288319,1378.971896
1380.518422,10362.883188,-1184.329507,842.705048
1380.518752,9992.780217,-1332.370696,153.219100
1380.519081,9992.780217,-1628.453072,0.000000
1380.519410,9770.718434,-2590.720797,229.828649
1380.519739,9770.718434,-5033.400406,536.266849
1380.520069,9474.636058,-6587.832884,919.314598
1380.520398,8438.347739,-7772.162391,995.924147
1380.520727,7254.018232,-8808.450710,1072.533697
1380.521057,6513.812290,-8660.409521,919.314598
1380.521386,6513.812290,-8216.285956,383.047749
1380.521715,6217.729913,-6587.832884,306.438199
1380.522045,6957.935855,-5329.482782,689.485948
1380.522374,8808.450710,-3849.070898,1149.143247
1380.522703,10436.903782,-3108.864956,2298.286494
1380.523033,10732.986159,-1258.350101,1685.410096
1380.523362,10658.965565,-370.102971,1302.362347
1380.523691,11029.068536,370.102971,1149.143247
1380.524020,11917.315666,-370.102971,919.314598
1380.524350,12213.398043,-1184.329507,1302.362347
1380.524679,12213.398043,-1998.556043,536.266849
1380.525008,11325.150913,-3923.091493,995.924147
1380.525338,9474.636058,-5551.544565,1149.143247
1380.525667,7254.018232,-7994.224174,842.705048
1380.525996,6365.771101,-8734.430116,306.438199
1380.526326,5625.565159,-8734.430116,0.000000
1380.526655,4737.318029,-7994.224174,76.609550
1380.526984,6291.750507,-7698.141797,842.705048
1380.527314,7402.059420,-6513.812290,995.924147
1380.527643,8364.327145,-5107.421000,1149.143247
1380.527972,9104.533087,-3404.947333,1608.800546
1380.528301,9474.636058,-2368.659014,2604.724693
1380.528631,10140.821405,-1184.329507,1378.971896
1380.528960,10807.006753,0.000000,995.924147
1380.529289,11399.171507,0.000000,995.924147
1380.529619,12879.583391,222.061783,1149.143247
1380.529948,13471.748144,-666.185348,1838.629195
1380.530277,12435.459826,-2516.700203,2451.505594
1380.530607,11177.109724,-4145.153275,1838.629195
1380.530936,8808.450710,-5625.565159,1149.143247
1380.531265,7031.956449,-8142.265362,229.828649
1380.531595,5033.400406,-9252.574275,536.266849
1380.531924,4219.173869,-8956.491898,-919.314598
1380.532253,3923.091493,-9474.636058,-1455.581446
1380.532582,4663.297435,-8068.244768,-306.438199
1380.532912,7402.059420,-4589.276840,-536.266849
1380.533241,10214.842000,-2664.741391,153.219100
1380.533570,11769.274478,-2072.576638,1455.581446
1380.533900,11991.336260,-666.185348,1915.238745
1380.534229,11695.253884,-1332.370696,1225.752797
1380.534558,10140.821405,-3034.844362,2068.457845
1380.534888,9622.677246,-3478.967927,1149.143247
1380.535217,8882.471304,-6217.729913,919.314598
1380.535546,8734.430116,-6735.874072,2145.067394
1380.535875,8586.388927,-8586.388927,1991.848295
1380.536205,7698.141797,-8142.265362,2451.505594
1380.536534,6439.791695,-6809.894666,1532.190996
1380.536863,5477.523971,-5033.400406,-229.828649
1380.537193,5921.647536,-3256.906145,-689.485948
1380.537522,7031.956449,-4145.153275,-76.609550
1380.537851,8216.285956,-5107.421000,919.314598
1380.538181,9104.533087,-4367.215058,1991.848295
1380.538510,9992.780217,-2294.638420,536.266849
1380.538839,9918.759623,-2442.679609,536.266849
1380.539169,9918.759623,-4885.359217,1455.581446
1380.539498,9918.759623,-6291.750507,1455.581446
1380.539827,9104.533087,-7179.997637,1838.629195
1380.540156,7994.224174,-5773.606348,1149.143247
1380.540486,7402.059420,-5551.544565,0.000000
1380.540815,6957.935855,-6513.812290,459.657299
1380.541144,6809.894666,-8882.471304,995.924147
1380.541474,5921.647536,-10362.883188,1838.629195
1380.541803,5477.523971,-7698.141797,766.095498
1380.542132,3849.070898,-6735.874072,0.000000
1380.542462,3627.009116,-7402.059420,-459.657299
1380.542791,4811.338623,-8512.368333,153.219100
1380.543120,6217.729913,-6587.832884,153.219100
1380.543450,7476.080014,-5551.544565,153.219100
1380.543779,8956.491898,-3108.864956,1608.800546
1380.544108,10881.027347,-2516.700203,1608.800546
1380.544437,11473.192101,-3478.967927,1991.848295
1380.544766,9992.780217,-5255.462188,1991.848295
1380.545095,8364.327145,-6661.853478,1149.143247
1380.545424,7476.080014,-6365.771101,1455.581446
1380.545753,6513.812290,-6069.688724,306.438199
1380.546082,6735.874072,-5995.668130,1149.143247
1380.546411,7105.977043,-7105.977043,1762.019645
1380.546740,7994.224174,-6217.729913,1915.238745
1380.547069,7772.162391,-4071.132681,1455.581446
1380.547398,7994.224174,-2146.597232,766.095498
1380.547727,8290.306550,-3627.009116,1072.533697
1380.548056,7920.203579,-5921.647536,1455.581446
1380.548385,6439.791695,-6883.915261,1072.533697
1380.548714,5255.462188,-6957.935855,612.876398
1380.549043,6217.729913,-6587.832884,1072.533697
1380.549372,7476.080014,-7624.121203,2374.896044
1380.549701,8142.265362,-8660.409521,2681.334243
1380.550030,6883.915261,-8512.368333,1915.238745
1380.550359,5403.503377,-7772.162391,536.266849
1380.550688,5477.523971,-6809.894666,153.219100
1380.551017,6735.874072,-6957.935855,1225.752797
1380.551346,6069.688724,-7624.121203,2145.067394
1380.551675,5921.647536,-6587.832884,842.705048
1380.552005,5551.544565,-5625.565159,612.876398
1380.552334,6365.771101,-5995.668130,919.314598
1380.552663,7920.203579,-6809.894666,1378.971896
1380.552992,7772.162391,-5773.606348,1302.362347
1380.553321,6661.853478,-5255.462188,76.609550
1380.553650,6143.709319,-5625.565159,-612.876398
1380.553979,7105.977043,-6587.832884,995.924147
1380.554308,7920.203579,-8142.265362,2451.505594
1380.554637,8438.347739,-8660.409521,2451.505594
1380.554966,6809.894666,-7179.997637,842.705048
1380.555295,5921.647536,-7105.977043,1532.190996
1380.555624,6957.935855,-7254.018232,2451.505594
1380.555953,7402.059420,-7772.162391,2298.286494
1380.556282,6365.771101,-5551.544565,766.095498
1380.556611,5551.544565,-4367.215058,0.000000
1380.556940,6439.791695,-4441.235652,-229.828649
1380.557269,7624.121203,-5625.565159,919.314598
1380.557598,7550.100608,-6735.874072,1455.581446
1380.557927,7328.038826,-6365.771101,459.657299
1380.558256,6365.771101,-7031.956449,0.000000
1380.558585,6809.894666,-7550.100608,1455.581446
1380.558914,8290.306550,-8882.471304,1532.190996
1380.559243,8142.265362,-8660.409521,1455.581446
1380.559572,6365.771101,-7179.997637,306.438199
1380.559901,6291.750507,-7031.956449,76.609550
1380.560230,7846.182985,-6439.791695,536.266849
1380.560559,7994.224174,-7105.977043,1608.800546
1380.560889,6957.935855,-6439.791695,1455.581446
1380.561218,5477.523971,-5107.421000,0.000000
1380.561547,5329.482782,-5625.565159,-153.219100
1380.561876,5995.668130,-5403.503377,536.266849
1380.562205,7476.080014,-6217.729913,1149.143247
1380.562534,7920.203579,-5255.462188,1149.143247
1380.562863,7698.141797,-4367.215058,766.095498
1380.563192,7550.100608,-4737.318029,919.314598
1380.563521,8586.388927,-5773.606348,1455.581446
1380.563850,8660.409521,-6883.915261,2068.457845
1380.564179,7402.059420,-7031.956449,1072.533697
1380.564508,5921.647536,-7328.038826,383.047749
1380.564837,5921.647536,-6957.935855,612.876398
1380.565166,7476.080014,-8142.265362,1455.581446
1380.565495,7402.059420,-7994.224174,1762.019645
1380.565824,5773.606348,-7179.997637,919.314598
1380.566153,5625.565159,-6069.688724,0.000000
1380.566482,5921.647536,-4737.318029,153.219100
1380.566811,7698.141797,-5699.585753,1225.752797
1380.567140,8142.265362,-6513.812290,1149.143247
1380.567469,6883.915261,-6365.771101,306.438199
1380.567798,5699.585753,-6809.894666,-459.657299
1380.568127,5551.544565,-7254.018232,229.828649
1380.568456,7031.956449,-8512.368333,1225.752797
1380.568785,8142.265362,-8586.388927,1991.848295
1380.569114,7920.203579,-7105.977043,1225.752797
1380.569443,7550.100608,-6291.750507,1225.752797
1380.569773,6957.935855,-5921.647536,842.705048
1380.570102,6809.894666,-6957.935855,842.705048
1380.570431,6291.750507,-7105.977043,689.485948
1380.570760,5033.400406,-7105.977043,383.047749
1380.571089,5403.503377,-7402.059420,1149.143247
1380.571418,7179.997637,-6883.915261,2068.457845
1380.571747,8734.430116,-6957.935855,2451.505594
1380.572076,8364.327145,-4663.297435,2374.896044
1380.572405,7994.224174,-3997.112087,1225.752797
1380.572734,7254.018232,-3775.050304,229.828649
1380.573063,7254.018232,-5181.441594,1225.752797
1380.573392,7328.038826,-7402.059420,1149.143247
1380.573721,6365.771101,-7698.141797,536.266849
1380.574050,5181.441594,-6587.832884,153.219100
1380.574379,5551.544565,-8068.244768,995.924147
1380.574708,6883.915261,-9252.574275,1991.848295
1380.575037,7402.059420,-7994.224174,2145.067394
1380.575366,7254.018232,-6143.709319,1532.190996
1380.575695,6735.874072,-4367.215058,383.047749
1380.576024,6587.832884,-4885.359217,229.828649
1380.576353,7254.018232,-6143.709319,1302.362347
1380.576682,6661.853478,-5699.585753,1072.533697
1380.577011,6735.874072,-5921.647536,1302.362347
1380.577340,6513.812290,-6587.832884,995.924147
1380.577669,6957.935855,-6735.874072,1455.581446
1380.577998,7476.080014,-7402.059420,2068.457845
1380.578327,7254.018232,-6513.812290,1378.971896
1380.578657,7031.956449,-5625.565159,153.219100
1380.578986,6587.832884,-5107.421000,306.438199
1380.579315,7328.038826,-6883.915261,1455.581446
1380.579644,8586.388927,-7550.100608,2221.676944
1380.579973,7772.162391,-7328.038826,1532.190996
1380.580302,5255.462188,-6809.894666,-153.219100
1380.580631,4737.318029,-7476.080014,0.000000
1380.580960,5995.668130,-7994.224174,766.095498
1380.581289,7624.121203,-7476.080014,1762.019645
1380.581618,7846.182985,-5921.647536,1072.533697
1380.581947,7105.977043,-4589.276840,229.828649
1380.582276,7328.038826,-5477.523971,766.095498
1380.582605,8142.265362,-6291.750507,1762.019645
1380.582934,8068.244768,-6069.688724,766.095498
1380.583263,6661.853478,-5847.626942,536.266849
1380.583592,5847.626942,-7179.997637,153.219100
1380.583921,6735.874072,-7031.956449,612.876398
1380.584250,8364.327145,-7328.038826,1915.238745
1380.584579,9252.574275,-7105.977043,1915.238745
1380.584908,7254.018232,-6143.709319,919.314598
1380.585237,5995.668130,-5033.400406,383.047749
1380.585566,7031.956449,-5847.626942,689.485948
1380.585895,8290.306550,-6217.729913,1149.143247
1380.586224,7179.997637,-7105.977043,1378.971896
1380.586553,5625.565159,-6661.853478,536.266849
1380.586882,4589.276840,-7105.977043,0.000000
1380.587211,5181.441594,-7846.182985,383.047749
1380.587541,6735.874072,-8290.306550,1608.800546
1380.587870,7994.224174,-7031.956449,1225.752797
1380.588199,7328.038826,-6513.812290,536.266849
1380.588528,7179.997637,-6069.688724,766.095498
1380.588857,8586.388927,-5551.544565,1991.848295
1380.589186,9252.574275,-6365.771101,1225.752797
1380.589515,7772.162391,-5403.503377,919.314598
1380.589844,6069.688724,-6439.791695,306.438199
1380.590173,5921.647536,-7179.997637,459.657299
1380.590502,6809.894666,-8142.265362,1302.362347
1380.590831,7031.956449,-7772.162391,1532.190996
1380.591160,5847.626942,-6439.791695,306.438199
1380.591489,4515.256246,-6957.935855,0.000000
1380.591818,5921.647536,-6735.874072,766.095498
1380.592147,7698.141797,-6587.832884,1455.581446
1380.592476,8142.265362,-7105.977043,2145.067394
1380.592805,7031.956449,-6217.729913,1378.971896
1380.593134,5625.565159,-5995.668130,612.876398
1380.593463,5995.668130,-6661.853478,1302.362347
1380.593792,7179.997637,-7846.182985,2221.676944
1380.594121,8734.430116,-6365.771101,2757.943793
1380.594450,8142.265362,-4441.235652,1532.190996
1380.594779,7105.977043,-3627.009116,1455.581446
1380.595108,8142.265362,-4071.132681,612.876398
1380.595437,7994.224174,-6365.771101,1762.019645
1380.595766,7105.977043,-6957.935855,1225.752797
1380.596095,5477.523971,-6143.709319,0.000000
1380.596425,5255.462188,-6513.812290,306.438199
1380.596754,6513.812290,-7920.203579,995.924147
1380.597083,7994.224174,-8660.409521,2451.505594
1380.597412,7772.162391,-7920.203579,1608.800546
1380.597741,5699.585753,-5625.565159,0.000000
1380.598070,5329.482782,-4959.379811,689.485948
1380.598399,7105.977043,-6217.729913,1225.752797
1380.598728,8512.368333,-6735.874072,1991.848295
1380.599057,7550.100608,-6365.771101,1762.019645
1380.599386,5995.668130,-6661.853478,689.485948
1380.599715,5847.626942,-6883.915261,459.657299
1380.600044,6809.894666,-7550.100608,1149.143247
1380.600373,7550.100608,-8586.388927,1685.410096
1380.600702,7254.018232,-6883.915261,842.705048
1380.601031,7031.956449,-5329.482782,229.828649
1380.601360,7031.956449,-5995.668130,689.485948
1380.601689,8216.285956,-6513.812290,1991.848295
1380.602018,8142.265362,-6365.771101,1302.362347
1380.602347,5551.544565,-7105.977043,153.219100
1380.602676,4145.153275,-7550.100608,76.609550
1380.603005,5329.482782,-7698.141797,229.828649
1380.603334,7476.080014,-7920.203579,1685.410096
1380.603663,8364.327145,-7328.038826,2068.457845
1380.603992,7328.038826,-5329.482782,766.095498
1380.604321,6883.915261,-5329.482782,229.828649
1380.604650,8142.265362,-5995.668130,1302.362347
1380.604979,8586.388927,-7031.956449,1608.800546
1380.605309,7698.141797,-6587.832884,689.485948
1380.605638,5847.626942,-7254.018232,689.485948
1380.605967,4811.338623,-7476.080014,76.609550
1380.606296,6069.688724,-8290.306550,612.876398
1380.606625,7105.977043,-7698.141797,1302.362347
1380.606954,7179.997637,-6439.791695,1378.971896
1380.607283,6365.771101,-4663.297435,0.000000
1380.607612,6661.853478,-4219.173869,536.266849
1380.607941,7920.203579,-5329.482782,1838.629195
1380.608270,8956.491898,-5255.462188,1991.848295
1380.608599,8068.244768,-6365.771101,842.705048
1380.608928,6735.874072,-6291.750507,1455.581446
1380.609257,6661.853478,-5329.482782,612.876398
1380.609586,7550.100608,-7624.121203,1532.190996
1380.609915,8068.244768,-7846.182985,2298.286494
1380.610244,7476.080014,-6143.709319,995.924147
1380.610573,6661.853478,-5403.503377,306.438199
1380.610902,6735.874072,-5107.421000,1149.143247
1380.611231,8142.265362,-6217.729913,1225.752797
1380.611560,8068.244768,-5921.647536,1149.143247
1380.611889,5699.585753,-7254.018232,459.657299
1380.612218,4441.235652,-7550.100608,459.657299
1380.612547,5847.626942,-6735.874072,459.657299
1380.612876,7328.038826,-8586.388927,1838.629195
1380.613205,7920.203579,-7624.121203,2451.505594
1380.613534,7550.100608,-5477.523971,995.924147
1380.613863,6809.894666,-5181.441594,0.000000
1380.614193,7105.977043,-5329.482782,919.314598
1380.614522,8438.347739,-6291.750507,2068.457845
1380.614851,7846.182985,-6735.874072,1915.238745
1380.615180,6587.832884,-6587.832884,612.876398
1380.615509,5551.544565,-6439.791695,536.266849
1380.615838,7179.997637,-7402.059420,1302.362347
1380.616167,8364.327145,-8068.244768,2681.334243
1380.616496,7254.018232,-6587.832884,1608.800546
1380.616825,5699.585753,-5921.647536,0.000000
1380.617154,6069.688724,-4737.318029,0.000000
1380.617483,7476.080014,-5995.668130,1149.143247
1380.617812,8216.285956,-8216.285956,1991.848295
1380.618141,6957.935855,-7031.956449,1532.190996
1380.618470,4737.318029,-7920.203579,0.000000
1380.618799,4515.256246,-7328.038826,0.000000
1380.619128,6217.729913,-8660.409521,1378.971896
1380.619457,8068.244768,-9178.553681,2145.067394
1380.619786,7402.059420,-6217.729913,1225.752797
1380.620115,6587.832884,-5403.503377,76.609550
1380.620444,7402.059420,-4071.132681,689.485948
1380.620773,8586.388927,-5625.565159,2145.067394
1380.621102,8660.409521,-5625.565159,2374.896044
1380.621431,7402.059420,-5107.421000,1455.581446
1380.621760,6365.771101,-5255.462188,0.000000
1380.622089,6439.791695,-5921.647536,1685.410096
1380.622418,7476.080014,-7698.141797,2068.457845
1380.622747,7920.203579,-7402.059420,1991.848295
1380.623077,6661.853478,-6217.729913,842.705048
1380.623406,5847.626942,-6365.771101,459.657299
1380.623735,7031.956449,-5921.647536,995.924147
1380.624064,7994.224174,-7846.182985,1685.410096
1380.624393,6809.894666,-7550.100608,842.705048
1380.624722,4441.235652,-7476.080014,0.000000
1380.625051,4293.194464,-8216.285956,-229.828649
1380.625380,6069.688724,-8364.327145,766.095498
1380.625709,7476.080014,-8512.368333,1532.190996
1380.626038,7550.100608,-7031.956449,1225.752797
1380.626367,6291.750507,-5551.544565,0.000000
1380.626696,6439.791695,-5625.565159,0.000000
1380.627025,8142.265362,-5033.400406,1455.581446
1380.627354,9178.553681,-5921.647536,1532.190996
1380.627683,7624.121203,-5625.565159,1378.971896
1380.628012,5921.647536,-6513.812290,536.266849
1380.628341,6365.771101,-6365.771101,459.657299
1380.628670,7846.182985,-7328.038826,1685.410096
1380.628999,9104.533087,-6957.935855,2374.896044
1380.629328,7698.141797,-4959.379811,1149.143247
1380.629657,6883.915261,-4219.173869,842.705048
1380.629986,7846.182985,-4441.235652,1532.190996
1380.630315,8808.450710,-5699.585753,1838.629195
1380.630644,7550.100608,-7031.956449,2068.457845
1380.630973,5699.585753,-6513.812290,306.438199
1380.631302,4589.276840,-6513.812290,-383.047749
1380.631631,4737.318029,-8068.244768,229.828649
1380.631961,6365.771101,-9622.677246,2374.896044
1380.632290,8068.244768,-8438.347739,2221.676944
1380.632619,7328.038826,-5329.482782,919.314598
1380.632948,6143.709319,-5255.462188,536.266849
1380.633277,7328.038826,-5107.421000,995.924147
1380.633606,8142.265362,-6217.729913,1455.581446
1380.633935,6957.935855,-6883.915261,995.924147
1380.634264,5625.565159,-6217.729913,76.609550
1380.634593,6365.771101,-5995.668130,306.438199
1380.634922,7698.141797,-7031.956449,1455.581446
1380.635251,8734.430116,-8512.368333,2681.334243
1380.635580,8364.327145,-6513.812290,1838.629195
1380.635909,7105.977043,-5773.606348,536.266849
1380.636238,6513.812290,-5477.523971,766.095498
1380.636567,7105.977043,-5255.462188,1149.143247
1380.636896,7179.997637,-7179.997637,1225.752797
1380.637225,5847.626942,-7031.956449,766.095498
1380.637554,4071.132681,-7920.203579,0.000000
1380.637883,4885.359217,-8068.244768,383.047749
1380.638212,5625.565159,-9252.574275,2374.896044
1380.638541,6883.915261,-8512.368333,1685.410096
1380.638870,6513.812290,-6439.791695,459.657299
1380.639199,5551.544565,-5921.647536,0.000000
1380.639528,7031.956449,-5995.668130,612.876398
1380.639857,8882.471304,-5477.523971,1149.143247
1380.640186,8956.491898,-5847.626942,1685.410096
1380.640515,7698.141797,-6439.791695,919.314598
1380.640845,7179.997637,-7105.977043,1378.971896
1380.641174,7698.141797,-6809.894666,1762.019645
1380.641503,8142.265362,-6735.874072,1762.019645
1380.641832,8068.244768,-5033.400406,1302.362347
1380.642161,6957.935855,-4589.276840,459.657299
1380.642490,6513.812290,-4663.297435,459.657299
1380.642819,7105.977043,-5255.462188,1149.143247
1380.643148,7624.121203,-6291.750507,1149.143247
1380.643477,6365.771101,-6069.688724,612.876398
1380.643806,5033.400406,-7031.956449,-153.219100
1380.644135,5329.482782,-7476.080014,536.266849
1380.644464,6809.894666,-9030.512492,1685.410096
1380.644793,7772.162391,-8956.491898,2221.676944
1380.645122,7254.018232,-6735.874072,919.314598
1380.645452,6957.935855,-5403.503377,76.609550
1380.645781,7550.100608,-5181.441594,689.485948
1380.646110,7920.203579,-6291.750507,1378.971896
1380.646439,7624.121203,-5847.626942,2145.067394
1380.646768,6365.771101,-5477.523971,229.828649
1380.647097,5847.626942,-6291.750507,76.609550
1380.647426,5773.606348,-6661.853478,459.657299
1380.647755,7846.182985,-7179.997637,1072.533697
1380.648084,8660.409521,-7328.038826,2068.457845
1380.648413,7624.121203,-5847.626942,612.876398
1380.648742,6587.832884,-4959.379811,153.219100
1380.649072,6957.935855,-5477.523971,153.219100
1380.649401,7698.141797,-6809.894666,1608.800546
1380.649730,7328.038826,-8364.327145,1838.629195
1380.650059,6143.709319,-8068.244768,766.095498
1380.650388,5255.462188,-7254.018232,0.000000
1380.650717,5847.626942,-7772.162391,1608.800546
1380.651046,7254.018232,-7698.141797,1532.190996
1380.651375,7698.141797,-7105.977043,1302.362347
1380.651704,6883.915261,-6069.688724,919.314598
1380.652033,6513.812290,-5477.523971,0.000000
1380.652362,7624.121203,-5551.544565,1072.533697
1380.652691,6809.894666,-6069.688724,842.705048
1380.653021,6291.750507,-6143.709319,536.266849
1380.653350,5847.626942,-6587.832884,76.609550
1380.653679,6069.688724,-7254.018232,689.485948
1380.654008,7994.224174,-7254.018232,2451.505594
1380.654337,9030.512492,-6883.915261,2604.724693
1380.654666,8290.306550,-5181.441594,1455.581446
1380.654995,6735.874072,-5477.523971,536.266849
1380.655324,6513.812290,-4737.318029,76.609550
1380.655653,7624.121203,-6217.729913,1149.143247
1380.655982,7624.121203,-7105.977043,1685.410096
1380.656311,6217.729913,-6883.915261,1149.143247
1380.656641,4737.318029,-6735.874072,-612.876398
1380.656970,5107.421000,-7846.182985,842.705048
1380.657299,6513.812290,-8734.430116,1608.800546
1380.657628,8068.244768,-7476.080014,1685.410096
1380.657957,7254.018232,-5847.626942,1072.533697
1380.658286,6587.832884,-4885.359217,536.266849
1380.658615,7698.141797,-4737.318029,1302.362347
1380.658944,8956.491898,-5995.668130,1378.971896
1380.659273,8068.244768,-6661.853478,1455.581446
1380.659602,6883.915261,-5255.462188,766.095498
1380.659931,6291.750507,-5699.585753,842.705048
1380.660260,7031.956449,-6957.935855,1302.362347
1380.660590,8216.285956,-7105.977043,2145.067394
1380.660919,8290.306550,-6291.750507,1762.019645
1380.661248,6587.832884,-4441.235652,536.266849
1380.661577,5551.544565,-3627.009116,0.000000
1380.661906,7105.977043,-5773.606348,1302.362347
1380.662235,8142.265362,-6439.791695,1762.019645
1380.662564,6957.935855,-7328.038826,1225.752797
1380.662893,5403.503377,-7179.997637,-306.438199
1380.663222,4811.338623,-7698.141797,0.000000
1380.663551,5921.647536,-9622.677246,1225.752797
1380.663880,6957.935855,-8512.368333,1225.752797
1380.664210,6957.935855,-7254.018232,689.485948
1380.664539,6809.894666,-6513.812290,383.047749
1380.664868,7105.977043,-5625.565159,766.095498
1380.665197,8512.368333,-6143.709319,1838.629195
1380.665526,8438.347739,-6513.812290,1991.848295
1380.665855,6587.832884,-5181.441594,842.705048
1380.666184,5625.565159,-5995.668130,459.657299
1380.666513,5847.626942,-6883.915261,689.485948
1380.666842,7476.080014,-7698.141797,2221.676944
1380.667171,8808.450710,-6957.935855,2374.896044
1380.667500,7624.121203,-4737.318029,1225.752797
1380.667830,6587.832884,-5107.421000,612.876398
1380.668159,6365.771101,-5847.626942,919.314598
1380.668488,6661.853478,-7328.038826,1608.800546
1380.668817,6143.709319,-7772.162391,842.705048
1380.669146,5551.544565,-7772.162391,0.000000
1380.669475,5033.400406,-8068.244768,536.266849
1380.669804,6661.853478,-7624.121203,1532.190996
1380.670133,7698.141797,-8142.265362,2298.286494
1380.670462,7402.059420,-6513.812290,1225.752797
1380.670791,7105.977043,-4515.256246,76.609550
1380.671120,7328.038826,-4145.153275,459.657299
1380.671449,8290.306550,-4293.194464,1302.362347
1380.671779,8882.471304,-5477.523971,1685.410096
1380.672108,7994.224174,-6217.729913,1455.581446
1380.672437,6661.853478,-6291.750507,459.657299
1380.672766,6217.729913,-7031.956449,689.485948
1380.673095,7105.977043,-7031.956449,1685.410096
1380.673424,8216.285956,-7550.100608,2374.896044
1380.673753,7254.018232,-6143.709319,1225.752797
1380.674082,6513.812290,-5107.421000,689.485948
1380.674411,6587.832884,-5255.462188,689.485948
1380.674740,8216.285956,-5625.565159,1685.410096
1380.675069,7698.141797,-6587.832884,1685.410096
1380.675399,5329.482782,-7179.997637,689.485948
1380.675728,4515.256246,-7254.018232,-153.219100
1380.676057,5033.400406,-8142.265362,612.876398
1380.676386,6735.874072,-8882.471304,1225.752797
1380.676715,7254.018232,-7105.977043,1991.848295
1380.677044,6957.935855,-5995.668130,536.266849
1380.677373,6809.894666,-6217.729913,229.828649
1380.677702,7772.162391,-5847.626942,1302.362347
1380.678031,8660.409521,-5847.626942,1302.362347
1380.678360,7476.080014,-5403.503377,919.314598
1380.678689,6291.750507,-6217.729913,689.485948
1380.679018,5995.668130,-6587.832884,383.047749
1380.679348,7179.997637,-7254.018232,1378.971896
1380.679677,8364.327145,-7031.956449,2298.286494
1380.680006,8660.409521,-5329.482782,1455.581446
1380.680335,7254.018232,-4219.173869,536.266849
1380.680664,6439.791695,-4885.359217,459.657299
1380.680993,7105.977043,-6587.832884,1762.019645
1380.681322,7920.203579,-6291.750507,2145.067394
1380.681651,6661.853478,-6661.853478,612.876398
1380.681980,4811.338623,-7698.141797,153.219100
1380.682309,5107.421000,-8068.244768,153.219100
1380.682638,6513.812290,-9696.697840,1532.190996
1380.682968,7550.100608,-8956.491898,1762.019645
1380.683297,6143.709319,-6883.915261,536.266849
1380.683626,5847.626942,-5773.606348,-383.047749
1380.683955,6513.812290,-5033.400406,-76.609550
1380.684284,8290.306550,-5699.585753,612.876398
1380.684613,7920.203579,-6587.832884,689.485948
1380.684942,7179.997637,-6217.729913,536.266849
1380.685271,6513.812290,-6661.853478,306.438199
1380.685600,7179.997637,-6587.832884,1225.752797
1380.685929,8216.285956,-7179.997637,1762.019645
1380.686258,7624.121203,-8586.388927,1532.190996
1380.686587,6809.894666,-2738.761985,0.000000
1380.686917,6069.688724,-6365.771101,459.657299
1380.687246,8734.430116,-5921.647536,1149.143247
1380.687575,8808.450710,-3923.091493,1915.238745
1380.687904,7402.059420,-8808.450710,2298.286494
1380.688233,5255.462188,-6217.729913,0.000000
1380.688562,3849.070898,-7476.080014,229.828649
1380.688891,5699.585753,-8068.244768,689.485948
1380.689220,7105.977043,-8364.327145,1455.581446
1380.689549,7402.059420,-6883.915261,2068.457845
1380.689878,6439.791695,-5107.421000,459.657299
1380.690207,6957.935855,-4515.256246,-306.438199
1380.690537,8364.327145,-4959.379811,1302.362347
1380.690866,8956.491898,-5995.668130,2298.286494
1380.691195,7994.224174,-6217.729913,1532.190996
1380.691524,6143.709319,-5625.565159,0.000000
1380.691853,6587.832884,-6587.832884,153.219100
1380.692182,7772.162391,-7105.977043,1685.410096
1380.692511,8290.306550,-7031.956449,2068.457845
1380.692840,7105.977043,-6069.688724,919.314598
1380.693169,6439.791695,-4219.173869,0.000000
1380.693498,6513.812290,-5403.503377,689.485948
1380.693827,7698.141797,-6069.688724,1685.410096
1380.694157,7846.182985,-7698.141797,2221.676944
1380.694486,6661.853478,-6143.709319,459.657299
1380.694815,4589.276840,-7698.141797,76.609550
1380.695144,5181.441594,-7994.224174,1149.143247
1380.695473,6661.853478,-8660.409521,1302.362347
1380.695802,6587.832884,-8290.306550,1608.800546
1380.696131,6069.688724,-6069.688724,689.485948
1380.696460,5847.626942,-4811.338623,306.438199
1380.696789,7698.141797,-5699.585753,1532.190996
1380.697118,8660.409521,-6809.894666,1991.848295
1380.697447,7179.997637,-6735.874072,1455.581446
1380.697776,5625.565159,-6365.771101,0.000000
1380.698106,5847.626942,-7920.203579,612.876398
1380.698435,7698.141797,-7179.997637,1838.629195
1380.698764,7772.162391,-7254.018232,2145.067394
1380.699093,7105.977043,-6587.832884,919.314598
1380.699422,6143.709319,-5181.441594,-229.828649
1380.699751,6809.894666,-5329.482782,383.047749
1380.700080,8068.244768,-7105.977043,1378.971896
1380.700409,8216.285956,-7550.100608,2451.505594
1380.700738,5995.668130,-6217.729913,995.924147
1380.701067,5033.400406,-6143.709319,-229.828649
1380.701396,5625.565159,-6661.853478,919.314598
1380.701726,7698.141797,-8068.244768,2068.457845
1380.702055,8438.347739,-6957.935855,2451.505594
1380.702384,6587.832884,-5255.462188,842.705048
1380.702713,6439.791695,-4811.338623,0.000000
1380.703042,7105.977043,-5625.565159,766.095498
1380.703371,7698.141797,-7105.977043,1532.190996
1380.703700,6661.853478,-7105.977043,1762.019645
1380.704029,5847.626942,-6883.915261,536.266849
1380.704358,5995.668130,-6809.894666,459.657299
1380.704687,6809.894666,-7179.997637,919.314598
1380.705016,7476.080014,-7698.141797,2221.676944
1380.705345,7772.162391,-6069.688724,1378.971896
1380.705675,6587.832884,-4589.276840,229.828649
1380.706004,6957.935855,-4737.318029,919.314598
1380.706333,8808.450710,-5107.421000,1685.410096
1380.706662,9548.656652,-5921.647536,2834.553343
1380.706991,7624.121203,-6143.709319,2068.457845
1380.707320,5699.585753,-6513.812290,229.828649
1380.707649,6143.709319,-6365.771101,229.828649
1380.707978,6661.853478,-7476.080014,1225.752797
1380.708307,7179.997637,-8364.327145,1608.800546
1380.708636,6439.791695,-6291.750507,766.095498
1380.708965,5847.626942,-5921.647536,-229.828649
1380.709295,6587.832884,-6291.750507,306.438199
1380.709624,8068.244768,-6957.935855,1608.800546
1380.709953,8290.306550,-7476.080014,1838.629195
1380.710282,6365.771101,-6735.874072,0.000000
1380.710611,5255.462188,-7105.977043,76.609550
1380.710940,6513.812290,-6587.832884,536.266849
1380.711269,8142.265362,-8290.306550,2221.676944
1380.711598,8216.285956,-7105.977043,1915.238745
1380.711927,6587.832884,-5033.400406,0.000000
1380.712256,5847.626942,-5181.441594,-229.828649
1380.712585,7920.203579,-4811.338623,1072.533697
1380.712915,9178.553681,-6365.771101,2068.457845
1380.713244,8142.265362,-6587.832884,1838.629195
1380.713573,5847.626942,-6661.853478,459.657299
1380.713902,5033.400406,-7254.018232,-306.438199
1380.714231,5773.606348,-7698.141797,766.095498
1380.714560,5773.606348,-8956.491898,1149.143247
1380.714889,6069.688724,-7624.121203,229.828649
1380.715218,5773.606348,-5477.523971,-689.485948
1380.715547,7105.977043,-6291.750507,536.266849
1380.715876,9548.656652,-6513.812290,1991.848295
1380.716205,9548.656652,-7179.997637,2528.115143
1380.716534,6957.935855,-6587.832884,1225.752797
1380.716864,4737.318029,-6069.688724,-229.828649
1380.717193,5181.441594,-7031.956449,0.000000
1380.717522,7328.038826,-7920.203579,995.924147
1380.717851,8290.306550,-7846.182985,2528.115143
1380.718180,8068.244768,-5921.647536,1762.019645
1380.718509,6957.935855,-5181.441594,383.047749
1380.718838,7105.977043,-4663.297435,1072.533697
1380.719167,7846.182985,-5699.585753,1455.581446
1380.719496,7105.977043,-6957.935855,1685.410096
1380.719825,5329.482782,-6735.874072,229.828649
1380.720154,4293.194464,-7698.141797,-229.828649
1380.720484,5033.400406,-6883.915261,1455.581446
1380.720813,7550.100608,-7772.162391,1991.848295
1380.721142,8734.430116,-7624.121203,2374.896044
1380.721471,8364.327145,-5033.400406,1149.143247
1380.721800,7920.203579,-4515.256246,612.876398
1380.722129,8142.265362,-4589.276840,766.095498
1380.722458,8512.368333,-5699.585753,1532.190996
1380.722787,7698.141797,-5255.462188,1072.533697
1380.723116,6069.688724,-6735.874072,842.705048
1380.723445,5847.626942,-7031.956449,995.924147
1380.723774,6661.853478,-7031.956449,1608.800546
1380.724103,6735.874072,-7920.203579,1685.410096
1380.724433,6143.709319,-6513.812290,842.705048
1380.724762,5181.441594,-5773.606348,-383.047749
1380.725091,5625.565159,-5625.565159,689.485948
1380.725420,7402.059420,-6809.894666,1378.971896
1380.725749,9030.512492,-7179.997637,2298.286494
1380.726078,8142.265362,-6365.771101,1838.629195
1380.726407,7105.977043,-7105.977043,306.438199
1380.726736,5847.626942,-6809.894666,1302.362347
1380.727065,6957.935855,-7624.121203,1455.581446
1380.727394,7698.141797,-7179.997637,1685.410096
1380.727723,6365.771101,-6143.709319,1149.143247
1380.728053,6365.771101,-5477.523971,229.828649
1380.728382,6883.915261,-5551.544565,383.047749
1380.728711,7254.018232,-7550.100608,1685.410096
1380.729040,7328.038826,-7105.977043,1149.143247
1380.729369,6587.832884,-6735.874072,919.314598
1380.729698,6143.709319,-6661.853478,0.000000
1380.730027,6809.894666,-6957.935855,612.876398
1380.730356,8068.244768,-7994.224174,1762.019645
1380.730685,8216.285956,-7179.997637,1991.848295
1380.731014,7179.997637,-5847.626942,766.095498
1380.731343,6661.853478,-5181.441594,383.047749
1380.731672,7550.100608,-4219.173869,995.924147
1380.732002,7772.162391,-6661.853478,1608.800546
1380.732331,6735.874072,-7179.997637,1762.019645
1380.732660,5699.585753,-5995.668130,1302.362347
1380.732989,5255.462188,-6809.894666,76.609550
1380.733318,6513.812290,-7328.038826,1838.629195
1380.733647,7105.977043,-8290.306550,2145.067394
1380.733976,7105.977043,-7031.956449,766.095498
1380.734305,5773.606348,-6291.750507,0.000000
1380.734634,6513.812290,-5551.544565,0.000000
1380.734963,7920.203579,-6513.812290,919.314598
1380.735292,7994.224174,-7031.956449,1991.848295
1380.735622,7402.059420,-6661.853478,766.095498
1380.735951,5699.585753,-6513.812290,76.609550
1380.736280,6143.709319,-6809.894666,612.876398
1380.736609,7698.141797,-7328.038826,1455.581446
1380.736938,7994.224174,-6735.874072,1991.848295
1380.737267,6883.915261,-5995.668130,306.438199
1380.737596,6143.709319,-5107.421000,76.609550
1380.737925,7328.038826,-5033.400406,842.705048
1380.738254,8660.409521,-6513.812290,2298.286494
1380.738583,9104.533087,-7105.977043,2374.896044
1380.738912,6069.688724,-6069.688724,766.095498
1380.739242,4367.215058,-6661.853478,-536.266849
1380.739571,4737.318029,-8364.327145,612.876398
1380.739900,6661.853478,-8438.347739,1838.629195
1380.740229,8068.244768,-6735.874072,766.095498
1380.740558,6957.935855,-5329.482782,1302.362347
1380.740887,7698.141797,-4367.215058,919.314598
1380.741216,9030.512492,-5255.462188,1455.581446
1380.741545,8956.491898,-5181.441594,2374.896044
1380.741874,7402.059420,-5551.544565,1072.533697
1380.742203,5921.647536,-6069.688724,-306.438199
1380.742532,5699.585753,-7402.059420,76.609550
1380.742861,7105.977043,-7772.162391,1225.752797
1380.743191,8512.368333,-7920.203579,2604.724693
1380.743520,7476.080014,-7698.141797,1455.581446
1380.743849,5551.544565,-5699.585753,-306.438199
1380.744178,5625.565159,-6365.771101,76.609550
1380.744507,7328.038826,-6439.791695,919.314598
1380.744836,7476.080014,-7254.018232,1685.410096
1380.745166,6365.771101,-6957.935855,842.705048
1380.745495,5255.462188,-6365.771101,0.000000
1380.745824,5995.668130,-7179.997637,536.266849
1380.746153,7179.997637,-7772.162391,1685.410096
1380.746483,7550.100608,-6809.894666,1838.629195
1380.746812,7105.977043,-5921.647536,766.095498
1380.747141,6735.874072,-5699.585753,459.657299
1380.747470,7254.018232,-5699.585753,689.485948
1380.747800,7846.182985,-6439.791695,842.705048
1380.748129,7328.038826,-6883.915261,1302.362347
1380.748458,6365.771101,-6883.915261,383.047749
1380.748788,5403.503377,-7105.977043,153.219100
1380.749117,5699.585753,-8734.430116,1608.800546
1380.749446,7698.141797,-7772.162391,995.924147
1380.749775,7624.121203,-6143.709319,1378.971896
1380.750105,6439.791695,-5329.482782,153.219100
1380.750434,6661.853478,-4737.318029,536.266849
1380.750763,8438.347739,-5255.462188,995.924147
1380.751092,9252.574275,-6587.832884,1762.019645
1380.751422,8512.368333,-6365.771101,1532.190996
1380.751751,6513.812290,-5773.606348,383.047749
1380.752080,6365.771101,-6439.791695,536.266849
1380.752409,7328.038826,-7920.203579,1915.238745
1380.752739,7698.141797,-7846.182985,1532.190996
1380.753068,6587.832884,-6809.894666,842.705048
1380.753397,5921.647536,-5255.462188,229.828649
1380.753727,6661.853478,-5181.441594,383.047749
1380.754056,7105.977043,-6661.853478,919.314598
1380.754385,7920.203579,-6587.832884,1762.019645
1380.754714,7105.977043,-6217.729913,1378.971896
1380.755044,5625.565159,-6291.750507,0.000000
1380.755373,5995.668130,-6883.915261,536.266849
1380.755702,7698.141797,-7550.100608,1532.190996
1380.756031,7994.224174,-7550.100608,1532.190996
1380.756361,6883.915261,-7105.977043,1838.629195
1380.756690,6291.750507,-5699.585753,459.657299
1380.757019,7328.038826,-5847.626942,689.485948
1380.757348,8438.347739,-6365.771101,1915.238745
1380.757678,7550.100608,-7476.080014,1915.238745
1380.758007,6143.709319,-6365.771101,459.657299
1380.758336,4885.359217,-6439.791695,-229.828649
1380.758666,4959.379811,-7550.100608,842.705048
1380.758995,6439.791695,-7402.059420,1762.019645
1380.759324,7179.997637,-7031.956449,1302.362347
1380.759653,6661.853478,-4959.379811,766.095498
1380.759983,6735.874072,-5477.523971,842.705048
1380.760312,8216.285956,-5477.523971,1225.752797
1380.760641,8734.430116,-6365.771101,1762.019645
1380.760970,7179.997637,-6513.812290,1378.971896
1380.761300,6069.688724,-6661.853478,306.438199
1380.761629,5921.647536,-7402.059420,459.657299
1380.761958,7254.018232,-8216.285956,1838.629195
1380.762287,7920.203579,-8586.388927,2068.457845
1380.762617,7105.977043,-7179.997637,1225.752797
1380.762946,5699.585753,-6291.750507,0.000000
1380.763275,5847.626942,-6217.729913,0.000000
1380.763605,6809.894666,-6661.853478,1302.362347
1380.763934,6957.935855,-7031.956449,1455.581446
1380.764263,5847.626942,-7105.977043,383.047749
1380.764592,4737.318029,-6661.853478,76.609550
1380.764922,6291.750507,-7031.956449,1072.533697
1380.765251,8512.368333,-7550.100608,2145.067394
1380.765580,8808.450710,-7105.977043,2298.286494
1380.765909,7105.977043,-5477.523971,1302.362347
1380.766239,5921.647536,-4737.318029,0.000000
1380.766568,6883.915261,-5329.482782,0.000000
1380.766897,7920.203579,-6809.894666,1302.362347
1380.767226,8142.265362,-6513.812290,2068.457845
1380.767556,7476.080014,-6069.688724,1608.800546
1380.767885,7105.977043,-6587.832884,1302.362347
1380.768214,7846.182985,-6513.812290,2221.676944
1380.768543,8216.285956,-6439.791695,1838.629195
1380.768873,6957.935855,-4885.359217,689.485948
1380.769202,5625.565159,-4885.359217,306.438199
1380.769531,6069.688724,-5625.565159,0.000000
1380.769861,7402.059420,-6735.874072,1378.971896
1380.770190,8068.244768,-7550.100608,2451.505594
1380.770519,7179.997637,-7624.121203,1378.971896
1380.770848,5033.400406,-7105.977043,0.000000
1380.771178,4589.276840,-7846.182985,306.438199
1380.771507,6439.791695,-8290.306550,1072.533697
1380.771836,8364.327145,-7328.038826,2528.115143
1380.772165,7105.977043,-5477.523971,536.266849
1380.772495,6661.853478,-5329.482782,306.438199
1380.772824,7179.997637,-4959.379811,459.657299
1380.773153,8290.306550,-6217.729913,1455.581446
1380.773482,8068.244768,-5551.544565,2528.115143
1380.773812,7402.059420,-5181.441594,689.485948
1380.774141,6513.812290,-5921.647536,0.000000
1380.774470,6883.915261,-6883.915261,1455.581446
1380.774800,7698.141797,-7624.121203,2221.676944
1380.775129,7772.162391,-6883.915261,1838.629195
1380.775458,6513.812290,-5329.482782,766.095498
1380.775787,5773.606348,-5995.668130,0.000000
1380.776117,6661.853478,-6291.750507,842.705048
1380.776446,7031.956449,-8438.347739,1532.190996
1380.776775,6365.771101,-8808.450710,1455.581446
1380.777104,5403.503377,-6735.874072,0.000000
1380.777434,5329.482782,-7550.100608,689.485948
1380.777763,6513.812290,-7476.080014,1072.533697
1380.778092,7328.038826,-7772.162391,1072.533697
1380.778421,7105.977043,-6735.874072,842.705048
1380.778751,6365.771101,-5921.647536,0.000000
1380.779080,7031.956449,-4959.379811,842.705048
1380.779409,8586.388927,-5033.400406,1685.410096
1380.779739,9178.553681,-6069.688724,1991.848295
1380.780068,7624.121203,-6365.771101,1455.581446
1380.780397,5773.606348,-6957.935855,459.657299
1380.780726,6143.709319,-7328.038826,383.047749
1380.781056,7105.977043,-6809.894666,1225.752797
1380.781385,7179.997637,-7772.162391,1225.752797
1380.781714,6439.791695,-5625.565159,995.924147
1380.782043,6513.812290,-5773.606348,229.828649
1380.782373,8216.285956,-5773.606348,1225.752797
1380.782702,9622.677246,-5551.544565,2451.505594
1380.783031,8734.430116,-6069.688724,2145.067394
1380.783360,5921.647536,-6217.729913,0.000000
1380.783690,3775.050304,-7550.100608,-459.657299
1380.784019,4515.256246,-7846.182985,842.705048
1380.784348,6513.812290,-8512.368333,1302.362347
1380.784678,7179.997637,-7105.977043,2145.067394
1380.785007,7105.977043,-5033.400406,766.095498
1380.785336,7105.977043,-5255.462188,766.095498
1380.785665,8586.388927,-5255.462188,1838.629195
1380.785995,9030.512492,-4737.318029,1915.238745
1380.786324,7920.203579,-5181.441594,1455.581446
1380.786653,6291.750507,-4959.379811,612.876398
1380.786982,5329.482782,-6439.791695,689.485948
1380.787312,6957.935855,-7254.018232,1378.971896
1380.787641,7698.141797,-7846.182985,1991.848295
1380.787970,6735.874072,-6735.874072,1149.143247
1380.788299,5107.421000,-5551.544565,0.000000
1380.788629,5773.606348,-5551.544565,766.095498
1380.788958,7698.141797,-7105.977043,1762.019645
1380.789287,8216.285956,-7105.977043,2374.896044
1380.789617,7402.059420,-6661.853478,1225.752797
1380.789946,6069.688724,-7846.182985,1072.533697
1380.790275,5625.565159,-6957.935855,1302.362347
1380.790604,6439.791695,-7476.080014,842.705048
1380.790934,7105.977043,-7476.080014,1225.752797
1380.791263,6735.874072,-5181.441594,229.828649
1380.791592,6883.915261,-5477.523971,0.000000
1380.791921,7624.121203,-4959.379811,1455.581446
1380.792251,8660.409521,-5551.544565,1838.629195
1380.792580,8216.285956,-7328.038826,1378.971896
1380.792909,5625.565159,-6957.935855,153.219100
1380.793238,5181.441594,-7920.203579,153.219100
1380.793568,6587.832884,-7772.162391,459.657299
1380.793897,7920.203579,-8142.265362,1762.019645
1380.794226,7772.162391,-7105.977043,1455.581446
1380.794555,6143.709319,-6069.688724,536.266849
1380.794885,6587.832884,-5477.523971,383.047749
1380.795214,7254.018232,-6439.791695,766.095498
1380.795543,8068.244768,-7772.162391,2145.067394
1380.795873,7550.100608,-7402.059420,1149.143247
1380.796202,5699.585753,-6661.853478,229.828649
1380.796531,4663.297435,-7254.018232,229.828649
1380.796860,6735.874072,-8216.285956,1225.752797
1380.797190,8068.244768,-7476.080014,1991.848295
1380.797519,7105.977043,-5403.503377,612.876398
1380.797848,6069.688724,-5181.441594,0.000000
1380.798177,6957.935855,-4959.379811,306.438199
1380.798507,7698.141797,-5995.668130,919.314598
1380.798836,7920.203579,-6883.915261,1915.238745
1380.799165,7254.018232,-5921.647536,995.924147
1380.799494,6957.935855,-5995.668130,612.876398
1380.799824,7254.018232,-6513.812290,1378.971896
1380.800153,8216.285956,-6735.874072,2374.896044
1380.800482,9104.533087,-5921.647536,1915.238745
1380.800812,7402.059420,-5625.565159,766.095498
1380.801141,5995.668130,-4441.235652,383.047749
1380.801470,7254.018232,-4737.318029,383.047749
1380.801799,8586.388927,-7105.977043,1532.190996
1380.802129,7994.224174,-7476.080014,1838.629195
1380.802458,5995.668130,-7105.977043,689.485948
1380.802787,4885.359217,-7105.977043,76.609550
1380.803116,5551.544565,-7476.080014,612.876398
1380.803446,6439.791695,-8956.491898,1225.752797
1380.803775,7031.956449,-7624.121203,995.924147
1380.804104,6217.729913,-6365.771101,229.828649
1380.804433,6957.935855,-4959.379811,229.828649
1380.804763,8364.327145,-5329.482782,1685.410096
1380.805092,9030.512492,-6809.894666,2374.896044
1380.805421,8068.244768,-6217.729913,1532.190996
1380.805751,6513.812290,-5773.606348,229.828649
1380.806080,6217.729913,-6957.935855,229.828649
1380.806409,7179.997637,-6513.812290,1225.752797
1380.806738,7254.018232,-7994.224174,2528.115143
1380.807068,6883.915261,-6883.915261,919.314598
1380.807397,6365.771101,-5107.421000,229.828649
1380.807726,6439.791695,-6143.709319,1149.143247
1380.808055,7105.977043,-7402.059420,1455.581446
1380.808385,7698.141797,-6587.832884,2068.457845
1380.808714,6217.729913,-6439.791695,919.314598
1380.809043,4441.235652,-7402.059420,-689.485948
1380.809372,5107.421000,-7402.059420,383.047749
1380.809702,7031.956449,-8438.347739,1072.533697
1380.810031,7624.121203,-8586.388927,1991.848295
1380.810360,7476.080014,-5329.482782,995.924147
1380.810690,7031.956449,-4959.379811,0.000000
1380.811019,7994.224174,-4811.338623,1149.143247
1380.811348,9178.553681,-5699.585753,1762.019645
1380.811677,8734.430116,-6439.791695,2221.676944
1380.812007,7105.977043,-5033.400406,689.485948
1380.812336,5255.462188,-6957.935855,536.266849
1380.812665,6365.771101,-7105.977043,995.924147
1380.812994,7402.059420,-7846.182985,2298.286494
1380.813324,7550.100608,-7031.956449,1838.629195
1380.813653,6365.771101,-5773.606348,383.047749
1380.813982,5995.668130,-5477.523971,536.266849
1380.814311,7476.080014,-5699.585753,1455.581446
1380.814641,8586.388927,-6735.874072,2145.067394
1380.814970,7476.080014,-6735.874072,1455.581446
1380.815299,5329.482782,-7476.080014,76.609550
1380.815629,4737.318029,-8290.306550,76.609550
1380.815958,6143.709319,-7698.141797,1149.143247
1380.816287,7550.100608,-7920.203579,1378.971896
1380.816616,7476.080014,-6661.853478,383.047749
1380.816946,7105.977043,-5699.585753,229.828649
1380.817275,7476.080014,-5181.441594,1149.143247
1380.817604,8216.285956,-4737.318029,995.924147
1380.817933,8512.368333,-5033.400406,1762.019645
1380.818263,7105.977043,-4737.318029,536.266849
1380.818592,6735.874072,-5255.462188,536.266849
1380.818921,7550.100608,-6291.750507,1685.410096
1380.819250,8808.450710,-7105.977043,2911.162892
1380.819580,9104.533087,-6513.812290,2451.505594
1380.819909,6957.935855,-5477.523971,612.876398
1380.820238,5773.606348,-5107.421000,229.828649
1380.820567,6883.915261,-5625.565159,995.924147
1380.820897,7772.162391,-7550.100608,1838.629195
1380.821226,6957.935855,-7920.203579,1838.629195
1380.821555,4959.379811,-7550.100608,306.438199
1380.821885,3923.091493,-8068.244768,-842.705048
1380.822214,4441.235652,-8882.471304,383.047749
1380.822543,6069.688724,-9178.553681,1455.581446
1380.822872,7031.956449,-7328.038826,995.924147
1380.823202,6661.853478,-6291.750507,689.485948
1380.823531,7105.977043,-5181.441594,842.705048
1380.823860,8882.471304,-5033.400406,1302.362347
1380.824189,8290.306550,-6439.791695,1455.581446
1380.824519,7328.038826,-6217.729913,842.705048
1380.824848,6735.874072,-5477.523971,306.438199
1380.825177,7624.121203,-6365.771101,919.314598
1380.825506,8290.306550,-7254.018232,2145.067394
1380.825836,8808.450710,-7179.997637,2451.505594
1380.826165,7179.997637,-5921.647536,612.876398
1380.826494,5699.585753,-5107.421000,459.657299
1380.826824,5995.668130,-5329.482782,536.266849
1380.827153,7254.018232,-6513.812290,1149.143247
1380.827482,7105.977043,-7179.997637,1225.752797
1380.827811,5403.503377,-6513.812290,229.828649
1380.828141,5403.503377,-7402.059420,383.047749
1380.828470,5995.668130,-8068.244768,1072.533697
1380.828799,7328.038826,-7994.224174,2068.457845
1380.829128,7476.080014,-7254.018232,1532.190996
1380.829458,6735.874072,-5403.503377,459.657299
1380.829787,6217.729913,-5033.400406,-306.438199
1380.830116,7698.141797,-6439.791695,995.924147
1380.830445,9104.533087,-6291.750507,2298.286494
1380.830775,8364.327145,-5847.626942,1378.971896
1380.831104,6439.791695,-5773.606348,536.266849
1380.831433,5995.668130,-6735.874072,306.438199
1380.831763,7624.121203,-6883.915261,1455.581446
1380.832092,8956.491898,-6587.832884,2221.676944
1380.832421,8808.450710,-5181.441594,2221.676944
1380.832750,7624.121203,-4737.318029,1072.533697
1380.833080,7179.997637,-4737.318029,1378.971896
1380.833409,7105.977043,-5625.565159,1455.581446
1380.833738,7105.977043,-5699.585753,1149.143247
1380.834067,6291.750507,-6735.874072,842.705048
1380.834397,4663.297435,-8216.285956,306.438199
1380.834726,4959.379811,-7994.224174,689.485948
1380.835055,6957.935855,-8438.347739,1455.581446
1380.835384,7698.141797,-8290.306550,2298.286494
1380.835714,7105.977043,-6439.791695,612.876398
1380.836043,6143.709319,-6587.832884,153.219100
1380.836372,6735.874072,-6291.750507,0.000000
1380.836702,7254.018232,-7698.141797,1072.533697
1380.837031,7031.956449,-7624.121203,1455.581446
1380.837360,5847.626942,-6957.935855,0.000000
1380.837689,5403.503377,-7031.956449,0.000000
1380.838019,6513.812290,-6143.709319,1149.143247
1380.838348,8216.285956,-7698.141797,2374.896044
1380.838677,8364.327145,-5625.565159,2221.676944
1380.839006,6883.915261,-4293.194464,536.266849
1380.839336,6069.688724,-4589.276840,0.000000
1380.839665,7624.121203,-5255.462188,689.485948
1380.839994,7846.182985,-6809.894666,2298.286494
1380.840323,8512.368333,-7846.182985,2987.772442
1380.840653,7698.141797,-7328.038826,1608.800546
1380.840982,6217.729913,-6587.832884,383.047749
1380.841311,5699.585753,-7402.059420,919.314598
1380.841641,6883.915261,-8364.327145,1762.019645
1380.841970,6735.874072,-6587.832884,0.000000
1380.842299,5477.523971,-5181.441594,-536.266849
1380.842628,5477.523971,-6809.894666,919.314598
1380.842958,6735.874072,-7698.141797,766.095498
1380.843287,7105.977043,-7179.997637,1838.629195
1380.843616,6291.750507,-7254.018232,1225.752797
1380.843945,5773.606348,-6143.709319,0.000000
1380.844275,6143.709319,-6439.791695,919.314598
1380.844604,7846.182985,-8142.265362,2451.505594
1380.844933,9030.512492,-6217.729913,2145.067394
1380.845263,8660.409521,-4811.338623,1149.143247
1380.845592,7994.224174,-4737.318029,1149.143247
1380.845921,8512.368333,-5107.421000,1915.238745
1380.846251,8956.491898,-5625.565159,2681.334243
1380.846580,7624.121203,-5847.626942,1455.581446
1380.846909,5403.503377,-5699.585753,76.609550
1380.847238,3849.070898,-6661.853478,-766.095498
1380.847568,4737.318029,-8290.306550,612.876398
1380.847897,7105.977043,-9178.553681,2451.505594
1380.848226,7994.224174,-7179.997637,1532.190996
1380.848556,6513.812290,-5921.647536,689.485948
1380.848885,5329.482782,-5625.565159,0.000000
1380.849214,6957.935855,-6291.750507,0.000000
1380.849544,7698.141797,-7105.977043,1302.362347
1380.849873,7920.203579,-6809.894666,1838.629195
1380.850202,7254.018232,-6217.729913,689.485948
1380.850531,6439.791695,-5995.668130,1149.143247
1380.850861,7476.080014,-7550.100608,1455.581446
1380.851190,7846.182985,-7031.956449,1149.143247
1380.851519,7402.059420,-5551.544565,919.314598
1380.851849,6143.709319,-5477.523971,153.219100
1380.852178,7254.018232,-5107.421000,1608.800546
1380.852507,8364.327145,-6217.729913,2068.457845
1380.852836,8808.450710,-6291.750507,1991.848295
1380.853166,7179.997637,-5773.606348,689.485948
1380.853495,5625.565159,-6735.874072,76.609550
1380.853824,5477.523971,-7105.977043,306.438199
1380.854154,7179.997637,-8068.244768,1685.410096
1380.854483,7402.059420,-7920.203579,1149.143247
1380.854812,6291.750507,-7105.977043,612.876398
1380.855142,6439.791695,-6217.729913,0.000000
1380.855471,7920.203579,-5699.585753,153.219100
1380.855800,8512.368333,-7179.997637,2145.067394
1380.856129,8068.244768,-6661.853478,1838.629195
1380.856459,6439.791695,-7031.956449,229.828649
1380.856788,5625.565159,-7105.977043,229.828649
1380.857117,5995.668130,-7328.038826,995.924147
1380.857447,7698.141797,-8068.244768,2145.067394
1380.857776,7772.162391,-6735.874072,1991.848295
1380.858105,6513.812290,-4441.235652,919.314598
1380.858435,6217.729913,-4589.276840,76.609550
1380.858764,7698.141797,-5107.421000,1149.143247
1380.859093,8438.347739,-6809.894666,2068.457845
1380.859422,7772.162391,-6883.915261,1455.581446
1380.859752,5403.503377,-7105.977043,689.485948
1380.860081,4293.194464,-7772.162391,0.000000
1380.860410,5255.462188,-8808.450710,842.705048
1380.860740,6957.935855,-8216.285956,1378.971896
1380.861069,7105.977043,-6439.791695,612.876398
1380.861398,7402.059420,-5625.565159,1302.362347
1380.861728,8142.265362,-4737.318029,1149.143247
1380.862057,9252.574275,-4959.379811,1915.238745
1380.862386,8364.327145,-5995.668130,1991.848295
1380.862715,5995.668130,-6217.729913,1378.971896
1380.863045,5181.441594,-6661.853478,76.609550
1380.863374,6513.812290,-6513.812290,995.924147
1380.863703,8512.368333,-7402.059420,2604.724693
1380.864033,8734.430116,-6735.874072,2145.067394
1380.864362,6809.894666,-5107.421000,536.266849
1380.864691,5773.606348,-5181.441594,383.047749
1380.865020,7476.080014,-5477.523971,919.314598
1380.865350,8290.306550,-5995.668130,2374.896044
1380.865679,7105.977043,-7105.977043,1762.019645
1380.866008,4737.318029,-7550.100608,689.485948
1380.866338,3775.050304,-7254.018232,-383.047749
1380.866667,5403.503377,-9252.574275,612.876398
1380.866996,7328.038826,-8216.285956,2298.286494
1380.867326,8068.244768,-5921.647536,1455.581446
1380.867655,7476.080014,-5625.565159,306.438199
1380.867984,7476.080014,-5033.400406,383.047749
1380.868313,8142.265362,-6143.709319,919.314598
1380.868643,8290.306550,-6513.812290,1149.143247
1380.868972,7254.018232,-6809.894666,689.485948
1380.869301,6291.750507,-7328.038826,612.876398
1380.869631,6661.853478,-7328.038826,842.705048
1380.869960,7624.121203,-7698.141797,1532.190996
1380.870289,7920.203579,-6291.750507,2221.676944
1380.870619,7105.977043,-4737.318029,612.876398
1380.870948,5921.647536,-4367.215058,-383.047749
1380.871277,7328.038826,-5181.441594,766.095498
1380.871606,8734.430116,-7105.977043,2911.162892
1380.871936,8512.368333,-6809.894666,2911.162892
1380.872265,5921.647536,-6439.791695,842.705048
1380.872594,4663.297435,-5773.606348,0.000000
1380.872924,5847.626942,-6883.915261,689.485948
1380.873253,7624.121203,-9474.636058,1991.848295
1380.873582,7624.121203,-7402.059420,1532.190996
1380.873911,6291.750507,-6143.709319,76.609550
1380.874241,6069.688724,-5773.606348,0.000000
1380.874570,7031.956449,-5847.626942,1225.752797
1380.874899,7550.100608,-6661.853478,1149.143247
1380.875229,6365.771101,-7624.121203,842.705048
1380.875558,5033.400406,-7550.100608,229.828649
1380.875887,5255.462188,-7994.224174,153.219100
1380.876217,7031.956449,-7698.141797,1608.800546
1380.876546,7994.224174,-7328.038826,2145.067394
1380.876875,7772.162391,-5329.482782,1378.971896
1380.877204,6661.853478,-4441.235652,459.657299
1380.877534,7179.997637,-4071.132681,995.924147
1380.877863,8586.388927,-4737.318029,1455.581446
1380.878192,8068.244768,-5551.544565,1532.190996
1380.878522,6513.812290,-6809.894666,1149.143247
1380.878851,4959.379811,-7772.162391,459.657299
1380.879180,5921.647536,-7994.224174,1072.533697
1380.879510,7105.977043,-8808.450710,2068.457845
1380.879839,7550.100608,-7179.997637,2068.457845
1380.880168,7105.977043,-5699.585753,612.876398
1380.880497,6439.791695,-4959.379811,153.219100
1380.880827,7179.997637,-4589.276840,1608.800546
1380.881156,8882.471304,-5403.503377,2374.896044
1380.881485,8512.368333,-6365.771101,1685.410096
1380.881815,6513.812290,-5625.565159,612.876398
1380.882144,6439.791695,-7179.997637,919.314598
1380.882473,7624.121203,-7698.141797,1149.143247
1380.882803,7624.121203,-7846.182985,1915.238745
1380.883132,6513.812290,-7105.977043,842.705048
1380.883461,5921.647536,-5255.462188,-306.438199
1380.883790,6661.853478,-4885.359217,0.000000
1380.884120,8438.347739,-6957.935855,1455.581446
1380.884449,8882.471304,-6735.874072,2451.505594
1380.884778,7624.121203,-7179.997637,1532.190996
1380.885108,5403.503377,-7105.977043,306.438199
1380.885437,4737.318029,-7994.224174,76.609550
1380.885766,5625.565159,-6365.771101,153.219100
1380.886095,7031.956449,-8438.347739,1608.800546
1380.886425,7254.018232,-6809.894666,1378.971896
1380.886754,6957.935855,-3923.091493,383.047749
1380.887083,7624.121203,-6217.729913,1149.143247
1380.887413,7846.182985,-6143.709319,1685.410096
1380.887742,6513.812290,-7698.141797,1072.533697
1380.888071,4811.338623,-8142.265362,0.000000
1380.888401,4145.153275,-7402.059420,-306.438199
1380.888730,6143.709319,-8364.327145,612.876398
1380.889059,7698.141797,-7550.100608,2068.457845
1380.889388,7920.203579,-7105.977043,1762.019645
1380.889718,6883.915261,-5107.421000,306.438199
1380.890047,5625.565159,-4293.194464,0.000000
1380.890376,7550.100608,-4737.318029,612.876398
1380.890706,9548.656652,-4737.318029,2145.067394
1380.891035,9178.553681,-6291.750507,1838.629195
1380.891364,7105.977043,-6809.894666,995.924147
1380.891694,6143.709319,-7179.997637,536.266849
1380.892023,6291.750507,-6661.853478,153.219100
1380.892352,6809.894666,-9992.780217,2374.896044
1380.892681,6661.853478,-7698.141797,1532.190996
1380.893011,6217.729913,-4959.379811,153.219100
1380.893340,5921.647536,-5847.626942,229.828649
1380.893669,7328.038826,-5773.606348,1149.143247
1380.893999,8586.388927,-6217.729913,1762.019645
1380.894328,7550.100608,-6069.688724,1685.410096
1380.894657,5181.441594,-5773.606348,689.485948
1380.894986,5995.668130,-6809.894666,689.485948
1380.895316,7402.059420,-7328.038826,1302.362347
1380.895645,8734.430116,-7254.018232,2681.334243
1380.895974,7698.141797,-5847.626942,1302.362347
1380.896304,6809.894666,-4737.318029,-306.438199
1380.896633,6513.812290,-5107.421000,76.609550
1380.896962,8586.388927,-7402.059420,2145.067394
1380.897292,9400.615463,-7476.080014,2528.115143
1380.897621,7105.977043,-5921.647536,1072.533697
1380.897950,4737.318029,-6513.812290,-459.657299
1380.898279,5477.523971,-6809.894666,306.438199
1380.898609,6883.915261,-8808.450710,1762.019645
1380.898938,7550.100608,-7624.121203,2298.286494
1380.899267,6587.832884,-5625.565159,995.924147
1380.899597,6661.853478,-4589.276840,0.000000
1380.899926,7846.182985,-5699.585753,1225.752797
1380.900255,8142.265362,-6365.771101,2145.067394
1380.900585,7550.100608,-6809.894666,1455.581446
1380.900914,6069.688724,-6365.771101,306.438199
1380.901243,5329.482782,-7031.956449,76.609550
1380.901572,6439.791695,-8216.285956,1302.362347
1380.901902,8068.244768,-8438.347739,2604.724693
1380.902231,7698.141797,-7624.121203,1685.410096
1380.902560,5773.606348,-5699.585753,76.609550
1380.902890,5551.544565,-4737.318029,0.000000
1380.903219,7476.080014,-6291.750507,1302.362347
1380.903548,8290.306550,-6957.935855,2987.772442
1380.903878,7105.977043,-6513.812290,1532.190996
1380.904207,4959.379811,-7031.956449,-459.657299
1380.904536,4737.318029,-6883.915261,-153.219100
1380.904865,6143.709319,-9252.574275,1378.971896
1380.905195,8216.285956,-7254.018232,1838.629195
1380.905524,7772.162391,-6143.709319,766.095498
1380.905853,6957.935855,-5329.482782,383.047749
1380.906183,7254.018232,-5033.400406,1225.752797
1380.906512,9104.533087,-5625.565159,1532.190996
1380.906841,8586.388927,-5107.421000,1685.410096
1380.907170,6809.894666,-5773.606348,689.485948
1380.907500,5329.482782,-6513.812290,536.266849
1380.907829,6069.688724,-7031.956449,612.876398
1380.908158,7105.977043,-8586.388927,2298.286494
1380.908488,7402.059420,-7105.977043,1838.629195
1380.908817,6291.750507,-5921.647536,383.047749
1380.909146,5477.523971,-5625.565159,76.609550
1380.909476,7105.977043,-6069.688724,842.705048
1380.909805,8660.409521,-7105.977043,1762.019645
1380.910134,7179.997637,-6883.915261,1532.190996
1380.910463,5107.421000,-7550.100608,0.000000
1380.910793,4959.379811,-7476.080014,0.000000
1380.911122,6439.791695,-7994.224174,1302.362347
1380.911451,7920.203579,-8734.430116,2221.676944
1380.911781,8364.327145,-6513.812290,2221.676944
1380.912110,7105.977043,-4737.318029,536.266849
1380.912439,7105.977043,-4589.276840,0.000000
1380.912769,7846.182985,-4293.194464,689.485948
1380.913098,8068.244768,-6661.853478,1762.019645
1380.913427,7254.018232,-6735.874072,919.314598
1380.913756,5773.606348,-6735.874072,383.047749
1380.914086,5699.585753,-6735.874072,689.485948
1380.914415,7920.203579,-6809.894666,1455.581446
1380.914744,8290.306550,-7994.224174,2374.896044
1380.915074,7402.059420,-6439.791695,1378.971896
1380.915403,5921.647536,-5107.421000,229.828649
1380.915732,6661.853478,-4737.318029,536.266849
1380.916061,7402.059420,-6883.915261,1532.190996
1380.916391,6957.935855,-7179.997637,1532.190996
1380.916720,5921.647536,-7031.956449,689.485948
1380.917049,5699.585753,-6513.812290,0.000000
1380.917379,6587.832884,-7994.224174,1225.752797
1380.917708,8142.265362,-7476.080014,1991.848295
1380.918037,8068.244768,-6291.750507,1302.362347
1380.918367,7031.956449,-5699.585753,1149.143247
1380.918696,7105.977043,-5107.421000,689.485948
1380.919025,7994.224174,-5329.482782,536.266849
1380.919354,7846.182985,-6883.915261,1378.971896
1380.919684,7105.977043,-6661.853478,536.266849
1380.920013,6365.771101,-6883.915261,0.000000
1380.920342,6439.791695,-6957.935855,766.095498
1380.920672,7105.977043,-7254.018232,1915.238745
1380.921001,8586.388927,-7772.162391,2145.067394
1380.921330,7624.121203,-5995.668130,1225.752797
1380.921660,6365.771101,-6217.729913,842.705048
1380.921989,7105.977043,-5403.503377,383.047749
1380.922318,7624.121203,-6439.791695,1608.800546
1380.922647,7476.080014,-7179.997637,1378.971896
1380.922977,5329.482782,-7550.100608,536.266849
1380.923306,4441.235652,-7550.100608,-383.047749
1380.923635,4441.235652,-8290.306550,0.000000
1380.923965,6587.832884,-8142.265362,1838.629195
1380.924294,7328.038826,-7624.121203,1532.190996
1380.924623,6957.935855,-5255.462188,0.000000
1380.924953,6883.915261,-4663.297435,-76.609550
1380.925282,7624.121203,-5699.585753,612.876398
1380.925611,9178.553681,-6217.729913,1991.848295
1380.925940,8956.491898,-6291.750507,2068.457845
1380.926270,8068.244768,-5773.606348,1302.362347
1380.926599,7105.977043,-5847.626942,995.924147
1380.926928,7550.100608,-6143.709319,919.314598
1380.927258,7994.224174,-7179.997637,2451.505594
1380.927587,8142.265362,-6143.709319,1762.019645
1380.927916,6365.771101,-5625.565159,612.876398
1380.928245,5477.523971,-5403.503377,306.438199
1380.928575,6439.791695,-6735.874072,1149.143247
1380.928904,7328.038826,-7105.977043,1455.581446
1380.929233,5921.647536,-7328.038826,1455.581446
1380.929563,4441.235652,-7105.977043,76.609550
1380.929892,4885.359217,-7920.203579,0.000000
1380.930221,6291.750507,-8660.409521,1991.848295
1380.930551,7402.059420,-8586.388927,2451.505594
1380.930880,7105.977043,-6587.832884,1762.019645
1380.931209,6513.812290,-4885.359217,689.485948
1380.931538,7624.121203,-4737.318029,536.266849
1380.931868,9030.512492,-6069.688724,2068.457845
1380.932197,8956.491898,-5995.668130,2604.724693
1380.932526,7920.203579,-5699.585753,1378.971896
1380.932856,6439.791695,-5625.565159,229.828649
1380.933185,6365.771101,-6069.688724,766.095498
1380.933514,7105.977043,-7994.224174,1455.581446
1380.933844,7698.141797,-6513.812290,1838.629195
1380.934173,5921.647536,-6291.750507,306.438199
1380.934502,5625.565159,-6365.771101,-76.609550
1380.934831,6809.894666,-6513.812290,689.485948
1380.935161,8290.306550,-7698.141797,1762.019645
1380.935490,8512.368333,-7624.121203,1762.019645
1380.935819,6291.750507,-6883.915261,536.266849
1380.936149,5033.400406,-6809.894666,76.609550
1380.936478,6217.729913,-7624.121203,995.924147
1380.936807,8216.285956,-7846.182985,2451.505594
1380.937137,8364.327145,-7031.956449,1608.800546
1380.937466,6365.771101,-5329.482782,612.876398
1380.937795,6365.771101,-4737.318029,536.266849
1380.938124,7846.182985,-5181.441594,995.924147
1380.938454,8216.285956,-6217.729913,2221.676944
1380.938783,6957.935855,-5477.523971,1072.533697
1380.939112,5329.482782,-5995.668130,76.609550
1380.939442,5403.503377,-6365.771101,459.657299
1380.939771,6883.915261,-8586.388927,2068.457845
1380.940100,8290.306550,-7624.121203,2145.067394
1380.940429,7550.100608,-6291.750507,766.095498
1380.940759,6217.729913,-5995.668130,0.000000
1380.941088,7179.997637,-5551.544565,536.266849
1380.941417,8364.327145,-6291.750507,2298.286494
1380.941747,8734.430116,-6587.832884,1838.629195
1380.942076,6291.750507,-6883.915261,536.266849
1380.942405,4737.318029,-7254.018232,-306.438199
1380.942735,4959.379811,-8290.306550,-229.828649
1380.943064,6439.791695,-9030.512492,1302.362347
1380.943393,7105.977043,-7550.100608,2145.067394
1380.943722,7105.977043,-6217.729913,995.924147
1380.944052,6365.771101,-4589.276840,0.000000
1380.944381,7624.121203,-3997.112087,689.485948
1380.944710,8438.347739,-6069.688724,1685.410096
1380.945040,8364.327145,-6217.729913,1762.019645
1380.945369,7105.977043,-5847.626942,1149.143247
1380.945698,6513.812290,-6217.729913,842.705048
1380.946027,7698.141797,-6217.729913,2145.067394
1380.946356,8216.285956,-7772.162391,2298.286494
1380.946685,6957.935855,-6661.853478,1455.581446
1380.947014,5847.626942,-5477.523971,76.609550
1380.947344,6291.750507,-5551.544565,0.000000
1380.947673,7698.141797,-5921.647536,1762.019645
1380.948002,8364.327145,-7698.141797,1991.848295
1380.948331,6439.791695,-7698.141797,1225.752797
1380.948660,4737.318029,-7402.059420,0.000000
1380.948989,4293.194464,-7476.080014,-383.047749
1380.949318,6069.688724,-8660.409521,919.314598
1380.949648,7550.100608,-7772.162391,1302.362347
1380.949977,7476.080014,-6143.709319,842.705048
1380.950306,7179.997637,-5107.421000,536.266849
1380.950635,8586.388927,-4811.338623,1532.190996
1380.950964,9622.677246,-6217.729913,2298.286494
1380.951293,8068.244768,-6513.812290,1915.238745
1380.951622,5921.647536,-5477.523971,229.828649
1380.951952,5551.544565,-6217.729913,229.828649
1380.952281,6291.750507,-7031.956449,766.095498
1380.952610,8068.244768,-7772.162391,2451.505594
1380.952939,8586.388927,-7105.977043,2451.505594
1380.953268,6587.832884,-5255.462188,766.095498
1380.953597,5181.441594,-5329.482782,0.000000
1380.953926,6439.791695,-5699.585753,536.266849
1380.954256,7920.203579,-7328.038826,2145.067394
1380.954585,7994.224174,-7698.141797,1455.581446
1380.954914,6069.688724,-6883.915261,995.924147
1380.955243,4959.379811,-7550.100608,383.047749
1380.955572,6513.812290,-7920.203579,1072.533697
1380.955901,7402.059420,-8586.388927,2298.286494
1380.956230,7031.956449,-7402.059420,1225.752797
1380.956560,6957.935855,-5033.400406,383.047749
1380.956889,7254.018232,-4663.297435,383.047749
1380.957218,8438.347739,-5329.482782,1608.800546
1380.957547,8512.368333,-5995.668130,2298.286494
1380.957876,7031.956449,-5551.544565,842.705048
1380.958205,5921.647536,-6365.771101,-612.876398
1380.958534,5625.565159,-6809.894666,766.095498
1380.958863,7179.997637,-7402.059420,1838.629195
1380.959193,7846.182985,-7031.956449,1762.019645
1380.959522,7105.977043,-6143.709319,1532.190996
1380.959851,6513.812290,-5403.503377,383.047749
1380.960180,7550.100608,-5625.565159,842.705048
1380.960509,7994.224174,-6661.853478,2374.896044
1380.960838,7920.203579,-7476.080014,1915.238745
1380.961167,6661.853478,-6587.832884,919.314598
1380.961497,4811.338623,-7254.018232,0.000000
1380.961826,5773.606348,-7920.203579,919.314598
1380.962155,7105.977043,-8290.306550,1685.410096
1380.962484,7105.977043,-6291.750507,1225.752797
1380.962813,6513.812290,-5477.523971,153.219100
1380.963142,6513.812290,-5181.441594,306.438199
1380.963471,8068.244768,-5625.565159,766.095498
1380.963801,8216.285956,-6883.915261,1455.581446
1380.964130,7105.977043,-6143.709319,995.924147
1380.964459,5995.668130,-6143.709319,76.609550
1380.964788,6513.812290,-7105.977043,536.266849
1380.965117,7328.038826,-7550.100608,2221.676944
1380.965446,8586.388927,-8142.265362,2528.115143
1380.965775,8216.285956,-6143.709319,1225.752797
1380.966105,6587.832884,-4663.297435,229.828649
1380.966434,7031.956449,-5255.462188,459.657299
1380.966763,8216.285956,-5551.544565,1532.190996
1380.967092,7624.121203,-7254.018232,2298.286494
1380.967421,6291.750507,-7031.956449,1455.581446
1380.967750,4959.379811,-7402.059420,459.657299
1380.968079,5033.400406,-7402.059420,766.095498
1380.968409,6069.688724,-8956.491898,1149.143247
1380.968738,6365.771101,-7476.080014,1915.238745
1380.969067,5477.523971,-6809.894666,76.609550
1380.969396,5625.565159,-6661.853478,-229.828649
1380.969725,7772.162391,-6069.688724,1302.362347
1380.970054,8956.491898,-7179.997637,1838.629195
1380.970383,7402.059420,-7624.121203,919.314598
1380.970712,4663.297435,-7846.182985,0.000000
1380.971042,4219.173869,-8882.471304,-612.876398
1380.971371,4811.338623,-8882.471304,536.266849
1380.971700,6957.935855,-9178.553681,1838.629195
1380.972029,6809.894666,-8660.409521,1532.190996
1380.972358,5403.503377,-7698.141797,153.219100
1380.972687,5181.441594,-7328.038826,229.828649
1380.973016,6661.853478,-6809.894666,1225.752797
1380.973346,7254.018232,-6809.894666,1072.533697
1380.973675,6069.688724,-6957.935855,995.924147
1380.974004,4663.297435,-7550.100608,0.000000
1380.974333,4737.318029,-7328.038826,153.219100
1380.974662,6143.709319,-8438.347739,1072.533697
1380.974991,7179.997637,-9622.677246,3907.087040
1380.975320,7105.977043,-6883.915261,2987.772442
1380.975650,5625.565159,-5033.400406,995.924147
1380.975979,5699.585753,-3330.926739,612.876398
1380.976308,7920.203579,-4959.379811,1915.238745
1380.976637,8882.471304,-6735.874072,2451.505594
1380.976966,6957.935855,-7031.956449,2145.067394
1380.977295,5551.544565,-7402.059420,306.438199
1380.977624,4293.194464,-9030.512492,-689.485948
1380.977954,3849.070898,-11103.089130,1302.362347
1380.978283,3775.050304,-12731.542202,689.485948
1380.978612,3627.009116,-11103.089130,153.219100
1380.978941,2664.741391,-9474.636058,-536.266849
1380.979270,3404.947333,-9326.594869,0.000000
1380.979599,5181.441594,-8734.430116,1149.143247
1380.979928,5699.585753,-8734.430116,1915.238745
1380.980258,5403.503377,-8660.409521,2834.553343
1380.980587,4885.359217,-7698.141797,2757.943793
1380.980916,4515.256246,-6735.874072,2604.724693
1380.981245,4219.173869,-6069.688724,1072.533697
1380.981574,4959.379811,-7254.018232,1149.143247
1380.981903,5033.400406,-8734.430116,1762.019645
1380.982232,5033.400406,-10066.800811,2145.067394
1380.982562,4885.359217,-8512.368333,1838.629195
1380.982891,4811.338623,-7402.059420,383.047749
1380.983220,5107.421000,-8586.388927,-229.828649
1380.983549,4737.318029,-8882.471304,0.000000
1380.983878,5107.421000,-10955.047942,1838.629195
1380.984207,6069.688724,-10658.965565,1915.238745
1380.984536,5403.503377,-8660.409521,1532.190996
1380.984865,3997.112087,-8586.388927,0.000000
1380.985195,2442.679609,-9770.718434,153.219100
1380.985524,3330.926739,-11917.315666,306.438199
1380.985853,3775.050304,-11325.150913,919.314598
1380.986182,4367.215058,-9030.512492,1608.800546
1380.986511,4885.359217,-7105.977043,1378.971896
1380.986840,5625.565159,-6143.709319,2298.286494
1380.987169,6883.915261,-7105.977043,2145.067394
1380.987499,7179.997637,-6661.853478,2298.286494
1380.987828,7179.997637,-5255.462188,1915.238745
1380.988157,6809.894666,-5033.400406,1455.581446
1380.988486,6365.771101,-6291.750507,1149.143247
1380.988815,5477.523971,-9326.594869,2068.457845
1380.989144,4145.153275,-10955.047942,1149.143247
1380.989473,2886.803174,-11473.192101,689.485948
1380.989803,1776.494261,-10066.800811,-306.438199
1380.990132,2146.597232,-10732.986159,-689.485948
1380.990461,3478.967927,-10881.027347,383.047749
1380.990790,3775.050304,-11843.295072,1378.971896
1380.991119,4515.256246,-10658.965565,1225.752797
1380.991448,5329.482782,-7402.059420,919.314598
1380.991777,5625.565159,-5403.503377,995.924147
1380.992107,7105.977043,-5107.421000,1455.581446
1380.992436,8290.306550,-5847.626942,1608.800546
1380.992765,8142.265362,-5773.606348,1762.019645
1380.993094,7031.956449,-6883.915261,459.657299
1380.993423,6365.771101,-7772.162391,995.924147
1380.993752,5477.523971,-8882.471304,612.876398
1380.994081,4071.132681,-10510.924376,689.485948
1380.994411,1850.514855,-11991.336260,919.314598
1380.994740,1776.494261,-12213.398043,-306.438199
1380.995069,2072.576638,-11473.192101,-689.485948
1380.995398,3775.050304,-10362.883188,536.266849
1380.995727,5255.462188,-9030.512492,1455.581446
1380.996056,6143.709319,-7105.977043,2451.505594
1380.996385,6069.688724,-6809.894666,2528.115143
1380.996714,6587.832884,-5033.400406,2221.676944
1380.997044,6957.935855,-4885.359217,2451.505594
1380.997373,6883.915261,-4959.379811,1762.019645
1380.997702,5773.606348,-6661.853478,1072.533697
1380.998031,4885.359217,-7920.203579,536.266849
1380.998360,4885.359217,-8364.327145,0.000000
1380.998689,4515.256246,-10140.821405,383.047749
1380.999018,4293.194464,-11843.295072,766.095498
1380.999348,4219.173869,-12139.377449,612.876398
1380.999677,3478.967927,-12435.459826,0.000000
1381.000006,2886.803174,-11991.336260,76.609550
1381.000335,3034.844362,-11547.212695,-306.438199
1381.000664,3627.009116,-11325.150913,1225.752797
1381.000993,3552.988522,-9622.677246,1762.019645
1381.001322,4515.256246,-8216.285956,2221.676944
1381.001652,6513.812290,-4441.235652,2987.772442
1381.001981,7550.100608,-3701.029710,2681.334243
1381.002310,7994.224174,-2664.741391,2221.676944
1381.002639,5995.668130,-3330.926739,766.095498
1381.002968,6143.709319,-4145.153275,229.828649
1381.003297,4737.318029,-7179.997637,229.828649
1381.003626,3775.050304,-11991.336260,1149.143247
1381.003956,3552.988522,-14211.954086,842.705048
1381.004285,3256.906145,-15396.283594,995.924147
1381.004614,3552.988522,-14211.954086,1608.800546
1381.004943,4071.132681,-12065.356855,1378.971896
1381.005272,4663.297435,-10436.903782,1762.019645
1381.005601,3775.050304,-8808.450710,1532.190996
1381.005930,3701.029710,-6883.915261,842.705048
1381.006260,4219.173869,-5255.462188,1072.533697
1381.006589,4885.359217,-5033.400406,995.924147
1381.006918,6217.729913,-4737.318029,919.314598
1381.007247,6365.771101,-4737.318029,842.705048
1381.007576,5847.626942,-5255.462188,0.000000
1381.007905,5625.565159,-7698.141797,0.000000
1381.008234,6069.688724,-10288.862594,383.047749
1381.008564,5921.647536,-12361.439231,1225.752797
1381.008893,4959.379811,-13175.665768,1455.581446
1381.009222,4737.318029,-12731.542202,1455.581446
1381.009551,4737.318029,-11473.192101,1762.019645
1381.009880,4885.359217,-9696.697840,2451.505594
1381.010209,5699.585753,-6883.915261,3370.820191
1381.010538,6143.709319,-5477.523971,2911.162892
1381.010867,5625.565159,-4219.173869,3294.210641
1381.011197,5847.626942,-3923.091493,2528.115143
1381.011526,5773.606348,-4737.318029,1915.238745
1381.011855,5181.441594,-4811.338623,1762.019645
1381.012184,4441.235652,-7031.956449,459.657299
1381.012513,4737.318029,-9030.512492,919.314598
1381.012842,4885.359217,-10658.965565,1608.800546
1381.013171,5107.421000,-13101.645173,1762.019645
1381.013501,4811.338623,-12435.459826,2068.457845
1381.013830,4811.338623,-11991.336260,2068.457845
1381.014159,5847.626942,-9992.780217,2145.067394
1381.014488,6439.791695,-7846.182985,3600.648841
1381.014817,6735.874072,-6217.729913,3830.477490
1381.015146,7031.956449,-4663.297435,3677.258390
1381.015475,7476.080014,-3404.947333,3907.087040
1381.015805,7105.977043,-2812.782580,3447.429741
1381.016134,6883.915261,-4293.194464,2451.505594
1381.016463,6143.709319,-5033.400406,2451.505594
1381.016792,6217.729913,-6957.935855,2528.115143
1381.017121,6217.729913,-8734.430116,3677.258390
1381.017450,6365.771101,-8956.491898,3600.648841
1381.017779,6217.729913,-9770.718434,3830.477490
1381.018109,5699.585753,-9844.739029,3753.867940
1381.018438,5625.565159,-9104.533087,4136.915689
1381.018767,6365.771101,-7254.018232,3907.087040
1381.019096,7328.038826,-5403.503377,4903.011187
1381.019425,7550.100608,-4293.194464,4290.134789
1381.019754,7105.977043,-4145.153275,4290.134789
1381.020083,7105.977043,-4811.338623,4749.792088
1381.020413,6883.915261,-4589.276840,4366.744339
1381.020742,7179.997637,-4589.276840,4060.306139
1381.021071,7624.121203,-5329.482782,4596.572988
1381.021400,8142.265362,-6143.709319,3983.696590
1381.021729,7698.141797,-7328.038826,3983.696590
1381.022058,7105.977043,-9474.636058,4366.744339
1381.022387,5847.626942,-10362.883188,3677.258390
1381.022716,4959.379811,-10362.883188,3600.648841
1381.023046,4071.132681,-10140.821405,2987.772442
1381.023375,3997.112087,-9548.656652,4136.915689
1381.023704,5403.503377,-8660.409521,5132.839837
1381.024033,6513.812290,-6217.729913,5209.449386
1381.024362,7179.997637,-4441.235652,5515.887586
1381.024691,8216.285956,-2886.803174,5515.887586
1381.025020,7698.141797,-3478.967927,5439.278036
1381.025350,7624.121203,-3108.864956,4903.011187
1381.025679,8216.285956,-3627.009116,4826.401637
1381.026008,9252.574275,-4219.173869,4903.011187
1381.026337,9696.697840,-5329.482782,5822.325785
1381.026666,9400.615463,-6217.729913,5822.325785
1381.026995,8512.368333,-7920.203579,4903.011187
1381.027324,7105.977043,-7994.224174,4366.744339
1381.027654,5699.585753,-9770.718434,4979.620737
1381.027983,5181.441594,-9918.759623,4060.306139
1381.028312,3775.050304,-9252.574275,3677.258390
1381.028641,2886.803174,-9770.718434,3064.381992
1381.028970,2294.638420,-8438.347739,3370.820191
1381.029299,3034.844362,-7698.141797,3600.648841
1381.029628,4885.359217,-7105.977043,3447.429741
1381.029958,6587.832884,-4811.338623,4290.134789
1381.030287,8364.327145,-3552.988522,4903.011187
1381.030616,9992.780217,-2738.761985,5209.449386
1381.030945,10807.006753,-2738.761985,5975.544884
1381.031274,11251.130318,-3330.926739,5515.887586
1381.031603,10288.862594,-3923.091493,4903.011187
1381.031932,8290.306550,-5773.606348,4136.915689
1381.032262,6291.750507,-7105.977043,3524.039291
1381.032591,5477.523971,-9252.574275,2987.772442
1381.032920,4885.359217,-9622.677246,3217.601092
1381.033249,4885.359217,-9474.636058,3217.601092
1381.033578,3923.091493,-8216.285956,3753.867940
1381.033907,4219.173869,-8216.285956,3370.820191
1381.034236,5033.400406,-6735.874072,3370.820191
1381.034566,6735.874072,-4959.379811,3447.429741
1381.034895,8290.306550,-4071.132681,4136.915689
1381.035224,10362.883188,-4515.256246,4290.134789
1381.035553,9992.780217,-4663.297435,4136.915689
1381.035882,8956.491898,-5107.421000,2987.772442
1381.036211,7179.997637,-6735.874072,3217.601092
1381.036540,6735.874072,-7402.059420,2528.115143
1381.036869,5551.544565,-8068.244768,2451.505594
1381.037199,6143.709319,-8512.368333,3447.429741
1381.037528,6809.894666,-7550.100608,3907.087040
1381.037857,7105.977043,-6883.915261,3753.867940
1381.038186,7328.038826,-7105.977043,4979.620737
1381.038515,7402.059420,-6809.894666,4136.915689
1381.038844,7550.100608,-5773.606348,3983.696590
1381.039173,6661.853478,-5107.421000,3830.477490
1381.039503,6439.791695,-4737.318029,3217.601092
1381.039832,7772.162391,-3404.947333,3370.820191
1381.040161,9178.553681,-3775.050304,4366.744339
1381.040490,9252.574275,-4441.235652,4443.353888
1381.040819,8438.347739,-5403.503377,3677.258390
1381.041148,6809.894666,-7920.203579,3370.820191
1381.041477,5477.523971,-10288.862594,2451.505594
1381.041807,4441.235652,-11473.192101,2604.724693
1381.042136,4145.153275,-10140.821405,3064.381992
1381.042465,4145.153275,-9474.636058,2451.505594
1381.042794,5255.462188,-7179.997637,2987.772442
1381.043123,6143.709319,-5477.523971,3830.477490
1381.043452,7846.182985,-5107.421000,4290.134789
1381.043781,8660.409521,-4589.276840,5209.449386
1381.044110,8586.388927,-4663.297435,4979.620737
1381.044440,8808.450710,-4663.297435,4443.353888
1381.044769,9326.594869,-2664.741391,4979.620737
1381.045098,9400.615463,-3775.050304,4596.572988
1381.045427,9030.512492,-4811.338623,4290.134789
1381.045756,7698.141797,-6587.832884,4060.306139
1381.046085,6439.791695,-9030.512492,3677.258390
1381.046414,4737.318029,-8882.471304,3217.601092
1381.046743,3775.050304,-10955.047942,3217.601092
1381.047072,3997.112087,-10881.027347,3217.601092
1381.047401,4441.235652,-9252.574275,3983.696590
1381.047730,4737.318029,-7105.977043,3907.087040
1381.048059,6143.709319,-5551.544565,4060.306139
1381.048388,8068.244768,-4145.153275,5745.716235
1381.048717,9400.615463,-3552.988522,5515.887586
1381.049046,9548.656652,-2220.617826,4903.011187
1381.049375,8882.471304,-2812.782580,4903.011187
1381.049704,8142.265362,-3923.091493,4519.963438
1381.050033,7476.080014,-5921.647536,3907.087040
1381.050362,7105.977043,-6957.935855,4673.182538
1381.050691,7994.224174,-8734.430116,3907.087040
1381.051020,8216.285956,-8586.388927,3983.696590
1381.051350,6735.874072,-9622.677246,3294.210641
1381.051679,5551.544565,-9474.636058,2757.943793
1381.052008,4441.235652,-6735.874072,2145.067394
1381.052337,5181.441594,-6513.812290,2068.457845
1381.052666,6735.874072,-5921.647536,3677.258390
1381.052995,7624.121203,-6661.853478,4673.182538
1381.053324,7550.100608,-5625.565159,3217.601092
1381.053653,6069.688724,-5403.503377,2681.334243
1381.053982,6069.688724,-4589.276840,2911.162892
1381.054311,6957.935855,-5329.482782,2451.505594
1381.054640,7698.141797,-6069.688724,3907.087040
1381.054969,7920.203579,-5107.421000,3677.258390
1381.055298,8364.327145,-5551.544565,2298.286494
1381.055627,7476.080014,-6661.853478,3140.991542
1381.055956,7402.059420,-8734.430116,3217.601092
1381.056285,7994.224174,-9030.512492,2604.724693
1381.056614,6809.894666,-7105.977043,1378.971896
1381.056943,5255.462188,-7772.162391,919.314598
1381.057272,5551.544565,-7328.038826,459.657299
1381.057601,6069.688724,-8068.244768,1532.190996
1381.057931,6217.729913,-5847.626942,1532.190996
1381.058260,6735.874072,-4737.318029,1302.362347
1381.058589,6809.894666,-4737.318029,1072.533697
1381.058918,7476.080014,-5477.523971,1225.752797
1381.059247,8438.347739,-7328.038826,2834.553343
1381.059576,10140.821405,-5921.647536,3064.381992
1381.059905,9400.615463,-5033.400406,2298.286494
1381.060234,7550.100608,-4959.379811,1225.752797
1381.060563,5921.647536,-7328.038826,0.000000
1381.060892,5107.421000,-8586.388927,0.000000
1381.061221,5773.606348,-8216.285956,919.314598
1381.061550,6735.874072,-7328.038826,1149.143247
1381.061879,7179.997637,-5625.565159,1072.533697
1381.062208,7031.956449,-5847.626942,1149.143247
1381.062537,6439.791695,-6883.915261,1072.533697
1381.062866,6291.750507,-6143.709319,306.438199
1381.063195,6513.812290,-5477.523971,536.266849
1381.063524,6957.935855,-5477.523971,-383.047749
1381.063853,6735.874072,-5847.626942,0.000000
1381.064182,6439.791695,-6957.935855,153.219100
1381.064512,7179.997637,-8364.327145,919.314598
1381.064841,7550.100608,-6957.935855,1072.533697
1381.065170,7476.080014,-6439.791695,229.828649
1381.065499,7476.080014,-6143.709319,306.438199
1381.065828,6735.874072,-7254.018232,306.438199
1381.066157,5995.668130,-8882.471304,689.485948
1381.066486,6217.729913,-6883.915261,612.876398
1381.066815,6439.791695,-6365.771101,919.314598
1381.067144,6217.729913,-5847.626942,536.266849
1381.067473,5699.585753,-7105.977043,1149.143247
1381.067802,5995.668130,-7994.224174,1302.362347
1381.068131,6809.894666,-5921.647536,1608.800546
1381.068460,8290.306550,-3923.091493,2068.457845
1381.068789,9400.615463,-3478.967927,1608.800546
1381.069118,8882.471304,-5847.626942,1838.629195
1381.069447,8290.306550,-6513.812290,2528.115143
1381.069776,7328.038826,-6587.832884,995.924147
1381.070105,7328.038826,-6809.894666,689.485948
1381.070434,6291.750507,-6217.729913,0.000000
1381.070763,6439.791695,-8586.388927,0.000000
1381.071093,6365.771101,-8586.388927,612.876398
1381.071422,6143.709319,-7698.141797,995.924147
1381.071751,6439.791695,-7698.141797,76.609550
1381.072080,7105.977043,-7105.977043,689.485948
1381.072409,7550.100608,-7550.100608,2298.286494
1381.072738,7920.203579,-6883.915261,1915.238745
1381.073067,6883.915261,-5773.606348,2374.896044
1381.073396,7105.977043,-4293.194464,1149.143247
1381.073725,7328.038826,-5699.585753,1378.971896
1381.074054,7031.956449,-5773.606348,2374.896044
1381.074383,7328.038826,-5107.421000,1532.190996
1381.074712,7550.100608,-5329.482782,2068.457845
1381.075041,8438.347739,-5181.441594,2681.334243
1381.075370,8068.244768,-6217.729913,2374.896044
1381.075699,7031.956449,-6735.874072,1608.800546
1381.076028,5773.606348,-7031.956449,459.657299
1381.076357,4811.338623,-7846.182985,76.609550
1381.076686,5329.482782,-9474.636058,536.266849
1381.077015,6365.771101,-9178.553681,1915.238745
1381.077344,6661.853478,-7031.956449,1455.581446
1381.077674,6439.791695,-6217.729913,1149.143247
1381.078003,6513.812290,-4959.379811,1149.143247
1381.078332,7254.018232,-4885.359217,1532.190996
1381.078661,7772.162391,-5477.523971,1455.581446
1381.078990,6143.709319,-4811.338623,2451.505594
1381.079319,6439.791695,-6513.812290,1991.848295
1381.079648,6513.812290,-6365.771101,1072.533697
1381.079977,6143.709319,-7105.977043,842.705048
1381.080306,6439.791695,-8142.265362,1915.238745
1381.080635,7179.997637,-7328.038826,995.924147
1381.080964,7179.997637,-7402.059420,1532.190996
1381.081293,8142.265362,-5921.647536,1455.581446
1381.081622,8586.388927,-5995.668130,766.095498
1381.081951,7402.059420,-7179.997637,1072.533697
1381.082280,6661.853478,-6661.853478,1072.533697
1381.082609,6809.894666,-6809.894666,612.876398
1381.082938,7031.956449,-6587.832884,306.438199
1381.083267,6809.894666,-6587.832884,306.438199
1381.083596,7550.100608,-7254.018232,1149.143247
1381.083925,7920.203579,-6883.915261,1225.752797
1381.084254,7550.100608,-5773.606348,1149.143247
1381.084584,7994.224174,-5107.421000,612.876398
1381.084913,8586.388927,-5995.668130,1072.533697
1381.085242,6883.915261,-7031.956449,1149.143247
1381.085571,5773.606348,-7994.224174,0.000000
1381.085900,5773.606348,-7920.203579,536.266849
1381.086229,6513.812290,-7624.121203,229.828649
1381.086558,7105.977043,-8068.244768,1225.752797
1381.086887,6957.935855,-7254.018232,1762.019645
1381.087216,7105.977043,-7105.977043,1302.362347
1381.087545,7550.100608,-4885.359217,766.095498
1381.087874,7105.977043,-4145.153275,0.000000
1381.088203,6365.771101,-4293.194464,153.219100
1381.088532,6809.894666,-4441.235652,766.095498
1381.088861,6365.771101,-6069.688724,995.924147
1381.089190,7254.018232,-6513.812290,1149.143247
1381.089519,7179.997637,-6957.935855,1455.581446
1381.089848,7402.059420,-7624.121203,1072.533697
1381.090177,6957.935855,-7254.018232,919.314598
1381.090506,6365.771101,-6957.935855,536.266849
1381.090835,6513.812290,-5847.626942,-153.219100
1381.091165,6587.832884,-6069.688724,-612.876398
1381.091494,6365.771101,-7031.956449,1149.143247
1381.091823,6587.832884,-7402.059420,1302.362347
1381.092152,7328.038826,-8216.285956,1455.581446
1381.092481,6661.853478,-7105.977043,2068.457845
1381.092810,6439.791695,-7254.018232,919.314598
1381.093139,6217.729913,-6809.894666,1378.971896
1381.093468,6661.853478,-5921.647536,1149.143247
1381.093797,7254.018232,-5773.606348,459.657299
1381.094126,8142.265362,-5255.462188,612.876398
1381.094455,8216.285956,-5995.668130,919.314598
1381.094784,6735.874072,-5995.668130,229.828649
1381.095113,6217.729913,-7772.162391,842.705048
1381.095442,6513.812290,-8290.306550,612.876398
1381.095771,7624.121203,-7179.997637,229.828649
1381.096100,7846.182985,-8364.327145,919.314598
1381.096429,7624.121203,-8216.285956,1608.800546
1381.096758,6957.935855,-6735.874072,689.485948
1381.097087,7550.100608,-5551.544565,536.266849
1381.097416,7772.162391,-4145.153275,76.609550
1381.097746,7846.182985,-4885.359217,1225.752797
1381.098075,7328.038826,-6735.874072,1838.629195
1381.098404,6587.832884,-6883.915261,2221.676944
1381.098733,6735.874072,-7254.018232,2145.067394
1381.099062,6809.894666,-6661.853478,1378.971896
1381.099391,6365.771101,-7105.977043,1532.190996
1381.099720,6069.688724,-6587.832884,1762.019645
1381.100049,6439.791695,-5699.585753,536.266849
1381.100378,6957.935855,-5107.421000,689.485948
1381.100707,7254.018232,-4885.359217,689.485948
1381.101036,6661.853478,-5921.647536,919.314598
1381.101365,6513.812290,-7698.141797,1532.190996
1381.101694,6365.771101,-7846.182985,1378.971896
1381.102023,6439.791695,-6587.832884,689.485948
1381.102352,7476.080014,-6883.915261,1685.410096
1381.102681,7846.182985,-7105.977043,1685.410096
1381.103010,7328.038826,-6513.812290,1378.971896
1381.103339,6661.853478,-4589.276840,612.876398
1381.103668,7105.977043,-3775.050304,76.609550
1381.103997,7328.038826,-6069.688724,1532.190996
1381.104327,6957.935855,-6883.915261,2298.286494
1381.104656,6883.915261,-7476.080014,1838.629195
1381.104985,6439.791695,-6809.894666,2068.457845
1381.105314,5921.647536,-6809.894666,842.705048
1381.105643,5625.565159,-8586.388927,1532.190996
1381.105972,6439.791695,-7698.141797,1685.410096
1381.106301,6513.812290,-6217.729913,1532.190996
1381.106630,7179.997637,-5403.503377,383.047749
1381.106959,7328.038826,-4959.379811,1302.362347
1381.107288,7402.059420,-6735.874072,1455.581446
1381.107617,6513.812290,-7624.121203,1685.410096
1381.107946,6143.709319,-5847.626942,919.314598
1381.108275,6217.729913,-7105.977043,0.000000
1381.108604,6143.709319,-6735.874072,0.000000
1381.108933,6957.935855,-7328.038826,995.924147
1381.109262,7920.203579,-6661.853478,766.095498
1381.109591,8290.306550,-5329.482782,229.828649
1381.109920,7994.224174,-5995.668130,766.095498
1381.110249,8068.244768,-6439.791695,459.657299
1381.110578,7031.956449,-8068.244768,1225.752797
1381.110908,5995.668130,-7846.182985,1149.143247
1381.111237,6735.874072,-7698.141797,766.095498
1381.111566,7402.059420,-7179.997637,2604.724693
1381.111895,7994.224174,-7402.059420,2451.505594
1381.112224,7254.018232,-6291.750507,1991.848295
1381.112553,5921.647536,-4293.194464,0.000000
1381.112882,5995.668130,-3256.906145,-919.314598
1381.113211,7105.977043,-4663.297435,0.000000
1381.113540,7698.141797,-6143.709319,1685.410096
1381.113869,7179.997637,-6069.688724,1378.971896
1381.114198,6735.874072,-8068.244768,766.095498
1381.114527,6439.791695,-8068.244768,995.924147
1381.114856,7105.977043,-8290.306550,536.266849
1381.115185,7254.018232,-8882.471304,1149.143247
1381.115514,6439.791695,-7179.997637,76.609550
1381.115843,6291.750507,-5699.585753,-766.095498
1381.116172,7031.956449,-5699.585753,0.000000
1381.116501,8290.306550,-5625.565159,536.266849
1381.116830,7698.141797,-6143.709319,1455.581446
1381.117159,6587.832884,-6217.729913,1608.800546
1381.117488,6069.688724,-7476.080014,1302.362347
1381.117818,6735.874072,-7105.977043,1608.800546
1381.118147,7105.977043,-7105.977043,842.705048
1381.118476,7105.977043,-7179.997637,1991.848295
1381.118805,6661.853478,-5477.523971,1378.971896
1381.119134,6587.832884,-4811.338623,76.609550
1381.119463,7105.977043,-5255.462188,229.828649
1381.119792,7624.121203,-4959.379811,689.485948
1381.120121,6957.935855,-7105.977043,995.924147
1381.120450,5699.585753,-7846.182985,689.485948
1381.120779,6291.750507,-7846.182985,919.314598
1381.121108,7402.059420,-7105.977043,842.705048
1381.121437,8142.265362,-7846.182985,1762.019645
1381.121766,6957.935855,-7105.977043,1072.533697
1381.122095,6513.812290,-6291.750507,0.000000
1381.122424,6513.812290,-5107.421000,-536.266849
1381.122753,7698.141797,-5699.585753,76.609550
1381.123082,8290.306550,-7179.997637,1532.190996
1381.123411,7846.182985,-6513.812290,1991.848295
1381.123740,7031.956449,-7772.162391,1532.190996
1381.124069,6809.894666,-6883.915261,919.314598
1381.124399,6957.935855,-7105.977043,1532.190996
1381.124728,6883.915261,-7846.182985,1378.971896
1381.125057,6513.812290,-6291.750507,1302.362347
1381.125386,6365.771101,-5107.421000,689.485948
1381.125715,7476.080014,-4293.194464,306.438199
1381.126044,8142.265362,-4441.235652,1685.410096
1381.126373,7550.100608,-6291.750507,1608.800546
1381.126702,7105.977043,-7031.956449,1302.362347
1381.127031,6661.853478,-7550.100608,1991.848295
1381.127360,7254.018232,-6291.750507,536.266849
1381.127689,7031.956449,-7698.141797,842.705048
1381.128018,6587.832884,-7698.141797,1455.581446
1381.128347,6735.874072,-5921.647536,153.219100
1381.128676,6883.915261,-6291.750507,306.438199
1381.129005,7624.121203,-5477.523971,766.095498
1381.129334,8068.244768,-6365.771101,1302.362347
1381.129663,7328.038826,-6957.935855,1302.362347
1381.129992,5625.565159,-6957.935855,1302.362347
1381.130321,5699.585753,-7031.956449,995.924147
1381.130650,7179.997637,-6957.935855,1608.800546
1381.130980,6587.832884,-7254.018232,1838.629195
1381.131309,6957.935855,-6883.915261,1838.629195
1381.131638,6735.874072,-6143.709319,1378.971896
1381.131967,7105.977043,-5107.421000,1149.143247
1381.132296,7698.141797,-4885.359217,995.924147
1381.132625,7994.224174,-5329.482782,1378.971896
1381.132954,7105.977043,-6661.853478,1455.581446
1381.133283,6587.832884,-6735.874072,1149.143247
1381.133612,6883.915261,-7105.977043,229.828649
1381.133941,7624.121203,-7476.080014,995.924147
1381.134270,7328.038826,-8512.368333,1302.362347
1381.134599,6365.771101,-7179.997637,612.876398
1381.134928,6069.688724,-6513.812290,1149.143247
1381.135257,6439.791695,-4589.276840,0.000000
1381.135586,7254.018232,-4959.379811,536.266849
1381.135915,7179.997637,-7402.059420,1685.410096
1381.136244,7105.977043,-6661.853478,2221.676944
1381.136573,6809.894666,-7476.080014,1838.629195
1381.136902,7179.997637,-7105.977043,2145.067394
1381.137231,7105.977043,-6587.832884,1608.800546
1381.137561,6587.832884,-7476.080014,689.485948
1381.137890,5995.668130,-6069.688724,536.266849
1381.138219,6217.729913,-4219.173869,-229.828649
1381.138548,7624.121203,-3701.029710,-689.485948
1381.138877,7920.203579,-5921.647536,995.924147
1381.139206,7994.224174,-7772.162391,2221.676944
1381.139535,7328.038826,-7476.080014,1762.019645
1381.139864,6587.832884,-7402.059420,1149.143247
1381.140193,6809.894666,-7402.059420,459.657299
1381.140522,7550.100608,-7550.100608,842.705048
1381.140851,7105.977043,-7179.997637,1455.581446
1381.141180,6957.935855,-6143.709319,-306.438199
1381.141509,7550.100608,-4663.297435,0.000000
1381.141838,7772.162391,-5033.400406,306.438199
1381.142167,7402.059420,-6883.915261,1455.581446
1381.142496,7476.080014,-6957.935855,2374.896044
1381.142825,7031.956449,-7402.059420,2451.505594
1381.143154,6587.832884,-7476.080014,919.314598
1381.143483,6291.750507,-7402.059420,1225.752797
1381.143812,5847.626942,-7402.059420,995.924147
1381.144142,5847.626942,-6217.729913,0.000000
1381.144471,5329.482782,-5107.421000,0.000000
1381.144800,7105.977043,-5033.400406,76.609550
1381.145129,7994.224174,-5995.668130,842.705048
1381.145458,7846.182985,-6587.832884,2221.676944
1381.145787,7550.100608,-8290.306550,1685.410096
1381.146116,7402.059420,-7328.038826,1302.362347
1381.146445,7105.977043,-7550.100608,1149.143247
1381.146774,6957.935855,-7105.977043,995.924147
1381.147103,6809.894666,-5699.585753,1072.533697
1381.147432,6809.894666,-5329.482782,-306.438199
1381.147762,6735.874072,-5033.400406,0.000000
1381.148091,7698.141797,-3849.070898,995.924147
1381.148420,8290.306550,-5847.626942,995.924147
1381.148749,7698.141797,-6883.915261,1762.019645
1381.149078,6735.874072,-7698.141797,1762.019645
1381.149407,6513.812290,-8068.244768,995.924147
1381.149736,6587.832884,-7846.182985,1072.533697
1381.150066,6143.709319,-8216.285956,1072.533697
1381.150395,6809.894666,-5773.606348,919.314598
1381.150724,6143.709319,-5329.482782,536.266849
1381.151053,7328.038826,-4589.276840,995.924147
1381.151382,7550.100608,-5625.565159,1225.752797
1381.151711,7402.059420,-5107.421000,2145.067394
1381.152040,6735.874072,-6735.874072,1455.581446
1381.152370,6513.812290,-8290.306550,1685.410096
1381.152699,6957.935855,-6735.874072,919.314598
1381.153028,7624.121203,-7254.018232,0.000000
1381.153357,7031.956449,-7624.121203,536.266849
1381.153686,6513.812290,-7105.977043,153.219100
1381.154015,6809.894666,-6439.791695,-459.657299
1381.154344,7402.059420,-5847.626942,306.438199
1381.154674,7994.224174,-5995.668130,1149.143247
1381.155003,7920.203579,-7105.977043,1915.238745
1381.155332,7031.956449,-7698.141797,2298.286494
1381.155661,6661.853478,-7476.080014,1838.629195
1381.155990,6957.935855,-6661.853478,1762.019645
1381.156319,6291.750507,-6513.812290,1762.019645
1381.156648,6439.791695,-6957.935855,1072.533697
1381.156978,5773.606348,-5699.585753,1302.362347
1381.157307,6661.853478,-4441.235652,306.438199
1381.157636,7624.121203,-4515.256246,919.314598
1381.157965,7994.224174,-6291.750507,1378.971896
1381.158294,7254.018232,-7179.997637,1762.019645
1381.158623,6143.709319,-7550.100608,995.924147
1381.158952,6143.709319,-8290.306550,766.095498
1381.159282,6809.894666,-7772.162391,612.876398
1381.159611,6291.750507,-8216.285956,612.876398
1381.159940,6143.709319,-7105.977043,766.095498
1381.160269,5921.647536,-5107.421000,0.000000
1381.160598,7105.977043,-5033.400406,459.657299
1381.160927,8512.368333,-5107.421000,1225.752797
1381.161256,7772.162391,-6217.729913,1991.848295
1381.161586,7920.203579,-6957.935855,2451.505594
1381.161915,7105.977043,-6291.750507,1915.238745
1381.162244,7550.100608,-6069.688724,1762.019645
1381.162573,7920.203579,-6735.874072,2145.067394
1381.162902,7772.162391,-7105.977043,2145.067394
1381.163231,6735.874072,-5403.503377,536.266849
1381.163560,6291.750507,-5329.482782,0.000000
1381.163890,6587.832884,-3775.050304,0.000000
1381.164219,7031.956449,-5773.606348,0.000000
1381.164548,6883.915261,-7624.121203,1532.190996
1381.164877,7105.977043,-8142.265362,1915.238745
1381.165206,7179.997637,-8882.471304,1532.190996
1381.165535,7031.956449,-7031.956449,1685.410096
1381.165864,6957.935855,-7624.121203,1072.533697
1381.166194,6661.853478,-7550.100608,229.828649
1381.166523,6439.791695,-5551.544565,76.609550
1381.166852,6291.750507,-5033.400406,-689.485948
1381.167181,7698.141797,-4737.318029,0.000000
1381.167510,8216.285956,-6143.709319,1225.752797
1381.167839,7772.162391,-7846.182985,2374.896044
1381.168168,6957.935855,-8586.388927,2451.505594
1381.168498,6513.812290,-7402.059420,1149.143247
1381.168827,6069.688724,-6809.894666,229.828649
1381.169156,5995.668130,-7105.977043,383.047749
1381.169485,6217.729913,-6735.874072,919.314598
1381.169814,6365.771101,-5921.647536,306.438199
1381.170143,6735.874072,-5107.421000,383.047749
1381.170472,8216.285956,-5107.421000,1302.362347
1381.170802,7920.203579,-6513.812290,1838.629195
1381.171131,6883.915261,-6883.915261,2145.067394
1381.171460,6143.709319,-7920.203579,2374.896044
1381.171789,6809.894666,-6735.874072,612.876398
1381.172118,7105.977043,-7105.977043,689.485948
1381.172447,6735.874072,-7105.977043,1455.581446
1381.172776,6365.771101,-6069.688724,-76.609550
1381.173106,5995.668130,-6069.688724,-612.876398
1381.173435,5995.668130,-5921.647536,-229.828649
1381.173764,6661.853478,-5995.668130,153.219100
1381.174093,7254.018232,-7328.038826,1149.143247
1381.174422,7254.018232,-7920.203579,2374.896044
1381.174751,7698.141797,-8586.388927,2451.505594
1381.175080,7624.121203,-7402.059420,1532.190996
1381.175410,6957.935855,-7105.977043,1225.752797
1381.175739,6735.874072,-5329.482782,766.095498
1381.176068,6661.853478,-5181.441594,919.314598
1381.176397,7254.018232,-4589.276840,766.095498
1381.176726,8142.265362,-3552.988522,459.657299
1381.177055,7920.203579,-5329.482782,1149.143247
1381.177384,7550.100608,-6217.729913,1455.581446
1381.177714,6661.853478,-7772.162391,1838.629195
1381.178043,6809.894666,-8290.306550,1072.533697
1381.178372,6587.832884,-7179.997637,536.266849
1381.178701,6587.832884,-7772.162391,0.000000
1381.179030,7105.977043,-7846.182985,1225.752797
1381.179359,6735.874072,-6217.729913,612.876398
1381.179688,7328.038826,-6069.688724,766.095498
1381.180018,7624.121203,-5551.544565,766.095498
1381.180347,7402.059420,-6069.688724,2374.896044
1381.180676,7105.977043,-7105.977043,2145.067394
1381.181005,6957.935855,-6883.915261,1915.238745
1381.181334,6735.874072,-6439.791695,1838.629195
1381.181663,6513.812290,-6809.894666,995.924147
1381.181992,6513.812290,-6883.915261,1302.362347
1381.182322,5699.585753,-5995.668130,689.485948
1381.182651,6143.709319,-5699.585753,459.657299
1381.182980,7698.141797,-5699.585753,612.876398
1381.183309,7920.203579,-6365.771101,459.657299
1381.183638,7476.080014,-7624.121203,2298.286494
1381.183967,6957.935855,-8068.244768,1455.581446
1381.184296,6217.729913,-7772.162391,919.314598
1381.184626,5995.668130,-6883.915261,1072.533697
1381.184955,7105.977043,-7105.977043,1149.143247
1381.185284,7105.977043,-6439.791695,1532.190996
1381.185613,6661.853478,-6143.709319,1302.362347
1381.185942,6809.894666,-4885.359217,766.095498
1381.186271,7105.977043,-4441.235652,459.657299
1381.186600,6883.915261,-5995.668130,1685.410096
1381.186930,7105.977043,-7402.059420,1762.019645
1381.187259,7031.956449,-9104.533087,1991.848295
1381.187588,6661.853478,-7179.997637,1378.971896
1381.187917,5921.647536,-7402.059420,1149.143247
1381.188246,6439.791695,-8216.285956,1455.581446
1381.188575,6513.812290,-7105.977043,1838.629195
1381.188904,6661.853478,-6291.750507,383.047749
1381.189234,7105.977043,-5255.462188,536.266849
1381.189563,7698.141797,-4737.318029,612.876398
1381.189892,8142.265362,-4663.297435,612.876398
1381.190221,6513.812290,-6661.853478,1302.362347
