#time,accel_x,accel_y,accel_z
1392.592790,6809.894666,-7105.977043,1225.752797
1392.593120,6439.791695,-6735.874072,995.924147
1392.593450,6809.894666,-6735.874072,1455.581446
1392.593781,6883.915261,-6587.832884,919.314598
1392.594111,6735.874072,-6809.894666,766.095498
1392.594441,6883.915261,-6439.791695,689.485948
1392.594771,7254.018232,-6661.853478,536.266849
1392.595102,7179.997637,-6735.874072,1225.752797
1392.595432,7179.997637,-6217.729913,842.705048
1392.595762,7105.977043,-6439.791695,1225.752797
1392.596092,6957.935855,-5995.668130,766.095498
1392.596422,7105.977043,-6587.832884,1225.752797
1392.596753,7105.977043,-6217.729913,995.924147
1392.597083,7105.977043,-5921.647536,1149.143247
1392.597413,7476.080014,-6365.771101,1225.752797
1392.597743,7328.038826,-6069.688724,1608.800546
1392.598073,7031.956449,-6513.812290,1378.971896
1392.598404,7476.080014,-5773.606348,919.314598
1392.598734,7328.038826,-5995.668130,919.314598
1392.599064,6883.915261,-6291.750507,919.314598
1392.599394,7031.956449,-6439.791695,689.485948
1392.599725,6809.894666,-6735.874072,995.924147
1392.600055,6735.874072,-6513.812290,1225.752797
1392.600385,6809.894666,-6587.832884,919.314598
1392.600715,6291.750507,-6957.935855,1455.581446
1392.601045,6661.853478,-6957.935855,612.876398
1392.601376,7031.956449,-7105.977043,612.876398
1392.601706,6809.894666,-6809.894666,842.705048
1392.602036,6735.874072,-7031.956449,1378.971896
1392.602366,7254.018232,-6291.750507,842.705048
1392.602696,7105.977043,-6513.812290,1225.752797
1392.603027,7105.977043,-6809.894666,995.924147
1392.603357,7105.977043,-6291.750507,995.924147
1392.603687,7328.038826,-6439.791695,689.485948
1392.604017,7031.956449,-6957.935855,612.876398
1392.604348,6957.935855,-6809.894666,919.314598
1392.604678,7179.997637,-6439.791695,919.314598
1392.605008,7105.977043,-6439.791695,1072.533697
1392.605338,7254.018232,-6069.688724,1532.190996
1392.605668,7105.977043,-6439.791695,919.314598
1392.605999,7031.956449,-6365.771101,1225.752797
1392.606329,6957.935855,-6365.771101,1149.143247
1392.606659,6661.853478,-6365.771101,689.485948
1392.606989,6957.935855,-6661.853478,919.314598
1392.607319,6883.915261,-6809.894666,1072.533697
1392.607650,6735.874072,-6883.915261,842.705048
1392.607980,6661.853478,-6957.935855,842.705048
1392.608310,6661.853478,-7031.956449,1072.533697
1392.608640,6735.874072,-6957.935855,995.924147
1392.608971,6735.874072,-6809.894666,766.095498
1392.609301,6809.894666,-6661.853478,1149.143247
1392.609631,7105.977043,-6661.853478,1149.143247
1392.609961,7402.059420,-5995.668130,1225.752797
1392.610291,7402.059420,-6217.729913,1149.143247
1392.610622,7254.018232,-6291.750507,919.314598
1392.610952,7105.977043,-6513.812290,1072.533697
1392.611282,7254.018232,-6513.812290,1302.362347
1392.611612,7105.977043,-6809.894666,689.485948
1392.611942,7476.080014,-6291.750507,995.924147
1392.612273,7105.977043,-6439.791695,536.266849
1392.612603,7031.956449,-6513.812290,1302.362347
1392.612933,6883.915261,-5773.606348,919.314598
1392.613263,6809.894666,-6291.750507,1149.143247
1392.613594,6957.935855,-6069.688724,1455.581446
1392.613924,6883.915261,-6291.750507,766.095498
1392.614254,6217.729913,-5995.668130,995.924147
1392.614584,6587.832884,-6661.853478,1685.410096
1392.614914,6957.935855,-6661.853478,995.924147
1392.615245,6957.935855,-6883.915261,919.314598
1392.615575,6587.832884,-6883.915261,1455.581446
1392.615905,7105.977043,-7031.956449,612.876398
1392.616235,6809.894666,-7105.977043,612.876398
1392.616565,6439.791695,-6661.853478,1302.362347
1392.616896,6957.935855,-6883.915261,919.314598
1392.617226,6957.935855,-6809.894666,1149.143247
1392.617556,7105.977043,-6587.832884,995.924147
1392.617886,6883.915261,-6365.771101,689.485948
1392.618217,7105.977043,-6587.832884,919.314598
1392.618547,7031.956449,-6365.771101,842.705048
1392.618877,7105.977043,-6439.791695,1685.410096
1392.619207,7254.018232,-6069.688724,995.924147
1392.619537,7254.018232,-6513.812290,919.314598
1392.619868,7179.997637,-6439.791695,1302.362347
1392.620198,7105.977043,-6661.853478,1072.533697
1392.620528,7402.059420,-6291.750507,536.266849
1392.620858,7328.038826,-6735.874072,1302.362347
1392.621188,6661.853478,-6365.771101,1072.533697
1392.621519,6883.915261,-6439.791695,1149.143247
1392.621849,7031.956449,-6439.791695,1302.362347
1392.622179,7179.997637,-6587.832884,1302.362347
1392.622509,6809.894666,-6513.812290,536.266849
1392.622840,6439.791695,-7105.977043,1149.143247
1392.623170,6661.853478,-6809.894666,1072.533697
1392.623500,7105.977043,-6661.853478,689.485948
1392.623830,6809.894666,-6883.915261,1072.533697
1392.624160,6809.894666,-7328.038826,919.314598
1392.624491,7698.141797,-6809.894666,1225.752797
1392.624821,7328.038826,-6217.729913,1838.629195
1392.625151,7105.977043,-6365.771101,1072.533697
1392.625481,7402.059420,-6291.750507,1072.533697
1392.625812,7105.977043,-6587.832884,995.924147
1392.626142,7105.977043,-6291.750507,919.314598
1392.626472,7254.018232,-5699.585753,1149.143247
1392.626802,7328.038826,-6069.688724,1072.533697
1392.627132,7179.997637,-6217.729913,1149.143247
1392.627463,6957.935855,-6365.771101,1302.362347
1392.627793,6957.935855,-6809.894666,1225.752797
1392.628123,7550.100608,-6661.853478,1149.143247
1392.628453,6809.894666,-6661.853478,1225.752797
1392.628783,6661.853478,-6661.853478,995.924147
1392.629114,6809.894666,-6809.894666,1149.143247
1392.629444,6957.935855,-6513.812290,1072.533697
1392.629774,6661.853478,-6735.874072,919.314598
1392.630104,6661.853478,-6735.874072,1225.752797
1392.630435,6735.874072,-6439.791695,1302.362347
1392.630765,7105.977043,-7105.977043,995.924147
1392.631095,6735.874072,-6735.874072,1378.971896
1392.631425,6513.812290,-7179.997637,919.314598
1392.631755,6735.874072,-7031.956449,842.705048
1392.632086,7105.977043,-6439.791695,1225.752797
1392.632416,7105.977043,-6957.935855,1302.362347
1392.632746,7254.018232,-6735.874072,1302.362347
1392.633076,7179.997637,-6735.874072,1149.143247
1392.633406,6957.935855,-6809.894666,919.314598
1392.633737,6883.915261,-6513.812290,842.705048
1392.634067,7550.100608,-5921.647536,919.314598
1392.634397,7179.997637,-6661.853478,1149.143247
1392.634727,7105.977043,-6217.729913,1302.362347
1392.635058,7031.956449,-5921.647536,995.924147
1392.635388,6809.894666,-6661.853478,689.485948
1392.635718,6735.874072,-6883.915261,689.485948
1392.636048,6513.812290,-6513.812290,766.095498
1392.636378,6735.874072,-6809.894666,995.924147
1392.636709,6957.935855,-6735.874072,1225.752797
1392.637039,7402.059420,-6143.709319,1532.190996
1392.637369,7105.977043,-6661.853478,842.705048
1392.637699,6883.915261,-6661.853478,919.314598
1392.638029,7031.956449,-6735.874072,1072.533697
1392.638360,6735.874072,-6809.894666,995.924147
1392.638690,6365.771101,-6587.832884,1532.190996
1392.639020,6809.894666,-6587.832884,995.924147
1392.639350,7179.997637,-6439.791695,1072.533697
1392.639681,7105.977043,-6365.771101,995.924147
1392.640011,7179.997637,-6365.771101,689.485948
1392.640341,7402.059420,-6365.771101,995.924147
1392.640671,7328.038826,-6291.750507,995.924147
1392.641001,7105.977043,-6143.709319,1378.971896
1392.641332,7550.100608,-6143.709319,919.314598
1392.641662,7550.100608,-5921.647536,995.924147
1392.641992,7105.977043,-6513.812290,1378.971896
1392.642322,6809.894666,-6365.771101,1302.362347
1392.642652,7105.977043,-6217.729913,919.314598
1392.642983,6883.915261,-6439.791695,1072.533697
1392.643313,7105.977043,-6365.771101,1302.362347
1392.643643,6439.791695,-6587.832884,1149.143247
1392.643973,6957.935855,-6883.915261,1225.752797
1392.644304,6735.874072,-6809.894666,1302.362347
1392.644634,6513.812290,-6365.771101,689.485948
1392.644964,6513.812290,-7031.956449,1378.971896
1392.645294,6809.894666,-7179.997637,995.924147
1392.645624,6883.915261,-7105.977043,1072.533697
1392.645955,6513.812290,-7031.956449,842.705048
1392.646285,6735.874072,-7031.956449,1608.800546
1392.646615,6809.894666,-7031.956449,1302.362347
1392.646945,6957.935855,-6439.791695,1072.533697
1392.647275,6957.935855,-6735.874072,766.095498
1392.647606,7031.956449,-6291.750507,766.095498
1392.647936,7328.038826,-6513.812290,1455.581446
1392.648266,7105.977043,-6439.791695,995.924147
1392.648596,7254.018232,-6439.791695,1072.533697
1392.648927,7402.059420,-6365.771101,1378.971896
1392.649257,7105.977043,-6143.709319,1378.971896
1392.649587,7105.977043,-6513.812290,1302.362347
1392.649917,6957.935855,-6513.812290,919.314598
1392.650247,6883.915261,-6587.832884,842.705048
1392.650578,6143.709319,-6439.791695,689.485948
1392.650908,7105.977043,-6365.771101,306.438199
1392.651238,6957.935855,-6439.791695,995.924147
1392.651568,7179.997637,-6587.832884,1072.533697
1392.651898,6883.915261,-6587.832884,919.314598
1392.652229,7105.977043,-6217.729913,995.924147
1392.652559,7031.956449,-7105.977043,1455.581446
1392.652889,7105.977043,-6883.915261,919.314598
1392.653219,6957.935855,-6513.812290,842.705048
1392.653550,7031.956449,-7105.977043,1072.533697
1392.653880,7105.977043,-6883.915261,1302.362347
1392.654210,7179.997637,-6439.791695,1302.362347
1392.654540,7105.977043,-6957.935855,306.438199
1392.654870,7254.018232,-6365.771101,1225.752797
1392.655201,6957.935855,-6439.791695,1072.533697
1392.655531,7105.977043,-6143.709319,919.314598
1392.655861,6883.915261,-6365.771101,1072.533697
1392.656191,7179.997637,-5699.585753,919.314598
1392.656521,7105.977043,-6439.791695,1225.752797
1392.656852,7328.038826,-6291.750507,1072.533697
1392.657182,7105.977043,-6217.729913,1302.362347
1392.657512,6809.894666,-6513.812290,1225.752797
1392.657842,6661.853478,-6513.812290,919.314598
1392.658173,6735.874072,-6883.915261,995.924147
1392.658503,7031.956449,-6957.935855,383.047749
1392.658833,6735.874072,-7105.977043,1302.362347
1392.659163,6587.832884,-6735.874072,1149.143247
1392.659493,6661.853478,-6587.832884,1072.533697
1392.659824,7105.977043,-6661.853478,1225.752797
1392.660154,6587.832884,-6439.791695,995.924147
1392.660484,6513.812290,-6735.874072,919.314598
1392.660814,6217.729913,-6883.915261,919.314598
1392.661145,6809.894666,-7031.956449,1149.143247
1392.661475,7105.977043,-6957.935855,1149.143247
1392.661805,7105.977043,-6661.853478,995.924147
1392.662135,6957.935855,-6735.874072,612.876398
1392.662465,7105.977043,-6957.935855,1225.752797
1392.662795,7624.121203,-6513.812290,1149.143247
1392.663125,7105.977043,-6587.832884,919.314598
1392.663454,7105.977043,-6143.709319,842.705048
1392.663784,7105.977043,-6513.812290,919.314598
1392.664113,7031.956449,-6291.750507,1072.533697
1392.664443,6513.812290,-5995.668130,1685.410096
1392.664772,6957.935855,-6291.750507,842.705048
1392.665102,7179.997637,-6291.750507,1072.533697
1392.665432,6883.915261,-6587.832884,1072.533697
1392.665761,6883.915261,-6587.832884,612.876398
1392.666091,7105.977043,-6735.874072,919.314598
1392.666420,7031.956449,-6661.853478,1225.752797
1392.666750,7105.977043,-6661.853478,766.095498
1392.667079,6883.915261,-6809.894666,1455.581446
1392.667409,6439.791695,-6735.874072,1608.800546
1392.667739,7328.038826,-6809.894666,919.314598
1392.668068,6661.853478,-6587.832884,689.485948
1392.668398,6587.832884,-6883.915261,995.924147
1392.668727,7328.038826,-6217.729913,689.485948
1392.669057,7624.121203,-5699.585753,1378.971896
1392.669386,7254.018232,-6291.750507,919.314598
1392.669716,7328.038826,-6143.709319,842.705048
1392.670046,7254.018232,-6735.874072,1149.143247
1392.670375,7105.977043,-6439.791695,842.705048
1392.670705,7550.100608,-6069.688724,1302.362347
1392.671034,7772.162391,-5995.668130,919.314598
1392.671364,7402.059420,-6439.791695,1149.143247
1392.671693,6957.935855,-6439.791695,766.095498
1392.672023,7105.977043,-6439.791695,612.876398
1392.672353,6957.935855,-6513.812290,919.314598
1392.672682,6661.853478,-6587.832884,1072.533697
1392.673012,6587.832884,-6661.853478,919.314598
1392.673341,6809.894666,-6661.853478,995.924147
1392.673671,7031.956449,-6661.853478,1225.752797
1392.674000,6735.874072,-6735.874072,1225.752797
1392.674330,6735.874072,-6809.894666,995.924147
1392.674660,6291.750507,-7105.977043,1378.971896
1392.674989,6957.935855,-6957.935855,1225.752797
1392.675319,6439.791695,-6661.853478,919.314598
1392.675648,6587.832884,-7105.977043,1149.143247
1392.675978,7105.977043,-7031.956449,1225.752797
1392.676307,7105.977043,-6365.771101,1149.143247
1392.676637,6957.935855,-6439.791695,1225.752797
1392.676967,6513.812290,-6587.832884,1072.533697
1392.677296,7105.977043,-6661.853478,1149.143247
1392.677626,6957.935855,-6883.915261,1302.362347
1392.677955,6587.832884,-6735.874072,1378.971896
1392.678285,7031.956449,-6069.688724,1302.362347
1392.678614,7105.977043,-6735.874072,995.924147
1392.678944,7105.977043,-6365.771101,1378.971896
1392.679274,7105.977043,-6069.688724,919.314598
1392.679603,7328.038826,-6069.688724,1302.362347
1392.679933,6883.915261,-6365.771101,1225.752797
1392.680262,6809.894666,-6365.771101,919.314598
1392.680592,6809.894666,-6661.853478,842.705048
1392.680921,6735.874072,-6661.853478,842.705048
1392.681251,6957.935855,-6513.812290,919.314598
1392.681581,6957.935855,-6735.874072,995.924147
1392.681910,6883.915261,-6661.853478,1225.752797
1392.682240,7105.977043,-6661.853478,689.485948
1392.682569,6735.874072,-6661.853478,1072.533697
1392.682899,6809.894666,-6587.832884,1225.752797
1392.683228,7105.977043,-6809.894666,612.876398
1392.683558,7105.977043,-6661.853478,1072.533697
1392.683888,7328.038826,-6513.812290,1149.143247
1392.684217,7402.059420,-6513.812290,1378.971896
1392.684547,7550.100608,-6439.791695,612.876398
1392.684876,7105.977043,-6735.874072,1072.533697
1392.685206,7105.977043,-6661.853478,995.924147
1392.685535,7105.977043,-5995.668130,1378.971896
1392.685865,7328.038826,-6291.750507,612.876398
1392.686195,7254.018232,-6143.709319,1072.533697
1392.686524,7031.956449,-6661.853478,1072.533697
1392.686854,7105.977043,-6143.709319,919.314598
1392.687183,6661.853478,-6069.688724,842.705048
1392.687513,6809.894666,-6439.791695,1149.143247
1392.687842,6661.853478,-6513.812290,1302.362347
1392.688172,6809.894666,-6809.894666,1225.752797
1392.688502,6809.894666,-7031.956449,1302.362347
1392.688831,6439.791695,-6661.853478,459.657299
1392.689161,6735.874072,-6883.915261,1225.752797
1392.689490,6661.853478,-7105.977043,1072.533697
1392.689820,6513.812290,-6883.915261,766.095498
1392.690149,6957.935855,-6587.832884,995.924147
1392.690479,6735.874072,-6809.894666,1149.143247
1392.690809,7105.977043,-6513.812290,1225.752797
1392.691138,7105.977043,-6143.709319,1225.752797
1392.691468,7254.018232,-6809.894666,1378.971896
1392.691797,7031.956449,-6291.750507,1608.800546
1392.692127,6957.935855,-6661.853478,1225.752797
1392.692457,6883.915261,-6661.853478,995.924147
1392.692786,6883.915261,-6735.874072,1072.533697
1392.693116,6957.935855,-6069.688724,1225.752797
1392.693445,7105.977043,-6513.812290,689.485948
1392.693775,7105.977043,-6365.771101,1072.533697
1392.694104,6883.915261,-6291.750507,919.314598
1392.694434,7031.956449,-6217.729913,1225.752797
1392.694764,6587.832884,-5995.668130,919.314598
1392.695093,6365.771101,-6365.771101,919.314598
1392.695423,6809.894666,-6809.894666,1149.143247
1392.695752,6883.915261,-6587.832884,1302.362347
1392.696082,6957.935855,-6809.894666,919.314598
1392.696411,6365.771101,-6735.874072,1762.019645
1392.696741,6661.853478,-6735.874072,919.314598
1392.697071,6661.853478,-6883.915261,766.095498
1392.697400,6957.935855,-6365.771101,612.876398
1392.697730,6957.935855,-6587.832884,1225.752797
1392.698059,7328.038826,-6513.812290,919.314598
1392.698389,7328.038826,-6143.709319,1225.752797
1392.698718,7328.038826,-6069.688724,995.924147
1392.699048,7105.977043,-6291.750507,536.266849
1392.699378,7328.038826,-6291.750507,1149.143247
1392.699707,7031.956449,-6587.832884,612.876398
1392.700037,7105.977043,-6587.832884,1225.752797
1392.700366,7550.100608,-6069.688724,612.876398
1392.700696,7476.080014,-5995.668130,1608.800546
1392.701025,7328.038826,-6365.771101,1149.143247
1392.701355,7105.977043,-6291.750507,1149.143247
1392.701685,7476.080014,-6291.750507,995.924147
1392.702014,7105.977043,-6439.791695,919.314598
1392.702344,6883.915261,-6291.750507,1378.971896
1392.702673,7031.956449,-6883.915261,1149.143247
1392.703003,6735.874072,-6883.915261,1455.581446
1392.703332,6735.874072,-6735.874072,919.314598
1392.703662,6809.894666,-7105.977043,995.924147
1392.703992,6291.750507,-6513.812290,1149.143247
1392.704321,6513.812290,-6883.915261,689.485948
1392.704651,6365.771101,-6587.832884,919.314598
1392.704980,6735.874072,-7105.977043,995.924147
1392.705310,7031.956449,-7105.977043,306.438199
1392.705639,7105.977043,-6661.853478,1378.971896
1392.705969,7179.997637,-6735.874072,1072.533697
1392.706299,7105.977043,-6735.874072,842.705048
1392.706628,6957.935855,-6957.935855,1608.800546
1392.706958,7105.977043,-7254.018232,1072.533697
1392.707287,6957.935855,-6513.812290,995.924147
1392.707617,7328.038826,-6069.688724,1378.971896
1392.707946,7105.977043,-6439.791695,1149.143247
1392.708276,6513.812290,-6143.709319,1455.581446
1392.708606,6957.935855,-6291.750507,1149.143247
1392.708935,6883.915261,-6217.729913,1072.533697
1392.709265,6809.894666,-6217.729913,919.314598
1392.709594,6661.853478,-5625.565159,1149.143247
1392.709924,7179.997637,-5329.482782,1149.143247
1392.710253,7920.203579,-5625.565159,1225.752797
1392.710583,8142.265362,-5847.626942,1225.752797
1392.710913,7920.203579,-6143.709319,919.314598
1392.711242,6735.874072,-6661.853478,919.314598
1392.711572,5847.626942,-7624.121203,-229.828649
1392.711901,5699.585753,-7476.080014,153.219100
1392.712231,7031.956449,-6809.894666,766.095498
1392.712560,7698.141797,-6883.915261,1225.752797
1392.712890,8364.327145,-5551.544565,1532.190996
1392.713220,8512.368333,-4737.318029,1608.800546
1392.713549,8290.306550,-3997.112087,1225.752797
1392.713879,8142.265362,-4663.297435,1225.752797
1392.714208,8216.285956,-5181.441594,689.485948
1392.714538,8660.409521,-4441.235652,1378.971896
1392.714867,8808.450710,-4663.297435,1072.533697
1392.715197,8734.430116,-4663.297435,459.657299
1392.715527,8216.285956,-5773.606348,612.876398
1392.715856,8734.430116,-4811.338623,842.705048
1392.716186,8808.450710,-5107.421000,919.314598
1392.716515,8660.409521,-5847.626942,919.314598
1392.716845,7994.224174,-5107.421000,689.485948
1392.717174,7550.100608,-5699.585753,383.047749
1392.717504,8068.244768,-5255.462188,1455.581446
1392.717834,8364.327145,-5033.400406,1225.752797
1392.718163,8586.388927,-4219.173869,1149.143247
1392.718493,8660.409521,-4293.194464,1608.800546
1392.718822,9474.636058,-4663.297435,1532.190996
1392.719152,9178.553681,-3552.988522,1225.752797
1392.719481,8956.491898,-3701.029710,1378.971896
1392.719811,9400.615463,-3182.885551,995.924147
1392.720141,9548.656652,-3182.885551,842.705048
1392.720470,9992.780217,-3775.050304,1149.143247
1392.720800,9918.759623,-3775.050304,1072.533697
1392.721129,10066.800811,-4367.215058,1838.629195
1392.721459,9548.656652,-4737.318029,1149.143247
1392.721788,8660.409521,-5403.503377,1072.533697
1392.722118,8512.368333,-5403.503377,536.266849
1392.722448,8142.265362,-5255.462188,689.485948
1392.722777,7698.141797,-5847.626942,1149.143247
1392.723107,8216.285956,-5033.400406,1302.362347
1392.723436,8586.388927,-4515.256246,1608.800546
1392.723766,8808.450710,-3923.091493,689.485948
1392.724096,8290.306550,-4367.215058,689.485948
1392.724425,8142.265362,-3997.112087,995.924147
1392.724755,9252.574275,-3849.070898,536.266849
1392.725084,9474.636058,-3775.050304,1378.971896
1392.725414,9844.739029,-3775.050304,1225.752797
1392.725743,9696.697840,-4441.235652,842.705048
1392.726073,9474.636058,-4811.338623,1225.752797
1392.726403,9326.594869,-5181.441594,842.705048
1392.726732,8734.430116,-5403.503377,766.095498
1392.727062,7994.224174,-5329.482782,459.657299
1392.727391,7624.121203,-6217.729913,766.095498
1392.727721,8142.265362,-4885.359217,1149.143247
1392.728050,7994.224174,-4663.297435,1532.190996
1392.728380,8660.409521,-5329.482782,1685.410096
1392.728710,9474.636058,-3849.070898,1991.848295
1392.729039,9252.574275,-3478.967927,1532.190996
1392.729369,9252.574275,-2960.823768,995.924147
1392.729698,9696.697840,-2294.638420,612.876398
1392.730028,10066.800811,-3034.844362,842.705048
1392.730357,9770.718434,-3552.988522,689.485948
1392.730687,9104.533087,-4145.153275,383.047749
1392.731017,9030.512492,-4441.235652,-612.876398
1392.731346,8512.368333,-5551.544565,-153.219100
1392.731676,8438.347739,-5995.668130,383.047749
1392.732005,8882.471304,-6291.750507,1072.533697
1392.732335,9178.553681,-6217.729913,1532.190996
1392.732664,8586.388927,-5551.544565,2145.067394
1392.732994,8734.430116,-5107.421000,1915.238745
1392.733324,8734.430116,-4737.318029,2221.676944
1392.733653,8808.450710,-4145.153275,1915.238745
1392.733983,8512.368333,-3701.029710,2145.067394
1392.734312,9326.594869,-2368.659014,1608.800546
1392.734642,9622.677246,-2072.576638,842.705048
1392.734971,10066.800811,-2072.576638,383.047749
1392.735301,10584.944971,-2146.597232,153.219100
1392.735631,10881.027347,-2368.659014,536.266849
1392.735960,10214.842000,-3849.070898,0.000000
1392.736290,9474.636058,-5255.462188,0.000000
1392.736619,8956.491898,-6513.812290,229.828649
1392.736949,8808.450710,-7846.182985,1072.533697
1392.737278,8216.285956,-8364.327145,1685.410096
1392.737608,7624.121203,-7624.121203,1532.190996
1392.737938,7105.977043,-7031.956449,1149.143247
1392.738267,6809.894666,-5921.647536,919.314598
1392.738597,7105.977043,-5181.441594,153.219100
1392.738926,8068.244768,-3552.988522,1149.143247
1392.739256,9400.615463,-2516.700203,1302.362347
1392.739585,10066.800811,-2146.597232,1685.410096
1392.739915,10140.821405,-666.185348,1455.581446
1392.740245,10807.006753,148.041188,1149.143247
1392.740574,11547.212695,-1184.329507,1302.362347
1392.740904,11917.315666,-1554.432478,1685.410096
1392.741233,11843.295072,-3256.906145,919.314598
1392.741563,11325.150913,-3478.967927,1378.971896
1392.741892,9770.718434,-5329.482782,1149.143247
1392.742222,8660.409521,-7994.224174,1685.410096
1392.742552,7105.977043,-8364.327145,1838.629195
1392.742881,5477.523971,-9030.512492,229.828649
1392.743211,4145.153275,-8808.450710,-383.047749
1392.743540,3923.091493,-7624.121203,-919.314598
1392.743870,5551.544565,-7402.059420,-689.485948
1392.744199,7624.121203,-6069.688724,612.876398
1392.744529,9696.697840,-4367.215058,1838.629195
1392.744859,11103.089130,-2442.679609,2068.457845
1392.745188,11029.068536,-1924.535449,1762.019645
1392.745518,10584.944971,-1184.329507,1532.190996
1392.745847,11103.089130,-370.102971,766.095498
1392.746177,11621.233289,-666.185348,1608.800546
1392.746506,12361.439231,-814.226536,1532.190996
1392.746836,13397.727550,-2442.679609,3140.991542
1392.747166,13175.665768,-3256.906145,3524.039291
1392.747495,10881.027347,-3849.070898,2681.334243
1392.747825,8216.285956,-3775.050304,2221.676944
1392.748154,6217.729913,-5699.585753,612.876398
1392.748484,4663.297435,-8216.285956,76.609550
1392.748813,3182.885551,-8438.347739,0.000000
1392.749143,3849.070898,-7328.038826,-1685.410096
1392.749473,4663.297435,-6439.791695,-1455.581446
1392.749802,7179.997637,-5107.421000,-459.657299
1392.750132,10658.965565,-3923.091493,383.047749
1392.750461,12287.418637,-3478.967927,1302.362347
1392.750791,12361.439231,-3330.926739,2298.286494
1392.751120,11251.130318,-3256.906145,919.314598
1392.751450,10510.924376,-3404.947333,1149.143247
1392.751780,9622.677246,-4737.318029,1608.800546
1392.752109,8734.430116,-6661.853478,1455.581446
1392.752439,7698.141797,-7031.956449,1685.410096
1392.752768,7402.059420,-7772.162391,1685.410096
1392.753098,7994.224174,-7031.956449,2068.457845
1392.753427,7920.203579,-4737.318029,1532.190996
1392.753757,7105.977043,-1332.370696,0.000000
1392.754087,7254.018232,-3256.906145,-612.876398
1392.754416,8808.450710,-2886.803174,919.314598
1392.754746,10288.862594,-1628.453072,1991.848295
1392.755075,10807.006753,-2664.741391,1225.752797
1392.755405,10066.800811,-740.205942,1072.533697
1392.755735,9474.636058,-5255.462188,842.705048
1392.756064,9844.739029,-7105.977043,1302.362347
1392.756394,9474.636058,-7476.080014,2757.943793
1392.756723,8956.491898,-7624.121203,1608.800546
1392.757053,6735.874072,-5847.626942,229.828649
1392.757382,5551.544565,-5847.626942,-1149.143247
1392.757712,6439.791695,-8068.244768,459.657299
1392.758042,7624.121203,-8438.347739,1608.800546
1392.758371,7476.080014,-7994.224174,1149.143247
1392.758701,5995.668130,-4811.338623,229.828649
1392.759030,5847.626942,-5181.441594,0.000000
1392.759360,7254.018232,-5921.647536,459.657299
1392.759689,7105.977043,-6661.853478,1532.190996
1392.760019,7624.121203,-5255.462188,306.438199
1392.760349,8438.347739,-2368.659014,536.266849
1392.760678,9844.739029,-2072.576638,1149.143247
1392.761008,10214.842000,-1850.514855,1072.533697
1392.761337,9474.636058,-6217.729913,2604.724693
1392.761667,8586.388927,-6957.935855,2145.067394
1392.761996,7698.141797,-5921.647536,1225.752797
1392.762326,7698.141797,-5107.421000,1302.362347
1392.762655,8438.347739,-5847.626942,1991.848295
1392.762985,8142.265362,-6883.915261,2221.676944
1392.763314,7105.977043,-5847.626942,689.485948
1392.763644,6439.791695,-4219.173869,306.438199
1392.763973,7328.038826,-4441.235652,842.705048
1392.764302,7920.203579,-5921.647536,1455.581446
1392.764632,6513.812290,-7328.038826,689.485948
1392.764961,3775.050304,-8216.285956,-919.314598
1392.765291,3701.029710,-7698.141797,-1149.143247
1392.765620,5921.647536,-8586.388927,0.000000
1392.765950,7476.080014,-8882.471304,1455.581446
1392.766279,7994.224174,-7846.182985,1532.190996
1392.766609,7402.059420,-7105.977043,842.705048
1392.766938,7179.997637,-6957.935855,919.314598
1392.767268,7402.059420,-7476.080014,1378.971896
1392.767597,7550.100608,-7179.997637,1915.238745
1392.767927,6809.894666,-5995.668130,919.314598
1392.768256,5773.606348,-5699.585753,1762.019645
1392.768585,6587.832884,-5625.565159,2528.115143
1392.768915,9178.553681,-4293.194464,2987.772442
1392.769244,8734.430116,-2960.823768,2145.067394
1392.769574,7402.059420,-1184.329507,612.876398
1392.769903,7179.997637,-3256.906145,612.876398
1392.770233,7550.100608,-6291.750507,1608.800546
1392.770562,7179.997637,-8068.244768,1225.752797
1392.770892,5551.544565,-9252.574275,229.828649
1392.771221,5403.503377,-7105.977043,0.000000
1392.771551,6587.832884,-10214.842000,1762.019645
1392.771880,8216.285956,-9770.718434,3983.696590
1392.772210,8586.388927,-7328.038826,2604.724693
1392.772539,7550.100608,-4737.318029,306.438199
1392.772869,6735.874072,-4811.338623,0.000000
1392.773198,5477.523971,-7328.038826,459.657299
1392.773527,4737.318029,-7994.224174,689.485948
1392.773857,4515.256246,-6217.729913,-306.438199
1392.774186,4959.379811,-5995.668130,-842.705048
1392.774516,6735.874072,-7476.080014,1072.533697
1392.774845,8290.306550,-9104.533087,3447.429741
1392.775175,9104.533087,-7624.121203,2298.286494
1392.775504,7846.182985,-4293.194464,536.266849
1392.775834,7105.977043,-4737.318029,153.219100
1392.776163,7772.162391,-7624.121203,2298.286494
1392.776493,8142.265362,-8882.471304,3140.991542
1392.776822,5921.647536,-7254.018232,1302.362347
1392.777152,3849.070898,-4293.194464,-766.095498
1392.777481,4589.276840,-5551.544565,536.266849
1392.777811,7105.977043,-7105.977043,2528.115143
1392.778140,8660.409521,-7698.141797,2757.943793
1392.778469,7698.141797,-3775.050304,766.095498
1392.778799,6513.812290,-3256.906145,-995.924147
1392.779128,7179.997637,-5625.565159,153.219100
1392.779458,8438.347739,-7031.956449,1455.581446
1392.779787,7994.224174,-7105.977043,612.876398
1392.780117,6883.915261,-5551.544565,-459.657299
1392.780446,6365.771101,-7179.997637,76.609550
1392.780776,7402.059420,-9844.739029,1608.800546
1392.781105,8068.244768,-8216.285956,2374.896044
1392.781435,7994.224174,-5773.606348,536.266849
1392.781764,7179.997637,-4219.173869,0.000000
1392.782094,7179.997637,-5995.668130,1838.629195
1392.782423,7920.203579,-7772.162391,2604.724693
1392.782753,5995.668130,-7105.977043,842.705048
1392.783082,4367.215058,-4737.318029,-1302.362347
1392.783411,3997.112087,-5699.585753,-1149.143247
1392.783741,6513.812290,-8216.285956,1915.238745
1392.784070,8586.388927,-8882.471304,2681.334243
1392.784400,8438.347739,-5625.565159,995.924147
1392.784729,6809.894666,-4145.153275,-689.485948
1392.785059,6069.688724,-5477.523971,76.609550
1392.785388,7031.956449,-8586.388927,1532.190996
1392.785718,6809.894666,-7846.182985,919.314598
1392.786047,5699.585753,-6069.688724,-459.657299
1392.786377,5477.523971,-7031.956449,0.000000
1392.786706,7476.080014,-7624.121203,1532.190996
1392.787036,9030.512492,-7994.224174,2987.772442
1392.787365,9178.553681,-6513.812290,1915.238745
1392.787695,7920.203579,-3701.029710,459.657299
1392.788024,7328.038826,-6069.688724,995.924147
1392.788353,7328.038826,-7698.141797,2145.067394
1392.788683,6365.771101,-6957.935855,995.924147
1392.789012,5329.482782,-5181.441594,-612.876398
1392.789342,5403.503377,-4959.379811,0.000000
1392.789671,7179.997637,-7772.162391,1991.848295
1392.790001,8808.450710,-8290.306550,3217.601092
1392.790330,7624.121203,-6069.688724,919.314598
1392.790660,5921.647536,-4885.359217,76.609550
1392.790989,6291.750507,-5625.565159,612.876398
1392.791319,7105.977043,-8068.244768,2068.457845
1392.791648,6809.894666,-7772.162391,1838.629195
1392.791978,5551.544565,-6069.688724,306.438199
1392.792307,5773.606348,-5625.565159,153.219100
1392.792637,7328.038826,-7624.121203,1838.629195
1392.792966,8586.388927,-8438.347739,3140.991542
1392.793295,8068.244768,-4959.379811,612.876398
1392.793625,6957.935855,-3627.009116,153.219100
1392.793954,7476.080014,-5033.400406,1762.019645
1392.794284,8956.491898,-7698.141797,2911.162892
1392.794613,8142.265362,-7698.141797,1532.190996
1392.794943,4811.338623,-5329.482782,-766.095498
1392.795272,3775.050304,-5921.647536,-1225.752797
1392.795602,5773.606348,-8808.450710,1225.752797
1392.795931,7846.182985,-9178.553681,2757.943793
1392.796261,8068.244768,-6143.709319,766.095498
1392.796590,7254.018232,-4219.173869,536.266849
1392.796920,7105.977043,-6217.729913,1838.629195
1392.797249,8586.388927,-8216.285956,3064.381992
1392.797579,7179.997637,-7402.059420,2221.676944
1392.797908,5181.441594,-4737.318029,0.000000
1392.798237,4959.379811,-4811.338623,-919.314598
1392.798567,6143.709319,-6217.729913,1225.752797
1392.798896,7994.224174,-7920.203579,2068.457845
1392.799226,8956.491898,-5625.565159,1762.019645
1392.799555,8586.388927,-3404.947333,919.314598
1392.799885,8216.285956,-5403.503377,1455.581446
1392.800214,7920.203579,-7476.080014,2528.115143
1392.800544,6513.812290,-8512.368333,919.314598
1392.800873,4293.194464,-7994.224174,-842.705048
1392.801203,3627.009116,-6883.915261,-995.924147
1392.801532,5773.606348,-7994.224174,1302.362347
1392.801862,8290.306550,-9104.533087,2451.505594
1392.802191,8882.471304,-7402.059420,2298.286494
1392.802521,7254.018232,-5107.421000,76.609550
1392.802850,7105.977043,-4515.256246,842.705048
1392.803179,7105.977043,-7994.224174,1838.629195
1392.803509,7105.977043,-6513.812290,612.876398
1392.803838,5699.585753,-4737.318029,-229.828649
1392.804168,5551.544565,-6513.812290,-306.438199
1392.804497,7402.059420,-6439.791695,1838.629195
1392.804827,8216.285956,-7698.141797,2451.505594
1392.805156,7772.162391,-7550.100608,1455.581446
1392.805486,6291.750507,-4885.359217,153.219100
1392.805815,6513.812290,-5995.668130,689.485948
1392.806145,7031.956449,-8142.265362,2451.505594
1392.806474,6735.874072,-8438.347739,1455.581446
1392.806804,6365.771101,-4959.379811,766.095498
1392.807133,6365.771101,-4219.173869,153.219100
1392.807463,7105.977043,-6883.915261,1915.238745
1392.807792,8068.244768,-7179.997637,3294.210641
1392.808121,8216.285956,-6735.874072,1455.581446
1392.808451,7105.977043,-3552.988522,-842.705048
1392.808780,6439.791695,-4071.132681,76.609550
1392.809110,7550.100608,-7402.059420,1762.019645
1392.809439,7846.182985,-7772.162391,1915.238745
1392.809769,6513.812290,-6217.729913,76.609550
1392.810098,5403.503377,-4737.318029,-919.314598
1392.810428,6587.832884,-6661.853478,229.828649
1392.810757,7698.141797,-8364.327145,1838.629195
1392.811087,7328.038826,-8512.368333,995.924147
1392.811416,6661.853478,-4959.379811,153.219100
1392.811746,7254.018232,-4663.297435,1225.752797
1392.812075,8290.306550,-8956.491898,2451.505594
1392.812404,8290.306550,-8068.244768,2604.724693
1392.812734,6143.709319,-6809.894666,306.438199
1392.813063,4737.318029,-6217.729913,-689.485948
1392.813393,5477.523971,-5773.606348,229.828649
1392.813722,7105.977043,-8734.430116,1838.629195
1392.814052,7624.121203,-7105.977043,1302.362347
1392.814381,6809.894666,-4589.276840,-229.828649
1392.814711,6513.812290,-4589.276840,-306.438199
1392.815040,7105.977043,-7105.977043,1762.019645
1392.815370,7994.224174,-9622.677246,2451.505594
1392.815699,7031.956449,-6513.812290,306.438199
1392.816029,4885.359217,-4589.276840,0.000000
1392.816358,5847.626942,-5995.668130,76.609550
1392.816688,8290.306550,-8290.306550,2374.896044
1392.817017,8808.450710,-7698.141797,2681.334243
1392.817346,8216.285956,-5181.441594,459.657299
1392.817676,7179.997637,-5107.421000,536.266849
1392.818005,7624.121203,-7179.997637,1455.581446
1392.818335,7179.997637,-9178.553681,1762.019645
1392.818664,5255.462188,-7994.224174,306.438199
1392.818994,4367.215058,-5921.647536,-536.266849
1392.819323,5181.441594,-6957.935855,383.047749
1392.819653,7476.080014,-7254.018232,1838.629195
1392.819982,8216.285956,-7772.162391,2528.115143
1392.820312,7402.059420,-4663.297435,1072.533697
1392.820641,6883.915261,-3330.926739,459.657299
1392.820971,7624.121203,-5181.441594,2528.115143
1392.821300,9474.636058,-6957.935855,3064.381992
1392.821630,8216.285956,-5107.421000,2068.457845
1392.821959,5403.503377,-3997.112087,0.000000
1392.822288,5255.462188,-5107.421000,229.828649
1392.822618,7105.977043,-7772.162391,2145.067394
1392.822947,8142.265362,-8660.409521,2145.067394
1392.823277,6735.874072,-6587.832884,919.314598
1392.823606,5995.668130,-4811.338623,459.657299
1392.823936,6439.791695,-7994.224174,1608.800546
1392.824265,6809.894666,-10066.800811,2681.334243
1392.824595,5551.544565,-7105.977043,612.876398
1392.824924,4663.297435,-5551.544565,-306.438199
1392.825254,5403.503377,-5995.668130,229.828649
1392.825583,7105.977043,-8808.450710,1991.848295
1392.825913,8364.327145,-8142.265362,2374.896044
1392.826242,7920.203579,-5033.400406,995.924147
1392.826572,7402.059420,-3478.967927,383.047749
1392.826901,8216.285956,-5255.462188,1762.019645
1392.827230,8142.265362,-8290.306550,2911.162892
1392.827560,6957.935855,-7179.997637,1608.800546
1392.827889,4811.338623,-4145.153275,-766.095498
1392.828219,4737.318029,-6069.688724,-306.438199
1392.828548,7179.997637,-8142.265362,2221.676944
1392.828878,9474.636058,-8068.244768,2681.334243
1392.829207,8290.306550,-5551.544565,1302.362347
1392.829537,6439.791695,-3330.926739,0.000000
1392.829866,6513.812290,-5625.565159,995.924147
1392.830196,7550.100608,-9326.594869,2145.067394
1392.830525,7105.977043,-8438.347739,1532.190996
1392.830855,5255.462188,-5921.647536,-383.047749
1392.831184,4811.338623,-5921.647536,-1149.143247
1392.831514,6957.935855,-8142.265362,1532.190996
1392.831843,8586.388927,-8586.388927,2298.286494
1392.832172,8290.306550,-6735.874072,766.095498
1392.832502,7328.038826,-3997.112087,153.219100
1392.832831,7402.059420,-5773.606348,842.705048
1392.833161,7328.038826,-8142.265362,2374.896044
1392.833490,5995.668130,-8216.285956,1378.971896
1392.833820,5329.482782,-4737.318029,-612.876398
1392.834149,5921.647536,-4811.338623,-1149.143247
1392.834479,7105.977043,-7476.080014,1608.800546
1392.834808,8808.450710,-7550.100608,2757.943793
1392.835138,8290.306550,-6069.688724,1455.581446
1392.835467,7328.038826,-3923.091493,153.219100
1392.835797,6957.935855,-5773.606348,612.876398
1392.836126,7772.162391,-8808.450710,2374.896044
1392.836456,6957.935855,-8364.327145,1608.800546
1392.836785,5329.482782,-6291.750507,-766.095498
1392.837114,4441.235652,-5921.647536,-383.047749
1392.837444,5921.647536,-8290.306550,1225.752797
1392.837773,7920.203579,-8956.491898,2451.505594
1392.838103,7772.162391,-5921.647536,995.924147
1392.838432,7105.977043,-3478.967927,-153.219100
1392.838762,6661.853478,-4219.173869,536.266849
1392.839091,8364.327145,-7179.997637,2451.505594
1392.839421,8660.409521,-6291.750507,1838.629195
1392.839750,7105.977043,-4071.132681,0.000000
1392.840080,6661.853478,-3330.926739,-306.438199
1392.840409,7920.203579,-7328.038826,1608.800546
1392.840739,9178.553681,-8734.430116,3447.429741
1392.841068,8882.471304,-6143.709319,1302.362347
1392.841398,7846.182985,-4293.194464,76.609550
1392.841727,6957.935855,-5847.626942,536.266849
1392.842056,6365.771101,-9474.636058,2221.676944
1392.842386,5255.462188,-9696.697840,919.314598
1392.842715,4071.132681,-6735.874072,-612.876398
1392.843045,3108.864956,-5033.400406,-1149.143247
1392.843374,4737.318029,-8364.327145,766.095498
1392.843704,7624.121203,-9548.656652,3217.601092
1392.844033,8142.265362,-7105.977043,1149.143247
1392.844363,6735.874072,-3923.091493,-153.219100
1392.844692,6809.894666,-4663.297435,1149.143247
1392.845022,8808.450710,-8068.244768,2068.457845
1392.845351,8142.265362,-7920.203579,1915.238745
1392.845681,5773.606348,-6069.688724,-229.828649
1392.846010,5847.626942,-5181.441594,-919.314598
1392.846340,7328.038826,-7105.977043,1915.238745
1392.846669,8586.388927,-8882.471304,2834.553343
1392.846998,8734.430116,-6365.771101,2145.067394
1392.847328,7105.977043,-3701.029710,76.609550
1392.847657,6439.791695,-4737.318029,306.438199
1392.847987,7105.977043,-7550.100608,2451.505594
1392.848316,7402.059420,-8586.388927,2681.334243
1392.848646,6365.771101,-5329.482782,-612.876398
1392.848975,4441.235652,-5181.441594,-536.266849
1392.849305,5107.421000,-7550.100608,1149.143247
1392.849634,7772.162391,-9770.718434,3064.381992
1392.849964,7772.162391,-7550.100608,2068.457845
1392.850293,6365.771101,-3701.029710,0.000000
1392.850623,5921.647536,-4293.194464,612.876398
1392.850952,8142.265362,-7772.162391,2604.724693
1392.851282,7624.121203,-8586.388927,2451.505594
1392.851611,6069.688724,-5625.565159,0.000000
1392.851940,5403.503377,-3701.029710,-1149.143247
1392.852270,6365.771101,-5847.626942,766.095498
1392.852599,7994.224174,-8882.471304,3064.381992
1392.852929,8882.471304,-7105.977043,2298.286494
1392.853258,9104.533087,-3552.988522,689.485948
1392.853588,7698.141797,-4811.338623,383.047749
1392.853917,7550.100608,-7402.059420,2068.457845
1392.854247,6883.915261,-8586.388927,1838.629195
1392.854576,5255.462188,-6217.729913,-306.438199
1392.854906,3627.009116,-5551.544565,-1302.362347
1392.855235,5255.462188,-7698.141797,612.876398
1392.855565,7105.977043,-9178.553681,2834.553343
1392.855894,7994.224174,-7846.182985,2145.067394
1392.856223,6809.894666,-4959.379811,689.485948
1392.856553,6809.894666,-4589.276840,383.047749
1392.856882,7254.018232,-6809.894666,1608.800546
1392.857212,7920.203579,-7402.059420,2681.334243
1392.857541,7179.997637,-4885.359217,766.095498
1392.857871,6365.771101,-2960.823768,-766.095498
1392.858200,7105.977043,-5181.441594,1915.238745
1392.858530,8586.388927,-8808.450710,3524.039291
1392.858859,9474.636058,-8142.265362,2604.724693
1392.859189,7328.038826,-4441.235652,536.266849
1392.859518,5551.544565,-5181.441594,-612.876398
1392.859848,5699.585753,-8364.327145,1838.629195
1392.860177,6217.729913,-9844.739029,2068.457845
1392.860507,4885.359217,-7698.141797,-612.876398
1392.860836,3256.906145,-6439.791695,-1455.581446
1392.861165,4293.194464,-7476.080014,-459.657299
1392.861495,6587.832884,-9474.636058,1838.629195
1392.861824,8660.409521,-8882.471304,2451.505594
1392.862154,8068.244768,-4885.359217,612.876398
1392.862483,7105.977043,-3923.091493,0.000000
1392.862813,7550.100608,-5477.523971,1532.190996
1392.863142,8512.368333,-7994.224174,1915.238745
1392.863472,7476.080014,-6291.750507,536.266849
1392.863801,5995.668130,-3701.029710,-842.705048
1392.864130,6069.688724,-6069.688724,0.000000
1392.864460,7179.997637,-8142.265362,2298.286494
1392.864789,8734.430116,-8068.244768,2911.162892
1392.865118,7772.162391,-5107.421000,919.314598
1392.865448,7105.977043,-3997.112087,689.485948
1392.865777,7254.018232,-6957.935855,1991.848295
1392.866106,7402.059420,-8956.491898,1378.971896
1392.866436,5699.585753,-6883.915261,766.095498
1392.866765,4737.318029,-4737.318029,-995.924147
1392.867094,5625.565159,-6143.709319,-612.876398
1392.867424,7105.977043,-7179.997637,1991.848295
1392.867753,9326.594869,-7698.141797,2604.724693
1392.868082,9104.533087,-4219.173869,919.314598
1392.868412,7846.182985,-2960.823768,0.000000
1392.868741,7994.224174,-5181.441594,612.876398
1392.869070,8586.388927,-7105.977043,2221.676944
1392.869400,7624.121203,-6291.750507,919.314598
1392.869729,6217.729913,-4663.297435,-1225.752797
1392.870058,6069.688724,-5995.668130,-153.219100
1392.870388,7179.997637,-8734.430116,1838.629195
1392.870717,8364.327145,-9326.594869,2987.772442
1392.871046,8290.306550,-5847.626942,1378.971896
1392.871376,7402.059420,-3330.926739,0.000000
1392.871705,6957.935855,-6513.812290,1225.752797
1392.872034,7105.977043,-9104.533087,2145.067394
1392.872364,5847.626942,-7772.162391,383.047749
1392.872693,4367.215058,-5699.585753,-1378.971896
1392.873022,4219.173869,-7031.956449,0.000000
1392.873352,6883.915261,-9474.636058,1149.143247
1392.873681,7105.977043,-10066.800811,2298.286494
1392.874010,6439.791695,-6365.771101,76.609550
1392.874340,6143.709319,-3997.112087,-1378.971896
1392.874669,6809.894666,-7031.956449,1149.143247
1392.874998,7994.224174,-8734.430116,2298.286494
1392.875328,7550.100608,-7105.977043,1225.752797
1392.875657,6439.791695,-4737.318029,-689.485948
1392.875986,6513.812290,-5107.421000,76.609550
1392.876316,7994.224174,-6957.935855,2451.505594
1392.876645,9178.553681,-6735.874072,3447.429741
1392.876974,8882.471304,-4441.235652,766.095498
1392.877304,7476.080014,-2368.659014,0.000000
1392.877633,7698.141797,-5181.441594,1685.410096
1392.877962,8142.265362,-7846.182985,2757.943793
1392.878292,7254.018232,-7772.162391,1685.410096
1392.878621,4145.153275,-5181.441594,-1225.752797
1392.878950,3256.906145,-6217.729913,-1685.410096
1392.879279,4885.359217,-9030.512492,1072.533697
1392.879609,7254.018232,-9918.759623,3294.210641
1392.879938,7772.162391,-6365.771101,1149.143247
1392.880267,7772.162391,-3923.091493,459.657299
1392.880597,7920.203579,-5033.400406,1072.533697
1392.880926,8512.368333,-7772.162391,2757.943793
1392.881255,7772.162391,-6883.915261,1762.019645
1392.881585,5403.503377,-4293.194464,-689.485948
1392.881914,5107.421000,-4515.256246,-919.314598
1392.882243,7105.977043,-6809.894666,1685.410096
1392.882573,8882.471304,-8586.388927,3294.210641
1392.882902,9030.512492,-5921.647536,2757.943793
1392.883231,8290.306550,-3182.885551,612.876398
1392.883561,7402.059420,-4589.276840,766.095498
1392.883890,7254.018232,-7772.162391,2528.115143
1392.884219,6439.791695,-7772.162391,1532.190996
1392.884549,5181.441594,-5847.626942,-536.266849
1392.884878,4441.235652,-6217.729913,-1225.752797
1392.885207,5921.647536,-7994.224174,1149.143247
1392.885537,7698.141797,-9326.594869,3140.991542
1392.885866,7846.182985,-6439.791695,1608.800546
1392.886195,7031.956449,-4293.194464,-306.438199
1392.886525,7105.977043,-5995.668130,1225.752797
1392.886854,7624.121203,-7624.121203,2145.067394
1392.887183,7476.080014,-7846.182985,1608.800546
1392.887513,5921.647536,-5403.503377,0.000000
1392.887842,5403.503377,-4737.318029,-689.485948
1392.888171,7105.977043,-7328.038826,919.314598
1392.888501,8734.430116,-8586.388927,3370.820191
1392.888830,7846.182985,-6883.915261,2374.896044
1392.889159,7994.224174,-3849.070898,0.000000
1392.889489,6513.812290,-5255.462188,306.438199
1392.889818,6365.771101,-8808.450710,1762.019645
1392.890147,5699.585753,-8734.430116,1072.533697
1392.890477,4145.153275,-7105.977043,-842.705048
1392.890806,4071.132681,-6513.812290,-1225.752797
1392.891135,6291.750507,-8512.368333,1302.362347
1392.891465,8512.368333,-9030.512492,2145.067394
1392.891794,7994.224174,-7254.018232,1762.019645
1392.892123,7254.018232,-4663.297435,0.000000
1392.892453,7402.059420,-4811.338623,306.438199
1392.892782,8068.244768,-7920.203579,1838.629195
1392.893111,7846.182985,-7476.080014,2604.724693
1392.893441,6069.688724,-5107.421000,-459.657299
1392.893770,5255.462188,-5181.441594,-995.924147
1392.894099,6439.791695,-6069.688724,995.924147
1392.894429,8290.306550,-8364.327145,2757.943793
1392.894758,8438.347739,-6587.832884,1225.752797
1392.895087,7105.977043,-2960.823768,459.657299
1392.895417,7698.141797,-4811.338623,153.219100
1392.895746,8734.430116,-7179.997637,2221.676944
1392.896075,7920.203579,-8438.347739,3217.601092
1392.896405,6291.750507,-6661.853478,612.876398
1392.896734,4589.276840,-4663.297435,-1225.752797
1392.897063,5329.482782,-7550.100608,383.047749
1392.897393,7402.059420,-8734.430116,2451.505594
1392.897722,8808.450710,-5921.647536,1685.410096
1392.898051,7254.018232,-3775.050304,-689.485948
1392.898380,6365.771101,-4293.194464,0.000000
1392.898710,7105.977043,-7328.038826,1532.190996
1392.899039,7550.100608,-7772.162391,1455.581446
1392.899368,6291.750507,-5995.668130,0.000000
1392.899698,6217.729913,-5477.523971,-306.438199
1392.900027,7772.162391,-6661.853478,1149.143247
1392.900356,9104.533087,-8216.285956,2681.334243
1392.900686,8512.368333,-6957.935855,2451.505594
1392.901015,7476.080014,-4293.194464,-842.705048
1392.901344,6513.812290,-4885.359217,-536.266849
1392.901674,7031.956449,-7772.162391,1378.971896
1392.902003,7105.977043,-9770.718434,2451.505594
1392.902332,6735.874072,-7772.162391,1225.752797
1392.902662,4515.256246,-6217.729913,-612.876398
1392.902991,4589.276840,-7550.100608,0.000000
1392.903320,6661.853478,-8808.450710,2298.286494
1392.903650,7994.224174,-8512.368333,2068.457845
1392.903979,7105.977043,-4885.359217,0.000000
1392.904308,5921.647536,-4441.235652,-842.705048
1392.904638,7550.100608,-6883.915261,766.095498
1392.904967,8142.265362,-8438.347739,2374.896044
1392.905296,6809.894666,-6439.791695,995.924147
1392.905626,6143.709319,-5773.606348,-612.876398
1392.905955,7476.080014,-6365.771101,612.876398
1392.906284,9104.533087,-8142.265362,3064.381992
1392.906614,9696.697840,-6735.874072,2681.334243
1392.906943,7920.203579,-3108.864956,536.266849
1392.907272,6883.915261,-3849.070898,-383.047749
1392.907602,7179.997637,-6883.915261,2068.457845
1392.907931,7179.997637,-9474.636058,3524.039291
1392.908260,6217.729913,-7031.956449,1302.362347
1392.908590,3478.967927,-6883.915261,-919.314598
1392.908919,3923.091493,-6661.853478,0.000000
1392.909248,6365.771101,-8586.388927,2068.457845
1392.909578,8660.409521,-8808.450710,3370.820191
1392.909907,7846.182985,-3997.112087,919.314598
1392.910236,6439.791695,-4071.132681,-612.876398
1392.910566,7105.977043,-5477.523971,1072.533697
1392.910895,7179.997637,-8586.388927,2145.067394
1392.911224,6587.832884,-7402.059420,1302.362347
1392.911554,5625.565159,-5107.421000,-459.657299
1392.911883,6439.791695,-6809.894666,229.828649
1392.912212,8068.244768,-8512.368333,2757.943793
1392.912542,9474.636058,-7402.059420,3294.210641
1392.912871,8290.306550,-4663.297435,842.705048
1392.913200,6809.894666,-2960.823768,-153.219100
1392.913530,7402.059420,-5847.626942,1455.581446
1392.913859,9104.533087,-6957.935855,2987.772442
1392.914188,8290.306550,-6809.894666,2068.457845
1392.914518,5995.668130,-4885.359217,459.657299
1392.914847,5699.585753,-5181.441594,153.219100
1392.915176,6365.771101,-8438.347739,1838.629195
1392.915506,7105.977043,-7254.018232,2221.676944
1392.915835,6735.874072,-4959.379811,536.266849
1392.916164,5847.626942,-3701.029710,-995.924147
1392.916494,6661.853478,-6883.915261,459.657299
1392.916823,7846.182985,-9548.656652,2834.553343
1392.917152,7402.059420,-7550.100608,1762.019645
1392.917481,5477.523971,-6513.812290,-766.095498
1392.917811,5107.421000,-6661.853478,76.609550
1392.918140,7179.997637,-9178.553681,1762.019645
1392.918469,8734.430116,-8660.409521,2834.553343
1392.918799,7920.203579,-4145.153275,1685.410096
1392.919128,6735.874072,-3923.091493,-536.266849
1392.919457,7179.997637,-6365.771101,1225.752797
1392.919787,7994.224174,-8956.491898,2911.162892
1392.920116,7105.977043,-7698.141797,1072.533697
1392.920445,4663.297435,-6143.709319,-766.095498
1392.920775,4737.318029,-5921.647536,-995.924147
1392.921104,6513.812290,-8438.347739,1532.190996
1392.921433,7402.059420,-8068.244768,2528.115143
1392.921763,7550.100608,-5477.523971,536.266849
1392.922092,6809.894666,-4293.194464,-536.266849
1392.922421,7105.977043,-6217.729913,1225.752797
1392.922751,7402.059420,-9178.553681,2604.724693
1392.923080,6661.853478,-8438.347739,2451.505594
1392.923409,4959.379811,-4811.338623,-919.314598
1392.923739,4959.379811,-5699.585753,-459.657299
1392.924068,7105.977043,-7402.059420,2374.896044
1392.924397,9400.615463,-7846.182985,3830.477490
1392.924727,9178.553681,-5699.585753,1378.971896
1392.925056,7328.038826,-2886.803174,0.000000
1392.925385,7402.059420,-5477.523971,842.705048
1392.925715,7920.203579,-7772.162391,2374.896044
1392.926044,6957.935855,-7550.100608,1532.190996
1392.926373,4737.318029,-5699.585753,76.609550
1392.926703,5329.482782,-5847.626942,-459.657299
1392.927032,6809.894666,-7994.224174,1915.238745
1392.927361,8142.265362,-8660.409521,3294.210641
1392.927691,7624.121203,-6291.750507,1532.190996
1392.928020,6809.894666,-3849.070898,-459.657299
1392.928349,5625.565159,-5255.462188,0.000000
1392.928679,6809.894666,-7772.162391,2221.676944
1392.929008,7624.121203,-7105.977043,1915.238745
1392.929337,6883.915261,-5107.421000,612.876398
1392.929667,6069.688724,-5181.441594,0.000000
1392.929996,7105.977043,-7402.059420,1532.190996
1392.930325,8512.368333,-7698.141797,2451.505594
1392.930655,8142.265362,-5625.565159,689.485948
1392.930984,7402.059420,-4367.215058,-383.047749
1392.931313,7550.100608,-5847.626942,536.266849
1392.931643,7920.203579,-9474.636058,3064.381992
1392.931972,7254.018232,-8364.327145,2145.067394
1392.932301,5403.503377,-5847.626942,-689.485948
1392.932631,4367.215058,-5625.565159,-1302.362347
1392.932960,5477.523971,-8438.347739,919.314598
1392.933289,7698.141797,-9474.636058,2757.943793
1392.933619,8216.285956,-6143.709319,1378.971896
1392.933948,6957.935855,-3034.844362,-689.485948
1392.934277,6587.832884,-4811.338623,383.047749
1392.934607,7846.182985,-7920.203579,2068.457845
1392.934936,8290.306550,-8586.388927,1915.238745
1392.935265,7254.018232,-5107.421000,-229.828649
1392.935595,6143.709319,-4589.276840,-842.705048
1392.935924,7031.956449,-8068.244768,919.314598
1392.936253,7698.141797,-9548.656652,2451.505594
1392.936583,7846.182985,-7105.977043,1072.533697
1392.936912,6957.935855,-4811.338623,-536.266849
1392.937241,7105.977043,-5255.462188,842.705048
1392.937570,7402.059420,-8734.430116,2451.505594
1392.937900,7254.018232,-8808.450710,2757.943793
1392.938229,5255.462188,-5921.647536,-229.828649
1392.938558,3478.967927,-4811.338623,-1532.190996
1392.938888,4737.318029,-7402.059420,995.924147
1392.939217,7846.182985,-8956.491898,2911.162892
1392.939546,9178.553681,-6957.935855,2145.067394
1392.939876,7698.141797,-3701.029710,919.314598
1392.940205,6513.812290,-4737.318029,153.219100
1392.940534,7254.018232,-6513.812290,1225.752797
1392.940864,7550.100608,-7179.997637,2068.457845
1392.941193,6143.709319,-5329.482782,-229.828649
1392.941522,5477.523971,-4219.173869,-919.314598
1392.941852,6735.874072,-7920.203579,1302.362347
1392.942181,8290.306550,-9474.636058,3217.601092
1392.942510,8290.306550,-6957.935855,2374.896044
1392.942840,7105.977043,-3182.885551,0.000000
1392.943169,6957.935855,-4441.235652,229.828649
1392.943498,7846.182985,-7550.100608,2451.505594
1392.943828,8216.285956,-7920.203579,2681.334243
1392.944157,6513.812290,-6217.729913,536.266849
1392.944486,5329.482782,-4145.153275,-995.924147
1392.944816,5625.565159,-6587.832884,-76.609550
1392.945145,6809.894666,-9548.656652,2451.505594
1392.945474,7624.121203,-7179.997637,2298.286494
1392.945804,7402.059420,-4219.173869,229.828649
1392.946133,6735.874072,-4663.297435,689.485948
1392.946462,7105.977043,-6439.791695,1838.629195
1392.946792,7328.038826,-8438.347739,1838.629195
1392.947121,6587.832884,-5847.626942,612.876398
1392.947450,5773.606348,-5107.421000,-383.047749
1392.947780,6439.791695,-7772.162391,459.657299
1392.948109,8216.285956,-8882.471304,2911.162892
1392.948438,8586.388927,-7698.141797,2298.286494
1392.948768,7550.100608,-5699.585753,306.438199
1392.949097,6513.812290,-4589.276840,383.047749
1392.949426,6883.915261,-7105.977043,1225.752797
1392.949756,6883.915261,-8734.430116,1838.629195
1392.950085,5699.585753,-6587.832884,229.828649
1392.950414,4959.379811,-5921.647536,-842.705048
1392.950744,5625.565159,-6883.915261,919.314598
1392.951073,7402.059420,-9326.594869,2911.162892
1392.951402,8586.388927,-7402.059420,2451.505594
1392.951732,7846.182985,-3627.009116,612.876398
1392.952061,6957.935855,-3552.988522,0.000000
1392.952390,7772.162391,-5847.626942,1378.971896
1392.952720,7846.182985,-7772.162391,2451.505594
1392.953049,7031.956449,-6439.791695,995.924147
1392.953378,5699.585753,-4441.235652,-383.047749
1392.953708,5773.606348,-6883.915261,1149.143247
1392.954037,6809.894666,-9326.594869,2068.457845
1392.954366,7328.038826,-8068.244768,2451.505594
1392.954696,6587.832884,-4515.256246,0.000000
1392.955025,7402.059420,-4071.132681,229.828649
1392.955354,7920.203579,-7105.977043,2528.115143
1392.955684,7550.100608,-8882.471304,3140.991542
1392.956013,5847.626942,-7328.038826,842.705048
1392.956342,4071.132681,-5181.441594,-919.314598
1392.956671,4293.194464,-6439.791695,153.219100
1392.957001,7105.977043,-8586.388927,2298.286494
1392.957330,8512.368333,-7105.977043,2834.553343
1392.957659,8660.409521,-3849.070898,689.485948
1392.957989,7846.182985,-3108.864956,153.219100
1392.958318,7698.141797,-5699.585753,1302.362347
1392.958647,7402.059420,-7994.224174,2451.505594
1392.958977,6809.894666,-6661.853478,995.924147
1392.959306,5403.503377,-4663.297435,-842.705048
1392.959635,4885.359217,-5995.668130,0.000000
1392.959965,7179.997637,-9770.718434,2528.115143
1392.960294,8512.368333,-8808.450710,2604.724693
1392.960623,7402.059420,-5625.565159,459.657299
1392.960953,6291.750507,-4737.318029,612.876398
1392.961282,7105.977043,-6513.812290,1149.143247
1392.961611,7254.018232,-8808.450710,2451.505594
1392.961941,6069.688724,-7105.977043,919.314598
1392.962270,5033.400406,-5477.523971,-1302.362347
1392.962599,5107.421000,-6291.750507,229.828649
1392.962928,6957.935855,-9548.656652,2451.505594
1392.963257,8216.285956,-8660.409521,2757.943793
1392.963587,7846.182985,-4515.256246,153.219100
1392.963916,6661.853478,-3849.070898,-1072.533697
1392.964245,7328.038826,-4885.359217,0.000000
1392.964574,7698.141797,-8660.409521,1302.362347
1392.964903,7105.977043,-7846.182985,1378.971896
1392.965232,5995.668130,-5551.544565,-612.876398
1392.965561,6143.709319,-6513.812290,-153.219100
1392.965890,7254.018232,-8142.265362,2374.896044
1392.966219,8512.368333,-9178.553681,3294.210641
1392.966549,7994.224174,-4293.194464,919.314598
1392.966878,6809.894666,-2960.823768,-689.485948
1392.967207,7105.977043,-6143.709319,842.705048
1392.967536,7772.162391,-8660.409521,2757.943793
1392.967865,6735.874072,-9104.533087,1455.581446
1392.968194,5403.503377,-5625.565159,-383.047749
1392.968523,4515.256246,-6587.832884,-153.219100
1392.968852,7105.977043,-8808.450710,1915.238745
1392.969182,7846.182985,-8216.285956,2451.505594
1392.969511,7402.059420,-5477.523971,689.485948
1392.969840,6661.853478,-2960.823768,-766.095498
1392.970169,7254.018232,-4663.297435,842.705048
1392.970498,8216.285956,-7698.141797,2757.943793
1392.970827,8290.306550,-6735.874072,2451.505594
1392.971156,6809.894666,-4663.297435,153.219100
1392.971485,5773.606348,-5107.421000,-306.438199
1392.971814,7550.100608,-6143.709319,2221.676944
1392.972144,8882.471304,-8586.388927,3447.429741
1392.972473,8660.409521,-6291.750507,1149.143247
1392.972802,7624.121203,-2220.617826,536.266849
1392.973131,8660.409521,-5921.647536,1455.581446
1392.973460,8808.450710,-8882.471304,2451.505594
1392.973789,6069.688724,-9030.512492,1532.190996
1392.974118,3775.050304,-5995.668130,-1072.533697
1392.974447,3478.967927,-5699.585753,-1838.629195
1392.974776,4959.379811,-9326.594869,1838.629195
1392.975106,7105.977043,-9918.759623,3753.867940
1392.975435,7920.203579,-6143.709319,1685.410096
1392.975764,7105.977043,-3034.844362,0.000000
1392.976093,6661.853478,-3701.029710,76.609550
1392.976422,8142.265362,-7698.141797,2374.896044
1392.976751,7994.224174,-7994.224174,2374.896044
1392.977080,6883.915261,-5625.565159,229.828649
1392.977409,6217.729913,-5107.421000,76.609550
1392.977739,8216.285956,-7105.977043,1838.629195
1392.978068,9400.615463,-8438.347739,3217.601092
1392.978397,8512.368333,-6883.915261,1838.629195
1392.978726,6809.894666,-4663.297435,0.000000
1392.979055,6069.688724,-5995.668130,-229.828649
1392.979384,5773.606348,-9474.636058,1685.410096
1392.979713,5773.606348,-9474.636058,1991.848295
1392.980042,4811.338623,-7031.956449,-383.047749
1392.980371,4515.256246,-5181.441594,-689.485948
1392.980701,5995.668130,-7846.182985,1685.410096
1392.981030,8216.285956,-8808.450710,3140.991542
1392.981359,8290.306550,-5255.462188,1838.629195
1392.981688,7105.977043,-3404.947333,-229.828649
1392.982017,7476.080014,-3923.091493,0.000000
1392.982346,8216.285956,-6661.853478,2374.896044
1392.982675,8364.327145,-7624.121203,2528.115143
1392.983004,7328.038826,-5477.523971,919.314598
1392.983333,6291.750507,-5255.462188,-153.219100
1392.983663,6587.832884,-7994.224174,1225.752797
1392.983992,7105.977043,-9252.574275,2604.724693
1392.984321,6217.729913,-7105.977043,1072.533697
1392.984650,5551.544565,-4589.276840,-919.314598
1392.984979,5921.647536,-4811.338623,-153.219100
1392.985308,7476.080014,-8586.388927,1608.800546
1392.985637,7476.080014,-9178.553681,2987.772442
1392.985966,5995.668130,-6217.729913,536.266849
1392.986296,4959.379811,-5329.482782,-766.095498
1392.986625,6069.688724,-6735.874072,919.314598
1392.986954,8290.306550,-8068.244768,2451.505594
1392.987283,8512.368333,-6513.812290,2374.896044
1392.987612,7328.038826,-3701.029710,0.000000
1392.987941,7105.977043,-3923.091493,229.828649
1392.988270,7772.162391,-6513.812290,2145.067394
1392.988599,7994.224174,-7476.080014,2911.162892
1392.988928,6439.791695,-5699.585753,536.266849
1392.989258,5033.400406,-5033.400406,-612.876398
1392.989587,5921.647536,-6809.894666,919.314598
1392.989916,8216.285956,-7698.141797,2681.334243
1392.990245,8290.306550,-7031.956449,2451.505594
1392.990574,7476.080014,-3775.050304,306.438199
1392.990903,6661.853478,-4589.276840,-153.219100
1392.991232,7624.121203,-7698.141797,1915.238745
1392.991561,7624.121203,-9400.615463,2757.943793
1392.991891,6069.688724,-6809.894666,0.000000
1392.992220,4441.235652,-5921.647536,-1072.533697
1392.992549,5329.482782,-8660.409521,459.657299
1392.992878,7402.059420,-8808.450710,2681.334243
1392.993207,7105.977043,-7624.121203,1608.800546
1392.993536,6143.709319,-4737.318029,-306.438199
1392.993865,6809.894666,-3775.050304,-612.876398
1392.994194,7698.141797,-6661.853478,1532.190996
1392.994523,8290.306550,-7476.080014,3370.820191
1392.994853,6661.853478,-5699.585753,995.924147
1392.995182,6439.791695,-3849.070898,-766.095498
1392.995511,6957.935855,-6143.709319,536.266849
1392.995840,8956.491898,-7698.141797,2911.162892
1392.996169,9400.615463,-6661.853478,2604.724693
1392.996498,7994.224174,-5033.400406,383.047749
1392.996827,6957.935855,-5033.400406,536.266849
1392.997156,7254.018232,-7105.977043,1455.581446
1392.997485,7698.141797,-9844.739029,2221.676944
1392.997815,5773.606348,-7846.182985,842.705048
1392.998144,3997.112087,-7105.977043,-1072.533697
1392.998473,4219.173869,-8142.265362,-536.266849
1392.998802,5625.565159,-8882.471304,689.485948
1392.999131,6735.874072,-8882.471304,1991.848295
1392.999460,7328.038826,-4219.173869,0.000000
1392.999789,6957.935855,-3701.029710,-689.485948
1393.000118,7550.100608,-5033.400406,1225.752797
1393.000448,8956.491898,-7550.100608,3370.820191
1393.000777,8660.409521,-6069.688724,1149.143247
1393.001106,6365.771101,-4071.132681,0.000000
1393.001435,6883.915261,-4811.338623,306.438199
1393.001764,9770.718434,-6883.915261,2451.505594
1393.002093,10362.883188,-6661.853478,3294.210641
1393.002422,8586.388927,-4441.235652,1302.362347
1393.002751,8216.285956,-2738.761985,0.000000
1393.003080,7920.203579,-6957.935855,1532.190996
1393.003410,6439.791695,-9400.615463,2451.505594
1393.003739,4293.194464,-9178.553681,919.314598
1393.004068,2294.638420,-7476.080014,-1685.410096
1393.004397,1998.556043,-7994.224174,-919.314598
1393.004726,4515.256246,-9326.594869,1378.971896
1393.005055,7994.224174,-8290.306550,2834.553343
1393.005384,8068.244768,-5181.441594,1149.143247
1393.005713,7550.100608,-3849.070898,153.219100
1393.006042,7698.141797,-5255.462188,536.266849
1393.006372,8512.368333,-7846.182985,2221.676944
1393.006701,8216.285956,-7105.977043,1685.410096
1393.007030,6217.729913,-5033.400406,-306.438199
1393.007359,6217.729913,-5699.585753,0.000000
1393.007688,8216.285956,-7920.203579,1915.238745
1393.008017,9992.780217,-8216.285956,4290.134789
1393.008346,8364.327145,-5255.462188,1302.362347
1393.008675,6735.874072,-3627.009116,0.000000
1393.009005,6217.729913,-5995.668130,536.266849
1393.009334,5847.626942,-8660.409521,1915.238745
1393.009663,4885.359217,-8438.347739,1149.143247
1393.009992,4145.153275,-5921.647536,-1149.143247
1393.010321,4515.256246,-6365.771101,-919.314598
1393.010650,6217.729913,-9030.512492,2145.067394
1393.010979,7920.203579,-8660.409521,2911.162892
1393.011308,8512.368333,-5625.565159,1378.971896
1393.011637,7179.997637,-3330.926739,-459.657299
1393.011967,7328.038826,-5181.441594,0.000000
1393.012296,7994.224174,-7550.100608,2528.115143
1393.012625,8660.409521,-7031.956449,2298.286494
1393.012954,7105.977043,-5403.503377,0.000000
1393.013283,6291.750507,-4737.318029,0.000000
1393.013612,7179.997637,-7698.141797,1991.848295
1393.013941,9030.512492,-7624.121203,3370.820191
1393.014270,8216.285956,-4811.338623,1915.238745
1393.014600,6735.874072,-3182.885551,-536.266849
1393.014929,6661.853478,-5329.482782,612.876398
1393.015258,6957.935855,-9178.553681,2451.505594
1393.015587,7105.977043,-9326.594869,1149.143247
1393.015916,4959.379811,-7179.997637,-306.438199
1393.016245,4441.235652,-6513.812290,-1149.143247
1393.016574,5329.482782,-9474.636058,919.314598
1393.016903,7402.059420,-9548.656652,3064.381992
1393.017232,8882.471304,-5995.668130,1149.143247
1393.017562,7994.224174,-2960.823768,0.000000
1393.017891,7402.059420,-4219.173869,536.266849
1393.018220,7328.038826,-7179.997637,1991.848295
1393.018549,7328.038826,-6883.915261,2068.457845
1393.018878,6291.750507,-4515.256246,0.000000
1393.019207,6143.709319,-5033.400406,-306.438199
1393.019536,7476.080014,-7254.018232,2068.457845
1393.019865,8808.450710,-8142.265362,3140.991542
1393.020194,8808.450710,-6143.709319,1915.238745
1393.020524,7846.182985,-3330.926739,306.438199
1393.020853,7031.956449,-6291.750507,76.609550
1393.021182,6809.894666,-9252.574275,1762.019645
1393.021511,6513.812290,-9252.574275,1838.629195
1393.021840,4959.379811,-6809.894666,-1072.533697
1393.022169,4367.215058,-6587.832884,-919.314598
1393.022498,5551.544565,-8660.409521,842.705048
1393.022827,7550.100608,-9252.574275,2068.457845
1393.023157,7402.059420,-6587.832884,1685.410096
1393.023486,6957.935855,-3034.844362,0.000000
1393.023815,6809.894666,-3997.112087,-76.609550
1393.024144,7698.141797,-7179.997637,2221.676944
1393.024473,8068.244768,-7698.141797,2451.505594
1393.024802,7328.038826,-5033.400406,536.266849
1393.025131,6291.750507,-3849.070898,0.000000
1393.025460,6735.874072,-7179.997637,1532.190996
1393.025789,8808.450710,-8660.409521,2757.943793
1393.026119,8216.285956,-6661.853478,2374.896044
1393.026448,6957.935855,-3404.947333,76.609550
1393.026777,6809.894666,-5181.441594,229.828649
1393.027106,7254.018232,-8512.368333,2681.334243
1393.027435,7105.977043,-9326.594869,1838.629195
1393.027764,5403.503377,-5403.503377,0.000000
1393.028093,3775.050304,-6587.832884,-919.314598
1393.028422,4737.318029,-9548.656652,459.657299
1393.028752,6735.874072,-8364.327145,2374.896044
1393.029081,7254.018232,-6661.853478,2298.286494
1393.029410,7550.100608,-3182.885551,0.000000
1393.029739,7624.121203,-4219.173869,689.485948
1393.030068,8586.388927,-6587.832884,2221.676944
1393.030397,8364.327145,-7846.182985,1991.848295
1393.030726,7476.080014,-4885.359217,229.828649
1393.031055,6735.874072,-4293.194464,-383.047749
1393.031384,7254.018232,-7031.956449,1149.143247
1393.031714,9030.512492,-7846.182985,3524.039291
1393.032043,9252.574275,-6809.894666,2221.676944
1393.032372,8142.265362,-2886.803174,-459.657299
1393.032701,6809.894666,-3775.050304,459.657299
1393.033030,7624.121203,-8290.306550,1991.848295
1393.033359,7328.038826,-8808.450710,2681.334243
1393.033688,5403.503377,-7402.059420,-459.657299
1393.034017,3552.988522,-5995.668130,-1455.581446
1393.034346,4441.235652,-8142.265362,689.485948
1393.034676,6439.791695,-9992.780217,2068.457845
1393.035005,7105.977043,-7920.203579,1378.971896
1393.035334,6217.729913,-4737.318029,0.000000
1393.035663,6957.935855,-5329.482782,0.000000
1393.035992,7698.141797,-7476.080014,1149.143247
1393.036321,7624.121203,-8438.347739,2834.553343
1393.036650,6957.935855,-6439.791695,459.657299
1393.036979,6143.709319,-4885.359217,-766.095498
1393.037309,6217.729913,-6439.791695,842.705048
1393.037638,7698.141797,-8438.347739,2987.772442
1393.037967,9326.594869,-5921.647536,2528.115143
1393.038296,7624.121203,-3627.009116,1072.533697
1393.038625,6735.874072,-4071.132681,306.438199
1393.038954,7105.977043,-7105.977043,1991.848295
1393.039283,7550.100608,-8808.450710,2451.505594
1393.039612,5625.565159,-6957.935855,229.828649
1393.039941,4145.153275,-5255.462188,-1072.533697
1393.040271,5551.544565,-7846.182985,459.657299
1393.040600,7105.977043,-9474.636058,2528.115143
1393.040929,8216.285956,-7846.182985,2298.286494
1393.041258,7105.977043,-4663.297435,0.000000
1393.041587,6513.812290,-4441.235652,0.000000
1393.041916,7105.977043,-6513.812290,1149.143247
1393.042245,7328.038826,-8068.244768,2298.286494
1393.042574,6883.915261,-6143.709319,1072.533697
1393.042903,5847.626942,-4663.297435,-612.876398
1393.043233,5699.585753,-6661.853478,153.219100
1393.043562,7846.182985,-7920.203579,2451.505594
1393.043891,8734.430116,-8364.327145,2757.943793
1393.044220,7402.059420,-4811.338623,1378.971896
1393.044549,6883.915261,-3775.050304,-229.828649
1393.044878,7698.141797,-6217.729913,1608.800546
1393.045207,8364.327145,-8734.430116,2451.505594
1393.045536,6809.894666,-7105.977043,995.924147
1393.045866,4515.256246,-5551.544565,-1149.143247
1393.046195,5107.421000,-6661.853478,-306.438199
1393.046524,7105.977043,-8734.430116,2451.505594
1393.046853,7994.224174,-8364.327145,2681.334243
1393.047182,6513.812290,-5329.482782,995.924147
1393.047511,5551.544565,-3330.926739,-459.657299
1393.047840,6735.874072,-6217.729913,612.876398
1393.048169,7179.997637,-8512.368333,2068.457845
1393.048498,7105.977043,-7402.059420,1685.410096
1393.048828,6809.894666,-5403.503377,0.000000
1393.049157,6809.894666,-6661.853478,995.924147
1393.049486,8438.347739,-7698.141797,2528.115143
1393.049815,9178.553681,-7254.018232,2604.724693
1393.050144,8216.285956,-4811.338623,689.485948
1393.050473,7179.997637,-3404.947333,-612.876398
1393.050802,7179.997637,-6513.812290,842.705048
1393.051131,7328.038826,-8216.285956,2374.896044
1393.051461,6587.832884,-7994.224174,1149.143247
1393.051790,5033.400406,-7105.977043,0.000000
1393.052119,4145.153275,-7105.977043,-383.047749
1393.052448,5699.585753,-9474.636058,1455.581446
1393.052777,6957.935855,-8808.450710,2068.457845
1393.053106,7105.977043,-5625.565159,612.876398
1393.053435,7105.977043,-3404.947333,-766.095498
1393.053764,7402.059420,-5477.523971,919.314598
1393.054093,7846.182985,-8142.265362,2451.505594
1393.054423,7624.121203,-7179.997637,1838.629195
1393.054752,6439.791695,-5255.462188,306.438199
1393.055081,6661.853478,-5625.565159,383.047749
1393.055410,7994.224174,-7698.141797,2374.896044
1393.055739,8882.471304,-7772.162391,3370.820191
1393.056068,7846.182985,-4737.318029,995.924147
1393.056397,6957.935855,-3182.885551,383.047749
1393.056726,7105.977043,-4959.379811,842.705048
1393.057055,7328.038826,-7624.121203,2451.505594
1393.057385,6143.709319,-8734.430116,2068.457845
1393.057714,4811.338623,-6291.750507,0.000000
1393.058043,5255.462188,-6291.750507,459.657299
1393.058372,7328.038826,-8068.244768,2068.457845
1393.058701,8956.491898,-7550.100608,3064.381992
1393.059030,8290.306550,-5329.482782,1149.143247
1393.059359,6513.812290,-3923.091493,0.000000
1393.059688,6217.729913,-4885.359217,-153.219100
1393.060018,6291.750507,-7550.100608,1072.533697
1393.060347,6809.894666,-8216.285956,1302.362347
1393.060676,5995.668130,-6513.812290,0.000000
1393.061005,6217.729913,-5625.565159,153.219100
1393.061334,7402.059420,-7994.224174,1915.238745
1393.061663,8882.471304,-6957.935855,2834.553343
1393.061992,8734.430116,-4663.297435,1455.581446
1393.062321,7624.121203,-3404.947333,-383.047749
1393.062650,7772.162391,-4959.379811,1302.362347
1393.062980,8438.347739,-8438.347739,2528.115143
1393.063309,7920.203579,-8438.347739,2451.505594
1393.063638,6069.688724,-6365.771101,766.095498
1393.063967,5625.565159,-6439.791695,766.095498
1393.064296,5625.565159,-8216.285956,1149.143247
1393.064625,6439.791695,-8808.450710,2221.676944
1393.064954,5921.647536,-6883.915261,612.876398
1393.065283,5551.544565,-4071.132681,-995.924147
1393.065612,5329.482782,-5255.462188,-229.828649
1393.065942,6587.832884,-8660.409521,842.705048
1393.066271,6735.874072,-9474.636058,2221.676944
1393.066600,6513.812290,-6439.791695,76.609550
1393.066929,6143.709319,-5921.647536,-612.876398
1393.067258,8216.285956,-6291.750507,1378.971896
1393.067587,9622.677246,-7476.080014,2451.505594
1393.067916,9178.553681,-5625.565159,1915.238745
1393.068245,8142.265362,-3478.967927,766.095498
1393.068574,8660.409521,-3701.029710,76.609550
1393.068903,8882.471304,-7179.997637,2374.896044
1393.069232,7476.080014,-8586.388927,3064.381992
1393.069562,5329.482782,-6883.915261,229.828649
1393.069891,4293.194464,-7031.956449,-689.485948
1393.070220,4293.194464,-8364.327145,919.314598
1393.070549,5995.668130,-8142.265362,1838.629195
1393.070878,6809.894666,-6143.709319,612.876398
1393.071207,6365.771101,-4293.194464,0.000000
1393.071536,7624.121203,-5329.482782,0.000000
1393.071865,7772.162391,-6883.915261,1991.848295
1393.072194,8068.244768,-7994.224174,2451.505594
1393.072523,6957.935855,-5847.626942,383.047749
1393.072853,6217.729913,-4737.318029,-612.876398
1393.073182,7254.018232,-7624.121203,1378.971896
1393.073511,8586.388927,-9104.533087,3140.991542
1393.073840,8142.265362,-7179.997637,1915.238745
1393.074169,7105.977043,-3701.029710,0.000000
1393.074498,6809.894666,-4589.276840,306.438199
1393.074827,8216.285956,-7328.038826,1685.410096
1393.075156,7179.997637,-8660.409521,2451.505594
1393.075485,5181.441594,-6883.915261,383.047749
1393.075814,4737.318029,-5107.421000,-1072.533697
1393.076144,6143.709319,-7402.059420,995.924147
1393.076473,7105.977043,-8364.327145,2987.772442
1393.076802,7920.203579,-6883.915261,1991.848295
1393.077131,7328.038826,-4219.173869,-306.438199
1393.077460,7624.121203,-3330.926739,306.438199
1393.077789,8438.347739,-6069.688724,1838.629195
1393.078118,8734.430116,-7698.141797,2528.115143
1393.078447,6809.894666,-6439.791695,842.705048
1393.078776,4959.379811,-5255.462188,-766.095498
1393.079105,5255.462188,-7031.956449,0.000000
1393.079435,7031.956449,-8808.450710,2374.896044
1393.079764,8216.285956,-7624.121203,2221.676944
1393.080093,7476.080014,-4589.276840,766.095498
1393.080422,7105.977043,-3997.112087,76.609550
1393.080751,7105.977043,-6883.915261,1072.533697
1393.081080,8068.244768,-8142.265362,2604.724693
1393.081409,7031.956449,-5921.647536,76.609550
1393.081738,5551.544565,-5403.503377,-842.705048
1393.082067,5921.647536,-7031.956449,306.438199
1393.082396,7994.224174,-8956.491898,2681.334243
1393.082726,8734.430116,-7402.059420,2911.162892
1393.083055,7624.121203,-4441.235652,383.047749
1393.083384,6735.874072,-4663.297435,-306.438199
1393.083713,6809.894666,-6365.771101,1378.971896
1393.084042,6069.688724,-8512.368333,2221.676944
1393.084371,6217.729913,-7402.059420,459.657299
1393.084700,5625.565159,-5773.606348,-842.705048
1393.085029,5625.565159,-6587.832884,536.266849
1393.085358,7254.018232,-9178.553681,2528.115143
1393.085687,8586.388927,-8364.327145,2834.553343
1393.086016,7254.018232,-5033.400406,153.219100
1393.086346,6661.853478,-4441.235652,-306.438199
1393.086675,7476.080014,-7476.080014,1762.019645
1393.087004,8142.265362,-8882.471304,2834.553343
1393.087333,6809.894666,-7105.977043,995.924147
1393.087662,5255.462188,-4737.318029,-612.876398
1393.087991,5995.668130,-5699.585753,-229.828649
1393.088320,7846.182985,-8660.409521,3217.601092
1393.088649,8438.347739,-7476.080014,2757.943793
1393.088978,7031.956449,-3997.112087,0.000000
1393.089307,5773.606348,-3775.050304,-612.876398
1393.089637,6143.709319,-5921.647536,459.657299
1393.089966,6735.874072,-8364.327145,2298.286494
1393.090295,6587.832884,-7031.956449,1149.143247
1393.090624,6291.750507,-4959.379811,0.000000
1393.090953,7328.038826,-5477.523971,766.095498
1393.091282,8586.388927,-7179.997637,2604.724693
1393.091611,8734.430116,-7105.977043,2834.553343
1393.091940,8290.306550,-4293.194464,689.485948
1393.092269,7105.977043,-3330.926739,0.000000
1393.092598,7550.100608,-7105.977043,1685.410096
1393.092928,8216.285956,-8882.471304,3524.039291
1393.093257,7328.038826,-7698.141797,2068.457845
1393.093586,5107.421000,-5699.585753,-536.266849
1393.093915,3404.947333,-6069.688724,-459.657299
1393.094244,6439.791695,-8956.491898,1762.019645
1393.094573,8142.265362,-8364.327145,3064.381992
1393.094902,7402.059420,-4811.338623,1378.971896
1393.095231,6883.915261,-3701.029710,-383.047749
1393.095560,7179.997637,-5403.503377,612.876398
1393.095889,7550.100608,-7698.141797,2068.457845
1393.096219,6735.874072,-7920.203579,1149.143247
1393.096548,5995.668130,-5181.441594,-383.047749
1393.096877,6365.771101,-5329.482782,-689.485948
1393.097206,6809.894666,-8734.430116,1762.019645
1393.097535,7772.162391,-9548.656652,2604.724693
1393.097864,8808.450710,-4811.338623,995.924147
1393.098193,7772.162391,-4145.153275,0.000000
1393.098522,7179.997637,-6587.832884,1532.190996
1393.098851,8068.244768,-9030.512492,2987.772442
1393.099180,6735.874072,-8438.347739,919.314598
1393.099510,4145.153275,-5847.626942,-306.438199
1393.099839,4441.235652,-6735.874072,-766.095498
1393.100168,6661.853478,-8882.471304,1455.581446
1393.100497,8216.285956,-7846.182985,2834.553343
1393.100826,7402.059420,-5921.647536,1378.971896
1393.101155,7328.038826,-2812.782580,0.000000
1393.101484,7105.977043,-5773.606348,842.705048
1393.101813,7105.977043,-8142.265362,2298.286494
1393.102142,7105.977043,-7031.956449,1302.362347
1393.102471,5699.585753,-6439.791695,-459.657299
1393.102800,5551.544565,-5033.400406,-229.828649
1393.103130,6513.812290,-8660.409521,1149.143247
1393.103459,8068.244768,-9622.677246,2681.334243
1393.103788,7846.182985,-6513.812290,1072.533697
1393.104117,7031.956449,-4219.173869,0.000000
1393.104446,6809.894666,-5995.668130,1072.533697
1393.104775,7772.162391,-7920.203579,1838.629195
1393.105104,7105.977043,-8586.388927,2604.724693
1393.105433,5995.668130,-3849.070898,-689.485948
1393.105762,6069.688724,-5329.482782,-306.438199
1393.106091,6735.874072,-7402.059420,2451.505594
1393.106421,8808.450710,-7550.100608,3217.601092
1393.106750,9030.512492,-3627.009116,1685.410096
1393.107079,7105.977043,-3182.885551,0.000000
1393.107408,6291.750507,-5625.565159,-306.438199
1393.107737,7772.162391,-6735.874072,2757.943793
1393.108066,7031.956449,-8956.491898,1532.190996
1393.108395,6217.729913,-5625.565159,459.657299
1393.108724,5699.585753,-4663.297435,-536.266849
1393.109053,6957.935855,-7920.203579,459.657299
1393.109382,8290.306550,-7994.224174,3600.648841
1393.109712,8068.244768,-7402.059420,1838.629195
1393.110041,8290.306550,-3330.926739,0.000000
1393.110370,7105.977043,-5107.421000,842.705048
1393.110699,7254.018232,-8882.471304,2068.457845
1393.111028,7920.203579,-7846.182985,1838.629195
1393.111357,5625.565159,-6217.729913,-229.828649
1393.111686,4737.318029,-4737.318029,-1378.971896
1393.112015,5477.523971,-7698.141797,383.047749
1393.112344,7179.997637,-9252.574275,2451.505594
1393.112673,7254.018232,-7105.977043,919.314598
1393.113003,6735.874072,-4737.318029,0.000000
1393.113332,6143.709319,-5699.585753,153.219100
1393.113661,7179.997637,-8660.409521,1915.238745
1393.113990,7031.956449,-7772.162391,2221.676944
1393.114319,5995.668130,-5699.585753,0.000000
1393.114648,5477.523971,-5107.421000,-842.705048
1393.114977,6439.791695,-7105.977043,1455.581446
1393.115306,7920.203579,-9104.533087,3447.429741
1393.115635,8734.430116,-7105.977043,2298.286494
1393.115964,7402.059420,-4663.297435,76.609550
1393.116294,6661.853478,-5847.626942,153.219100
1393.116623,7105.977043,-7624.121203,1685.410096
1393.116952,7328.038826,-8438.347739,2374.896044
1393.117281,6587.832884,-6439.791695,0.000000
1393.117610,5403.503377,-4885.359217,-536.266849
1393.117939,5625.565159,-7698.141797,842.705048
1393.118268,7105.977043,-8142.265362,2221.676944
1393.118597,7550.100608,-7031.956449,1685.410096
1393.118926,7402.059420,-3478.967927,0.000000
1393.119255,7328.038826,-3923.091493,842.705048
1393.119584,7994.224174,-7031.956449,2451.505594
1393.119914,8512.368333,-6365.771101,2451.505594
1393.120243,7105.977043,-5403.503377,383.047749
1393.120572,6513.812290,-4663.297435,0.000000
1393.120901,6957.935855,-6069.688724,1149.143247
1393.121230,8364.327145,-8586.388927,2987.772442
1393.121559,8734.430116,-6957.935855,2451.505594
1393.121888,7846.182985,-3775.050304,229.828649
1393.122217,6957.935855,-5033.400406,612.876398
1393.122546,7402.059420,-7846.182985,2068.457845
1393.122875,6735.874072,-9548.656652,1532.190996
1393.123205,5477.523971,-6513.812290,0.000000
1393.123534,4293.194464,-5995.668130,-766.095498
1393.123863,5107.421000,-7846.182985,383.047749
1393.124192,7179.997637,-9400.615463,2604.724693
1393.124521,8364.327145,-7550.100608,2145.067394
1393.124850,7920.203579,-4515.256246,306.438199
1393.125179,6809.894666,-3478.967927,0.000000
1393.125508,6809.894666,-6143.709319,766.095498
1393.125837,6809.894666,-8290.306550,1838.629195
1393.126166,7031.956449,-6513.812290,919.314598
1393.126496,5551.544565,-4811.338623,-919.314598
1393.126825,5255.462188,-7031.956449,383.047749
1393.127154,6957.935855,-9474.636058,2145.067394
1393.127483,8364.327145,-8734.430116,2681.334243
1393.127812,7402.059420,-3849.070898,306.438199
1393.128141,7550.100608,-3627.009116,383.047749
1393.128470,8142.265362,-6809.894666,1838.629195
1393.128799,8216.285956,-8734.430116,2987.772442
1393.129128,7105.977043,-6735.874072,1762.019645
1393.129457,5995.668130,-4441.235652,-153.219100
1393.129787,5477.523971,-6809.894666,919.314598
1393.130116,6143.709319,-8808.450710,1838.629195
1393.130445,6957.935855,-7105.977043,2068.457845
1393.130774,6883.915261,-5403.503377,0.000000
1393.131103,7179.997637,-4663.297435,459.657299
1393.131432,7328.038826,-6513.812290,1608.800546
1393.131761,7328.038826,-8512.368333,2374.896044
1393.132090,7031.956449,-6661.853478,306.438199
1393.132419,5847.626942,-4885.359217,-153.219100
1393.132748,5995.668130,-7031.956449,383.047749
1393.133078,8290.306550,-9252.574275,2911.162892
1393.133407,9326.594869,-8216.285956,2528.115143
1393.133736,8364.327145,-5625.565159,306.438199
1393.134065,7105.977043,-3775.050304,306.438199
1393.134394,6809.894666,-7105.977043,842.705048
1393.134723,6735.874072,-9030.512492,1991.848295
1393.135052,5033.400406,-7624.121203,842.705048
1393.135381,4145.153275,-5921.647536,-1225.752797
1393.135710,4071.132681,-6809.894666,-612.876398
1393.136039,5181.441594,-10510.924376,2145.067394
1393.136368,7254.018232,-8734.430116,2528.115143
1393.136698,7624.121203,-4515.256246,919.314598
1393.137027,7698.141797,-2664.741391,383.047749
1393.137356,8290.306550,-4441.235652,1225.752797
1393.137685,9178.553681,-7105.977043,2528.115143
1393.138014,8586.388927,-5551.544565,1455.581446
1393.138343,6883.915261,-4885.359217,-612.876398
1393.138672,7031.956449,-5181.441594,919.314598
1393.139001,7772.162391,-7920.203579,2528.115143
1393.139330,8216.285956,-7179.997637,2068.457845
1393.139659,7105.977043,-4589.276840,612.876398
1393.139989,6587.832884,-4071.132681,-536.266849
1393.140318,7105.977043,-6587.832884,689.485948
1393.140647,7105.977043,-8882.471304,2528.115143
1393.140976,6069.688724,-8364.327145,1302.362347
1393.141305,4441.235652,-6513.812290,-995.924147
1393.141634,4663.297435,-6809.894666,0.000000
1393.141963,6587.832884,-9918.759623,2374.896044
1393.142292,8290.306550,-8068.244768,2604.724693
1393.142621,8142.265362,-4219.173869,612.876398
1393.142950,7476.080014,-3256.906145,-153.219100
1393.143280,8512.368333,-4589.276840,1225.752797
1393.143609,8734.430116,-7550.100608,2681.334243
1393.143938,7994.224174,-7179.997637,2068.457845
1393.144267,6439.791695,-5107.421000,306.438199
1393.144596,5329.482782,-5551.544565,-689.485948
1393.144925,5477.523971,-8956.491898,612.876398
1393.145254,6513.812290,-9548.656652,2298.286494
1393.145583,6735.874072,-8068.244768,689.485948
1393.145912,6661.853478,-4959.379811,-229.828649
1393.146241,7105.977043,-5551.544565,842.705048
1393.146571,8438.347739,-8512.368333,2221.676944
1393.146900,7476.080014,-8512.368333,1532.190996
1393.147229,5551.544565,-6217.729913,-76.609550
1393.147558,5329.482782,-6143.709319,-383.047749
1393.147887,6809.894666,-7994.224174,1532.190996
1393.148216,7920.203579,-7772.162391,3140.991542
1393.148545,8216.285956,-4811.338623,1302.362347
1393.148874,7698.141797,-2812.782580,-229.828649
1393.149203,7550.100608,-4663.297435,1225.752797
1393.149532,7994.224174,-7105.977043,2757.943793
1393.149861,7624.121203,-6883.915261,2221.676944
1393.150191,6217.729913,-4441.235652,0.000000
1393.150520,5107.421000,-4885.359217,-612.876398
1393.150849,5847.626942,-7624.121203,1455.581446
1393.151178,7994.224174,-9474.636058,3294.210641
1393.151507,7920.203579,-6291.750507,1915.238745
1393.151836,6809.894666,-3849.070898,459.657299
1393.152165,6513.812290,-5847.626942,612.876398
1393.152494,6735.874072,-8956.491898,2528.115143
1393.152823,6439.791695,-10066.800811,2374.896044
1393.153152,5107.421000,-6217.729913,459.657299
1393.153482,4885.359217,-5107.421000,-536.266849
1393.153811,6513.812290,-7920.203579,1302.362347
1393.154140,8142.265362,-8734.430116,2528.115143
1393.154469,7846.182985,-6513.812290,1455.581446
1393.154798,7179.997637,-4515.256246,-153.219100
1393.155127,6587.832884,-4663.297435,0.000000
1393.155456,7624.121203,-7254.018232,1532.190996
1393.155785,7772.162391,-7772.162391,1762.019645
1393.156114,6661.853478,-6587.832884,459.657299
1393.156443,5921.647536,-5255.462188,0.000000
1393.156773,6587.832884,-6661.853478,1149.143247
1393.157102,8586.388927,-7698.141797,2911.162892
1393.157431,9030.512492,-5625.565159,2451.505594
1393.157760,8068.244768,-3923.091493,0.000000
1393.158089,7179.997637,-4811.338623,919.314598
1393.158418,7105.977043,-8808.450710,2221.676944
1393.158747,6513.812290,-10436.903782,1608.800546
1393.159076,4293.194464,-7994.224174,-459.657299
1393.159405,2368.659014,-8660.409521,-1762.019645
1393.159734,2368.659014,-10955.047942,-919.314598
1393.160064,4071.132681,-12879.583391,1225.752797
1393.160393,5255.462188,-9696.697840,689.485948
1393.160722,5477.523971,-5995.668130,-1149.143247
1393.161051,5625.565159,-6439.791695,-766.095498
1393.161380,7328.038826,-7402.059420,1455.581446
1393.161709,8512.368333,-9178.553681,2451.505594
1393.162038,7846.182985,-5551.544565,1149.143247
1393.162367,6883.915261,-4589.276840,0.000000
1393.162696,7105.977043,-6217.729913,842.705048
1393.163025,7920.203579,-8290.306550,3064.381992
1393.163354,7254.018232,-8586.388927,3753.867940
1393.163684,6661.853478,-4737.318029,1302.362347
1393.164013,5847.626942,-2738.761985,1225.752797
1393.164342,6439.791695,-5847.626942,1378.971896
1393.164671,6365.771101,-8660.409521,2451.505594
1393.165000,5699.585753,-8438.347739,1762.019645
1393.165329,3256.906145,-6587.832884,-995.924147
1393.165658,2368.659014,-8586.388927,-1225.752797
1393.165987,3182.885551,-12213.398043,2068.457845
1393.166316,4663.297435,-11325.150913,2757.943793
1393.166645,4367.215058,-8734.430116,153.219100
1393.166974,3775.050304,-6957.935855,-383.047749
1393.167303,4589.276840,-8290.306550,766.095498
1393.167632,6809.894666,-9770.718434,2451.505594
1393.167961,6661.853478,-9326.594869,2451.505594
1393.168290,4959.379811,-7920.203579,766.095498
1393.168620,3552.988522,-8068.244768,0.000000
1393.168949,3849.070898,-9548.656652,1378.971896
1393.169278,4663.297435,-10066.800811,2604.724693
1393.169607,4811.338623,-8808.450710,1762.019645
1393.169936,4663.297435,-6365.771101,0.000000
1393.170265,4071.132681,-7254.018232,536.266849
1393.170594,6365.771101,-8142.265362,1838.629195
1393.170923,7328.038826,-8142.265362,2298.286494
1393.171252,5995.668130,-8142.265362,1302.362347
1393.171581,3701.029710,-8808.450710,689.485948
1393.171910,2590.720797,-9030.512492,0.000000
1393.172239,3552.988522,-10066.800811,459.657299
1393.172568,4737.318029,-9844.739029,536.266849
1393.172897,4589.276840,-10362.883188,2221.676944
1393.173226,4441.235652,-11103.089130,1915.238745
1393.173556,3923.091493,-9548.656652,1455.581446
1393.173885,4515.256246,-7698.141797,383.047749
1393.174214,5551.544565,-6809.894666,0.000000
1393.174543,5995.668130,-7105.977043,1149.143247
1393.174872,5773.606348,-9548.656652,1762.019645
1393.175201,6217.729913,-9104.533087,1991.848295
1393.175530,5625.565159,-6883.915261,919.314598
1393.175859,4811.338623,-6809.894666,383.047749
1393.176188,4589.276840,-8586.388927,306.438199
1393.176517,4589.276840,-10510.924376,689.485948
1393.176846,4959.379811,-10584.944971,1455.581446
1393.177175,4885.359217,-8882.471304,1378.971896
1393.177504,5033.400406,-7254.018232,842.705048
1393.177833,4663.297435,-7772.162391,459.657299
1393.178162,4959.379811,-7994.224174,612.876398
1393.178492,5995.668130,-7402.059420,995.924147
1393.178821,7105.977043,-6883.915261,1762.019645
1393.179150,6809.894666,-6069.688724,2221.676944
1393.179479,7254.018232,-6661.853478,1608.800546
1393.179808,6365.771101,-7920.203579,1302.362347
1393.180137,4737.318029,-9326.594869,1225.752797
1393.180466,3330.926739,-10288.862594,842.705048
1393.180795,2886.803174,-9622.677246,0.000000
1393.181124,3034.844362,-10658.965565,-689.485948
1393.181453,3552.988522,-12213.398043,766.095498
1393.181782,3404.947333,-12509.480420,1378.971896
1393.182111,3330.926739,-11621.233289,1762.019645
1393.182440,3775.050304,-8216.285956,1072.533697
1393.182769,5033.400406,-5773.606348,1532.190996
1393.183098,6587.832884,-4811.338623,1838.629195
1393.183428,7328.038826,-4589.276840,2221.676944
1393.183757,7031.956449,-5477.523971,2298.286494
1393.184086,6291.750507,-5995.668130,766.095498
1393.184415,5921.647536,-7105.977043,1378.971896
1393.184744,4885.359217,-8660.409521,1149.143247
1393.185073,3627.009116,-10881.027347,689.485948
1393.185402,2442.679609,-12509.480420,153.219100
1393.185731,1998.556043,-12509.480420,-689.485948
1393.186060,2516.700203,-11843.295072,-459.657299
1393.186389,4071.132681,-10807.006753,612.876398
1393.186718,5107.421000,-10732.986159,1762.019645
1393.187047,4663.297435,-10362.883188,1378.971896
1393.187376,3849.070898,-7994.224174,2068.457845
1393.187705,4441.235652,-7105.977043,2145.067394
1393.188034,6513.812290,-6069.688724,2681.334243
1393.188364,7105.977043,-4959.379811,2681.334243
1393.188693,6143.709319,-4959.379811,1149.143247
1393.189022,5181.441594,-5329.482782,536.266849
1393.189351,4811.338623,-7698.141797,306.438199
1393.189680,4811.338623,-9400.615463,0.000000
1393.190009,4145.153275,-10510.924376,0.000000
1393.190338,4293.194464,-12065.356855,842.705048
1393.190667,4737.318029,-11991.336260,1225.752797
1393.190996,5773.606348,-11695.253884,1608.800546
1393.191325,6365.771101,-9548.656652,1302.362347
1393.191654,5551.544565,-9030.512492,1302.362347
1393.191983,4737.318029,-8586.388927,1302.362347
1393.192312,3849.070898,-8586.388927,842.705048
1393.192641,3775.050304,-7624.121203,842.705048
1393.192970,4737.318029,-6809.894666,689.485948
1393.193300,5477.523971,-7105.977043,919.314598
1393.193629,5255.462188,-6661.853478,1225.752797
1393.193958,5329.482782,-6735.874072,1302.362347
1393.194287,5699.585753,-6809.894666,842.705048
1393.194616,5329.482782,-7846.182985,689.485948
1393.194945,5847.626942,-9474.636058,1685.410096
1393.195274,6143.709319,-10362.883188,1685.410096
1393.195603,6143.709319,-10214.842000,1991.848295
1393.195932,5773.606348,-9696.697840,2068.457845
1393.196261,5477.523971,-8364.327145,1608.800546
1393.196590,4885.359217,-7920.203579,1378.971896
1393.196919,4441.235652,-7476.080014,383.047749
1393.197248,3256.906145,-7698.141797,383.047749
1393.197577,3182.885551,-7772.162391,-459.657299
1393.197906,3478.967927,-7550.100608,-1225.752797
1393.198235,3552.988522,-8216.285956,-306.438199
1393.198565,4811.338623,-9104.533087,153.219100
1393.198894,5699.585753,-9622.677246,766.095498
1393.199223,6143.709319,-9696.697840,1225.752797
1393.199552,6513.812290,-9622.677246,1838.629195
1393.199881,6513.812290,-9474.636058,2298.286494
1393.200210,6513.812290,-9622.677246,2834.553343
1393.200539,5699.585753,-8512.368333,2528.115143
1393.200868,5403.503377,-7402.059420,2911.162892
1393.201197,5773.606348,-6661.853478,2834.553343
1393.201526,6143.709319,-6217.729913,3140.991542
1393.201855,6439.791695,-6217.729913,3370.820191
1393.202184,5699.585753,-6365.771101,2221.676944
1393.202513,4737.318029,-7550.100608,1532.190996
1393.202842,4071.132681,-8142.265362,689.485948
1393.203171,4219.173869,-9696.697840,536.266849
1393.203501,3849.070898,-10140.821405,766.095498
1393.203830,3701.029710,-10658.965565,1149.143247
1393.204159,4145.153275,-12065.356855,2068.457845
1393.204488,4737.318029,-11325.150913,2757.943793
1393.204817,5551.544565,-10214.842000,3370.820191
1393.205146,6143.709319,-7476.080014,3753.867940
1393.205475,7105.977043,-6291.750507,4443.353888
1393.205804,7105.977043,-5255.462188,4136.915689
1393.206133,7031.956449,-3997.112087,4290.134789
1393.206462,7402.059420,-4071.132681,3677.258390
1393.206791,7402.059420,-4441.235652,2681.334243
1393.207120,6069.688724,-6291.750507,2451.505594
1393.207449,5847.626942,-7994.224174,2604.724693
1393.207778,6513.812290,-8512.368333,2374.896044
1393.208107,5995.668130,-8956.491898,2834.553343
1393.208437,5773.606348,-9030.512492,3447.429741
1393.208766,5403.503377,-8364.327145,3064.381992
1393.209095,5107.421000,-8364.327145,3064.381992
1393.209424,5033.400406,-7550.100608,3370.820191
1393.209753,5551.544565,-6439.791695,3524.039291
1393.210082,6809.894666,-5625.565159,4443.353888
1393.210411,7920.203579,-4367.215058,4979.620737
1393.210740,8882.471304,-3478.967927,4979.620737
1393.211069,9326.594869,-2664.741391,4903.011187
1393.211398,9104.533087,-3256.906145,4903.011187
1393.211727,9030.512492,-4293.194464,4596.572988
1393.212056,8512.368333,-5181.441594,4443.353888
1393.212385,7994.224174,-7105.977043,4366.744339
1393.212714,7550.100608,-8438.347739,3983.696590
1393.213043,6439.791695,-9844.739029,3830.477490
1393.213373,4959.379811,-10288.862594,3064.381992
1393.213702,4145.153275,-9992.780217,2374.896044
1393.214031,3330.926739,-9474.636058,2987.772442
1393.214360,3256.906145,-9474.636058,3447.429741
1393.214689,3552.988522,-8660.409521,3907.087040
1393.215018,4663.297435,-7031.956449,4060.306139
1393.215347,6587.832884,-5403.503377,4136.915689
1393.215676,8290.306550,-4737.318029,5515.887586
1393.216005,9548.656652,-4367.215058,6358.592633
1393.216334,10066.800811,-3997.112087,6281.983084
1393.216663,10288.862594,-3404.947333,6205.373534
1393.216992,10584.944971,-3627.009116,5439.278036
1393.217321,9326.594869,-4145.153275,4979.620737
1393.217650,8586.388927,-5107.421000,5056.230287
1393.217979,7846.182985,-5921.647536,4366.744339
1393.218309,6587.832884,-6883.915261,4749.792088
1393.218638,5847.626942,-8438.347739,4213.525239
1393.218967,4885.359217,-10066.800811,4290.134789
1393.219296,3552.988522,-10362.883188,3753.867940
1393.219625,1850.514855,-10288.862594,2681.334243
1393.219954,1480.411884,-10214.842000,2298.286494
1393.220283,2294.638420,-9252.574275,3217.601092
1393.220612,4441.235652,-7846.182985,3447.429741
1393.220941,7105.977043,-6661.853478,4749.792088
1393.221270,9178.553681,-5107.421000,6358.592633
1393.221599,10881.027347,-3256.906145,6128.763984
1393.221928,10955.047942,-2072.576638,6358.592633
1393.222257,10658.965565,-2294.638420,5745.716235
1393.222586,10140.821405,-2368.659014,4749.792088
1393.222915,8068.244768,-4367.215058,4826.401637
1393.223245,6661.853478,-5699.585753,3294.210641
1393.223574,5847.626942,-7846.182985,2757.943793
1393.223903,4959.379811,-9400.615463,2298.286494
1393.224232,4441.235652,-10140.821405,2834.553343
1393.224561,4959.379811,-10436.903782,3370.820191
1393.224890,5329.482782,-9326.594869,4136.915689
1393.225219,5551.544565,-7624.121203,3524.039291
1393.225548,6069.688724,-5403.503377,3600.648841
1393.225877,8216.285956,-4515.256246,3753.867940
1393.226206,9474.636058,-4293.194464,4443.353888
1393.226535,9992.780217,-4515.256246,4443.353888
1393.226864,9400.615463,-4441.235652,3753.867940
1393.227193,8142.265362,-5403.503377,3064.381992
1393.227522,7698.141797,-6883.915261,2681.334243
1393.227851,5847.626942,-7105.977043,2757.943793
1393.228181,5995.668130,-8438.347739,3064.381992
1393.228510,6069.688724,-7698.141797,3370.820191
1393.228839,6439.791695,-6883.915261,3753.867940
1393.229168,7105.977043,-8142.265362,4519.963438
1393.229497,7550.100608,-7698.141797,4826.401637
1393.229826,7476.080014,-6809.894666,4213.525239
1393.230155,6809.894666,-5033.400406,3983.696590
1393.230484,7254.018232,-3330.926739,3907.087040
1393.230813,8364.327145,-2886.803174,3217.601092
1393.231142,8734.430116,-2886.803174,4749.792088
1393.231471,9104.533087,-4219.173869,4366.744339
1393.231800,8216.285956,-5477.523971,4060.306139
1393.232129,6513.812290,-7550.100608,3447.429741
1393.232458,5107.421000,-9770.718434,2911.162892
1393.232787,3478.967927,-11029.068536,2221.676944
1393.233117,3627.009116,-10881.027347,3217.601092
1393.233446,4071.132681,-9252.574275,3064.381992
1393.233775,5107.421000,-7476.080014,3294.210641
1393.234104,6143.709319,-5995.668130,3753.867940
1393.234433,6957.935855,-5625.565159,3677.258390
1393.234762,7550.100608,-6365.771101,4903.011187
1393.235091,8586.388927,-5329.482782,5669.106685
1393.235420,9474.636058,-4737.318029,5286.058936
1393.235749,9622.677246,-2516.700203,5209.449386
1393.236078,9548.656652,-2738.761985,4366.744339
1393.236407,9030.512492,-3627.009116,4443.353888
1393.236736,7994.224174,-6365.771101,2834.553343
1393.237065,6365.771101,-8438.347739,3600.648841
1393.237394,5477.523971,-10288.862594,3524.039291
1393.237723,4811.338623,-10288.862594,3677.258390
1393.238052,4441.235652,-10955.047942,3907.087040
1393.238382,4219.173869,-9918.759623,3600.648841
1393.238711,4441.235652,-7772.162391,3753.867940
1393.239040,5773.606348,-5033.400406,3370.820191
1393.239369,8068.244768,-3404.947333,4673.182538
1393.239698,9770.718434,-2960.823768,5975.544884
1393.240027,10066.800811,-2960.823768,5439.278036
1393.240356,9400.615463,-2738.761985,5592.497135
1393.240685,8438.347739,-3330.926739,4366.744339
1393.241014,7994.224174,-4293.194464,3830.477490
1393.241343,7105.977043,-7105.977043,4673.182538
1393.241672,8216.285956,-8882.471304,4366.744339
1393.242001,8290.306550,-9030.512492,3907.087040
1393.242330,6661.853478,-9696.697840,3907.087040
1393.242659,4737.318029,-8808.450710,2987.772442
1393.242988,3775.050304,-8216.285956,2374.896044
1393.243318,3997.112087,-6957.935855,2987.772442
1393.243647,5625.565159,-7105.977043,3907.087040
1393.243976,7402.059420,-6069.688724,5132.839837
1393.244305,7624.121203,-5107.421000,5209.449386
1393.244634,7328.038826,-4959.379811,4826.401637
1393.244963,7105.977043,-3404.947333,3600.648841
1393.245292,7105.977043,-3256.906145,2987.772442
1393.245621,7402.059420,-4441.235652,3140.991542
1393.245950,7624.121203,-4441.235652,2911.162892
1393.246279,7179.997637,-6587.832884,2911.162892
1393.246608,7105.977043,-8586.388927,3830.477490
1393.246937,7105.977043,-9992.780217,4979.620737
1393.247266,7624.121203,-10732.986159,3983.696590
1393.247595,6291.750507,-8586.388927,2451.505594
1393.247924,4663.297435,-7624.121203,1762.019645
1393.248254,4885.359217,-7402.059420,1072.533697
1393.248583,5995.668130,-5773.606348,1685.410096
1393.248912,6809.894666,-4737.318029,1838.629195
1393.249241,7846.182985,-3330.926739,1838.629195
1393.249570,7772.162391,-3108.864956,1455.581446
1393.249899,7624.121203,-4737.318029,1762.019645
1393.250228,8142.265362,-7698.141797,2911.162892
1393.250557,9696.697840,-7624.121203,3370.820191
1393.250886,9548.656652,-6957.935855,2451.505594
1393.251215,6883.915261,-7698.141797,1608.800546
1393.251544,4811.338623,-9400.615463,1685.410096
1393.251873,4737.318029,-10436.903782,1302.362347
1393.252202,5847.626942,-8068.244768,1455.581446
1393.252531,6809.894666,-5033.400406,1915.238745
1393.252860,8438.347739,-4515.256246,1991.848295
1393.253190,8808.450710,-5033.400406,2298.286494
1393.253519,7698.141797,-5847.626942,1991.848295
1393.253848,7105.977043,-5477.523971,919.314598
1393.254177,7031.956449,-3775.050304,153.219100
1393.254506,6439.791695,-6217.729913,0.000000
1393.254835,6069.688724,-7179.997637,0.000000
1393.255164,6661.853478,-6513.812290,0.000000
1393.255493,6883.915261,-7328.038826,-459.657299
1393.255822,6735.874072,-7698.141797,0.000000
1393.256151,6883.915261,-7254.018232,919.314598
1393.256480,7920.203579,-9104.533087,1225.752797
1393.256809,7179.997637,-8882.471304,2145.067394
1393.257138,6143.709319,-8586.388927,2451.505594
1393.257467,6217.729913,-6809.894666,919.314598
1393.257796,5625.565159,-5477.523971,383.047749
1393.258126,5255.462188,-4441.235652,689.485948
1393.258455,5995.668130,-2146.597232,689.485948
1393.258784,7031.956449,-3330.926739,0.000000
1393.259113,7254.018232,-3478.967927,766.095498
1393.259442,8142.265362,-4959.379811,919.314598
1393.259771,9400.615463,-6439.791695,1915.238745
1393.260100,8808.450710,-6883.915261,2068.457845
1393.260429,6439.791695,-9770.718434,842.705048
1393.260758,5773.606348,-10436.903782,153.219100
1393.261087,6069.688724,-9400.615463,0.000000
1393.261416,6439.791695,-7624.121203,306.438199
1393.261745,6735.874072,-6809.894666,306.438199
1393.262074,6587.832884,-7402.059420,842.705048
1393.262403,6957.935855,-6883.915261,612.876398
1393.262732,7328.038826,-6439.791695,2221.676944
1393.263062,7846.182985,-7031.956449,2834.553343
1393.263391,7772.162391,-7105.977043,2757.943793
1393.263720,7328.038826,-7772.162391,1302.362347
1393.264049,7179.997637,-6143.709319,2068.457845
1393.264378,7846.182985,-3256.906145,995.924147
1393.264707,8290.306550,-4293.194464,306.438199
1393.265036,7105.977043,-6069.688724,995.924147
1393.265360,7105.977043,-7179.997637,842.705048
1393.265690,7254.018232,-7476.080014,995.924147
1393.266019,6883.915261,-7105.977043,1302.362347
1393.266348,6217.729913,-9178.553681,2145.067394
1393.266677,6661.853478,-9474.636058,1762.019645
1393.267006,6809.894666,-8068.244768,1378.971896
1393.267335,6735.874072,-4959.379811,1072.533697
1393.267664,6587.832884,-3849.070898,1072.533697
1393.267993,6587.832884,-5921.647536,1455.581446
1393.268322,7105.977043,-6217.729913,2451.505594
1393.268651,7476.080014,-5551.544565,2681.334243
1393.268980,7920.203579,-4737.318029,1838.629195
1393.269309,6365.771101,-5995.668130,1532.190996
1393.269639,4811.338623,-8216.285956,2374.896044
1393.269968,5551.544565,-7772.162391,1455.581446
1393.270297,6513.812290,-4811.338623,689.485948
1393.270626,6365.771101,-4219.173869,995.924147
1393.270955,7031.956449,-5995.668130,689.485948
1393.271284,7105.977043,-7105.977043,1685.410096
1393.271613,6513.812290,-6069.688724,1302.362347
1393.271942,6957.935855,-5107.421000,766.095498
1393.272271,7031.956449,-7105.977043,1532.190996
1393.272600,6957.935855,-8882.471304,1762.019645
1393.272929,7105.977043,-7846.182985,1225.752797
1393.273258,8290.306550,-5403.503377,1225.752797
1393.273587,9178.553681,-3701.029710,919.314598
1393.273917,7846.182985,-5403.503377,689.485948
1393.274246,6957.935855,-7254.018232,1378.971896
1393.274575,7328.038826,-6809.894666,919.314598
1393.274904,7105.977043,-6217.729913,383.047749
1393.275233,6217.729913,-8068.244768,995.924147
1393.275562,5773.606348,-10658.965565,1685.410096
1393.275891,6735.874072,-9178.553681,536.266849
1393.276220,7254.018232,-5625.565159,612.876398
1393.276549,7254.018232,-4959.379811,459.657299
1393.276878,7402.059420,-6883.915261,229.828649
1393.277207,7846.182985,-7772.162391,383.047749
1393.277536,7328.038826,-6883.915261,536.266849
1393.277866,7328.038826,-4589.276840,995.924147
1393.278195,7105.977043,-5921.647536,459.657299
1393.278524,6587.832884,-8956.491898,919.314598
1393.278853,7031.956449,-7772.162391,842.705048
1393.279182,7994.224174,-5921.647536,306.438199
1393.279511,7772.162391,-5255.462188,306.438199
1393.279840,6439.791695,-5699.585753,0.000000
1393.280169,6587.832884,-8734.430116,229.828649
1393.280498,6735.874072,-7031.956449,995.924147
1393.280827,6291.750507,-5699.585753,689.485948
1393.281156,5625.565159,-6809.894666,919.314598
1393.281485,5107.421000,-7846.182985,1378.971896
1393.281814,5255.462188,-7179.997637,1608.800546
1393.282144,6587.832884,-4589.276840,995.924147
1393.282473,8068.244768,-3997.112087,1915.238745
1393.282802,8660.409521,-4737.318029,2528.115143
1393.283131,7476.080014,-6883.915261,2528.115143
1393.283460,6513.812290,-5255.462188,1532.190996
1393.283789,5921.647536,-4293.194464,-383.047749
1393.284118,5699.585753,-5995.668130,-536.266849
1393.284447,5255.462188,-8882.471304,0.000000
1393.284776,5995.668130,-10214.842000,383.047749
1393.285105,7994.224174,-6809.894666,459.657299
1393.285434,8216.285956,-5255.462188,536.266849
1393.285763,7846.182985,-7846.182985,842.705048
1393.286093,7772.162391,-8808.450710,1608.800546
1393.286422,7624.121203,-6513.812290,383.047749
1393.286751,6587.832884,-4885.359217,-153.219100
1393.287080,6735.874072,-5329.482782,1072.533697
1393.287409,7402.059420,-7698.141797,1762.019645
1393.287738,7105.977043,-7179.997637,1532.190996
1393.288067,7105.977043,-5181.441594,2221.676944
1393.288396,8660.409521,-4293.194464,2068.457845
1393.288725,8956.491898,-5773.606348,1762.019645
1393.289054,6957.935855,-7624.121203,1608.800546
1393.289383,7179.997637,-6735.874072,1225.752797
1393.289712,7031.956449,-5107.421000,-306.438199
1393.290042,6365.771101,-6365.771101,76.609550
1393.290371,4885.359217,-9104.533087,306.438199
1393.290700,6217.729913,-9622.677246,995.924147
1393.291029,8216.285956,-5995.668130,306.438199
1393.291358,7550.100608,-5699.585753,766.095498
1393.291687,7328.038826,-7105.977043,1685.410096
1393.292016,7846.182985,-7624.121203,1532.190996
1393.292345,7179.997637,-7698.141797,2451.505594
1393.292674,7179.997637,-4959.379811,1532.190996
1393.293003,6735.874072,-5329.482782,1072.533697
1393.293332,5255.462188,-7550.100608,1072.533697
1393.293661,4145.153275,-8364.327145,995.924147
1393.293990,5181.441594,-6069.688724,612.876398
1393.294320,7105.977043,-3404.947333,766.095498
1393.294649,7772.162391,-5329.482782,2298.286494
1393.294978,7994.224174,-7105.977043,3140.991542
1393.295307,7920.203579,-6587.832884,2681.334243
1393.295636,6957.935855,-4367.215058,995.924147
1393.295965,6217.729913,-3997.112087,383.047749
1393.296294,5773.606348,-7179.997637,842.705048
1393.296623,5995.668130,-8364.327145,766.095498
1393.296952,7254.018232,-6513.812290,383.047749
1393.297281,7031.956449,-4885.359217,383.047749
1393.297610,7105.977043,-6069.688724,766.095498
1393.297939,7179.997637,-9178.553681,1991.848295
1393.298269,7105.977043,-8512.368333,1915.238745
1393.298598,6809.894666,-5995.668130,689.485948
1393.298927,6143.709319,-6365.771101,306.438199
1393.299256,6069.688724,-8808.450710,1455.581446
1393.299585,6735.874072,-9252.574275,995.924147
1393.299914,7698.141797,-5551.544565,1685.410096
1393.300243,8290.306550,-3627.009116,766.095498
1393.300572,8290.306550,-4737.318029,1378.971896
1393.300901,7624.121203,-7105.977043,1915.238745
1393.301230,7476.080014,-7105.977043,1455.581446
1393.301559,7846.182985,-4589.276840,1225.752797
1393.301888,6809.894666,-5033.400406,0.000000
1393.302217,5995.668130,-7698.141797,229.828649
1393.302547,6513.812290,-9400.615463,459.657299
1393.302876,7550.100608,-7476.080014,459.657299
1393.303205,7920.203579,-5033.400406,306.438199
1393.303534,7550.100608,-5403.503377,536.266849
1393.303863,7254.018232,-7254.018232,383.047749
1393.304192,7031.956449,-7920.203579,919.314598
1393.304521,6957.935855,-5403.503377,1302.362347
1393.304850,6513.812290,-4959.379811,536.266849
1393.305179,6365.771101,-6957.935855,1378.971896
1393.305508,5921.647536,-8660.409521,1149.143247
1393.305837,6291.750507,-6735.874072,1838.629195
1393.306166,7476.080014,-4071.132681,459.657299
1393.306496,6957.935855,-4737.318029,919.314598
1393.306825,6587.832884,-6809.894666,689.485948
1393.307154,6809.894666,-7476.080014,842.705048
1393.307483,7846.182985,-5773.606348,766.095498
1393.307812,6957.935855,-5847.626942,76.609550
1393.308141,6291.750507,-7846.182985,842.705048
1393.308470,6217.729913,-9696.697840,229.828649
1393.308799,7105.977043,-7846.182985,612.876398
1393.309128,7550.100608,-3627.009116,919.314598
1393.309457,7179.997637,-4663.297435,229.828649
1393.309786,6661.853478,-6143.709319,1149.143247
1393.310115,6809.894666,-6809.894666,919.314598
1393.310444,8068.244768,-5477.523971,1608.800546
1393.310774,7846.182985,-5255.462188,1225.752797
1393.311103,6735.874072,-7994.224174,1762.019645
1393.311432,5995.668130,-9548.656652,1455.581446
1393.311761,6809.894666,-8142.265362,1378.971896
1393.312090,7624.121203,-4589.276840,1072.533697
1393.312419,7994.224174,-5551.544565,1302.362347
1393.312748,7031.956449,-7105.977043,1302.362347
1393.313077,6143.709319,-7772.162391,612.876398
1393.313406,5995.668130,-6217.729913,1302.362347
1393.313735,6217.729913,-4441.235652,306.438199
1393.314064,6439.791695,-7328.038826,612.876398
1393.314393,6439.791695,-9178.553681,1532.190996
1393.314723,7105.977043,-7179.997637,1685.410096
1393.315052,8216.285956,-4515.256246,459.657299
1393.315381,7772.162391,-3849.070898,766.095498
1393.315710,7402.059420,-5921.647536,842.705048
1393.316039,7476.080014,-7550.100608,919.314598
1393.316368,8068.244768,-6883.915261,2068.457845
1393.316697,8882.471304,-5995.668130,2221.676944
1393.317026,7772.162391,-8216.285956,2221.676944
1393.317355,6365.771101,-10214.842000,2068.457845
1393.317684,5773.606348,-8216.285956,1532.190996
1393.318013,5551.544565,-3330.926739,229.828649
1393.318342,6069.688724,-2738.761985,0.000000
1393.318672,6587.832884,-4737.318029,995.924147
1393.319001,7254.018232,-7031.956449,2221.676944
1393.319330,7920.203579,-5551.544565,2528.115143
1393.319659,7105.977043,-4737.318029,2298.286494
1393.319988,5995.668130,-7031.956449,1532.190996
1393.320317,5773.606348,-8660.409521,1302.362347
1393.320646,6513.812290,-7846.182985,536.266849
1393.320975,7105.977043,-4663.297435,153.219100
1393.321304,7105.977043,-4737.318029,-383.047749
1393.321633,7550.100608,-6957.935855,612.876398
1393.321962,7476.080014,-8216.285956,1455.581446
1393.322291,7254.018232,-7476.080014,1455.581446
1393.322620,7328.038826,-6291.750507,1378.971896
1393.322950,6809.894666,-7698.141797,2145.067394
1393.323279,7031.956449,-9400.615463,1991.848295
1393.323608,6809.894666,-7846.182985,1838.629195
1393.323937,7105.977043,-4663.297435,1072.533697
1393.324266,7105.977043,-3552.988522,-153.219100
1393.324595,6809.894666,-5329.482782,1302.362347
1393.324924,6661.853478,-6957.935855,1225.752797
1393.325253,6809.894666,-6069.688724,1225.752797
1393.325582,7328.038826,-4663.297435,1838.629195
1393.325911,7254.018232,-7105.977043,919.314598
1393.326240,6883.915261,-9844.739029,1838.629195
1393.326569,7179.997637,-9474.636058,1991.848295
1393.326899,7105.977043,-5551.544565,0.000000
1393.327228,6439.791695,-3849.070898,-383.047749
1393.327557,6069.688724,-6143.709319,0.000000
1393.327886,5995.668130,-7105.977043,0.000000
1393.328215,6661.853478,-6883.915261,536.266849
1393.328544,7994.224174,-6069.688724,1225.752797
1393.328873,8512.368333,-7328.038826,1915.238745
1393.329202,8068.244768,-9474.636058,3140.991542
1393.329531,7105.977043,-8438.347739,1838.629195
1393.329860,7402.059420,-4885.359217,842.705048
1393.330189,8290.306550,-2812.782580,0.000000
1393.330518,7105.977043,-4663.297435,306.438199
1393.330847,6735.874072,-5699.585753,995.924147
1393.331177,7105.977043,-5181.441594,995.924147
1393.331506,7105.977043,-4811.338623,459.657299
1393.331835,6809.894666,-6439.791695,1072.533697
1393.332164,6365.771101,-9770.718434,2068.457845
1393.332493,7105.977043,-9326.594869,1762.019645
1393.332822,6883.915261,-6143.709319,919.314598
1393.333151,6957.935855,-3627.009116,0.000000
1393.333480,6439.791695,-4737.318029,-383.047749
1393.333809,6735.874072,-7254.018232,153.219100
1393.334138,7105.977043,-7105.977043,842.705048
1393.334467,7994.224174,-5847.626942,1378.971896
1393.334796,8512.368333,-6809.894666,1838.629195
1393.335126,6587.832884,-9030.512492,1838.629195
1393.335455,6143.709319,-9104.533087,1608.800546
1393.335784,6587.832884,-6587.832884,689.485948
1393.336113,6809.894666,-4367.215058,153.219100
1393.336442,6069.688724,-5181.441594,842.705048
1393.336771,6587.832884,-6291.750507,76.609550
1393.337100,7105.977043,-6661.853478,0.000000
1393.337429,7031.956449,-5625.565159,612.876398
1393.337758,7105.977043,-6883.915261,842.705048
1393.338087,6587.832884,-9400.615463,1455.581446
1393.338416,7031.956449,-8586.388927,1072.533697
1393.338745,7105.977043,-6439.791695,1149.143247
1393.339074,8068.244768,-3923.091493,536.266849
1393.339404,7550.100608,-4959.379811,306.438199
1393.339733,7328.038826,-6957.935855,919.314598
1393.340062,6735.874072,-6217.729913,612.876398
1393.340391,7031.956449,-5551.544565,689.485948
1393.340720,6587.832884,-5773.606348,766.095498
1393.341049,6069.688724,-9178.553681,1685.410096
1393.341378,6291.750507,-10362.883188,1685.410096
1393.341707,7624.121203,-7179.997637,2068.457845
1393.342036,7994.224174,-4071.132681,1532.190996
1393.342365,7698.141797,-4367.215058,919.314598
1393.342694,7031.956449,-6735.874072,153.219100
1393.343023,6735.874072,-7031.956449,1302.362347
1393.343353,6883.915261,-5773.606348,842.705048
1393.343682,6513.812290,-5477.523971,919.314598
1393.344011,6217.729913,-7254.018232,383.047749
1393.344340,6365.771101,-8364.327145,612.876398
1393.344669,7105.977043,-6217.729913,1302.362347
1393.344998,7772.162391,-4885.359217,766.095498
1393.345327,8068.244768,-4811.338623,612.876398
1393.345656,7476.080014,-5995.668130,919.314598
1393.345985,7476.080014,-6957.935855,919.314598
1393.346314,7920.203579,-6513.812290,1225.752797
1393.346643,7328.038826,-6883.915261,1608.800546
1393.346972,6883.915261,-8734.430116,1072.533697
1393.347301,6439.791695,-8734.430116,1532.190996
1393.347631,6587.832884,-6143.709319,1608.800546
1393.347960,7550.100608,-4515.256246,1225.752797
1393.348289,8290.306550,-4959.379811,2374.896044
1393.348618,6883.915261,-6513.812290,1608.800546
1393.348947,5847.626942,-6661.853478,689.485948
1393.349276,6069.688724,-4293.194464,383.047749
1393.349605,6291.750507,-5107.421000,-689.485948
1393.349934,5995.668130,-7846.182985,1149.143247
1393.350263,6069.688724,-10066.800811,1149.143247
1393.350592,6809.894666,-8660.409521,842.705048
1393.350921,7402.059420,-4737.318029,536.266849
1393.351250,7254.018232,-4885.359217,1455.581446
1393.351580,7402.059420,-7328.038826,842.705048
1393.351909,7105.977043,-7254.018232,919.314598
1393.352238,7031.956449,-6291.750507,766.095498
1393.352567,7550.100608,-5773.606348,919.314598
1393.352896,7179.997637,-7624.121203,2451.505594
1393.353225,7105.977043,-9178.553681,1685.410096
1393.353554,6661.853478,-7402.059420,1378.971896
1393.353883,7031.956449,-5181.441594,766.095498
1393.354212,7328.038826,-4737.318029,1455.581446
1393.354541,7105.977043,-6217.729913,1532.190996
1393.354870,7254.018232,-6883.915261,1455.581446
1393.355199,6809.894666,-5329.482782,383.047749
1393.355529,6291.750507,-5921.647536,306.438199
1393.355858,5995.668130,-7179.997637,1378.971896
1393.356187,5921.647536,-9030.512492,842.705048
1393.356516,6957.935855,-7254.018232,689.485948
1393.356845,7105.977043,-4737.318029,383.047749
1393.357174,6735.874072,-5329.482782,383.047749
1393.357503,6513.812290,-6587.832884,306.438199
1393.357832,6143.709319,-8290.306550,766.095498
1393.358161,7105.977043,-6217.729913,306.438199
1393.358490,7328.038826,-5255.462188,1072.533697
1393.358819,7328.038826,-6957.935855,1455.581446
1393.359148,7105.977043,-9474.636058,1915.238745
1393.359477,7254.018232,-7846.182985,2068.457845
1393.359807,7254.018232,-3775.050304,153.219100
1393.360136,7328.038826,-3701.029710,459.657299
1393.360465,7105.977043,-5773.606348,1991.848295
1393.360794,7179.997637,-7031.956449,1072.533697
1393.361123,7254.018232,-6217.729913,1532.190996
1393.361452,6883.915261,-4589.276840,1072.533697
1393.361781,6661.853478,-7105.977043,536.266849
1393.362110,5625.565159,-8734.430116,842.705048
1393.362439,6513.812290,-7846.182985,766.095498
1393.362768,6883.915261,-4737.318029,76.609550
1393.363097,6957.935855,-4367.215058,0.000000
1393.363426,6957.935855,-6883.915261,766.095498
1393.363756,7846.182985,-7920.203579,1762.019645
1393.364085,7994.224174,-7476.080014,2221.676944
1393.364414,7328.038826,-6365.771101,995.924147
1393.364743,6661.853478,-7772.162391,766.095498
1393.365072,5995.668130,-9178.553681,1608.800546
1393.365401,6217.729913,-8216.285956,842.705048
1393.365730,6809.894666,-4663.297435,766.095498
1393.366059,7402.059420,-3849.070898,459.657299
1393.366388,7698.141797,-5107.421000,1149.143247
1393.366717,7476.080014,-6957.935855,1685.410096
1393.367046,7402.059420,-6143.709319,1532.190996
1393.367375,7179.997637,-4663.297435,612.876398
1393.367704,6217.729913,-6513.812290,536.266849
1393.368033,5773.606348,-8956.491898,1915.238745
1393.368363,7179.997637,-8808.450710,1685.410096
1393.368692,7624.121203,-5551.544565,1149.143247
1393.369021,6883.915261,-4811.338623,153.219100
1393.369350,5773.606348,-5477.523971,306.438199
1393.369679,5847.626942,-7550.100608,766.095498
1393.370008,6439.791695,-6809.894666,1072.533697
1393.370337,7328.038826,-5773.606348,1762.019645
1393.370666,7772.162391,-7402.059420,2451.505594
1393.370995,7105.977043,-9992.780217,2604.724693
1393.371324,6439.791695,-7920.203579,2451.505594
1393.371653,6735.874072,-4663.297435,1072.533697
1393.371982,7179.997637,-3923.091493,76.609550
1393.372311,6661.853478,-4737.318029,612.876398
1393.372640,6291.750507,-7624.121203,766.095498
1393.372969,7105.977043,-6661.853478,1378.971896
1393.373298,7105.977043,-6069.688724,689.485948
1393.373627,6883.915261,-7920.203579,1378.971896
1393.373956,6217.729913,-9326.594869,1991.848295
1393.374286,6143.709319,-9178.553681,1685.410096
1393.374615,7031.956449,-5773.606348,536.266849
1393.374944,7476.080014,-4145.153275,766.095498
1393.375273,7328.038826,-5403.503377,689.485948
1393.375602,7328.038826,-6735.874072,1302.362347
1393.375931,7105.977043,-7105.977043,2145.067394
1393.376260,7698.141797,-4959.379811,1072.533697
1393.376589,7402.059420,-6513.812290,1685.410096
1393.376918,6217.729913,-8142.265362,2528.115143
1393.377247,7105.977043,-9178.553681,1302.362347
1393.377576,7772.162391,-6587.832884,1915.238745
1393.377905,7846.182985,-4959.379811,1225.752797
1393.378234,7105.977043,-5255.462188,689.485948
1393.378563,5921.647536,-6883.915261,1149.143247
1393.378892,5995.668130,-6513.812290,1149.143247
1393.379221,6291.750507,-5181.441594,0.000000
1393.379550,5773.606348,-5921.647536,766.095498
1393.379879,6217.729913,-8068.244768,1072.533697
1393.380208,7328.038826,-8364.327145,459.657299
1393.380538,8216.285956,-6217.729913,1608.800546
1393.380867,8142.265362,-5033.400406,919.314598
1393.381196,7698.141797,-5181.441594,766.095498
1393.381525,7031.956449,-7105.977043,1225.752797
1393.381854,6809.894666,-6143.709319,383.047749
1393.382183,6809.894666,-4885.359217,153.219100
1393.382512,6513.812290,-5921.647536,459.657299
1393.382841,5921.647536,-9178.553681,1455.581446
1393.383170,6735.874072,-9474.636058,2757.943793
1393.383499,7550.100608,-7179.997637,1838.629195
1393.383828,7698.141797,-4737.318029,1455.581446
1393.384157,7550.100608,-5181.441594,1378.971896
1393.384486,7105.977043,-7179.997637,1225.752797
1393.384815,6069.688724,-6143.709319,1072.533697
1393.385144,5921.647536,-3997.112087,229.828649
1393.385473,5773.606348,-4589.276840,0.000000
1393.385802,6143.709319,-8438.347739,1149.143247
1393.386131,7105.977043,-10066.800811,1838.629195
1393.386461,7328.038826,-7550.100608,1225.752797
1393.386790,7105.977043,-4737.318029,536.266849
1393.387119,6513.812290,-5551.544565,0.000000
1393.387448,6365.771101,-8068.244768,153.219100
1393.387777,6809.894666,-7179.997637,842.705048
1393.388106,7105.977043,-6217.729913,459.657299
1393.388435,7105.977043,-6291.750507,612.876398
1393.388764,7105.977043,-8290.306550,1455.581446
1393.389093,7031.956449,-9918.759623,1915.238745
1393.389422,7328.038826,-6513.812290,2221.676944
1393.389751,8364.327145,-3108.864956,1532.190996
1393.390080,8512.368333,-3627.009116,842.705048
1393.390409,7772.162391,-5551.544565,1685.410096
1393.390738,7550.100608,-5773.606348,919.314598
1393.391067,7179.997637,-4737.318029,612.876398
1393.391396,6217.729913,-4811.338623,-229.828649
1393.391725,5329.482782,-8364.327145,383.047749
1393.392054,6217.729913,-10658.965565,1838.629195
1393.392383,7846.182985,-8290.306550,1991.848295
1393.392713,7920.203579,-4959.379811,612.876398
1393.393042,6587.832884,-4589.276840,-306.438199
1393.393371,5847.626942,-7179.997637,842.705048
1393.393700,7105.977043,-6883.915261,1149.143247
1393.394029,7994.224174,-5699.585753,1225.752797
1393.394358,7846.182985,-5181.441594,1838.629195
1393.394687,7031.956449,-7846.182985,1991.848295
1393.395016,5995.668130,-9178.553681,1915.238745
1393.395345,7031.956449,-5921.647536,1072.533697
1393.395674,7994.224174,-4737.318029,689.485948
1393.396003,8290.306550,-4811.338623,842.705048
1393.396332,6661.853478,-6809.894666,689.485948
1393.396661,6735.874072,-6957.935855,306.438199
1393.396990,7402.059420,-5329.482782,229.828649
1393.397319,7476.080014,-6587.832884,612.876398
1393.397648,5995.668130,-8216.285956,1762.019645
1393.397977,5699.585753,-9326.594869,1302.362347
1393.398306,6883.915261,-8142.265362,995.924147
1393.398635,7402.059420,-4589.276840,919.314598
1393.398965,6883.915261,-4737.318029,689.485948
1393.399294,6291.750507,-6957.935855,1072.533697
1393.399623,5995.668130,-6439.791695,689.485948
1393.399952,6513.812290,-5181.441594,612.876398
1393.400281,7105.977043,-5847.626942,1072.533697
1393.400610,7031.956449,-7994.224174,1532.190996
1393.400939,6217.729913,-10288.862594,1685.410096
1393.401268,6291.750507,-9474.636058,2221.676944
1393.401597,6809.894666,-5181.441594,995.924147
1393.401926,6809.894666,-4367.215058,842.705048
1393.402255,6513.812290,-6069.688724,766.095498
1393.402584,6883.915261,-6143.709319,1302.362347
1393.402913,7476.080014,-4885.359217,689.485948
1393.403242,7179.997637,-4441.235652,842.705048
1393.403571,6809.894666,-5995.668130,1225.752797
1393.403900,7105.977043,-9252.574275,1455.581446
1393.404229,7698.141797,-7402.059420,1915.238745
1393.404558,7624.121203,-4293.194464,459.657299
1393.404888,7179.997637,-4959.379811,153.219100
1393.405217,7105.977043,-6069.688724,459.657299
1393.405546,7105.977043,-7328.038826,689.485948
