#time,accel_x,accel_y,accel_z
1229.975083,7254.018232,-6143.709319,1225.752797
1229.975413,6735.874072,-5921.647536,1072.533697
1229.975743,6587.832884,-5995.668130,842.705048
1229.976073,6661.853478,-6957.935855,689.485948
1229.976404,6809.894666,-6735.874072,1149.143247
1229.976734,6809.894666,-6735.874072,1225.752797
1229.977064,6661.853478,-6365.771101,1225.752797
1229.977394,7105.977043,-6217.729913,1149.143247
1229.977724,6957.935855,-6587.832884,1072.533697
1229.978055,6809.894666,-6661.853478,766.095498
1229.978385,6143.709319,-7105.977043,1608.800546
1229.978715,6883.915261,-6439.791695,459.657299
1229.979045,6883.915261,-6439.791695,842.705048
1229.979376,7031.956449,-6587.832884,1072.533697
1229.979706,7550.100608,-6365.771101,919.314598
1229.980036,7772.162391,-5995.668130,1302.362347
1229.980366,6883.915261,-6809.894666,459.657299
1229.980697,6809.894666,-6883.915261,842.705048
1229.981027,7105.977043,-6587.832884,842.705048
1229.981357,7105.977043,-6513.812290,612.876398
1229.981687,7031.956449,-6291.750507,995.924147
1229.982018,7328.038826,-6069.688724,1302.362347
1229.982348,7476.080014,-6439.791695,842.705048
1229.982678,7105.977043,-6587.832884,995.924147
1229.983008,6291.750507,-5921.647536,383.047749
1229.983339,6143.709319,-7031.956449,842.705048
1229.983669,6735.874072,-7105.977043,1302.362347
1229.983999,7031.956449,-6883.915261,1072.533697
1229.984329,6883.915261,-7254.018232,1302.362347
1229.984659,7624.121203,-6735.874072,2068.457845
1229.984990,6809.894666,-7105.977043,766.095498
1229.985320,6217.729913,-6883.915261,919.314598
1229.985650,6217.729913,-7105.977043,919.314598
1229.985980,6957.935855,-6661.853478,612.876398
1229.986311,7328.038826,-6439.791695,689.485948
1229.986641,7254.018232,-6143.709319,1149.143247
1229.986971,7772.162391,-6217.729913,842.705048
1229.987301,7476.080014,-6365.771101,1149.143247
1229.987632,6587.832884,-6365.771101,1225.752797
1229.987962,6735.874072,-6883.915261,919.314598
1229.988292,6735.874072,-6365.771101,842.705048
1229.988622,7105.977043,-5921.647536,842.705048
1229.988953,7031.956449,-6513.812290,1532.190996
1229.989283,7179.997637,-6069.688724,1225.752797
1229.989613,7254.018232,-6217.729913,1149.143247
1229.989943,7031.956449,-6217.729913,919.314598
1229.990273,6365.771101,-6439.791695,766.095498
1229.990604,6809.894666,-6883.915261,766.095498
1229.990934,7031.956449,-6809.894666,1149.143247
1229.991264,6957.935855,-6661.853478,842.705048
1229.991594,7328.038826,-6735.874072,1455.581446
1229.991925,7031.956449,-6661.853478,1225.752797
1229.992255,7105.977043,-6735.874072,536.266849
1229.992585,6439.791695,-6883.915261,612.876398
1229.992915,6513.812290,-6883.915261,919.314598
1229.993246,6957.935855,-6957.935855,612.876398
1229.993576,7105.977043,-5995.668130,1149.143247
1229.993906,7254.018232,-6069.688724,1149.143247
1229.994236,7846.182985,-6217.729913,1072.533697
1229.994567,7328.038826,-6217.729913,919.314598
1229.994897,7105.977043,-6661.853478,842.705048
1229.995227,6513.812290,-6735.874072,1378.971896
1229.995557,7105.977043,-6513.812290,995.924147
1229.995888,7179.997637,-6587.832884,919.314598
1229.996218,6883.915261,-6291.750507,919.314598
1229.996548,7105.977043,-6291.750507,1762.019645
1229.996878,7105.977043,-6661.853478,1302.362347
1229.997208,6809.894666,-6439.791695,1072.533697
1229.997539,6143.709319,-6661.853478,536.266849
1229.997869,6513.812290,-6957.935855,919.314598
1229.998199,7031.956449,-6143.709319,995.924147
1229.998529,6735.874072,-6883.915261,1072.533697
1229.998860,6957.935855,-6587.832884,1302.362347
1229.999190,6957.935855,-6735.874072,842.705048
1229.999520,6587.832884,-6957.935855,689.485948
1229.999850,6365.771101,-6883.915261,1072.533697
1230.000181,6735.874072,-7031.956449,995.924147
1230.000511,7105.977043,-6957.935855,842.705048
1230.000841,6883.915261,-6439.791695,1072.533697
1230.001171,7550.100608,-5847.626942,1149.143247
1230.001502,7920.203579,-6291.750507,919.314598
1230.001832,7402.059420,-6735.874072,995.924147
1230.002162,6809.894666,-7031.956449,842.705048
1230.002492,7105.977043,-6587.832884,612.876398
1230.002823,7105.977043,-6069.688724,1455.581446
1230.003153,7105.977043,-6069.688724,919.314598
1230.003483,6809.894666,-6143.709319,1455.581446
1230.003813,7550.100608,-6439.791695,1072.533697
1230.004143,7550.100608,-6587.832884,995.924147
1230.004474,6809.894666,-6291.750507,1149.143247
1230.004804,6439.791695,-6439.791695,995.924147
1230.005134,7105.977043,-6291.750507,919.314598
1230.005464,6809.894666,-6735.874072,842.705048
1230.005795,6661.853478,-6513.812290,1455.581446
1230.006125,6957.935855,-6365.771101,1225.752797
1230.006455,6957.935855,-6661.853478,1455.581446
1230.006785,6587.832884,-6883.915261,1225.752797
1230.007116,6217.729913,-7105.977043,1532.190996
1230.007446,6439.791695,-5995.668130,842.705048
1230.007776,6735.874072,-6735.874072,842.705048
1230.008106,7328.038826,-6365.771101,1225.752797
1230.008437,7328.038826,-6217.729913,1378.971896
1230.008767,7624.121203,-6291.750507,1072.533697
1230.009097,7105.977043,-6513.812290,919.314598
1230.009427,6809.894666,-6883.915261,689.485948
1230.009757,6809.894666,-6513.812290,842.705048
1230.010088,7328.038826,-6143.709319,766.095498
1230.010418,7402.059420,-5995.668130,1225.752797
1230.010748,7105.977043,-6143.709319,1225.752797
1230.011078,7105.977043,-6069.688724,1302.362347
1230.011409,7105.977043,-6661.853478,1149.143247
1230.011739,6883.915261,-6217.729913,689.485948
1230.012069,6143.709319,-6809.894666,612.876398
1230.012399,6439.791695,-7105.977043,1072.533697
1230.012730,6809.894666,-6883.915261,1225.752797
1230.013060,6883.915261,-7031.956449,1149.143247
1230.013390,7624.121203,-6883.915261,919.314598
1230.013720,7105.977043,-7031.956449,1225.752797
1230.014051,6513.812290,-7031.956449,689.485948
1230.014381,6513.812290,-7105.977043,612.876398
1230.014711,6513.812290,-6809.894666,842.705048
1230.015041,7698.141797,-6809.894666,383.047749
1230.015372,7254.018232,-6439.791695,1302.362347
1230.015702,7402.059420,-6365.771101,995.924147
1230.016032,7624.121203,-6587.832884,995.924147
1230.016362,6957.935855,-6217.729913,1225.752797
1230.016692,6365.771101,-6661.853478,536.266849
1230.017023,7031.956449,-6365.771101,1072.533697
1230.017353,7254.018232,-6069.688724,766.095498
1230.017683,7031.956449,-6069.688724,1072.533697
1230.018013,7105.977043,-5921.647536,1991.848295
1230.018344,7402.059420,-6291.750507,1225.752797
1230.018674,7105.977043,-6587.832884,1149.143247
1230.019004,6661.853478,-6513.812290,842.705048
1230.019334,6439.791695,-7031.956449,1302.362347
1230.019665,7031.956449,-6661.853478,1302.362347
1230.019995,7105.977043,-6439.791695,1072.533697
1230.020325,6883.915261,-7031.956449,1149.143247
1230.020655,6883.915261,-6513.812290,1072.533697
1230.020986,6735.874072,-6069.688724,1072.533697
1230.021316,6439.791695,-6587.832884,689.485948
1230.021646,6365.771101,-6661.853478,842.705048
1230.021976,7105.977043,-6513.812290,919.314598
1230.022307,7254.018232,-6883.915261,995.924147
1230.022637,7105.977043,-6217.729913,1378.971896
1230.022967,7402.059420,-6661.853478,1532.190996
1230.023297,7254.018232,-6439.791695,842.705048
1230.023627,6957.935855,-6217.729913,689.485948
1230.023958,6883.915261,-6735.874072,306.438199
1230.024288,7031.956449,-6513.812290,1378.971896
1230.024618,7328.038826,-5847.626942,842.705048
1230.024948,6809.894666,-6291.750507,1225.752797
1230.025279,7105.977043,-6365.771101,1072.533697
1230.025609,7698.141797,-6809.894666,1302.362347
1230.025939,7105.977043,-6513.812290,1378.971896
1230.026269,6439.791695,-6661.853478,766.095498
1230.026600,6217.729913,-6957.935855,842.705048
1230.026930,7031.956449,-7105.977043,1762.019645
1230.027260,7105.977043,-6439.791695,1225.752797
1230.027590,6735.874072,-6513.812290,995.924147
1230.027921,6957.935855,-6661.853478,1225.752797
1230.028251,6735.874072,-6735.874072,1072.533697
1230.028581,6217.729913,-6957.935855,1072.533697
1230.028911,6291.750507,-7031.956449,1072.533697
1230.029241,6883.915261,-6957.935855,536.266849
1230.029572,7105.977043,-6513.812290,919.314598
1230.029902,7254.018232,-6365.771101,1455.581446
1230.030232,7328.038826,-5921.647536,1072.533697
1230.030562,7772.162391,-6069.688724,995.924147
1230.030893,7105.977043,-6439.791695,612.876398
1230.031223,7105.977043,-6661.853478,842.705048
1230.031553,7254.018232,-6143.709319,766.095498
1230.031883,7254.018232,-5995.668130,766.095498
1230.032214,7105.977043,-6291.750507,1378.971896
1230.032544,7254.018232,-5995.668130,995.924147
1230.032874,7402.059420,-6735.874072,995.924147
1230.033204,7105.977043,-6439.791695,1225.752797
1230.033535,6513.812290,-6513.812290,842.705048
1230.033865,6587.832884,-6883.915261,612.876398
1230.034195,6957.935855,-6809.894666,919.314598
1230.034525,6883.915261,-5921.647536,1225.752797
1230.034856,7179.997637,-6365.771101,995.924147
1230.035186,7105.977043,-6513.812290,1302.362347
1230.035516,6809.894666,-7105.977043,1225.752797
1230.035846,6661.853478,-7105.977043,612.876398
1230.036176,6291.750507,-6587.832884,1762.019645
1230.036507,7031.956449,-7105.977043,919.314598
1230.036837,7031.956449,-6661.853478,995.924147
1230.037167,7105.977043,-6587.832884,1225.752797
1230.037497,7254.018232,-6587.832884,766.095498
1230.037828,7328.038826,-6365.771101,995.924147
1230.038158,7105.977043,-6365.771101,842.705048
1230.038488,6957.935855,-6587.832884,1225.752797
1230.038815,7105.977043,-6365.771101,1149.143247
1230.039145,7254.018232,-5847.626942,1532.190996
1230.039474,7105.977043,-6439.791695,1149.143247
1230.039804,6957.935855,-6439.791695,1149.143247
1230.040133,7105.977043,-6735.874072,1149.143247
1230.040463,6587.832884,-6735.874072,1149.143247
1230.040792,6587.832884,-6957.935855,536.266849
1230.041122,6143.709319,-7031.956449,842.705048
1230.041451,6513.812290,-6883.915261,1149.143247
1230.041781,6661.853478,-6957.935855,1149.143247
1230.042110,7031.956449,-6365.771101,1302.362347
1230.042440,6809.894666,-6661.853478,1378.971896
1230.042769,6735.874072,-7031.956449,995.924147
1230.043099,6513.812290,-6735.874072,842.705048
1230.043428,6513.812290,-6809.894666,842.705048
1230.043758,7105.977043,-6587.832884,612.876398
1230.044087,7105.977043,-6587.832884,1455.581446
1230.044417,7328.038826,-6513.812290,1072.533697
1230.044746,7698.141797,-6513.812290,919.314598
1230.045076,7031.956449,-6291.750507,383.047749
1230.045405,6735.874072,-7031.956449,995.924147
1230.045735,7105.977043,-6661.853478,1072.533697
1230.046064,7328.038826,-5921.647536,689.485948
1230.046394,7105.977043,-5773.606348,919.314598
1230.046723,7179.997637,-6069.688724,1608.800546
1230.047053,7624.121203,-6143.709319,1149.143247
1230.047382,7476.080014,-6291.750507,766.095498
1230.047711,6957.935855,-6365.771101,1302.362347
1230.048041,6735.874072,-6587.832884,766.095498
1230.048370,6735.874072,-6587.832884,842.705048
1230.048700,6809.894666,-7031.956449,919.314598
1230.049029,7105.977043,-7031.956449,1225.752797
1230.049359,7105.977043,-6365.771101,1149.143247
1230.049688,7105.977043,-6513.812290,1378.971896
1230.050018,6439.791695,-7179.997637,919.314598
1230.050347,6513.812290,-6661.853478,842.705048
1230.050677,6735.874072,-6365.771101,842.705048
1230.051006,7105.977043,-6439.791695,842.705048
1230.051336,7698.141797,-6291.750507,1225.752797
1230.051665,7328.038826,-6365.771101,1149.143247
1230.051995,7698.141797,-6735.874072,995.924147
1230.052324,7105.977043,-6439.791695,1149.143247
1230.052654,7328.038826,-6587.832884,919.314598
1230.052983,7031.956449,-7105.977043,1225.752797
1230.053313,7105.977043,-6735.874072,1072.533697
1230.053642,7105.977043,-6365.771101,919.314598
1230.053972,6957.935855,-6291.750507,1455.581446
1230.054301,7031.956449,-5995.668130,1838.629195
1230.054631,6883.915261,-6439.791695,1225.752797
1230.054960,6661.853478,-6365.771101,1149.143247
1230.055290,6365.771101,-6661.853478,842.705048
1230.055619,6587.832884,-6957.935855,919.314598
1230.055949,6513.812290,-6735.874072,1225.752797
1230.056278,6587.832884,-6883.915261,919.314598
1230.056608,6587.832884,-6661.853478,1302.362347
1230.056937,6365.771101,-7328.038826,1608.800546
1230.057267,6883.915261,-7105.977043,995.924147
1230.057596,6365.771101,-6957.935855,842.705048
1230.057926,6513.812290,-6957.935855,612.876398
1230.058255,6809.894666,-6735.874072,995.924147
1230.058585,7105.977043,-6587.832884,1072.533697
1230.058914,7105.977043,-6069.688724,1455.581446
1230.059243,7624.121203,-6217.729913,1072.533697
1230.059573,7105.977043,-6513.812290,919.314598
1230.059902,6883.915261,-6809.894666,995.924147
1230.060232,7105.977043,-6439.791695,1225.752797
1230.060561,7328.038826,-6069.688724,536.266849
1230.060891,7328.038826,-6069.688724,919.314598
1230.061220,7550.100608,-6143.709319,1149.143247
1230.061550,7179.997637,-6735.874072,1072.533697
1230.061879,7476.080014,-6735.874072,1608.800546
1230.062209,7031.956449,-6291.750507,766.095498
1230.062538,5921.647536,-6809.894666,766.095498
1230.062868,6587.832884,-6513.812290,536.266849
1230.063197,7179.997637,-6365.771101,1072.533697
1230.063527,7031.956449,-6513.812290,1149.143247
1230.063856,7328.038826,-6439.791695,1072.533697
1230.064186,7105.977043,-6735.874072,1072.533697
1230.064515,7105.977043,-6809.894666,995.924147
1230.064845,6809.894666,-7105.977043,1149.143247
1230.065174,6957.935855,-6883.915261,536.266849
1230.065504,7254.018232,-6957.935855,995.924147
1230.065833,7328.038826,-6513.812290,1225.752797
1230.066163,7402.059420,-6365.771101,1149.143247
1230.066492,7624.121203,-6143.709319,612.876398
1230.066822,6957.935855,-6291.750507,842.705048
1230.067151,6439.791695,-6735.874072,612.876398
1230.067481,6957.935855,-6661.853478,1225.752797
1230.067810,7624.121203,-5699.585753,536.266849
1230.068140,7105.977043,-6217.729913,1225.752797
1230.068469,7031.956449,-6217.729913,1302.362347
1230.068799,7179.997637,-6735.874072,1302.362347
1230.069128,6957.935855,-6513.812290,1149.143247
1230.069458,6291.750507,-6587.832884,1302.362347
1230.069787,6217.729913,-6809.894666,995.924147
1230.070117,6661.853478,-7179.997637,1225.752797
1230.070446,6661.853478,-7031.956449,1149.143247
1230.070775,6957.935855,-6513.812290,919.314598
1230.071105,6883.915261,-6439.791695,1302.362347
1230.071434,6735.874072,-6735.874072,1149.143247
1230.071764,6513.812290,-7105.977043,766.095498
1230.072093,6143.709319,-6735.874072,1072.533697
1230.072423,6809.894666,-6661.853478,229.828649
1230.072752,7105.977043,-6291.750507,766.095498
1230.073082,7031.956449,-6587.832884,1302.362347
1230.073411,7402.059420,-6809.894666,1149.143247
1230.073741,7402.059420,-6513.812290,1302.362347
1230.074070,7328.038826,-6069.688724,919.314598
1230.074400,6883.915261,-6957.935855,1225.752797
1230.074729,7105.977043,-6365.771101,1225.752797
1230.075059,7402.059420,-6143.709319,689.485948
1230.075388,7105.977043,-5847.626942,995.924147
1230.075718,7105.977043,-5995.668130,1072.533697
1230.076047,7328.038826,-6291.750507,1149.143247
1230.076377,7402.059420,-6291.750507,1225.752797
1230.076706,6513.812290,-6291.750507,766.095498
1230.077036,6439.791695,-6069.688724,766.095498
1230.077365,6883.915261,-6883.915261,995.924147
1230.077695,7254.018232,-6291.750507,919.314598
1230.078024,7105.977043,-6809.894666,1149.143247
1230.078354,6957.935855,-6069.688724,995.924147
1230.078683,7105.977043,-6587.832884,1072.533697
1230.079013,6513.812290,-7031.956449,766.095498
1230.079342,6587.832884,-7105.977043,1072.533697
1230.079672,7105.977043,-6809.894666,995.924147
1230.080001,7402.059420,-6661.853478,995.924147
1230.080331,7328.038826,-6069.688724,995.924147
1230.080660,7698.141797,-5847.626942,1149.143247
1230.080990,7624.121203,-6291.750507,1149.143247
1230.081319,7179.997637,-6217.729913,766.095498
1230.081649,7328.038826,-6587.832884,1149.143247
1230.081978,7254.018232,-6513.812290,1149.143247
1230.082307,7550.100608,-6143.709319,995.924147
1230.082637,7031.956449,-6365.771101,1608.800546
1230.082966,7402.059420,-6513.812290,1149.143247
1230.083296,7105.977043,-6587.832884,919.314598
1230.083625,6883.915261,-6661.853478,1302.362347
1230.083955,6365.771101,-7105.977043,919.314598
1230.084284,6069.688724,-7179.997637,766.095498
1230.084614,6957.935855,-6957.935855,842.705048
1230.084943,6735.874072,-6587.832884,1149.143247
1230.085273,6735.874072,-6587.832884,1225.752797
1230.085602,7105.977043,-6883.915261,1532.190996
1230.085932,6587.832884,-6883.915261,995.924147
1230.086261,6143.709319,-7031.956449,612.876398
1230.086591,6143.709319,-7105.977043,1302.362347
1230.086920,6809.894666,-7031.956449,919.314598
1230.087250,7328.038826,-5773.606348,1149.143247
1230.087579,7328.038826,-5033.400406,1532.190996
1230.087909,8512.368333,-5403.503377,1225.752797
1230.088238,8808.450710,-5551.544565,1455.581446
1230.088568,7920.203579,-6069.688724,689.485948
1230.088897,6809.894666,-6365.771101,459.657299
1230.089227,6439.791695,-6883.915261,689.485948
1230.089556,6143.709319,-6587.832884,0.000000
1230.089886,7031.956449,-6661.853478,842.705048
1230.090215,7994.224174,-5995.668130,1608.800546
1230.090545,8882.471304,-5995.668130,1685.410096
1230.090874,8586.388927,-4737.318029,1685.410096
1230.091204,7920.203579,-3997.112087,842.705048
1230.091533,7624.121203,-5107.421000,919.314598
1230.091863,8142.265362,-4737.318029,995.924147
1230.092192,8882.471304,-3923.091493,1455.581446
1230.092522,8808.450710,-4515.256246,1149.143247
1230.092851,7994.224174,-4219.173869,1225.752797
1230.093181,7624.121203,-5551.544565,76.609550
1230.093510,7920.203579,-4737.318029,766.095498
1230.093839,8660.409521,-6069.688724,1149.143247
1230.094169,8438.347739,-6217.729913,995.924147
1230.094498,8068.244768,-5551.544565,536.266849
1230.094828,7994.224174,-5403.503377,306.438199
1230.095157,8660.409521,-4589.276840,689.485948
1230.095487,8586.388927,-5107.421000,842.705048
1230.095816,8734.430116,-4737.318029,1072.533697
1230.096146,8882.471304,-4737.318029,1149.143247
1230.096475,9548.656652,-3923.091493,766.095498
1230.096805,9030.512492,-2664.741391,1149.143247
1230.097134,9326.594869,-3923.091493,1608.800546
1230.097464,9770.718434,-2812.782580,1915.238745
1230.097793,9474.636058,-3627.009116,1378.971896
1230.098123,9770.718434,-3404.947333,1149.143247
1230.098452,9104.533087,-4071.132681,1072.533697
1230.098782,9030.512492,-5403.503377,1455.581446
1230.099111,9178.553681,-5181.441594,1455.581446
1230.099441,8734.430116,-5181.441594,1378.971896
1230.099770,8734.430116,-4885.359217,1149.143247
1230.100100,8290.306550,-5107.421000,1455.581446
1230.100429,7994.224174,-5403.503377,995.924147
1230.100759,8068.244768,-4811.338623,1225.752797
1230.101088,8216.285956,-3775.050304,766.095498
1230.101418,8364.327145,-4367.215058,306.438199
1230.101747,8216.285956,-5403.503377,536.266849
1230.102077,8142.265362,-5255.462188,229.828649
1230.102406,8734.430116,-5107.421000,76.609550
1230.102736,8734.430116,-5699.585753,536.266849
1230.103065,8660.409521,-6143.709319,153.219100
1230.103395,9030.512492,-5477.523971,995.924147
1230.103724,9474.636058,-4885.359217,306.438199
1230.104054,9474.636058,-4145.153275,842.705048
1230.104383,9918.759623,-4737.318029,2068.457845
1230.104713,9622.677246,-4145.153275,1608.800546
1230.105042,8956.491898,-3997.112087,1608.800546
1230.105371,8068.244768,-2738.761985,1455.581446
1230.105701,8216.285956,-4293.194464,1762.019645
1230.106030,8586.388927,-4737.318029,2145.067394
1230.106360,8882.471304,-4219.173869,2221.676944
1230.106689,8512.368333,-4219.173869,1915.238745
1230.107019,8512.368333,-3478.967927,1149.143247
1230.107348,8142.265362,-4959.379811,1762.019645
1230.107678,7920.203579,-5403.503377,689.485948
1230.108007,7698.141797,-5699.585753,229.828649
1230.108337,7550.100608,-5995.668130,-689.485948
1230.108666,7698.141797,-6957.935855,-689.485948
1230.108996,7772.162391,-7328.038826,306.438199
1230.109325,7994.224174,-6883.915261,536.266849
1230.109655,7920.203579,-7254.018232,306.438199
1230.109984,7179.997637,-7105.977043,536.266849
1230.110314,6513.812290,-6957.935855,0.000000
1230.110643,6513.812290,-7772.162391,995.924147
1230.110973,6587.832884,-6957.935855,1149.143247
1230.111302,6809.894666,-6587.832884,1532.190996
1230.111632,7105.977043,-6513.812290,1838.629195
1230.111961,7624.121203,-5847.626942,2451.505594
1230.112291,8364.327145,-5255.462188,1838.629195
1230.112620,8290.306550,-3849.070898,536.266849
1230.112950,7476.080014,-4071.132681,229.828649
1230.113279,7994.224174,-4071.132681,-229.828649
1230.113609,8364.327145,-3404.947333,0.000000
1230.113938,8364.327145,-3923.091493,0.000000
1230.114268,9178.553681,-4293.194464,383.047749
1230.114597,9400.615463,-6365.771101,1762.019645
1230.114927,8512.368333,-7254.018232,1608.800546
1230.115256,6957.935855,-7920.203579,1915.238745
1230.115586,6217.729913,-8808.450710,1685.410096
1230.115915,5995.668130,-9030.512492,1838.629195
1230.116245,5773.606348,-9030.512492,1532.190996
1230.116574,5033.400406,-7994.224174,1225.752797
1230.116903,5255.462188,-7179.997637,459.657299
1230.117233,4959.379811,-7105.977043,0.000000
1230.117562,5477.523971,-6365.771101,-306.438199
1230.117892,5847.626942,-5995.668130,-306.438199
1230.118221,6735.874072,-5255.462188,-689.485948
1230.118551,7105.977043,-5551.544565,-76.609550
1230.118880,7846.182985,-5403.503377,766.095498
1230.119210,8512.368333,-5995.668130,2374.896044
1230.119539,9622.677246,-5699.585753,2757.943793
1230.119869,9178.553681,-4589.276840,3370.820191
1230.120198,9104.533087,-5033.400406,3217.601092
1230.120528,9030.512492,-5477.523971,3447.429741
1230.120857,7994.224174,-5107.421000,2757.943793
1230.121187,6735.874072,-5403.503377,1455.581446
1230.121516,6513.812290,-4737.318029,766.095498
1230.121846,6143.709319,-6513.812290,766.095498
1230.122175,5847.626942,-6587.832884,459.657299
1230.122505,5255.462188,-7105.977043,383.047749
1230.122834,6217.729913,-6957.935855,153.219100
1230.123164,7031.956449,-7105.977043,842.705048
1230.123493,7772.162391,-7402.059420,1915.238745
1230.123823,8068.244768,-7994.224174,2298.286494
1230.124152,7254.018232,-7698.141797,1608.800546
1230.124482,6069.688724,-7920.203579,612.876398
1230.124811,5255.462188,-8586.388927,842.705048
1230.125141,5255.462188,-8512.368333,842.705048
1230.125470,5033.400406,-7698.141797,383.047749
1230.125800,5181.441594,-7624.121203,612.876398
1230.126129,5329.482782,-7402.059420,766.095498
1230.126459,5773.606348,-6883.915261,1302.362347
1230.126788,6735.874072,-6365.771101,1685.410096
1230.127118,7105.977043,-5921.647536,1915.238745
1230.127447,7105.977043,-5477.523971,1915.238745
1230.127777,8142.265362,-5033.400406,2451.505594
1230.128106,8512.368333,-4293.194464,2298.286494
1230.128435,9400.615463,-4441.235652,1762.019645
1230.128765,8734.430116,-4663.297435,1762.019645
1230.129094,7994.224174,-5107.421000,1149.143247
1230.129424,7105.977043,-5773.606348,-306.438199
1230.129753,6513.812290,-6883.915261,0.000000
1230.130083,7031.956449,-7105.977043,-383.047749
1230.130412,6587.832884,-7254.018232,229.828649
1230.130742,6957.935855,-7254.018232,1378.971896
1230.131071,7328.038826,-8142.265362,1608.800546
1230.131401,7105.977043,-8216.285956,1685.410096
1230.131730,5921.647536,-8142.265362,459.657299
1230.132060,5329.482782,-8882.471304,229.828649
1230.132389,5625.565159,-7550.100608,0.000000
1230.132719,6143.709319,-7031.956449,-612.876398
1230.133048,6513.812290,-6217.729913,-229.828649
1230.133378,7105.977043,-5181.441594,0.000000
1230.133707,8142.265362,-5477.523971,383.047749
1230.134037,8512.368333,-5107.421000,842.705048
1230.134366,8438.347739,-5477.523971,1532.190996
1230.134696,8290.306550,-6069.688724,1149.143247
1230.135025,8142.265362,-5995.668130,1915.238745
1230.135355,8068.244768,-5995.668130,2068.457845
1230.135684,8142.265362,-5921.647536,2145.067394
1230.136014,8068.244768,-6069.688724,2374.896044
1230.136343,7254.018232,-6291.750507,995.924147
1230.136673,5921.647536,-5699.585753,76.609550
1230.137002,5625.565159,-5847.626942,0.000000
1230.137332,6143.709319,-6291.750507,-229.828649
1230.137661,6883.915261,-6883.915261,153.219100
1230.137991,6365.771101,-6513.812290,383.047749
1230.138320,6809.894666,-6587.832884,842.705048
1230.138650,7920.203579,-6587.832884,1225.752797
1230.138979,8660.409521,-7105.977043,1838.629195
1230.139309,8364.327145,-7476.080014,2374.896044
1230.139638,8142.265362,-6735.874072,2068.457845
1230.139967,7328.038826,-6513.812290,766.095498
1230.140297,6143.709319,-6883.915261,689.485948
1230.140626,5995.668130,-6513.812290,689.485948
1230.140956,5995.668130,-7402.059420,459.657299
1230.141285,6143.709319,-7105.977043,459.657299
1230.141614,5403.503377,-7550.100608,0.000000
1230.141943,5181.441594,-7772.162391,766.095498
1230.142273,5699.585753,-8068.244768,766.095498
1230.142602,5995.668130,-7698.141797,1225.752797
1230.142931,6513.812290,-6883.915261,1685.410096
1230.143261,7179.997637,-6587.832884,1915.238745
1230.143590,7846.182985,-5329.482782,2145.067394
1230.143919,8068.244768,-5181.441594,2068.457845
1230.144248,8290.306550,-4219.173869,1685.410096
1230.144578,8660.409521,-3923.091493,1225.752797
1230.144907,8660.409521,-4145.153275,1225.752797
1230.145236,7994.224174,-5329.482782,766.095498
1230.145565,7550.100608,-6217.729913,459.657299
1230.145895,7105.977043,-6883.915261,306.438199
1230.146224,6291.750507,-8512.368333,459.657299
1230.146553,6735.874072,-8882.471304,2068.457845
1230.146882,6143.709319,-8956.491898,1378.971896
1230.147212,5773.606348,-8660.409521,766.095498
1230.147541,5255.462188,-8216.285956,995.924147
1230.147870,5699.585753,-7402.059420,995.924147
1230.148199,6513.812290,-7105.977043,995.924147
1230.148529,6143.709319,-5699.585753,383.047749
1230.148858,6069.688724,-5255.462188,0.000000
1230.149187,7179.997637,-5477.523971,459.657299
1230.149516,8364.327145,-4811.338623,1532.190996
1230.149846,8512.368333,-5403.503377,2068.457845
1230.150175,8808.450710,-5329.482782,2145.067394
1230.150504,8364.327145,-5847.626942,1608.800546
1230.150834,7550.100608,-6661.853478,1225.752797
1230.151163,7105.977043,-7476.080014,1378.971896
1230.151492,6365.771101,-7476.080014,459.657299
1230.151821,6069.688724,-7254.018232,0.000000
1230.152151,5921.647536,-6735.874072,0.000000
1230.152480,6217.729913,-6291.750507,536.266849
1230.152809,7031.956449,-6587.832884,919.314598
1230.153138,7031.956449,-6809.894666,536.266849
1230.153468,6809.894666,-6513.812290,536.266849
1230.153797,7105.977043,-6217.729913,1302.362347
1230.154126,7846.182985,-5773.606348,1685.410096
1230.154455,8290.306550,-6291.750507,1915.238745
1230.154785,7920.203579,-6365.771101,2298.286494
1230.155114,8142.265362,-6513.812290,2068.457845
1230.155443,7772.162391,-6513.812290,1608.800546
1230.155772,7328.038826,-5477.523971,1225.752797
1230.156102,5921.647536,-7105.977043,-153.219100
1230.156431,5107.421000,-7624.121203,-612.876398
1230.156760,4885.359217,-7698.141797,0.000000
1230.157089,5255.462188,-7772.162391,-229.828649
1230.157419,5847.626942,-7105.977043,459.657299
1230.157748,6069.688724,-7105.977043,1225.752797
1230.158077,6513.812290,-7105.977043,1532.190996
1230.158406,7105.977043,-6661.853478,2221.676944
1230.158736,7920.203579,-5329.482782,2298.286494
1230.159065,8364.327145,-4515.256246,1915.238745
1230.159394,8808.450710,-4071.132681,2221.676944
1230.159724,9326.594869,-3997.112087,1455.581446
1230.160053,8882.471304,-4515.256246,1608.800546
1230.160382,8438.347739,-5033.400406,689.485948
1230.160711,7254.018232,-5847.626942,0.000000
1230.161041,6883.915261,-6957.935855,383.047749
1230.161370,6809.894666,-8142.265362,383.047749
1230.161699,6365.771101,-9104.533087,1149.143247
1230.162028,5625.565159,-8660.409521,1225.752797
1230.162358,5773.606348,-8438.347739,1149.143247
1230.162687,5255.462188,-8438.347739,995.924147
1230.163016,5181.441594,-7698.141797,919.314598
1230.163345,5403.503377,-8068.244768,1302.362347
1230.163675,5847.626942,-7179.997637,612.876398
1230.164004,6439.791695,-5921.647536,383.047749
1230.164333,7179.997637,-6069.688724,1149.143247
1230.164662,8142.265362,-5329.482782,1532.190996
1230.164992,8438.347739,-5699.585753,2221.676944
1230.165321,8290.306550,-5107.421000,1762.019645
1230.165650,8216.285956,-4885.359217,1838.629195
1230.165979,8512.368333,-5551.544565,1685.410096
1230.166309,8216.285956,-6069.688724,1072.533697
1230.166638,7328.038826,-6809.894666,919.314598
1230.166967,6587.832884,-7105.977043,383.047749
1230.167297,5477.523971,-7031.956449,459.657299
1230.167626,5107.421000,-7105.977043,0.000000
1230.167955,5477.523971,-6587.832884,-459.657299
1230.168284,5847.626942,-7031.956449,306.438199
1230.168614,5921.647536,-6883.915261,689.485948
1230.168943,6883.915261,-6291.750507,1225.752797
1230.169272,8364.327145,-5773.606348,1378.971896
1230.169601,8512.368333,-5921.647536,2145.067394
1230.169931,8512.368333,-6513.812290,2451.505594
1230.170260,8142.265362,-6587.832884,1991.848295
1230.170589,7105.977043,-7105.977043,1608.800546
1230.170918,7105.977043,-6957.935855,536.266849
1230.171248,6217.729913,-6365.771101,76.609550
1230.171577,5625.565159,-7328.038826,-153.219100
1230.171906,5403.503377,-7476.080014,0.000000
1230.172235,5699.585753,-8142.265362,76.609550
1230.172565,5329.482782,-7624.121203,0.000000
1230.172894,5181.441594,-7031.956449,842.705048
1230.173223,6439.791695,-6587.832884,995.924147
1230.173552,7254.018232,-6587.832884,1685.410096
1230.173882,7772.162391,-5625.565159,3064.381992
1230.174211,9030.512492,-4737.318029,2451.505594
1230.174540,9548.656652,-4293.194464,1838.629195
1230.174869,9178.553681,-4293.194464,1455.581446
1230.175199,8216.285956,-4811.338623,536.266849
1230.175528,7476.080014,-5033.400406,459.657299
1230.175857,7772.162391,-5921.647536,306.438199
1230.176187,7105.977043,-6957.935855,459.657299
1230.176516,6439.791695,-6735.874072,153.219100
1230.176845,6957.935855,-7772.162391,383.047749
1230.177174,6735.874072,-8734.430116,1072.533697
1230.177504,5699.585753,-8512.368333,919.314598
1230.177833,4811.338623,-8808.450710,689.485948
1230.178162,4885.359217,-8512.368333,383.047749
1230.178491,5477.523971,-8068.244768,689.485948
1230.178821,5699.585753,-7698.141797,1072.533697
1230.179150,6291.750507,-6069.688724,1072.533697
1230.179479,7254.018232,-6069.688724,1072.533697
1230.179808,7550.100608,-5181.441594,0.000000
1230.180138,7772.162391,-4959.379811,1149.143247
1230.180467,8438.347739,-5847.626942,766.095498
1230.180796,8512.368333,-6069.688724,1532.190996
1230.181125,8290.306550,-6143.709319,1762.019645
1230.181455,8142.265362,-6069.688724,1455.581446
1230.181784,7698.141797,-5551.544565,1225.752797
1230.182113,6883.915261,-6365.771101,919.314598
1230.182442,6661.853478,-6069.688724,383.047749
1230.182772,6217.729913,-5773.606348,842.705048
1230.183101,7031.956449,-5403.503377,536.266849
1230.183430,6809.894666,-4885.359217,306.438199
1230.183760,6661.853478,-6143.709319,1149.143247
1230.184089,7402.059420,-6439.791695,1532.190996
1230.184418,7698.141797,-6217.729913,1685.410096
1230.184747,7920.203579,-6143.709319,1915.238745
1230.185077,8290.306550,-6365.771101,2298.286494
1230.185406,8586.388927,-6957.935855,2451.505594
1230.185735,7920.203579,-6883.915261,2374.896044
1230.186064,7105.977043,-6735.874072,1225.752797
1230.186394,6439.791695,-6735.874072,383.047749
1230.186723,5625.565159,-6883.915261,-536.266849
1230.187052,4589.276840,-7772.162391,-766.095498
1230.187381,4589.276840,-8216.285956,0.000000
1230.187711,4737.318029,-8438.347739,-459.657299
1230.188040,5181.441594,-7920.203579,383.047749
1230.188369,5625.565159,-7624.121203,1072.533697
1230.188698,6513.812290,-7698.141797,1838.629195
1230.189028,7772.162391,-5773.606348,1915.238745
1230.189357,7846.182985,-5625.565159,2757.943793
1230.189686,8734.430116,-4663.297435,2528.115143
1230.190015,8956.491898,-3923.091493,2528.115143
1230.190345,9104.533087,-3701.029710,1991.848295
1230.190674,8512.368333,-3701.029710,1149.143247
1230.191003,7920.203579,-4663.297435,536.266849
1230.191333,7476.080014,-5773.606348,153.219100
1230.191662,6513.812290,-6957.935855,229.828649
1230.191991,5773.606348,-7772.162391,459.657299
1230.192320,5699.585753,-8586.388927,459.657299
1230.192650,5255.462188,-9696.697840,1149.143247
1230.192979,5551.544565,-9178.553681,1378.971896
1230.193308,5773.606348,-9030.512492,1149.143247
1230.193637,6143.709319,-8364.327145,1455.581446
1230.193967,5699.585753,-7402.059420,689.485948
1230.194296,5625.565159,-7254.018232,383.047749
1230.194625,6143.709319,-6735.874072,536.266849
1230.194954,7105.977043,-5773.606348,612.876398
1230.195284,7846.182985,-4663.297435,1225.752797
1230.195613,8586.388927,-4959.379811,1455.581446
1230.195942,9030.512492,-5699.585753,1608.800546
1230.196271,8660.409521,-5403.503377,2068.457845
1230.196601,8216.285956,-6587.832884,1225.752797
1230.196930,7624.121203,-6439.791695,1072.533697
1230.197259,7254.018232,-6513.812290,919.314598
1230.197588,6957.935855,-6883.915261,1072.533697
1230.197918,6439.791695,-5995.668130,536.266849
1230.198247,6809.894666,-6143.709319,689.485948
1230.198576,6957.935855,-5181.441594,536.266849
1230.198905,7105.977043,-5255.462188,536.266849
1230.199235,7105.977043,-6217.729913,1072.533697
1230.199564,7402.059420,-5773.606348,1762.019645
1230.199893,7105.977043,-6291.750507,1225.752797
1230.200223,7476.080014,-6291.750507,1762.019645
1230.200552,7846.182985,-6883.915261,2068.457845
1230.200881,8364.327145,-7402.059420,2681.334243
1230.201210,7994.224174,-6957.935855,1991.848295
1230.201540,6513.812290,-7254.018232,995.924147
1230.201869,5699.585753,-7105.977043,0.000000
1230.202198,5181.441594,-8068.244768,-995.924147
1230.202527,5551.544565,-8216.285956,-612.876398
1230.202857,5477.523971,-7698.141797,-383.047749
1230.203186,6143.709319,-7402.059420,76.609550
1230.203515,6513.812290,-6957.935855,536.266849
1230.203844,6513.812290,-7179.997637,1072.533697
1230.204174,6957.935855,-6809.894666,1685.410096
1230.204503,7550.100608,-6735.874072,1532.190996
1230.204832,7846.182985,-5921.647536,2068.457845
1230.205161,7994.224174,-4663.297435,2068.457845
1230.205491,8734.430116,-4071.132681,2221.676944
1230.205820,9474.636058,-4515.256246,2221.676944
1230.206149,8956.491898,-3923.091493,1608.800546
1230.206478,7772.162391,-4663.297435,919.314598
1230.206808,7031.956449,-5773.606348,0.000000
1230.207137,6809.894666,-6587.832884,689.485948
1230.207466,6143.709319,-7476.080014,689.485948
1230.207796,6069.688724,-7994.224174,1072.533697
1230.208125,5921.647536,-8512.368333,1225.752797
1230.208454,5773.606348,-8660.409521,1225.752797
1230.208783,5181.441594,-8512.368333,1072.533697
1230.209113,5625.565159,-7846.182985,1149.143247
1230.209442,6143.709319,-7624.121203,995.924147
1230.209771,6513.812290,-6957.935855,919.314598
1230.210100,6809.894666,-6587.832884,1149.143247
1230.210430,7402.059420,-5699.585753,919.314598
1230.210759,7624.121203,-5625.565159,995.924147
1230.211088,7920.203579,-6217.729913,1072.533697
1230.211417,7624.121203,-6217.729913,1532.190996
1230.211747,7698.141797,-5625.565159,1455.581446
1230.212076,7476.080014,-5847.626942,1378.971896
1230.212405,7105.977043,-6069.688724,1455.581446
1230.212734,7476.080014,-6439.791695,1685.410096
1230.213064,7031.956449,-7105.977043,919.314598
1230.213393,5773.606348,-6291.750507,536.266849
1230.213722,5181.441594,-6439.791695,0.000000
1230.214051,5625.565159,-6365.771101,306.438199
1230.214381,6735.874072,-6735.874072,689.485948
1230.214710,7179.997637,-6957.935855,1532.190996
1230.215039,7624.121203,-6365.771101,1378.971896
1230.215368,7550.100608,-5995.668130,1225.752797
1230.215698,7920.203579,-6883.915261,1532.190996
1230.216027,7550.100608,-7105.977043,2068.457845
1230.216356,8068.244768,-7550.100608,2068.457845
1230.216686,7550.100608,-7179.997637,1225.752797
1230.217015,6291.750507,-7031.956449,612.876398
1230.217344,5995.668130,-7402.059420,76.609550
1230.217673,5921.647536,-7105.977043,-459.657299
1230.218003,5625.565159,-7772.162391,-306.438199
1230.218332,5477.523971,-7402.059420,0.000000
1230.218661,6217.729913,-7105.977043,842.705048
1230.218990,6661.853478,-6587.832884,1072.533697
1230.219320,6735.874072,-6365.771101,2068.457845
1230.219649,7254.018232,-5477.523971,2068.457845
1230.219978,8438.347739,-4441.235652,2528.115143
1230.220307,9178.553681,-4515.256246,2757.943793
1230.220637,9104.533087,-3923.091493,2757.943793
1230.220966,8734.430116,-3775.050304,1608.800546
1230.221295,7846.182985,-4219.173869,766.095498
1230.221624,7624.121203,-5255.462188,612.876398
1230.221954,6957.935855,-6587.832884,383.047749
1230.222283,7031.956449,-6439.791695,383.047749
1230.222612,6513.812290,-7772.162391,459.657299
1230.222941,6217.729913,-8808.450710,153.219100
1230.223271,5625.565159,-8512.368333,766.095498
1230.223600,5625.565159,-9326.594869,1072.533697
1230.223929,6291.750507,-8660.409521,1149.143247
1230.224259,4959.379811,-8438.347739,919.314598
1230.224588,4959.379811,-8364.327145,689.485948
1230.224917,6365.771101,-7179.997637,612.876398
1230.225246,6957.935855,-5921.647536,919.314598
1230.225576,7402.059420,-5921.647536,612.876398
1230.225905,7698.141797,-5181.441594,842.705048
1230.226234,8290.306550,-4885.359217,383.047749
1230.226563,7994.224174,-5699.585753,995.924147
1230.226893,7772.162391,-5699.585753,1225.752797
1230.227222,8068.244768,-6661.853478,1685.410096
1230.227551,8142.265362,-6883.915261,1685.410096
1230.227880,7624.121203,-6809.894666,1608.800546
1230.228210,7179.997637,-6587.832884,1149.143247
1230.228539,6883.915261,-6587.832884,1685.410096
1230.228868,6365.771101,-5847.626942,1072.533697
1230.229197,5773.606348,-5847.626942,766.095498
1230.229527,6217.729913,-4811.338623,536.266849
1230.229856,7105.977043,-6143.709319,1149.143247
1230.230185,7476.080014,-5329.482782,1149.143247
1230.230514,7476.080014,-5107.421000,1225.752797
1230.230844,8142.265362,-6069.688724,1455.581446
1230.231173,8438.347739,-6365.771101,1838.629195
1230.231502,8142.265362,-7254.018232,1838.629195
1230.231832,7772.162391,-7550.100608,1608.800546
1230.232161,7105.977043,-7624.121203,919.314598
1230.232490,6439.791695,-7476.080014,76.609550
1230.232819,5403.503377,-8068.244768,842.705048
1230.233149,5181.441594,-8068.244768,0.000000
1230.233478,4959.379811,-7772.162391,-459.657299
1230.233807,4811.338623,-7994.224174,-229.828649
1230.234136,5181.441594,-7254.018232,0.000000
1230.234466,6365.771101,-6809.894666,1685.410096
1230.234795,6883.915261,-6957.935855,1685.410096
1230.235124,7328.038826,-5107.421000,2068.457845
1230.235453,7846.182985,-4293.194464,2451.505594
1230.235783,9252.574275,-3775.050304,2757.943793
1230.236112,9400.615463,-3330.926739,2681.334243
1230.236441,8882.471304,-4219.173869,1532.190996
1230.236770,8142.265362,-3997.112087,766.095498
1230.237100,7254.018232,-5699.585753,0.000000
1230.237429,7105.977043,-7402.059420,153.219100
1230.237758,5625.565159,-7328.038826,-383.047749
1230.238087,5625.565159,-8142.265362,0.000000
1230.238417,5921.647536,-8734.430116,76.609550
1230.238746,5625.565159,-9252.574275,1455.581446
1230.239075,6217.729913,-8808.450710,919.314598
1230.239404,5477.523971,-8808.450710,766.095498
1230.239734,4885.359217,-8438.347739,306.438199
1230.240063,4959.379811,-8364.327145,306.438199
1230.240392,6143.709319,-7328.038826,1072.533697
1230.240721,7179.997637,-6217.729913,766.095498
1230.241050,8142.265362,-5107.421000,689.485948
1230.241379,7846.182985,-5107.421000,919.314598
1230.241708,8882.471304,-5181.441594,1455.581446
1230.242037,8660.409521,-4959.379811,1455.581446
1230.242366,8734.430116,-5403.503377,1608.800546
1230.242695,8512.368333,-6735.874072,1762.019645
1230.243024,7402.059420,-6439.791695,1378.971896
1230.243353,7105.977043,-5403.503377,1762.019645
1230.243683,7031.956449,-6883.915261,995.924147
1230.244012,6587.832884,-5773.606348,1149.143247
1230.244341,6513.812290,-5921.647536,842.705048
1230.244670,6365.771101,-5329.482782,0.000000
1230.244999,6513.812290,-4737.318029,919.314598
1230.245328,6809.894666,-6217.729913,842.705048
1230.245657,7254.018232,-6069.688724,995.924147
1230.245986,7105.977043,-6291.750507,1149.143247
1230.246315,8216.285956,-6217.729913,1838.629195
1230.246644,9696.697840,-6143.709319,2221.676944
1230.246973,8882.471304,-7105.977043,2298.286494
1230.247302,8216.285956,-7254.018232,2145.067394
1230.247632,6957.935855,-7254.018232,1072.533697
1230.247961,5773.606348,-6957.935855,0.000000
1230.248290,4515.256246,-7772.162391,0.000000
1230.248619,4663.297435,-7624.121203,-229.828649
1230.248948,4515.256246,-8142.265362,-153.219100
1230.249277,5329.482782,-7846.182985,0.000000
1230.249606,5255.462188,-7698.141797,766.095498
1230.249935,5625.565159,-7772.162391,766.095498
1230.250264,6439.791695,-7698.141797,1225.752797
1230.250593,7105.977043,-6883.915261,1225.752797
1230.250922,7698.141797,-5995.668130,2681.334243
1230.251251,8660.409521,-4885.359217,1838.629195
1230.251581,8882.471304,-4737.318029,2145.067394
1230.251910,8808.450710,-3627.009116,1915.238745
1230.252239,8290.306550,-3775.050304,995.924147
1230.252568,8068.244768,-4293.194464,459.657299
1230.252897,7476.080014,-5773.606348,459.657299
1230.253226,6587.832884,-6809.894666,76.609550
1230.253555,6143.709319,-7550.100608,459.657299
1230.253884,6143.709319,-7624.121203,689.485948
1230.254213,6291.750507,-9030.512492,995.924147
1230.254542,6365.771101,-8734.430116,1608.800546
1230.254871,6143.709319,-8438.347739,1302.362347
1230.255200,6069.688724,-7476.080014,919.314598
1230.255529,5847.626942,-7105.977043,689.485948
1230.255859,6069.688724,-7179.997637,995.924147
1230.256188,7105.977043,-5995.668130,1072.533697
1230.256517,6809.894666,-5403.503377,536.266849
1230.256846,6661.853478,-5921.647536,689.485948
1230.257175,7476.080014,-6143.709319,1685.410096
1230.257504,8142.265362,-5921.647536,1762.019645
1230.257833,7994.224174,-5699.585753,1991.848295
1230.258162,7920.203579,-5551.544565,2374.896044
1230.258491,7846.182985,-6365.771101,1455.581446
1230.258820,6957.935855,-6513.812290,995.924147
1230.259149,6513.812290,-6587.832884,842.705048
1230.259478,6217.729913,-5847.626942,689.485948
1230.259808,6735.874072,-6291.750507,383.047749
1230.260137,6661.853478,-6143.709319,1685.410096
1230.260466,7476.080014,-5403.503377,1072.533697
1230.260795,7624.121203,-5847.626942,919.314598
1230.261124,7550.100608,-5847.626942,1072.533697
1230.261453,7105.977043,-6217.729913,1149.143247
1230.261782,7624.121203,-6217.729913,1532.190996
1230.262111,8068.244768,-7105.977043,1838.629195
1230.262440,7698.141797,-7476.080014,1915.238745
1230.262769,7105.977043,-7698.141797,1762.019645
1230.263098,6735.874072,-7624.121203,1072.533697
1230.263427,6217.729913,-8068.244768,995.924147
1230.263757,5403.503377,-7550.100608,0.000000
1230.264086,5181.441594,-7402.059420,-612.876398
1230.264415,5181.441594,-7550.100608,-459.657299
1230.264744,5773.606348,-6291.750507,-459.657299
1230.265073,5995.668130,-7179.997637,306.438199
1230.265402,6439.791695,-7105.977043,1149.143247
1230.265731,6809.894666,-7328.038826,1915.238745
1230.266060,7254.018232,-7105.977043,1915.238745
1230.266389,7772.162391,-6217.729913,2298.286494
1230.266718,7846.182985,-5107.421000,1915.238745
1230.267047,8290.306550,-5181.441594,1302.362347
1230.267376,8290.306550,-4663.297435,1532.190996
1230.267706,8216.285956,-4441.235652,1378.971896
1230.268035,8142.265362,-4885.359217,612.876398
1230.268364,7772.162391,-5699.585753,459.657299
1230.268693,6735.874072,-6883.915261,229.828649
1230.269022,6587.832884,-7698.141797,536.266849
1230.269351,6587.832884,-7105.977043,1149.143247
1230.269680,6883.915261,-7402.059420,1225.752797
1230.270009,6735.874072,-7698.141797,1455.581446
1230.270338,6291.750507,-7846.182985,1072.533697
1230.270667,5995.668130,-7328.038826,919.314598
1230.270996,6069.688724,-6809.894666,689.485948
1230.271325,6439.791695,-6217.729913,612.876398
1230.271654,6883.915261,-6217.729913,919.314598
1230.271984,7105.977043,-5403.503377,1225.752797
1230.272313,7105.977043,-5625.565159,1532.190996
1230.272642,7550.100608,-4959.379811,612.876398
1230.272971,7550.100608,-5995.668130,1455.581446
1230.273300,7328.038826,-6513.812290,1302.362347
1230.273629,7105.977043,-6809.894666,1762.019645
1230.273958,6809.894666,-6661.853478,1225.752797
1230.274287,6513.812290,-7179.997637,383.047749
1230.274616,5921.647536,-7105.977043,995.924147
1230.274945,6291.750507,-6365.771101,842.705048
1230.275274,6735.874072,-6365.771101,919.314598
1230.275603,6883.915261,-5773.606348,306.438199
1230.275933,6957.935855,-5921.647536,383.047749
1230.276262,7328.038826,-6143.709319,1072.533697
1230.276591,7698.141797,-5921.647536,1225.752797
1230.276920,7624.121203,-6587.832884,1225.752797
1230.277249,7402.059420,-7105.977043,1991.848295
1230.277578,7624.121203,-7328.038826,2374.896044
1230.277907,7698.141797,-7994.224174,2068.457845
1230.278236,6661.853478,-7031.956449,1302.362347
1230.278565,6069.688724,-7254.018232,1225.752797
1230.278894,5551.544565,-7105.977043,0.000000
1230.279223,4959.379811,-6883.915261,0.000000
1230.279552,5033.400406,-7698.141797,-153.219100
1230.279882,6365.771101,-6809.894666,689.485948
1230.280211,6143.709319,-7105.977043,306.438199
1230.280540,6291.750507,-6735.874072,612.876398
1230.280869,6735.874072,-7105.977043,1838.629195
1230.281198,8142.265362,-6439.791695,2528.115143
1230.281527,8364.327145,-5773.606348,2528.115143
1230.281856,8438.347739,-4663.297435,2451.505594
1230.282185,8808.450710,-4885.359217,2145.067394
1230.282514,8808.450710,-4737.318029,1762.019645
1230.282843,8734.430116,-4589.276840,766.095498
1230.283172,7846.182985,-4737.318029,536.266849
1230.283501,7624.121203,-4811.338623,842.705048
1230.283830,7476.080014,-5773.606348,153.219100
1230.284160,6439.791695,-7031.956449,383.047749
1230.284489,6513.812290,-7179.997637,459.657299
1230.284818,6143.709319,-7994.224174,536.266849
1230.285147,6143.709319,-7920.203579,919.314598
1230.285476,6069.688724,-8438.347739,1149.143247
1230.285805,6069.688724,-8290.306550,1532.190996
1230.286134,5773.606348,-8290.306550,1225.752797
1230.286463,5551.544565,-7105.977043,919.314598
1230.286792,5921.647536,-7105.977043,536.266849
1230.287121,6587.832884,-6143.709319,919.314598
1230.287450,7105.977043,-5699.585753,1455.581446
1230.287779,7328.038826,-5847.626942,536.266849
1230.288109,7328.038826,-5625.565159,919.314598
1230.288438,7846.182985,-6143.709319,1072.533697
1230.288767,8290.306550,-6365.771101,1915.238745
1230.289096,7920.203579,-6735.874072,1685.410096
1230.289425,7105.977043,-6957.935855,995.924147
1230.289754,6957.935855,-5699.585753,919.314598
1230.290083,6809.894666,-6217.729913,612.876398
1230.290412,6883.915261,-5773.606348,612.876398
1230.290741,7328.038826,-6439.791695,842.705048
1230.291070,7476.080014,-5477.523971,536.266849
1230.291399,7105.977043,-5699.585753,919.314598
1230.291728,6587.832884,-6661.853478,1302.362347
1230.292058,7772.162391,-6143.709319,919.314598
1230.292387,8290.306550,-6587.832884,2221.676944
1230.292716,8512.368333,-6587.832884,2068.457845
1230.293045,8438.347739,-6217.729913,2068.457845
1230.293374,7550.100608,-6809.894666,2145.067394
1230.293703,6587.832884,-6587.832884,1149.143247
1230.294032,5847.626942,-7624.121203,306.438199
1230.294361,5477.523971,-7254.018232,153.219100
1230.294690,5477.523971,-7920.203579,0.000000
1230.295019,4441.235652,-7105.977043,229.828649
1230.295348,4441.235652,-7920.203579,0.000000
1230.295677,5181.441594,-7920.203579,-229.828649
1230.296007,6365.771101,-7624.121203,1455.581446
1230.296336,6957.935855,-7254.018232,1915.238745
1230.296665,7846.182985,-6069.688724,2528.115143
1230.296994,8438.347739,-5181.441594,2604.724693
1230.297323,9178.553681,-4515.256246,2451.505594
1230.297652,9030.512492,-4515.256246,2757.943793
1230.297981,8956.491898,-4219.173869,2145.067394
1230.298310,8216.285956,-3627.009116,766.095498
1230.298639,6883.915261,-4589.276840,229.828649
1230.298968,6883.915261,-5921.647536,459.657299
1230.299297,7105.977043,-6735.874072,612.876398
1230.299626,6883.915261,-7402.059420,76.609550
1230.299955,6143.709319,-7846.182985,612.876398
1230.300285,5699.585753,-8660.409521,689.485948
1230.300614,6143.709319,-9104.533087,689.485948
1230.300943,6217.729913,-9474.636058,689.485948
1230.301272,5625.565159,-8882.471304,995.924147
1230.301601,5477.523971,-7624.121203,842.705048
1230.301930,5847.626942,-7550.100608,612.876398
1230.302259,6365.771101,-6735.874072,536.266849
1230.302588,6809.894666,-5921.647536,76.609550
1230.302917,7179.997637,-5773.606348,459.657299
1230.303246,7624.121203,-5403.503377,689.485948
1230.303575,8142.265362,-5329.482782,842.705048
1230.303904,8290.306550,-5847.626942,1455.581446
1230.304234,8882.471304,-6217.729913,1685.410096
1230.304563,7920.203579,-6661.853478,1762.019645
1230.304892,6809.894666,-6883.915261,1378.971896
1230.305221,6513.812290,-6809.894666,536.266849
1230.305550,6735.874072,-5699.585753,919.314598
1230.305879,6069.688724,-6513.812290,612.876398
1230.306208,6661.853478,-5921.647536,995.924147
1230.306537,7254.018232,-4885.359217,766.095498
1230.306866,7920.203579,-6143.709319,919.314598
1230.307195,7031.956449,-5329.482782,1378.971896
1230.307524,7402.059420,-6143.709319,1762.019645
1230.307853,7994.224174,-5847.626942,1915.238745
1230.308183,7994.224174,-6365.771101,1762.019645
1230.308512,7624.121203,-7698.141797,2068.457845
1230.308841,6957.935855,-7476.080014,2068.457845
1230.309170,6217.729913,-7698.141797,919.314598
1230.309499,5329.482782,-7550.100608,0.000000
1230.309828,4737.318029,-7476.080014,-383.047749
1230.310157,5329.482782,-8216.285956,0.000000
1230.310486,5477.523971,-7476.080014,153.219100
1230.310815,5477.523971,-7550.100608,0.000000
1230.311144,6217.729913,-6809.894666,459.657299
1230.311473,7031.956449,-6217.729913,1302.362347
1230.311802,7105.977043,-6809.894666,1762.019645
1230.312132,7920.203579,-6809.894666,2681.334243
1230.312461,8438.347739,-5625.565159,2374.896044
1230.312790,8956.491898,-4367.215058,2298.286494
1230.313119,8290.306550,-4293.194464,2145.067394
1230.313448,8586.388927,-4071.132681,1532.190996
1230.313777,8364.327145,-4737.318029,1072.533697
1230.314106,7772.162391,-5921.647536,689.485948
1230.314435,7031.956449,-6439.791695,229.828649
1230.314764,6291.750507,-7105.977043,-229.828649
1230.315093,5921.647536,-7698.141797,383.047749
1230.315422,5625.565159,-8660.409521,536.266849
1230.315751,5921.647536,-9326.594869,1225.752797
1230.316080,6291.750507,-8660.409521,2221.676944
1230.316410,6069.688724,-8290.306550,842.705048
1230.316739,5255.462188,-7550.100608,689.485948
1230.317068,5921.647536,-7920.203579,536.266849
1230.317397,6587.832884,-7476.080014,536.266849
1230.317726,6809.894666,-5033.400406,0.000000
1230.318055,6809.894666,-5255.462188,229.828649
1230.318384,7476.080014,-5403.503377,919.314598
1230.318713,7920.203579,-5625.565159,1302.362347
1230.319042,8364.327145,-5995.668130,1608.800546
1230.319371,7772.162391,-5625.565159,1991.848295
1230.319700,8290.306550,-5921.647536,1455.581446
1230.320029,7698.141797,-6809.894666,1762.019645
1230.320359,6957.935855,-6957.935855,1838.629195
1230.320688,6365.771101,-5847.626942,1149.143247
1230.321017,6069.688724,-5551.544565,153.219100
1230.321346,6365.771101,-5699.585753,459.657299
1230.321675,7031.956449,-5625.565159,1225.752797
1230.322004,7402.059420,-6365.771101,1685.410096
1230.322333,7550.100608,-5625.565159,612.876398
1230.322662,6809.894666,-5477.523971,766.095498
1230.322991,7105.977043,-6365.771101,1149.143247
1230.323320,7920.203579,-7105.977043,2298.286494
1230.323649,7920.203579,-6957.935855,1685.410096
1230.323978,7105.977043,-7254.018232,1685.410096
1230.324308,6587.832884,-7105.977043,1608.800546
1230.324637,6587.832884,-8290.306550,1149.143247
1230.324966,5921.647536,-7402.059420,689.485948
1230.325295,5477.523971,-7328.038826,-612.876398
1230.325624,5403.503377,-7254.018232,-689.485948
1230.325953,5625.565159,-7476.080014,0.000000
1230.326282,5625.565159,-7328.038826,0.000000
1230.326611,6513.812290,-6513.812290,1072.533697
1230.326940,7105.977043,-6661.853478,1378.971896
1230.327269,7328.038826,-6809.894666,1455.581446
1230.327598,7624.121203,-6143.709319,2757.943793
1230.327927,8808.450710,-5477.523971,2451.505594
1230.328257,9104.533087,-4959.379811,2298.286494
1230.328586,8586.388927,-4219.173869,1915.238745
1230.328915,8290.306550,-3997.112087,1532.190996
1230.329244,7994.224174,-4885.359217,1072.533697
1230.329573,7920.203579,-5255.462188,612.876398
1230.329902,6513.812290,-6143.709319,76.609550
1230.330231,6439.791695,-6957.935855,383.047749
1230.330560,6439.791695,-7402.059420,383.047749
1230.330889,6587.832884,-7994.224174,919.314598
1230.331218,6661.853478,-8216.285956,1838.629195
1230.331547,6143.709319,-8142.265362,919.314598
1230.331876,5847.626942,-8364.327145,919.314598
1230.332205,5699.585753,-7846.182985,1149.143247
1230.332535,5995.668130,-7476.080014,459.657299
1230.332864,6513.812290,-6809.894666,383.047749
1230.333193,6809.894666,-6439.791695,612.876398
1230.333522,7550.100608,-6365.771101,766.095498
1230.333851,7846.182985,-5551.544565,1225.752797
1230.334180,7624.121203,-5403.503377,842.705048
1230.334509,7476.080014,-5847.626942,1072.533697
1230.334838,7254.018232,-6735.874072,1838.629195
1230.335167,7772.162391,-6587.832884,1838.629195
1230.335496,7624.121203,-6217.729913,1608.800546
1230.335825,7179.997637,-5625.565159,1149.143247
1230.336154,6587.832884,-5847.626942,1072.533697
1230.336484,6661.853478,-6587.832884,1225.752797
1230.336813,6661.853478,-5995.668130,1378.971896
1230.337142,6513.812290,-5995.668130,766.095498
1230.337471,6809.894666,-5329.482782,995.924147
1230.337800,6735.874072,-5847.626942,766.095498
1230.338129,6365.771101,-6809.894666,995.924147
1230.338458,6957.935855,-6809.894666,1532.190996
1230.338787,7402.059420,-6439.791695,1762.019645
1230.339116,7846.182985,-7031.956449,1915.238745
1230.339445,7698.141797,-6587.832884,1838.629195
1230.339774,7328.038826,-7550.100608,1532.190996
1230.340103,6883.915261,-7105.977043,1072.533697
1230.340433,6587.832884,-7105.977043,536.266849
1230.340762,5773.606348,-7179.997637,-459.657299
1230.341091,5625.565159,-6883.915261,-229.828649
1230.341420,5625.565159,-6883.915261,-306.438199
1230.341749,5773.606348,-6809.894666,536.266849
1230.342078,6439.791695,-7328.038826,995.924147
1230.342407,7105.977043,-7402.059420,1455.581446
1230.342736,7254.018232,-7105.977043,1685.410096
1230.343066,7105.977043,-6735.874072,1762.019645
1230.343395,7328.038826,-6069.688724,1915.238745
1230.343724,8068.244768,-5995.668130,2528.115143
1230.344053,8438.347739,-4959.379811,2145.067394
1230.344382,8364.327145,-4293.194464,1302.362347
1230.344711,8438.347739,-4367.215058,1532.190996
1230.345041,7846.182985,-4811.338623,766.095498
1230.345370,7476.080014,-5551.544565,459.657299
1230.345699,6513.812290,-6587.832884,689.485948
1230.346028,6809.894666,-6883.915261,536.266849
1230.346357,6883.915261,-7179.997637,1149.143247
1230.346686,6513.812290,-8068.244768,1532.190996
1230.347016,6661.853478,-8734.430116,1838.629195
1230.347345,6513.812290,-8364.327145,1455.581446
1230.347674,5847.626942,-7698.141797,536.266849
1230.348003,5773.606348,-7624.121203,459.657299
1230.348332,6217.729913,-7105.977043,612.876398
1230.348661,6809.894666,-6809.894666,383.047749
1230.348990,6809.894666,-6513.812290,536.266849
1230.349320,7105.977043,-5699.585753,612.876398
1230.349649,7328.038826,-6365.771101,1225.752797
1230.349978,7698.141797,-6291.750507,1532.190996
1230.350307,7179.997637,-6439.791695,1608.800546
1230.350636,7550.100608,-6143.709319,1225.752797
1230.350965,7402.059420,-6217.729913,1378.971896
1230.351295,7328.038826,-5921.647536,1378.971896
1230.351624,7179.997637,-6291.750507,1072.533697
1230.351953,6957.935855,-5773.606348,842.705048
1230.352282,6957.935855,-5625.565159,842.705048
1230.352611,6365.771101,-5773.606348,612.876398
1230.352940,6513.812290,-6809.894666,306.438199
1230.353270,6883.915261,-6957.935855,459.657299
1230.353599,6957.935855,-6587.832884,995.924147
1230.353928,7328.038826,-6735.874072,1762.019645
1230.354257,7994.224174,-6883.915261,1991.848295
1230.354586,8438.347739,-7105.977043,2451.505594
1230.354915,7476.080014,-7402.059420,2068.457845
1230.355245,7105.977043,-7476.080014,1532.190996
1230.355574,6439.791695,-6439.791695,536.266849
1230.355903,5921.647536,-6587.832884,0.000000
1230.356232,5329.482782,-6883.915261,-229.828649
1230.356561,5995.668130,-6291.750507,0.000000
1230.356890,6883.915261,-6365.771101,459.657299
1230.357219,7328.038826,-6661.853478,919.314598
1230.357549,6661.853478,-6883.915261,1072.533697
1230.357878,6735.874072,-7105.977043,1608.800546
1230.358207,7105.977043,-6957.935855,2068.457845
1230.358536,7624.121203,-5921.647536,2374.896044
1230.358865,7254.018232,-6143.709319,2221.676944
1230.359194,7772.162391,-5403.503377,2068.457845
1230.359524,7846.182985,-5181.441594,1225.752797
1230.359853,7624.121203,-4663.297435,1225.752797
1230.360182,7624.121203,-5107.421000,612.876398
1230.360511,7254.018232,-5699.585753,306.438199
1230.360840,7105.977043,-5995.668130,612.876398
1230.361169,6735.874072,-6809.894666,689.485948
1230.361499,7328.038826,-7105.977043,383.047749
1230.361828,6957.935855,-7624.121203,1072.533697
1230.362157,6809.894666,-8290.306550,1532.190996
1230.362486,6957.935855,-8438.347739,1532.190996
1230.362815,6735.874072,-7254.018232,766.095498
1230.363144,5847.626942,-7254.018232,1378.971896
1230.363474,5477.523971,-7179.997637,689.485948
1230.363803,5773.606348,-6587.832884,76.609550
1230.364132,5921.647536,-6587.832884,-76.609550
1230.364461,6587.832884,-6439.791695,1378.971896
1230.364790,6883.915261,-6069.688724,689.485948
1230.365119,7254.018232,-6513.812290,1149.143247
1230.365449,7402.059420,-6661.853478,1915.238745
1230.365778,7402.059420,-6365.771101,1762.019645
1230.366107,7698.141797,-6587.832884,1455.581446
1230.366436,7476.080014,-6291.750507,1762.019645
1230.366765,6809.894666,-6587.832884,1149.143247
1230.367094,6735.874072,-5921.647536,459.657299
1230.367423,6217.729913,-5477.523971,919.314598
1230.367753,7402.059420,-5847.626942,612.876398
1230.368082,7550.100608,-5477.523971,766.095498
1230.368411,7179.997637,-6217.729913,689.485948
1230.368740,7254.018232,-6365.771101,1072.533697
1230.369069,6957.935855,-6513.812290,995.924147
1230.369398,6957.935855,-6957.935855,1378.971896
1230.369728,7105.977043,-7254.018232,1838.629195
1230.370057,7031.956449,-6883.915261,1302.362347
1230.370386,6735.874072,-7179.997637,1225.752797
1230.370715,6809.894666,-7179.997637,1608.800546
1230.371044,6957.935855,-6661.853478,766.095498
1230.371373,6513.812290,-6661.853478,536.266849
1230.371703,6217.729913,-6217.729913,76.609550
1230.372032,5921.647536,-6809.894666,153.219100
1230.372361,6365.771101,-7179.997637,306.438199
1230.372690,6513.812290,-7254.018232,766.095498
1230.373019,5847.626942,-7698.141797,995.924147
1230.373348,6365.771101,-7624.121203,1608.800546
1230.373678,7105.977043,-7179.997637,1762.019645
1230.374007,7254.018232,-7105.977043,1532.190996
1230.374336,7105.977043,-6439.791695,1915.238745
1230.374665,7105.977043,-5625.565159,1762.019645
1230.374994,7402.059420,-4737.318029,1378.971896
1230.375323,7772.162391,-4441.235652,766.095498
1230.375652,7994.224174,-4515.256246,459.657299
1230.375982,8882.471304,-5107.421000,842.705048
1230.376311,8142.265362,-6217.729913,1149.143247
1230.376640,7328.038826,-6439.791695,919.314598
1230.376969,7179.997637,-6587.832884,1225.752797
1230.377298,7105.977043,-7402.059420,1608.800546
1230.377627,7031.956449,-7994.224174,1455.581446
1230.377957,6291.750507,-8068.244768,1302.362347
1230.378286,5847.626942,-7105.977043,919.314598
1230.378615,6143.709319,-7846.182985,459.657299
1230.378944,5921.647536,-7105.977043,689.485948
1230.379273,5255.462188,-7031.956449,229.828649
1230.379602,6069.688724,-6439.791695,536.266849
1230.379932,6735.874072,-6217.729913,1072.533697
1230.380261,7031.956449,-6661.853478,1225.752797
1230.380590,7105.977043,-5847.626942,1302.362347
1230.380919,7698.141797,-6291.750507,1685.410096
1230.381248,8068.244768,-6291.750507,1608.800546
1230.381577,7254.018232,-5995.668130,1532.190996
1230.381907,7328.038826,-5921.647536,1608.800546
1230.382236,7698.141797,-6883.915261,1225.752797
1230.382565,7179.997637,-6365.771101,1532.190996
1230.382894,7031.956449,-6291.750507,229.828649
1230.383223,6809.894666,-5699.585753,0.000000
1230.383552,6513.812290,-6143.709319,766.095498
1230.383882,6735.874072,-6957.935855,459.657299
1230.384211,7179.997637,-6661.853478,1072.533697
1230.384540,7328.038826,-6661.853478,612.876398
1230.384869,7105.977043,-6661.853478,1532.190996
1230.385198,7105.977043,-7179.997637,1991.848295
1230.385527,7179.997637,-6809.894666,1608.800546
1230.385856,7476.080014,-7254.018232,2298.286494
1230.386186,7031.956449,-7105.977043,1302.362347
1230.386515,6069.688724,-6883.915261,536.266849
1230.386844,5847.626942,-6957.935855,76.609550
1230.387173,6143.709319,-7105.977043,919.314598
1230.387502,5921.647536,-7179.997637,76.609550
1230.387831,5921.647536,-6957.935855,612.876398
1230.388161,5995.668130,-7105.977043,612.876398
1230.388490,6069.688724,-7698.141797,995.924147
1230.388819,6513.812290,-6735.874072,2298.286494
1230.389148,7105.977043,-6957.935855,2068.457845
1230.389477,7698.141797,-6143.709319,1838.629195
1230.389806,7624.121203,-5033.400406,2145.067394
1230.390136,8216.285956,-4441.235652,1991.848295
1230.390465,8808.450710,-3849.070898,919.314598
1230.390794,8586.388927,-4219.173869,766.095498
1230.391123,7994.224174,-5403.503377,306.438199
1230.391452,7550.100608,-6069.688724,383.047749
1230.391781,6957.935855,-5699.585753,153.219100
1230.392111,7402.059420,-6735.874072,383.047749
1230.392440,6809.894666,-7772.162391,919.314598
1230.392769,6883.915261,-8290.306550,1685.410096
1230.393098,6587.832884,-8586.388927,1149.143247
1230.393427,6439.791695,-8068.244768,689.485948
1230.393756,5403.503377,-7698.141797,612.876398
1230.394085,5551.544565,-7698.141797,689.485948
1230.394415,6143.709319,-6661.853478,536.266849
1230.394744,6069.688724,-5773.606348,612.876398
1230.395073,7105.977043,-5699.585753,766.095498
1230.395402,7624.121203,-5699.585753,1149.143247
1230.395731,7698.141797,-5773.606348,536.266849
1230.396060,7328.038826,-5847.626942,1455.581446
1230.396390,8512.368333,-5403.503377,1915.238745
1230.396719,8364.327145,-6439.791695,1608.800546
1230.397048,7920.203579,-6291.750507,1685.410096
1230.397377,7624.121203,-6587.832884,1378.971896
1230.397706,7402.059420,-5995.668130,842.705048
1230.398035,7105.977043,-5773.606348,459.657299
1230.398365,6513.812290,-6439.791695,306.438199
1230.398694,7105.977043,-6069.688724,306.438199
1230.399023,7105.977043,-6365.771101,612.876398
1230.399352,6809.894666,-6217.729913,1149.143247
1230.399681,6809.894666,-5921.647536,1762.019645
1230.400010,7328.038826,-6217.729913,1838.629195
1230.400340,7624.121203,-6883.915261,1915.238745
1230.400669,7402.059420,-6661.853478,2068.457845
1230.400998,7476.080014,-7402.059420,1608.800546
1230.401327,6809.894666,-7550.100608,1455.581446
1230.401656,6365.771101,-7105.977043,766.095498
1230.401985,5625.565159,-7105.977043,229.828649
1230.402315,5477.523971,-6957.935855,0.000000
1230.402644,5847.626942,-7698.141797,383.047749
1230.402973,5625.565159,-7328.038826,0.000000
1230.403302,5699.585753,-7402.059420,459.657299
1230.403631,5625.565159,-7402.059420,76.609550
1230.403960,6439.791695,-7698.141797,1685.410096
1230.404289,6661.853478,-7254.018232,1685.410096
1230.404619,7402.059420,-7031.956449,2298.286494
1230.404948,8290.306550,-5625.565159,2374.896044
1230.405277,8660.409521,-4441.235652,2298.286494
1230.405606,8290.306550,-4811.338623,1991.848295
1230.405935,8438.347739,-4219.173869,1302.362347
1230.406264,8364.327145,-3701.029710,536.266849
1230.406594,8142.265362,-4737.318029,612.876398
1230.406923,7624.121203,-4811.338623,766.095498
1230.407252,7698.141797,-6587.832884,995.924147
1230.407581,7031.956449,-7254.018232,995.924147
1230.407910,6513.812290,-7846.182985,1149.143247
1230.408239,5995.668130,-8068.244768,1302.362347
1230.408569,6069.688724,-8364.327145,1302.362347
1230.408898,5699.585753,-8586.388927,919.314598
1230.409227,5551.544565,-8216.285956,919.314598
1230.409556,5773.606348,-7105.977043,766.095498
1230.409885,6439.791695,-6439.791695,0.000000
1230.410214,6365.771101,-6217.729913,383.047749
1230.410544,6735.874072,-6587.832884,1455.581446
1230.410873,7328.038826,-6143.709319,536.266849
1230.411202,7624.121203,-5255.462188,919.314598
1230.411531,7846.182985,-6217.729913,1762.019645
1230.411860,8808.450710,-6883.915261,1532.190996
1230.412189,8734.430116,-6143.709319,1991.848295
1230.412519,8216.285956,-6143.709319,1225.752797
1230.412848,7179.997637,-5551.544565,995.924147
1230.413177,6661.853478,-6069.688724,459.657299
1230.413506,6587.832884,-5921.647536,306.438199
1230.413835,6217.729913,-6439.791695,306.438199
1230.414164,6883.915261,-5921.647536,842.705048
1230.414493,7328.038826,-6291.750507,766.095498
1230.414823,7179.997637,-6217.729913,766.095498
1230.415152,6735.874072,-6661.853478,1455.581446
1230.415481,6883.915261,-6809.894666,1378.971896
1230.415810,7105.977043,-6883.915261,2145.067394
1230.416139,7846.182985,-7105.977043,1838.629195
1230.416468,7328.038826,-7624.121203,1685.410096
1230.416798,6513.812290,-7031.956449,2068.457845
1230.417127,6217.729913,-7476.080014,766.095498
1230.417456,5625.565159,-7254.018232,842.705048
1230.417785,4885.359217,-7179.997637,-459.657299
1230.418114,5033.400406,-7698.141797,-842.705048
1230.418443,5255.462188,-7476.080014,-306.438199
1230.418773,5625.565159,-7698.141797,229.828649
1230.419102,6217.729913,-7846.182985,995.924147
1230.419431,6661.853478,-7328.038826,1378.971896
1230.419760,7031.956449,-6883.915261,1608.800546
1230.420089,7550.100608,-6587.832884,2221.676944
1230.420418,8290.306550,-5255.462188,2298.286494
1230.420748,8438.347739,-4367.215058,2298.286494
1230.421077,8290.306550,-3404.947333,1685.410096
1230.421406,8438.347739,-3256.906145,1455.581446
1230.421735,8586.388927,-4071.132681,919.314598
1230.422064,8364.327145,-4515.256246,1225.752797
1230.422393,7624.121203,-5477.523971,536.266849
1230.422722,6513.812290,-6957.935855,459.657299
1230.423052,6587.832884,-7179.997637,689.485948
1230.423381,6365.771101,-8660.409521,1149.143247
1230.423710,6809.894666,-8660.409521,1685.410096
1230.424039,6365.771101,-8734.430116,1762.019645
1230.424368,5477.523971,-8586.388927,612.876398
1230.424697,4589.276840,-7994.224174,153.219100
1230.425027,5329.482782,-8216.285956,0.000000
1230.425356,5921.647536,-7698.141797,76.609550
1230.425685,6735.874072,-6809.894666,383.047749
1230.426014,7031.956449,-6439.791695,536.266849
1230.426343,8142.265362,-5625.565159,536.266849
1230.426672,8586.388927,-5477.523971,1378.971896
1230.427002,8364.327145,-6143.709319,1225.752797
1230.427331,8216.285956,-6291.750507,1915.238745
1230.427660,8512.368333,-5255.462188,1225.752797
1230.427989,8438.347739,-5255.462188,1762.019645
1230.428318,7476.080014,-5847.626942,1532.190996
1230.428647,7624.121203,-5551.544565,689.485948
1230.428977,7105.977043,-5921.647536,995.924147
1230.429306,6735.874072,-4811.338623,153.219100
1230.429635,6143.709319,-5699.585753,842.705048
1230.429964,6439.791695,-6661.853478,919.314598
1230.430293,6513.812290,-6883.915261,919.314598
1230.430622,6291.750507,-7031.956449,1608.800546
1230.430952,6809.894666,-7031.956449,1762.019645
1230.431281,7624.121203,-7476.080014,1685.410096
1230.431610,7624.121203,-7476.080014,1838.629195
1230.431939,6365.771101,-7328.038826,1378.971896
1230.432268,6143.709319,-7550.100608,919.314598
1230.432597,5551.544565,-6883.915261,383.047749
1230.432926,5773.606348,-7031.956449,-383.047749
1230.433256,5625.565159,-7328.038826,-153.219100
1230.433585,6143.709319,-7105.977043,-306.438199
1230.433914,6439.791695,-7179.997637,76.609550
1230.434243,6217.729913,-7698.141797,766.095498
1230.434572,6587.832884,-7772.162391,1455.581446
1230.434901,6957.935855,-7031.956449,1378.971896
1230.435231,6735.874072,-6809.894666,1608.800546
1230.435560,6513.812290,-6217.729913,1838.629195
1230.435889,7624.121203,-5255.462188,2145.067394
1230.436218,8068.244768,-5699.585753,1838.629195
1230.436547,8290.306550,-4293.194464,1532.190996
1230.436876,8068.244768,-3997.112087,1225.752797
1230.437206,8586.388927,-4219.173869,383.047749
1230.437535,8290.306550,-4589.276840,995.924147
1230.437864,7476.080014,-5699.585753,842.705048
1230.438193,7624.121203,-6439.791695,766.095498
1230.438522,7698.141797,-6809.894666,2068.457845
1230.438851,7402.059420,-7698.141797,1685.410096
1230.439181,6809.894666,-7846.182985,1838.629195
1230.439510,6365.771101,-8586.388927,1762.019645
1230.439839,5847.626942,-8734.430116,842.705048
1230.440168,5033.400406,-7772.162391,919.314598
1230.440497,5107.421000,-7846.182985,153.219100
1230.440826,6069.688724,-6883.915261,76.609550
1230.441155,6513.812290,-6661.853478,383.047749
1230.441484,7105.977043,-6587.832884,1072.533697
1230.441813,7105.977043,-5847.626942,919.314598
1230.442142,7698.141797,-5847.626942,842.705048
1230.442471,7698.141797,-6291.750507,1225.752797
1230.442800,7624.121203,-5921.647536,2068.457845
1230.443129,8808.450710,-5107.421000,1608.800546
1230.443458,8512.368333,-5625.565159,1838.629195
1230.443787,7698.141797,-5329.482782,1532.190996
1230.444116,6957.935855,-5477.523971,919.314598
1230.444445,6809.894666,-5477.523971,153.219100
1230.444774,7031.956449,-5255.462188,842.705048
1230.445103,6439.791695,-7031.956449,689.485948
1230.445432,6587.832884,-6809.894666,1072.533697
1230.445761,6291.750507,-7105.977043,919.314598
1230.446090,6513.812290,-6957.935855,995.924147
1230.446419,6439.791695,-6957.935855,1455.581446
1230.446748,7105.977043,-7772.162391,1302.362347
1230.447077,7550.100608,-7179.997637,1608.800546
1230.447406,6883.915261,-7031.956449,1378.971896
1230.447735,7179.997637,-7179.997637,689.485948
1230.448064,7254.018232,-6809.894666,612.876398
1230.448393,6883.915261,-7105.977043,229.828649
1230.448722,6513.812290,-7031.956449,0.000000
1230.449051,5847.626942,-7179.997637,459.657299
1230.449380,6439.791695,-7550.100608,229.828649
1230.449709,6291.750507,-7920.203579,919.314598
1230.450038,5921.647536,-8068.244768,1302.362347
1230.450367,6291.750507,-7698.141797,1149.143247
1230.450696,6735.874072,-7328.038826,1532.190996
1230.451025,6513.812290,-6883.915261,1149.143247
1230.451354,6957.935855,-6217.729913,1378.971896
1230.451683,7920.203579,-5477.523971,1762.019645
1230.452012,8364.327145,-3997.112087,1455.581446
1230.452342,8660.409521,-4145.153275,1072.533697
1230.452671,8290.306550,-4145.153275,1149.143247
1230.453000,8216.285956,-4811.338623,612.876398
1230.453329,7698.141797,-6069.688724,536.266849
1230.453658,7254.018232,-6217.729913,2068.457845
1230.453987,7105.977043,-7476.080014,1225.752797
1230.454316,7105.977043,-8290.306550,1455.581446
1230.454645,6661.853478,-8512.368333,1838.629195
1230.454974,5995.668130,-8512.368333,1225.752797
1230.455303,5625.565159,-7550.100608,995.924147
1230.455632,5181.441594,-7254.018232,0.000000
1230.455961,5329.482782,-7179.997637,-153.219100
1230.456290,6291.750507,-6069.688724,306.438199
1230.456619,7254.018232,-5921.647536,0.000000
1230.456948,7846.182985,-5329.482782,1225.752797
1230.457277,8216.285956,-5181.441594,1532.190996
1230.457606,8734.430116,-5255.462188,1762.019645
1230.457935,8438.347739,-5551.544565,1838.629195
1230.458264,8142.265362,-5847.626942,1838.629195
1230.458593,7846.182985,-6143.709319,1608.800546
1230.458922,7402.059420,-6661.853478,1838.629195
1230.459251,6883.915261,-6217.729913,995.924147
1230.459580,5921.647536,-6661.853478,306.438199
1230.459909,6365.771101,-6365.771101,536.266849
1230.460238,6217.729913,-6661.853478,536.266849
1230.460567,6291.750507,-7105.977043,306.438199
1230.460896,5699.585753,-6291.750507,536.266849
1230.461225,6439.791695,-6809.894666,842.705048
1230.461554,7328.038826,-6883.915261,1532.190996
1230.461883,7402.059420,-6661.853478,2221.676944
1230.462212,7846.182985,-7105.977043,1991.848295
1230.462541,8068.244768,-5995.668130,1378.971896
1230.462870,7624.121203,-6883.915261,1378.971896
1230.463199,7179.997637,-7254.018232,1072.533697
1230.463528,6661.853478,-7105.977043,536.266849
1230.463857,5995.668130,-7254.018232,0.000000
1230.464186,5773.606348,-7550.100608,612.876398
1230.464515,5403.503377,-7624.121203,842.705048
1230.464844,5921.647536,-7772.162391,459.657299
1230.465173,5625.565159,-7402.059420,689.485948
1230.465502,5921.647536,-7476.080014,1302.362347
1230.465831,6217.729913,-6513.812290,842.705048
1230.466160,6513.812290,-6735.874072,1838.629195
1230.466489,7328.038826,-5699.585753,1915.238745
1230.466818,7550.100608,-5033.400406,1838.629195
1230.467147,7994.224174,-4219.173869,1838.629195
1230.467476,8660.409521,-3552.988522,1302.362347
1230.467805,8438.347739,-4219.173869,995.924147
1230.468134,8586.388927,-4885.359217,1225.752797
1230.468463,8586.388927,-5773.606348,689.485948
1230.468792,7328.038826,-6291.750507,153.219100
1230.469121,6513.812290,-7402.059420,612.876398
1230.469450,6365.771101,-9252.574275,1072.533697
1230.469779,6439.791695,-9104.533087,1762.019645
1230.470108,5921.647536,-8660.409521,1225.752797
1230.470437,6291.750507,-7698.141797,919.314598
1230.470766,5329.482782,-6809.894666,612.876398
1230.471095,5921.647536,-6883.915261,153.219100
1230.471424,6217.729913,-6217.729913,383.047749
1230.471753,6809.894666,-5033.400406,459.657299
1230.472082,7328.038826,-5107.421000,536.266849
1230.472411,8290.306550,-5255.462188,1302.362347
1230.472740,8290.306550,-5773.606348,1838.629195
1230.473069,8438.347739,-6069.688724,1608.800546
1230.473398,8068.244768,-6069.688724,2145.067394
1230.473727,8438.347739,-6439.791695,1685.410096
1230.474056,7698.141797,-6883.915261,1532.190996
1230.474385,7105.977043,-6587.832884,1378.971896
1230.474714,6735.874072,-6809.894666,459.657299
1230.475043,5773.606348,-6661.853478,306.438199
1230.475372,5255.462188,-6069.688724,229.828649
1230.475701,6143.709319,-6217.729913,76.609550
1230.476030,6661.853478,-6661.853478,842.705048
1230.476359,7031.956449,-6661.853478,1685.410096
1230.476688,7402.059420,-6735.874072,1225.752797
1230.477017,7698.141797,-6143.709319,1608.800546
1230.477347,7772.162391,-6587.832884,1532.190996
1230.477676,7846.182985,-7254.018232,2068.457845
1230.478005,7920.203579,-6809.894666,1762.019645
1230.478334,7550.100608,-7402.059420,1149.143247
1230.478663,6661.853478,-7031.956449,919.314598
1230.478992,5995.668130,-7105.977043,383.047749
1230.479321,6143.709319,-7179.997637,-306.438199
1230.479650,5033.400406,-7698.141797,0.000000
1230.479979,4959.379811,-7920.203579,0.000000
1230.480308,5329.482782,-7550.100608,153.219100
1230.480637,5403.503377,-7031.956449,842.705048
1230.480966,5699.585753,-7105.977043,1685.410096
1230.481295,6587.832884,-6735.874072,1838.629195
1230.481624,7476.080014,-6513.812290,2221.676944
1230.481953,8290.306550,-5551.544565,1991.848295
1230.482282,8660.409521,-4737.318029,2068.457845
1230.482611,8586.388927,-4515.256246,1685.410096
1230.482940,9178.553681,-3997.112087,1455.581446
1230.483269,8808.450710,-4071.132681,919.314598
1230.483598,8290.306550,-4737.318029,842.705048
1230.483927,8142.265362,-6291.750507,612.876398
1230.484256,6957.935855,-7476.080014,612.876398
1230.484585,6439.791695,-7920.203579,612.876398
1230.484914,6069.688724,-8364.327145,1302.362347
1230.485243,6439.791695,-8660.409521,1532.190996
1230.485572,5773.606348,-7624.121203,1838.629195
1230.485901,5403.503377,-8142.265362,1072.533697
1230.486230,5477.523971,-6809.894666,536.266849
1230.486559,5403.503377,-6809.894666,459.657299
1230.486888,6661.853478,-5699.585753,919.314598
1230.487217,7179.997637,-5699.585753,459.657299
1230.487546,7772.162391,-5699.585753,766.095498
1230.487875,8142.265362,-5255.462188,1225.752797
1230.488204,7698.141797,-6291.750507,1302.362347
1230.488533,7698.141797,-6365.771101,2374.896044
1230.488862,7846.182985,-6809.894666,1762.019645
1230.489191,7402.059420,-6809.894666,1608.800546
1230.489520,6809.894666,-6587.832884,1302.362347
1230.489849,6735.874072,-7402.059420,919.314598
1230.490178,6809.894666,-6291.750507,612.876398
1230.490507,6217.729913,-5625.565159,0.000000
1230.490836,5921.647536,-5699.585753,306.438199
1230.491165,7105.977043,-5699.585753,459.657299
1230.491494,7254.018232,-6661.853478,919.314598
1230.491823,7476.080014,-5995.668130,995.924147
1230.492152,7550.100608,-5921.647536,1149.143247
1230.492481,8216.285956,-6365.771101,1608.800546
1230.492810,8364.327145,-6809.894666,1915.238745
1230.493139,7994.224174,-7846.182985,1838.629195
1230.493468,7550.100608,-7105.977043,1838.629195
1230.493797,6883.915261,-7179.997637,766.095498
1230.494126,5847.626942,-7254.018232,459.657299
1230.494455,4959.379811,-7402.059420,383.047749
1230.494784,4737.318029,-7846.182985,-459.657299
1230.495113,5255.462188,-7328.038826,-306.438199
1230.495442,4885.359217,-7772.162391,0.000000
1230.495771,5403.503377,-7624.121203,995.924147
1230.496100,6069.688724,-7105.977043,1378.971896
1230.496429,6291.750507,-7476.080014,1149.143247
1230.496758,6809.894666,-6365.771101,1762.019645
1230.497087,7698.141797,-5921.647536,1915.238745
1230.497416,8808.450710,-6217.729913,2834.553343
1230.497745,9178.553681,-4589.276840,2221.676944
1230.498074,8290.306550,-4811.338623,1455.581446
1230.498403,8142.265362,-4515.256246,842.705048
1230.498732,7772.162391,-5033.400406,689.485948
1230.499061,7328.038826,-5329.482782,76.609550
1230.499390,6957.935855,-6069.688724,536.266849
1230.499719,6735.874072,-6957.935855,306.438199
1230.500048,6587.832884,-7846.182985,842.705048
1230.500377,6365.771101,-8438.347739,1608.800546
1230.500706,6883.915261,-7254.018232,1532.190996
1230.501035,6143.709319,-7402.059420,1378.971896
1230.501364,5847.626942,-6957.935855,1455.581446
1230.501693,5699.585753,-7254.018232,995.924147
1230.502022,7031.956449,-6439.791695,842.705048
1230.502352,7031.956449,-5921.647536,842.705048
1230.502681,7105.977043,-6143.709319,689.485948
1230.503010,7550.100608,-5625.565159,919.314598
1230.503339,7624.121203,-6291.750507,1225.752797
1230.503668,7254.018232,-6291.750507,1532.190996
1230.503997,6883.915261,-6217.729913,1532.190996
1230.504326,7550.100608,-6513.812290,1225.752797
1230.504655,7772.162391,-6513.812290,766.095498
1230.504984,7105.977043,-6735.874072,842.705048
1230.505313,6957.935855,-6661.853478,1072.533697
1230.505642,7031.956449,-5847.626942,919.314598
1230.505971,6439.791695,-5921.647536,229.828649
1230.506300,6661.853478,-5625.565159,229.828649
1230.506629,7105.977043,-5255.462188,689.485948
1230.506958,7105.977043,-6217.729913,306.438199
1230.507287,7031.956449,-6587.832884,1072.533697
1230.507616,7254.018232,-6661.853478,1455.581446
1230.507945,7846.182985,-6883.915261,1685.410096
1230.508274,8216.285956,-7105.977043,2681.334243
1230.508603,7624.121203,-7476.080014,1685.410096
1230.508932,7031.956449,-7328.038826,1225.752797
1230.509261,7105.977043,-6735.874072,1149.143247
1230.509590,6365.771101,-6291.750507,1225.752797
1230.509919,5921.647536,-7105.977043,153.219100
1230.510248,5625.565159,-7105.977043,229.828649
1230.510577,4737.318029,-7402.059420,76.609550
1230.510906,5699.585753,-7328.038826,0.000000
1230.511235,5995.668130,-6439.791695,766.095498
1230.511564,5921.647536,-7994.224174,919.314598
1230.511893,6513.812290,-7698.141797,1838.629195
1230.512222,6735.874072,-6809.894666,1762.019645
1230.512551,8216.285956,-6439.791695,2068.457845
1230.512880,7920.203579,-5107.421000,1762.019645
1230.513209,8364.327145,-5403.503377,1838.629195
1230.513538,8586.388927,-5181.441594,1915.238745
1230.513867,8882.471304,-4071.132681,919.314598
1230.514196,8364.327145,-4293.194464,306.438199
1230.514525,7772.162391,-5107.421000,459.657299
1230.514854,7402.059420,-6217.729913,842.705048
1230.515183,7328.038826,-7105.977043,919.314598
1230.515512,6809.894666,-7328.038826,1455.581446
1230.515841,6661.853478,-8290.306550,1225.752797
1230.516170,5773.606348,-8660.409521,1455.581446
1230.516499,5181.441594,-8808.450710,1608.800546
1230.516828,4737.318029,-8142.265362,689.485948
1230.517157,4885.359217,-7254.018232,919.314598
1230.517486,5625.565159,-7105.977043,383.047749
1230.517815,6513.812290,-6883.915261,536.266849
1230.518144,7105.977043,-5921.647536,536.266849
1230.518473,7624.121203,-5329.482782,919.314598
1230.518802,8142.265362,-5107.421000,1532.190996
1230.519131,8216.285956,-5773.606348,1685.410096
1230.519460,7772.162391,-6217.729913,1532.190996
1230.519789,7920.203579,-6291.750507,1378.971896
1230.520118,7772.162391,-5773.606348,995.924147
1230.520447,7105.977043,-6069.688724,1608.800546
1230.520776,7105.977043,-6587.832884,1302.362347
1230.521105,7328.038826,-6217.729913,995.924147
1230.521434,7179.997637,-5255.462188,536.266849
1230.521763,6809.894666,-5625.565159,612.876398
1230.522092,6291.750507,-6439.791695,612.876398
1230.522421,6365.771101,-6809.894666,536.266849
1230.522750,6587.832884,-6957.935855,1149.143247
1230.523079,7105.977043,-6809.894666,1685.410096
1230.523408,7920.203579,-7254.018232,1991.848295
1230.523737,7772.162391,-7179.997637,2221.676944
1230.524066,7624.121203,-6587.832884,1838.629195
1230.524395,7105.977043,-7031.956449,919.314598
1230.524724,6957.935855,-7105.977043,1378.971896
1230.525053,6587.832884,-6735.874072,383.047749
1230.525382,5847.626942,-6809.894666,0.000000
1230.525711,5477.523971,-6957.935855,0.000000
1230.526040,6069.688724,-7698.141797,0.000000
1230.526369,6513.812290,-7476.080014,612.876398
1230.526698,5995.668130,-7994.224174,842.705048
1230.527028,6365.771101,-8068.244768,1149.143247
1230.527357,6513.812290,-7624.121203,1685.410096
1230.527686,6439.791695,-6883.915261,1455.581446
1230.528015,7031.956449,-6439.791695,1302.362347
1230.528344,7994.224174,-5181.441594,1762.019645
1230.528673,8660.409521,-4367.215058,1838.629195
1230.529002,8586.388927,-3701.029710,1838.629195
1230.529331,8586.388927,-2516.700203,1225.752797
1230.529660,8956.491898,-3849.070898,842.705048
1230.529989,8364.327145,-4589.276840,766.095498
1230.530318,7698.141797,-5551.544565,919.314598
1230.530647,7031.956449,-6957.935855,1225.752797
1230.530976,7105.977043,-7920.203579,2145.067394
1230.531305,6439.791695,-8364.327145,919.314598
1230.531634,5551.544565,-8956.491898,1455.581446
1230.531963,5033.400406,-9178.553681,919.314598
1230.532292,5033.400406,-9030.512492,612.876398
1230.532621,4441.235652,-8290.306550,0.000000
1230.532950,4737.318029,-7328.038826,229.828649
1230.533279,5773.606348,-6587.832884,-229.828649
1230.533608,6735.874072,-5403.503377,0.000000
1230.533937,7476.080014,-4811.338623,229.828649
1230.534266,8438.347739,-5625.565159,1149.143247
1230.534595,8808.450710,-5181.441594,1532.190996
1230.534924,8216.285956,-6143.709319,1685.410096
1230.535253,8216.285956,-6513.812290,2145.067394
1230.535582,8290.306550,-6661.853478,919.314598
1230.535911,7402.059420,-7031.956449,1302.362347
1230.536240,6365.771101,-7179.997637,1225.752797
1230.536569,6365.771101,-6513.812290,919.314598
1230.536898,6143.709319,-5403.503377,842.705048
1230.537227,6069.688724,-6291.750507,229.828649
1230.537556,5847.626942,-6587.832884,536.266849
1230.537885,6217.729913,-6513.812290,612.876398
1230.538214,7105.977043,-6143.709319,1149.143247
1230.538543,7105.977043,-6217.729913,1685.410096
1230.538872,7920.203579,-6439.791695,2298.286494
1230.539201,8290.306550,-7105.977043,2528.115143
1230.539530,8364.327145,-7179.997637,1915.238745
1230.539859,7476.080014,-6513.812290,1225.752797
1230.540188,6809.894666,-6439.791695,1072.533697
1230.540517,6439.791695,-7105.977043,0.000000
1230.540846,5625.565159,-6957.935855,0.000000
1230.541175,5477.523971,-7402.059420,0.000000
1230.541504,6291.750507,-8068.244768,229.828649
1230.541833,5773.606348,-7328.038826,383.047749
1230.542162,5699.585753,-7920.203579,536.266849
1230.542491,6439.791695,-7846.182985,1762.019645
1230.542820,7402.059420,-6661.853478,1915.238745
1230.543149,7328.038826,-6217.729913,1991.848295
1230.543478,7328.038826,-5107.421000,1991.848295
1230.543807,8216.285956,-4367.215058,1608.800546
1230.544136,8956.491898,-3701.029710,1378.971896
1230.544465,9178.553681,-3701.029710,995.924147
1230.544794,8734.430116,-4959.379811,1072.533697
1230.545123,8586.388927,-5181.441594,1149.143247
1230.545452,7920.203579,-5329.482782,919.314598
1230.545781,7031.956449,-7254.018232,459.657299
1230.546110,6587.832884,-7772.162391,919.314598
1230.546439,5625.565159,-9474.636058,1072.533697
1230.546768,4811.338623,-9474.636058,689.485948
1230.547097,4367.215058,-9252.574275,766.095498
1230.547427,4885.359217,-8882.471304,689.485948
1230.547756,5033.400406,-7698.141797,536.266849
1230.548085,5699.585753,-7328.038826,842.705048
1230.548414,6587.832884,-6365.771101,306.438199
1230.548743,7624.121203,-5329.482782,153.219100
1230.549072,8216.285956,-4515.256246,1378.971896
1230.549401,8586.388927,-4219.173869,766.095498
1230.549730,8734.430116,-4959.379811,1149.143247
1230.550059,8956.491898,-5403.503377,1225.752797
1230.550388,8882.471304,-6513.812290,1991.848295
1230.550717,7772.162391,-6217.729913,1915.238745
1230.551046,7328.038826,-6587.832884,1455.581446
1230.551375,6587.832884,-7328.038826,995.924147
1230.551704,5773.606348,-7031.956449,536.266849
1230.552033,5625.565159,-7031.956449,0.000000
1230.552362,5699.585753,-6365.771101,-229.828649
1230.552691,6217.729913,-6365.771101,306.438199
1230.553020,6439.791695,-7105.977043,229.828649
1230.553349,6661.853478,-5995.668130,1225.752797
1230.553678,7179.997637,-6587.832884,995.924147
1230.554007,8290.306550,-6291.750507,1915.238745
1230.554336,8660.409521,-5921.647536,2528.115143
1230.554665,8660.409521,-6735.874072,2298.286494
1230.554994,8660.409521,-6143.709319,2068.457845
1230.555323,6957.935855,-6883.915261,1225.752797
1230.555652,6143.709319,-7105.977043,0.000000
1230.555981,5773.606348,-7105.977043,0.000000
1230.556310,5773.606348,-8290.306550,-306.438199
1230.556639,5551.544565,-8512.368333,0.000000
1230.556968,5329.482782,-7772.162391,0.000000
1230.557297,5477.523971,-7550.100608,0.000000
1230.557626,5921.647536,-7402.059420,1072.533697
1230.557955,6587.832884,-7402.059420,1838.629195
1230.558284,7624.121203,-6069.688724,1991.848295
1230.558613,7846.182985,-5033.400406,2221.676944
1230.558942,8290.306550,-4145.153275,2145.067394
1230.559271,8882.471304,-3775.050304,1838.629195
1230.559600,9474.636058,-4219.173869,2604.724693
1230.559929,9400.615463,-3552.988522,1455.581446
1230.560258,7920.203579,-5033.400406,1149.143247
1230.560587,7476.080014,-5551.544565,1225.752797
1230.560917,6957.935855,-7105.977043,383.047749
1230.561246,6069.688724,-7846.182985,153.219100
1230.561575,4959.379811,-9178.553681,766.095498
1230.561904,4959.379811,-9770.718434,689.485948
1230.562233,5477.523971,-9030.512492,1149.143247
1230.562562,5403.503377,-8586.388927,842.705048
1230.562891,5551.544565,-7698.141797,1072.533697
1230.563220,5995.668130,-7105.977043,1149.143247
1230.563549,5995.668130,-5921.647536,229.828649
1230.563878,7031.956449,-4885.359217,842.705048
1230.564207,7476.080014,-4219.173869,383.047749
1230.564536,8438.347739,-4737.318029,0.000000
1230.564865,8290.306550,-5477.523971,842.705048
1230.565194,8364.327145,-6439.791695,1762.019645
1230.565523,8290.306550,-6587.832884,2145.067394
1230.565852,7994.224174,-7402.059420,2298.286494
1230.566181,6809.894666,-7254.018232,1685.410096
1230.566510,5329.482782,-7994.224174,1225.752797
1230.566839,5551.544565,-7698.141797,766.095498
1230.567168,5477.523971,-6217.729913,459.657299
1230.567497,5403.503377,-6587.832884,76.609550
1230.567826,6439.791695,-5107.421000,766.095498
1230.568155,6883.915261,-5699.585753,536.266849
1230.568484,7179.997637,-4737.318029,536.266849
1230.568813,7476.080014,-5181.441594,919.314598
1230.569142,8290.306550,-5995.668130,1455.581446
1230.569471,8882.471304,-5699.585753,2374.896044
1230.569800,8734.430116,-6957.935855,2451.505594
1230.570129,8364.327145,-7105.977043,2374.896044
1230.570458,8142.265362,-7328.038826,1225.752797
1230.570787,6735.874072,-7846.182985,766.095498
1230.571116,5847.626942,-8142.265362,306.438199
1230.571445,5107.421000,-7624.121203,-306.438199
1230.571774,4737.318029,-7105.977043,-1225.752797
1230.572103,4367.215058,-7920.203579,-459.657299
1230.572432,4811.338623,-7846.182985,0.000000
1230.572761,5625.565159,-7402.059420,153.219100
1230.573090,6587.832884,-6883.915261,766.095498
1230.573419,7550.100608,-6439.791695,1991.848295
1230.573748,7920.203579,-5847.626942,2451.505594
1230.574077,8660.409521,-5699.585753,2528.115143
1230.574407,9252.574275,-4515.256246,2145.067394
1230.574736,9178.553681,-4663.297435,1838.629195
1230.575065,8956.491898,-3849.070898,1762.019645
1230.575394,8882.471304,-4959.379811,1072.533697
1230.575723,8364.327145,-5477.523971,1072.533697
1230.576052,7105.977043,-5995.668130,536.266849
1230.576381,6069.688724,-7698.141797,0.000000
1230.576710,5551.544565,-7402.059420,0.000000
1230.577039,5181.441594,-8512.368333,0.000000
1230.577368,5773.606348,-8882.471304,995.924147
1230.577697,5847.626942,-8512.368333,1762.019645
1230.578026,6069.688724,-8512.368333,919.314598
1230.578355,5699.585753,-7698.141797,919.314598
1230.578684,6143.709319,-6587.832884,536.266849
1230.579013,6735.874072,-6217.729913,383.047749
1230.579342,7105.977043,-5181.441594,459.657299
1230.579671,7476.080014,-5255.462188,612.876398
1230.580000,7994.224174,-5181.441594,689.485948
1230.580329,8216.285956,-5699.585753,1302.362347
1230.580658,7698.141797,-6587.832884,1838.629195
1230.580987,7920.203579,-7105.977043,1838.629195
1230.581316,7179.997637,-7550.100608,1915.238745
1230.581645,6365.771101,-7179.997637,1302.362347
1230.581974,5847.626942,-7254.018232,919.314598
1230.582303,5699.585753,-6291.750507,842.705048
1230.582632,5847.626942,-6883.915261,229.828649
1230.582961,6069.688724,-5773.606348,153.219100
1230.583290,6291.750507,-5403.503377,306.438199
1230.583619,6587.832884,-5255.462188,153.219100
1230.583948,7550.100608,-4811.338623,1378.971896
1230.584277,7624.121203,-5699.585753,1302.362347
1230.584606,8882.471304,-6217.729913,2221.676944
1230.584935,9252.574275,-6365.771101,2834.553343
1230.585264,9104.533087,-6883.915261,2911.162892
1230.585593,8290.306550,-6513.812290,2221.676944
1230.585922,7476.080014,-6809.894666,1302.362347
1230.586251,6439.791695,-6735.874072,536.266849
1230.586580,5181.441594,-6957.935855,0.000000
1230.586909,4959.379811,-6883.915261,0.000000
1230.587238,5107.421000,-7402.059420,-536.266849
1230.587567,5107.421000,-7328.038826,0.000000
1230.587897,4959.379811,-7105.977043,0.000000
1230.588226,5699.585753,-7179.997637,995.924147
1230.588555,6957.935855,-7105.977043,1532.190996
1230.588884,7624.121203,-6513.812290,2145.067394
1230.589213,8216.285956,-6069.688724,2451.505594
1230.589542,8586.388927,-5403.503377,2298.286494
1230.589871,8364.327145,-4737.318029,1762.019645
1230.590200,7994.224174,-4811.338623,1532.190996
1230.590529,7920.203579,-4885.359217,1225.752797
1230.590858,8068.244768,-5181.441594,306.438199
1230.591187,7402.059420,-5255.462188,612.876398
1230.591516,6883.915261,-6661.853478,536.266849
1230.591845,7105.977043,-7179.997637,76.609550
1230.592174,6143.709319,-7920.203579,536.266849
1230.592503,6143.709319,-8956.491898,306.438199
1230.592832,6513.812290,-9178.553681,766.095498
1230.593161,6439.791695,-8068.244768,459.657299
1230.593490,5551.544565,-7994.224174,689.485948
1230.593819,5847.626942,-7698.141797,1302.362347
1230.594148,6883.915261,-7179.997637,919.314598
1230.594477,7402.059420,-5921.647536,919.314598
1230.594806,7031.956449,-5329.482782,536.266849
1230.595135,7254.018232,-5773.606348,536.266849
1230.595464,8216.285956,-5699.585753,1149.143247
1230.595793,8364.327145,-5773.606348,1991.848295
1230.596122,7402.059420,-6365.771101,995.924147
1230.596451,7105.977043,-5403.503377,842.705048
1230.596780,6883.915261,-7031.956449,1608.800546
1230.597109,6735.874072,-7179.997637,1302.362347
1230.597438,6513.812290,-7105.977043,919.314598
1230.597767,6143.709319,-6439.791695,383.047749
1230.598096,6439.791695,-6291.750507,306.438199
1230.598425,6883.915261,-5921.647536,612.876398
1230.598754,7179.997637,-6069.688724,1072.533697
1230.599083,7328.038826,-6217.729913,842.705048
1230.599412,7031.956449,-5477.523971,766.095498
1230.599741,7402.059420,-5921.647536,1455.581446
1230.600070,8586.388927,-6439.791695,2528.115143
1230.600399,9252.574275,-6365.771101,2757.943793
1230.600728,8512.368333,-6291.750507,2604.724693
1230.601057,7402.059420,-6143.709319,1608.800546
1230.601387,6735.874072,-6809.894666,919.314598
1230.601716,5625.565159,-7328.038826,153.219100
1230.602045,4811.338623,-7105.977043,0.000000
1230.602374,5107.421000,-7254.018232,-536.266849
1230.602703,5625.565159,-7254.018232,0.000000
1230.603032,5477.523971,-7328.038826,76.609550
1230.603361,5477.523971,-8142.265362,459.657299
1230.603690,6439.791695,-7254.018232,766.095498
1230.604019,6735.874072,-7476.080014,1685.410096
1230.604348,7624.121203,-6735.874072,1762.019645
1230.604677,7994.224174,-6217.729913,2068.457845
1230.605006,8438.347739,-4885.359217,2298.286494
1230.605335,8734.430116,-4663.297435,1685.410096
1230.605664,8586.388927,-4071.132681,1225.752797
1230.605993,8882.471304,-3997.112087,842.705048
1230.606322,8882.471304,-4145.153275,459.657299
1230.606651,8290.306550,-5329.482782,766.095498
1230.606980,7105.977043,-6587.832884,383.047749
1230.607309,6513.812290,-7846.182985,229.828649
1230.607638,6365.771101,-7772.162391,689.485948
1230.607967,5847.626942,-8734.430116,1378.971896
1230.608296,5477.523971,-8586.388927,1149.143247
1230.608625,5403.503377,-8808.450710,1225.752797
1230.608954,5551.544565,-8438.347739,1149.143247
1230.609283,5625.565159,-7254.018232,995.924147
1230.609612,6143.709319,-6661.853478,1072.533697
1230.609941,6587.832884,-6365.771101,842.705048
1230.610270,6809.894666,-6069.688724,689.485948
1230.610599,7254.018232,-5699.585753,612.876398
1230.610928,8290.306550,-5403.503377,1378.971896
1230.611257,8364.327145,-5699.585753,1149.143247
1230.611586,8364.327145,-5847.626942,1685.410096
1230.611915,7772.162391,-6143.709319,1838.629195
1230.612244,7105.977043,-6661.853478,1455.581446
1230.612573,6809.894666,-6513.812290,1608.800546
1230.612902,6513.812290,-7031.956449,612.876398
1230.613231,6217.729913,-6661.853478,842.705048
1230.613560,5921.647536,-7105.977043,1072.533697
1230.613889,6291.750507,-6439.791695,689.485948
1230.614218,6217.729913,-5699.585753,536.266849
1230.614547,6735.874072,-6143.709319,383.047749
1230.614877,7105.977043,-6143.709319,536.266849
1230.615206,7328.038826,-6291.750507,1455.581446
1230.615535,8068.244768,-6143.709319,1915.238745
1230.615864,8512.368333,-6735.874072,2604.724693
1230.616193,8142.265362,-6809.894666,2374.896044
1230.616522,7179.997637,-6439.791695,1225.752797
1230.616851,6365.771101,-7031.956449,766.095498
1230.617180,6587.832884,-6957.935855,612.876398
1230.617509,5625.565159,-7031.956449,306.438199
1230.617838,5403.503377,-7179.997637,153.219100
1230.618167,5699.585753,-6513.812290,153.219100
1230.618496,5995.668130,-7254.018232,306.438199
1230.618825,5773.606348,-7105.977043,919.314598
1230.619154,5921.647536,-7105.977043,995.924147
1230.619483,6735.874072,-7179.997637,1225.752797
1230.619812,7328.038826,-6069.688724,1762.019645
1230.620141,8216.285956,-6217.729913,1685.410096
1230.620470,8512.368333,-5181.441594,1915.238745
1230.620799,8586.388927,-4737.318029,1532.190996
1230.621128,8512.368333,-4441.235652,536.266849
1230.621457,7772.162391,-4293.194464,842.705048
1230.621786,8512.368333,-4811.338623,995.924147
1230.622115,8660.409521,-5477.523971,919.314598
1230.622444,7624.121203,-6439.791695,995.924147
1230.622773,7105.977043,-7105.977043,766.095498
1230.623102,6883.915261,-7328.038826,1378.971896
1230.623431,6069.688724,-8290.306550,1072.533697
1230.623760,5847.626942,-9178.553681,1225.752797
1230.624089,5329.482782,-9252.574275,766.095498
1230.624418,4885.359217,-8364.327145,689.485948
1230.624747,5255.462188,-8068.244768,459.657299
1230.625076,5847.626942,-7105.977043,536.266849
1230.625405,6587.832884,-6217.729913,689.485948
1230.625734,6883.915261,-6439.791695,306.438199
1230.626063,7402.059420,-5699.585753,919.314598
1230.626392,8142.265362,-5847.626942,612.876398
1230.626721,8364.327145,-5995.668130,1149.143247
1230.627050,8142.265362,-5403.503377,1991.848295
1230.627379,8068.244768,-6143.709319,1532.190996
1230.627708,7846.182985,-5773.606348,1838.629195
1230.628038,7328.038826,-6661.853478,1685.410096
1230.628367,6809.894666,-6513.812290,995.924147
1230.628696,6513.812290,-5699.585753,459.657299
1230.629025,6513.812290,-5699.585753,306.438199
1230.629354,6587.832884,-5995.668130,76.609550
1230.629683,6439.791695,-6513.812290,459.657299
1230.630012,6883.915261,-5773.606348,689.485948
1230.630341,7105.977043,-6143.709319,766.095498
1230.630670,7846.182985,-6513.812290,1915.238745
1230.630999,7920.203579,-6513.812290,2221.676944
1230.631328,8364.327145,-7105.977043,2528.115143
1230.631657,8512.368333,-6365.771101,2604.724693
1230.631986,7550.100608,-6291.750507,1838.629195
1230.632315,6735.874072,-6143.709319,1378.971896
1230.632644,6069.688724,-6883.915261,766.095498
1230.632973,5255.462188,-7402.059420,-459.657299
1230.633302,4885.359217,-7402.059420,-383.047749
1230.633631,5329.482782,-7920.203579,0.000000
1230.633960,5181.441594,-8216.285956,-383.047749
1230.634289,5625.565159,-7624.121203,459.657299
1230.634618,6143.709319,-7624.121203,612.876398
1230.634947,7105.977043,-7031.956449,1532.190996
1230.635276,7920.203579,-5847.626942,1762.019645
1230.635605,8512.368333,-5329.482782,1838.629195
1230.635934,8956.491898,-4737.318029,2145.067394
1230.636263,9178.553681,-3923.091493,1915.238745
1230.636592,9178.553681,-4293.194464,842.705048
1230.636921,8364.327145,-4293.194464,1149.143247
1230.637250,8512.368333,-4441.235652,766.095498
1230.637579,8142.265362,-5477.523971,919.314598
1230.637908,7624.121203,-6513.812290,919.314598
1230.638237,6883.915261,-7254.018232,536.266849
1230.638566,5995.668130,-8586.388927,842.705048
1230.638895,5551.544565,-8438.347739,995.924147
1230.639224,5033.400406,-9178.553681,689.485948
1230.639553,4737.318029,-8216.285956,1072.533697
1230.639882,6143.709319,-8660.409521,995.924147
1230.640211,5477.523971,-7698.141797,76.609550
1230.640540,5551.544565,-6809.894666,842.705048
1230.640869,6365.771101,-6291.750507,689.485948
1230.641198,7698.141797,-5921.647536,383.047749
1230.641527,7698.141797,-5403.503377,689.485948
1230.641857,7994.224174,-6365.771101,1149.143247
1230.642186,8586.388927,-6217.729913,1608.800546
1230.642515,8142.265362,-7105.977043,1608.800546
1230.642844,7550.100608,-6291.750507,2298.286494
1230.643173,7328.038826,-6957.935855,1838.629195
1230.643502,7105.977043,-6735.874072,995.924147
1230.643831,6365.771101,-6513.812290,919.314598
1230.644160,5921.647536,-5847.626942,612.876398
1230.644489,6587.832884,-5107.421000,-229.828649
1230.644818,7031.956449,-5033.400406,689.485948
1230.645147,6957.935855,-5255.462188,995.924147
1230.645476,7105.977043,-5403.503377,1225.752797
1230.645805,7328.038826,-5107.421000,1455.581446
1230.646134,7846.182985,-6069.688724,1991.848295
1230.646463,7254.018232,-6809.894666,2374.896044
1230.646792,8142.265362,-7031.956449,2374.896044
1230.647121,7476.080014,-7105.977043,2145.067394
1230.647450,6365.771101,-7476.080014,919.314598
1230.647779,5625.565159,-7698.141797,306.438199
1230.648108,5477.523971,-7402.059420,-306.438199
1230.648437,5329.482782,-7698.141797,0.000000
1230.648766,5255.462188,-7328.038826,1149.143247
1230.649095,5773.606348,-7402.059420,0.000000
1230.649424,6143.709319,-7328.038826,153.219100
1230.649753,5847.626942,-6883.915261,459.657299
1230.650082,6217.729913,-7476.080014,995.924147
1230.650411,7476.080014,-6291.750507,1838.629195
1230.650740,8068.244768,-5625.565159,1838.629195
1230.651069,7994.224174,-5181.441594,2068.457845
1230.651398,8364.327145,-4663.297435,2221.676944
1230.651727,9104.533087,-4737.318029,2451.505594
1230.652056,9326.594869,-3849.070898,1532.190996
1230.652385,8808.450710,-4515.256246,842.705048
1230.652714,8216.285956,-5403.503377,919.314598
1230.653043,7402.059420,-6069.688724,536.266849
1230.653372,6809.894666,-6735.874072,689.485948
1230.653701,5921.647536,-8438.347739,536.266849
1230.654030,5995.668130,-8882.471304,995.924147
1230.654359,5773.606348,-8956.491898,842.705048
1230.654688,5107.421000,-8586.388927,459.657299
1230.655017,4959.379811,-8290.306550,76.609550
1230.655346,5181.441594,-7698.141797,0.000000
1230.655675,5625.565159,-7476.080014,229.828649
1230.656004,6365.771101,-6217.729913,229.828649
1230.656333,7254.018232,-5847.626942,842.705048
1230.656662,8068.244768,-5847.626942,995.924147
1230.656991,7846.182985,-6143.709319,995.924147
1230.657320,8068.244768,-6587.832884,1378.971896
1230.657649,8068.244768,-5995.668130,1455.581446
1230.657978,7994.224174,-6809.894666,1378.971896
1230.658307,7254.018232,-6587.832884,1991.848295
1230.658636,6809.894666,-6291.750507,1685.410096
1230.658965,6587.832884,-6735.874072,1225.752797
1230.659294,6809.894666,-5699.585753,842.705048
1230.659623,6143.709319,-5329.482782,689.485948
1230.659953,6143.709319,-5033.400406,536.266849
1230.660282,6365.771101,-5477.523971,612.876398
1230.660611,6809.894666,-5847.626942,1072.533697
1230.660940,7254.018232,-5403.503377,1455.581446
1230.661269,7476.080014,-6217.729913,1532.190996
1230.661598,8290.306550,-6957.935855,2145.067394
1230.661927,7920.203579,-7254.018232,1915.238745
1230.662256,7624.121203,-7920.203579,2298.286494
1230.662585,7328.038826,-7624.121203,1225.752797
1230.662914,6587.832884,-7550.100608,842.705048
1230.663243,5773.606348,-7402.059420,536.266849
1230.663572,4959.379811,-7624.121203,0.000000
1230.663901,5181.441594,-7105.977043,306.438199
1230.664230,5551.544565,-6809.894666,0.000000
1230.664559,6217.729913,-7328.038826,153.219100
1230.664888,6661.853478,-6513.812290,689.485948
1230.665217,6957.935855,-6291.750507,612.876398
1230.665546,7328.038826,-6143.709319,1225.752797
1230.665875,7698.141797,-5551.544565,2068.457845
1230.666204,8068.244768,-6069.688724,2221.676944
1230.666533,8586.388927,-4589.276840,2068.457845
1230.666862,8660.409521,-4663.297435,1608.800546
1230.667191,8734.430116,-4885.359217,1762.019645
1230.667520,8734.430116,-4515.256246,1378.971896
1230.667849,7550.100608,-5107.421000,689.485948
1230.668178,6883.915261,-5921.647536,459.657299
1230.668507,7105.977043,-6513.812290,383.047749
1230.668836,6513.812290,-7920.203579,536.266849
1230.669165,6069.688724,-7772.162391,612.876398
1230.669494,6291.750507,-8364.327145,1072.533697
1230.669823,6365.771101,-8734.430116,919.314598
1230.670152,6143.709319,-8068.244768,766.095498
1230.670481,5403.503377,-7772.162391,689.485948
1230.670810,6365.771101,-7476.080014,612.876398
1230.671139,6735.874072,-7179.997637,459.657299
1230.671468,7402.059420,-6217.729913,229.828649
1230.671797,7105.977043,-6439.791695,383.047749
1230.672126,7624.121203,-6069.688724,842.705048
1230.672455,8068.244768,-6069.688724,919.314598
1230.672784,7328.038826,-6735.874072,1225.752797
1230.673113,7179.997637,-5329.482782,1685.410096
1230.673442,7254.018232,-6513.812290,1608.800546
1230.673771,7105.977043,-6365.771101,1685.410096
1230.674100,6883.915261,-6291.750507,1532.190996
1230.674429,6513.812290,-5995.668130,1072.533697
1230.674758,6439.791695,-5699.585753,1072.533697
1230.675087,6291.750507,-5847.626942,536.266849
1230.675416,7105.977043,-5255.462188,995.924147
1230.675745,7105.977043,-5403.503377,612.876398
1230.676074,7105.977043,-6217.729913,995.924147
1230.676403,6809.894666,-6513.812290,1608.800546
1230.676732,7402.059420,-7179.997637,1838.629195
1230.677061,7994.224174,-7328.038826,2068.457845
1230.677390,7994.224174,-7105.977043,2604.724693
1230.677720,7624.121203,-6957.935855,1915.238745
1230.678049,7550.100608,-7179.997637,1455.581446
1230.678378,6439.791695,-7105.977043,919.314598
1230.678707,5625.565159,-6957.935855,0.000000
1230.679036,5329.482782,-7254.018232,-612.876398
1230.679365,5847.626942,-7105.977043,0.000000
1230.679694,5625.565159,-7846.182985,306.438199
1230.680023,5699.585753,-7476.080014,536.266849
1230.680352,5995.668130,-6513.812290,383.047749
1230.680681,7105.977043,-6957.935855,842.705048
1230.681010,7698.141797,-5995.668130,1762.019645
1230.681339,8290.306550,-6439.791695,2298.286494
1230.681668,8734.430116,-5551.544565,2451.505594
1230.681997,8438.347739,-5329.482782,2221.676944
1230.682326,8512.368333,-4959.379811,1685.410096
1230.682655,8068.244768,-4441.235652,1302.362347
1230.682984,7698.141797,-5329.482782,459.657299
1230.683313,6661.853478,-5329.482782,306.438199
1230.683642,7105.977043,-6217.729913,919.314598
1230.683971,6661.853478,-7179.997637,306.438199
1230.684300,6439.791695,-7550.100608,612.876398
1230.684629,6365.771101,-8068.244768,766.095498
1230.684958,6883.915261,-8142.265362,1455.581446
1230.685287,6661.853478,-8290.306550,1072.533697
1230.685616,6661.853478,-7772.162391,1225.752797
1230.685945,6143.709319,-7105.977043,536.266849
1230.686274,6513.812290,-7105.977043,459.657299
1230.686603,7105.977043,-6217.729913,612.876398
1230.686932,6883.915261,-6143.709319,612.876398
1230.687261,7031.956449,-6069.688724,842.705048
1230.687590,7328.038826,-5329.482782,766.095498
1230.687919,7402.059420,-6365.771101,919.314598
1230.688248,7402.059420,-5699.585753,2068.457845
1230.688577,7105.977043,-6735.874072,1762.019645
1230.688906,7105.977043,-7328.038826,1838.629195
1230.689235,7105.977043,-6291.750507,1532.190996
1230.689564,6809.894666,-6735.874072,1838.629195
1230.689893,7105.977043,-5551.544565,1532.190996
1230.690222,6513.812290,-6291.750507,919.314598
1230.690551,6217.729913,-6439.791695,459.657299
1230.690880,6735.874072,-5625.565159,536.266849
1230.691209,7105.977043,-5921.647536,76.609550
1230.691538,7031.956449,-5625.565159,689.485948
1230.691867,7105.977043,-6587.832884,1072.533697
1230.692196,8068.244768,-6735.874072,1225.752797
1230.692525,8660.409521,-5995.668130,1915.238745
1230.692854,7846.182985,-7550.100608,2451.505594
1230.693183,7698.141797,-7328.038826,1608.800546
1230.693512,6809.894666,-7402.059420,1149.143247
1230.693841,6291.750507,-7328.038826,459.657299
1230.694170,5995.668130,-6587.832884,612.876398
1230.694499,5625.565159,-6957.935855,0.000000
1230.694828,5847.626942,-6957.935855,76.609550
1230.695157,5773.606348,-7031.956449,0.000000
1230.695486,6143.709319,-6439.791695,229.828649
1230.695816,5625.565159,-6957.935855,842.705048
1230.696145,5995.668130,-7402.059420,1149.143247
1230.696474,6809.894666,-5847.626942,1685.410096
1230.696803,7402.059420,-6587.832884,1608.800546
1230.697132,8512.368333,-5255.462188,2068.457845
1230.697461,8734.430116,-5181.441594,2451.505594
1230.697790,8512.368333,-4811.338623,1532.190996
1230.698119,8216.285956,-3923.091493,1225.752797
1230.698448,8290.306550,-4737.318029,995.924147
1230.698777,8512.368333,-5181.441594,459.657299
1230.699106,7254.018232,-5699.585753,766.095498
1230.699435,7031.956449,-7105.977043,766.095498
1230.699764,6587.832884,-7254.018232,689.485948
1230.700093,6143.709319,-8290.306550,1455.581446
1230.700422,6291.750507,-8290.306550,1378.971896
1230.700751,5921.647536,-8364.327145,919.314598
1230.701080,5847.626942,-7476.080014,153.219100
1230.701409,5477.523971,-7328.038826,536.266849
1230.701738,6291.750507,-7402.059420,612.876398
1230.702067,7031.956449,-6143.709319,766.095498
1230.702396,7328.038826,-5625.565159,0.000000
1230.702725,7254.018232,-5773.606348,919.314598
1230.703054,7402.059420,-6217.729913,995.924147
1230.703383,7698.141797,-6291.750507,1455.581446
1230.703712,7994.224174,-5847.626942,1608.800546
1230.704041,7254.018232,-6661.853478,1608.800546
1230.704370,7179.997637,-6291.750507,1608.800546
1230.704699,6661.853478,-6587.832884,1149.143247
1230.705028,5773.606348,-7179.997637,766.095498
1230.705357,5921.647536,-6661.853478,689.485948
1230.705686,6143.709319,-6883.915261,229.828649
1230.706015,6513.812290,-6069.688724,229.828649
1230.706344,7031.956449,-5329.482782,536.266849
1230.706673,7328.038826,-6143.709319,689.485948
1230.707002,7846.182985,-5773.606348,1149.143247
1230.707331,7994.224174,-6143.709319,1455.581446
1230.707660,8068.244768,-6587.832884,2681.334243
1230.707989,8586.388927,-6365.771101,2374.896044
1230.708318,7624.121203,-6291.750507,2068.457845
1230.708647,6809.894666,-7031.956449,1838.629195
1230.708976,6217.729913,-7254.018232,1149.143247
1230.709305,6661.853478,-6809.894666,1072.533697
1230.709634,5551.544565,-6513.812290,153.219100
1230.709963,4811.338623,-7179.997637,-383.047749
1230.710292,4959.379811,-7624.121203,-306.438199
1230.710621,5329.482782,-8142.265362,306.438199
1230.710950,5995.668130,-7179.997637,459.657299
1230.711279,6439.791695,-7179.997637,1225.752797
1230.711608,7031.956449,-7105.977043,1762.019645
1230.711937,7402.059420,-6735.874072,1685.410096
1230.712266,8364.327145,-5773.606348,2451.505594
1230.712595,8290.306550,-5255.462188,1915.238745
1230.712924,8438.347739,-5107.421000,1838.629195
1230.713253,8290.306550,-4515.256246,1762.019645
1230.713583,8142.265362,-4293.194464,1302.362347
1230.713912,8734.430116,-4737.318029,919.314598
1230.714241,7846.182985,-4885.359217,995.924147
1230.714570,7105.977043,-6143.709319,76.609550
1230.714899,6513.812290,-7031.956449,0.000000
1230.715228,5995.668130,-7254.018232,229.828649
1230.715557,5921.647536,-8734.430116,842.705048
1230.715886,6069.688724,-8734.430116,1302.362347
1230.716215,6365.771101,-7920.203579,766.095498
1230.716544,6439.791695,-7920.203579,1072.533697
1230.716873,6587.832884,-6809.894666,1685.410096
1230.717202,6661.853478,-7031.956449,842.705048
1230.717531,6513.812290,-6291.750507,689.485948
1230.717860,7105.977043,-6069.688724,459.657299
1230.718189,7624.121203,-5477.523971,766.095498
1230.718518,7476.080014,-5403.503377,1532.190996
1230.718847,7920.203579,-6365.771101,1838.629195
1230.719176,7402.059420,-6291.750507,1225.752797
1230.719505,7105.977043,-6957.935855,1149.143247
1230.719834,7179.997637,-7031.956449,1762.019645
1230.720163,7105.977043,-7105.977043,766.095498
1230.720492,6143.709319,-6957.935855,1225.752797
1230.720821,6217.729913,-6439.791695,536.266849
1230.721150,6735.874072,-6439.791695,536.266849
1230.721479,6735.874072,-5329.482782,306.438199
1230.721808,6957.935855,-6217.729913,459.657299
1230.722137,7624.121203,-6217.729913,1149.143247
1230.722466,8142.265362,-6291.750507,766.095498
1230.722795,7772.162391,-5995.668130,1762.019645
1230.723124,8068.244768,-6661.853478,1915.238745
1230.723453,8142.265362,-6661.853478,2374.896044
1230.723782,8142.265362,-7402.059420,2528.115143
1230.724111,6883.915261,-7402.059420,1762.019645
1230.724440,5995.668130,-7698.141797,1149.143247
1230.724769,5551.544565,-7254.018232,459.657299
1230.725098,5033.400406,-7476.080014,76.609550
1230.725427,4959.379811,-7179.997637,-383.047749
1230.725756,5181.441594,-6735.874072,-229.828649
1230.726085,5551.544565,-6883.915261,-153.219100
1230.726414,5921.647536,-7105.977043,306.438199
1230.726743,6365.771101,-7179.997637,995.924147
1230.727072,7105.977043,-6883.915261,1685.410096
1230.727401,8068.244768,-6809.894666,1838.629195
1230.727730,8438.347739,-5699.585753,2681.334243
1230.728059,8660.409521,-5403.503377,2374.896044
1230.728388,9178.553681,-4441.235652,2145.067394
1230.728717,8808.450710,-4441.235652,1532.190996
1230.729046,8364.327145,-4367.215058,1149.143247
1230.729375,7920.203579,-4367.215058,536.266849
1230.729704,7550.100608,-5107.421000,76.609550
1230.730033,6587.832884,-6217.729913,0.000000
1230.730362,6217.729913,-6883.915261,459.657299
1230.730691,6365.771101,-7846.182985,689.485948
1230.731020,6439.791695,-8364.327145,1225.752797
1230.731349,6809.894666,-8364.327145,1455.581446
1230.731679,6439.791695,-8364.327145,1608.800546
1230.732008,6513.812290,-7105.977043,1149.143247
1230.732337,5847.626942,-7179.997637,689.485948
1230.732666,5699.585753,-7031.956449,383.047749
1230.732995,6365.771101,-6809.894666,536.266849
1230.733324,7031.956449,-6957.935855,1072.533697
1230.733653,7254.018232,-6217.729913,919.314598
1230.733982,7476.080014,-6217.729913,1149.143247
1230.734311,7698.141797,-6291.750507,1149.143247
1230.734640,7254.018232,-6513.812290,1149.143247
1230.734969,7105.977043,-6661.853478,1302.362347
1230.735298,6513.812290,-6365.771101,995.924147
1230.735627,7254.018232,-6587.832884,995.924147
1230.735956,7105.977043,-6957.935855,1225.752797
1230.736285,7105.977043,-6291.750507,766.095498
1230.736614,7105.977043,-6365.771101,1225.752797
1230.736943,7105.977043,-5329.482782,536.266849
1230.737272,7031.956449,-5773.606348,1072.533697
1230.737601,7105.977043,-6217.729913,919.314598
1230.737930,7550.100608,-5699.585753,1378.971896
1230.738259,7698.141797,-7105.977043,1915.238745
1230.738588,8142.265362,-6069.688724,2068.457845
1230.738917,7994.224174,-6809.894666,2451.505594
1230.739246,8068.244768,-7105.977043,2145.067394
1230.739575,6809.894666,-6365.771101,1991.848295
1230.739904,5551.544565,-7254.018232,689.485948
1230.740233,5329.482782,-6883.915261,0.000000
1230.740562,5033.400406,-7772.162391,-153.219100
1230.740891,5403.503377,-8290.306550,0.000000
1230.741220,5329.482782,-7550.100608,612.876398
1230.741549,5699.585753,-8068.244768,229.828649
1230.741878,6291.750507,-7105.977043,612.876398
1230.742207,6809.894666,-7105.977043,1149.143247
1230.742536,7772.162391,-6957.935855,1378.971896
1230.742865,8512.368333,-6069.688724,2145.067394
1230.743194,8438.347739,-5255.462188,2068.457845
1230.743523,8142.265362,-4885.359217,2145.067394
1230.743852,8438.347739,-4589.276840,1762.019645
1230.744181,8142.265362,-4367.215058,995.924147
1230.744510,7772.162391,-4589.276840,919.314598
1230.744840,7328.038826,-4811.338623,383.047749
1230.745169,7328.038826,-5699.585753,459.657299
1230.745498,7105.977043,-6143.709319,612.876398
1230.745827,5625.565159,-7105.977043,536.266849
1230.746156,6069.688724,-8512.368333,306.438199
1230.746485,6587.832884,-8512.368333,1762.019645
1230.746814,6439.791695,-7920.203579,1455.581446
1230.747143,6439.791695,-7402.059420,1149.143247
1230.747472,6439.791695,-7105.977043,1225.752797
1230.747801,6217.729913,-7179.997637,766.095498
1230.748130,6291.750507,-6439.791695,536.266849
1230.748459,6291.750507,-5551.544565,383.047749
1230.748788,7105.977043,-5625.565159,0.000000
1230.749117,7698.141797,-5847.626942,612.876398
1230.749447,7772.162391,-6143.709319,1455.581446
1230.749776,7994.224174,-6587.832884,1225.752797
1230.750105,7698.141797,-6069.688724,1915.238745
1230.750434,7179.997637,-7031.956449,842.705048
1230.750763,7328.038826,-7402.059420,1532.190996
1230.751092,7254.018232,-6809.894666,1149.143247
1230.751421,6957.935855,-6291.750507,306.438199
1230.751750,5921.647536,-5995.668130,536.266849
1230.752079,6291.750507,-6291.750507,229.828649
1230.752408,7328.038826,-5995.668130,383.047749
1230.752737,6735.874072,-5625.565159,459.657299
1230.753066,6957.935855,-6217.729913,229.828649
1230.753395,7105.977043,-6661.853478,1532.190996
1230.753724,8142.265362,-7031.956449,2068.457845
1230.754054,8290.306550,-6735.874072,2145.067394
1230.754383,7920.203579,-7476.080014,1991.848295
1230.754712,7698.141797,-7476.080014,1762.019645
1230.755041,6217.729913,-7550.100608,612.876398
1230.755370,5625.565159,-7698.141797,383.047749
1230.755699,5551.544565,-7105.977043,536.266849
1230.756028,5625.565159,-6883.915261,0.000000
1230.756357,5329.482782,-7105.977043,76.609550
1230.756686,5329.482782,-7105.977043,0.000000
1230.757015,6069.688724,-7031.956449,229.828649
1230.757344,6291.750507,-6957.935855,689.485948
1230.757673,6513.812290,-7254.018232,1532.190996
1230.758002,7624.121203,-7031.956449,2145.067394
1230.758331,8512.368333,-5921.647536,2757.943793
1230.758660,8956.491898,-5551.544565,2528.115143
1230.758990,8586.388927,-4885.359217,2451.505594
1230.759319,8290.306550,-4293.194464,2068.457845
1230.759648,8290.306550,-3997.112087,1149.143247
1230.759977,7550.100608,-3775.050304,766.095498
1230.760306,7105.977043,-5107.421000,459.657299
1230.760635,6735.874072,-5477.523971,0.000000
1230.760964,6069.688724,-7105.977043,459.657299
1230.761293,5921.647536,-7105.977043,689.485948
1230.761622,6291.750507,-7920.203579,919.314598
1230.761951,6735.874072,-8586.388927,1455.581446
1230.762280,6587.832884,-8734.430116,919.314598
1230.762609,6069.688724,-8290.306550,842.705048
1230.762938,5847.626942,-7550.100608,766.095498
1230.763267,5921.647536,-7179.997637,76.609550
1230.763597,6809.894666,-6883.915261,1149.143247
1230.763926,6957.935855,-6735.874072,459.657299
1230.764255,7476.080014,-6735.874072,995.924147
1230.764584,7846.182985,-5995.668130,1149.143247
1230.764913,7846.182985,-6291.750507,766.095498
1230.765242,7698.141797,-5477.523971,1838.629195
1230.765571,7624.121203,-6217.729913,842.705048
1230.765900,7254.018232,-6513.812290,1225.752797
1230.766229,6957.935855,-6661.853478,1378.971896
1230.766558,7179.997637,-6957.935855,1149.143247
1230.766887,7476.080014,-6365.771101,1455.581446
1230.767216,7105.977043,-6143.709319,766.095498
1230.767545,6735.874072,-6513.812290,459.657299
1230.767874,6735.874072,-6291.750507,842.705048
1230.768204,6439.791695,-6365.771101,919.314598
1230.768533,6883.915261,-6513.812290,612.876398
1230.768862,7105.977043,-6587.832884,1455.581446
1230.769191,7920.203579,-6661.853478,2145.067394
1230.769520,7920.203579,-6735.874072,2145.067394
1230.769849,7550.100608,-6883.915261,2451.505594
1230.770178,7031.956449,-6735.874072,1685.410096
1230.770507,6587.832884,-7105.977043,995.924147
1230.770836,6217.729913,-7031.956449,459.657299
1230.771165,5625.565159,-6809.894666,229.828649
1230.771494,5773.606348,-7254.018232,-306.438199
1230.771823,6217.729913,-7476.080014,0.000000
1230.772152,6291.750507,-7846.182985,0.000000
1230.772481,6587.832884,-7179.997637,383.047749
1230.772811,6439.791695,-6809.894666,306.438199
1230.773140,6291.750507,-7624.121203,1225.752797
1230.773469,6883.915261,-7031.956449,1915.238745
1230.773798,7624.121203,-6439.791695,2451.505594
1230.774127,7994.224174,-4589.276840,2451.505594
1230.774456,8290.306550,-4663.297435,2374.896044
1230.774785,8216.285956,-4663.297435,1915.238745
1230.775114,8512.368333,-4219.173869,1455.581446
1230.775443,8216.285956,-4071.132681,842.705048
1230.775772,7698.141797,-4811.338623,459.657299
1230.776101,7254.018232,-5033.400406,306.438199
1230.776430,7105.977043,-6661.853478,919.314598
1230.776759,6587.832884,-7179.997637,459.657299
1230.777088,6143.709319,-8512.368333,1378.971896
1230.777417,6809.894666,-8882.471304,1762.019645
1230.777747,6143.709319,-8660.409521,919.314598
1230.778076,6143.709319,-8364.327145,1072.533697
1230.778405,5921.647536,-7698.141797,612.876398
1230.778734,6069.688724,-7179.997637,383.047749
1230.779063,6365.771101,-6883.915261,153.219100
1230.779392,6661.853478,-6217.729913,306.438199
1230.779721,7476.080014,-5699.585753,842.705048
1230.780050,8142.265362,-5921.647536,995.924147
1230.780379,7846.182985,-5847.626942,1532.190996
1230.780708,7402.059420,-5995.668130,1532.190996
1230.781037,7920.203579,-5773.606348,1532.190996
1230.781366,7698.141797,-5773.606348,1302.362347
1230.781695,7624.121203,-5921.647536,1302.362347
1230.782024,7105.977043,-6661.853478,1685.410096
1230.782354,7105.977043,-6513.812290,842.705048
1230.782683,6513.812290,-5699.585753,536.266849
1230.783012,6439.791695,-6439.791695,229.828649
1230.783341,7105.977043,-6587.832884,0.000000
1230.783670,6513.812290,-7105.977043,689.485948
1230.783999,6661.853478,-6809.894666,689.485948
1230.784328,6957.935855,-6957.935855,1455.581446
1230.784657,7920.203579,-7031.956449,1685.410096
1230.784986,8142.265362,-6661.853478,2068.457845
1230.785315,7624.121203,-7031.956449,2145.067394
1230.785644,7105.977043,-6661.853478,1225.752797
1230.785973,6587.832884,-6735.874072,766.095498
1230.786302,6143.709319,-7031.956449,842.705048
1230.786631,5995.668130,-7105.977043,-229.828649
1230.786961,5995.668130,-7105.977043,0.000000
1230.787290,5847.626942,-7105.977043,-459.657299
1230.787619,5255.462188,-7624.121203,76.609550
1230.787948,5403.503377,-7328.038826,995.924147
1230.788277,6291.750507,-7624.121203,1072.533697
1230.788606,6957.935855,-6957.935855,1532.190996
1230.788935,7105.977043,-6513.812290,1991.848295
1230.789264,7624.121203,-5995.668130,3064.381992
1230.789593,8216.285956,-5033.400406,2757.943793
1230.789922,8364.327145,-4885.359217,2145.067394
1230.790251,8290.306550,-4441.235652,1608.800546
1230.790580,8290.306550,-4219.173869,1225.752797
