#time,accel_x,accel_y,accel_z
1251.901936,7179.997637,-6661.853478,842.705048
1251.902267,7105.977043,-6365.771101,919.314598
1251.902597,7105.977043,-6439.791695,995.924147
1251.902928,7105.977043,-6587.832884,842.705048
1251.903258,6883.915261,-5995.668130,1685.410096
1251.903589,7031.956449,-6365.771101,1378.971896
1251.903919,7105.977043,-6439.791695,1532.190996
1251.904250,7105.977043,-6587.832884,1532.190996
1251.904580,6957.935855,-6217.729913,919.314598
1251.904910,7031.956449,-6809.894666,1225.752797
1251.905241,7031.956449,-6957.935855,1149.143247
1251.905571,6957.935855,-7031.956449,1072.533697
1251.905902,6661.853478,-6439.791695,1149.143247
1251.906232,6735.874072,-6735.874072,536.266849
1251.906563,6587.832884,-7105.977043,1378.971896
1251.906893,6735.874072,-6883.915261,842.705048
1251.907224,6809.894666,-6587.832884,919.314598
1251.907554,6809.894666,-6883.915261,842.705048
1251.907885,7254.018232,-6513.812290,536.266849
1251.908215,7179.997637,-6143.709319,1072.533697
1251.908546,7105.977043,-6735.874072,1225.752797
1251.908876,7254.018232,-6365.771101,1149.143247
1251.909207,7476.080014,-6513.812290,1378.971896
1251.909537,7105.977043,-6439.791695,1149.143247
1251.909868,7105.977043,-6513.812290,383.047749
1251.910198,7179.997637,-6661.853478,919.314598
1251.910529,7105.977043,-6661.853478,1149.143247
1251.910859,7031.956449,-5995.668130,1455.581446
1251.911189,7105.977043,-6365.771101,1149.143247
1251.911520,7105.977043,-6291.750507,1149.143247
1251.911850,6809.894666,-6439.791695,995.924147
1251.912181,6661.853478,-6217.729913,842.705048
1251.912511,6883.915261,-6587.832884,919.314598
1251.912842,6587.832884,-6661.853478,842.705048
1251.913172,6735.874072,-7031.956449,995.924147
1251.913503,7105.977043,-7105.977043,1302.362347
1251.913833,6809.894666,-6735.874072,842.705048
1251.914164,6439.791695,-7105.977043,995.924147
1251.914494,6735.874072,-7105.977043,842.705048
1251.914825,6883.915261,-6735.874072,919.314598
1251.915155,6957.935855,-6513.812290,1378.971896
1251.915486,6735.874072,-5921.647536,1378.971896
1251.915816,7105.977043,-6069.688724,842.705048
1251.916147,7179.997637,-6291.750507,919.314598
1251.916477,7105.977043,-6365.771101,919.314598
1251.916808,7179.997637,-5995.668130,919.314598
1251.917138,7105.977043,-6217.729913,1149.143247
1251.917468,7254.018232,-6587.832884,1072.533697
1251.917799,7179.997637,-6217.729913,1149.143247
1251.918129,6809.894666,-6661.853478,995.924147
1251.918460,7105.977043,-6439.791695,1302.362347
1251.918790,7031.956449,-6291.750507,995.924147
1251.919121,6735.874072,-6735.874072,842.705048
1251.919451,6809.894666,-6439.791695,1378.971896
1251.919782,7031.956449,-6217.729913,1685.410096
1251.920112,7179.997637,-6513.812290,459.657299
1251.920443,6809.894666,-6291.750507,766.095498
1251.920773,6735.874072,-6587.832884,1149.143247
1251.921104,7031.956449,-6587.832884,995.924147
1251.921434,6513.812290,-6883.915261,1532.190996
1251.921765,7031.956449,-6883.915261,995.924147
1251.922095,7105.977043,-6957.935855,842.705048
1251.922426,7179.997637,-6809.894666,1225.752797
1251.922756,7105.977043,-6513.812290,1149.143247
1251.923086,7105.977043,-6587.832884,1532.190996
1251.923417,7402.059420,-6291.750507,1072.533697
1251.923747,7105.977043,-6587.832884,689.485948
1251.924078,6957.935855,-6291.750507,1225.752797
1251.924408,7402.059420,-5995.668130,612.876398
1251.924739,6957.935855,-6883.915261,1149.143247
1251.925069,6883.915261,-6291.750507,1072.533697
1251.925400,7031.956449,-6291.750507,919.314598
1251.925730,7105.977043,-6513.812290,1225.752797
1251.926061,6809.894666,-6439.791695,1302.362347
1251.926391,6439.791695,-6883.915261,1072.533697
1251.926722,6957.935855,-6735.874072,612.876398
1251.927052,6587.832884,-6883.915261,1149.143247
1251.927383,6809.894666,-6661.853478,1225.752797
1251.927713,6587.832884,-6439.791695,1072.533697
1251.928044,6809.894666,-6809.894666,1225.752797
1251.928374,6809.894666,-6513.812290,842.705048
1251.928705,5921.647536,-6809.894666,1149.143247
1251.929035,6513.812290,-6513.812290,1532.190996
1251.929365,6883.915261,-6735.874072,919.314598
1251.929696,7031.956449,-6735.874072,1455.581446
1251.930026,7031.956449,-6661.853478,1225.752797
1251.930357,7402.059420,-6365.771101,1072.533697
1251.930687,7772.162391,-6069.688724,995.924147
1251.931018,7105.977043,-6735.874072,766.095498
1251.931348,7105.977043,-6513.812290,1149.143247
1251.931679,7254.018232,-6439.791695,842.705048
1251.932009,7179.997637,-6365.771101,612.876398
1251.932340,7254.018232,-6143.709319,842.705048
1251.932670,7179.997637,-6217.729913,1225.752797
1251.933001,7105.977043,-6439.791695,1225.752797
1251.933331,6809.894666,-6069.688724,919.314598
1251.933662,6735.874072,-6809.894666,995.924147
1251.933992,6587.832884,-6661.853478,1072.533697
1251.934323,6809.894666,-7031.956449,1225.752797
1251.934653,6883.915261,-7031.956449,1149.143247
1251.934984,6809.894666,-6143.709319,689.485948
1251.935314,7031.956449,-7105.977043,842.705048
1251.935644,7031.956449,-6957.935855,536.266849
1251.935975,6735.874072,-6883.915261,1225.752797
1251.936305,7105.977043,-6883.915261,919.314598
1251.936636,7179.997637,-6809.894666,1149.143247
1251.936966,7179.997637,-6217.729913,1072.533697
1251.937297,7105.977043,-6217.729913,1149.143247
1251.937627,7179.997637,-6439.791695,1149.143247
1251.937958,7105.977043,-6365.771101,1225.752797
1251.938288,7772.162391,-6661.853478,1225.752797
1251.938619,6883.915261,-6365.771101,1072.533697
1251.938949,7105.977043,-6365.771101,1072.533697
1251.939280,7179.997637,-6439.791695,1225.752797
1251.939610,7402.059420,-6291.750507,1378.971896
1251.939941,7105.977043,-6513.812290,995.924147
1251.940271,6957.935855,-6365.771101,1378.971896
1251.940602,6957.935855,-6809.894666,995.924147
1251.940932,6513.812290,-6735.874072,919.314598
1251.941262,6513.812290,-6291.750507,1149.143247
1251.941593,6883.915261,-6809.894666,1072.533697
1251.941923,6957.935855,-6809.894666,1149.143247
1251.942254,6809.894666,-6735.874072,1225.752797
1251.942584,6513.812290,-6883.915261,919.314598
1251.942915,6513.812290,-6513.812290,842.705048
1251.943245,6365.771101,-7328.038826,1072.533697
1251.943576,6513.812290,-6883.915261,1072.533697
1251.943906,7105.977043,-6513.812290,842.705048
1251.944237,7624.121203,-6365.771101,919.314598
1251.944567,7105.977043,-6661.853478,1149.143247
1251.944898,7328.038826,-6439.791695,842.705048
1251.945228,7031.956449,-6291.750507,919.314598
1251.945559,6883.915261,-6587.832884,842.705048
1251.945889,7105.977043,-6291.750507,766.095498
1251.946220,7179.997637,-6291.750507,995.924147
1251.946550,7031.956449,-6587.832884,995.924147
1251.946881,7105.977043,-6069.688724,766.095498
1251.947211,6957.935855,-6291.750507,1302.362347
1251.947541,6735.874072,-6365.771101,919.314598
1251.947872,6661.853478,-6587.832884,1225.752797
1251.948202,6735.874072,-6513.812290,842.705048
1251.948533,6587.832884,-6513.812290,1072.533697
1251.948863,6957.935855,-6291.750507,995.924147
1251.949194,6735.874072,-6661.853478,1072.533697
1251.949524,7031.956449,-6587.832884,995.924147
1251.949855,6957.935855,-6735.874072,1149.143247
1251.950185,6883.915261,-6513.812290,1072.533697
1251.950516,6513.812290,-6587.832884,1149.143247
1251.950846,6513.812290,-7105.977043,1149.143247
1251.951177,7105.977043,-6365.771101,1072.533697
1251.951507,7105.977043,-6217.729913,919.314598
1251.951838,7624.121203,-6439.791695,995.924147
1251.952168,7328.038826,-6735.874072,1225.752797
1251.952499,7328.038826,-6143.709319,995.924147
1251.952829,7179.997637,-7105.977043,689.485948
1251.953160,7476.080014,-5995.668130,995.924147
1251.953490,7550.100608,-6735.874072,1072.533697
1251.953820,7105.977043,-6439.791695,1378.971896
1251.954151,7105.977043,-6291.750507,1225.752797
1251.954481,7254.018232,-6365.771101,1225.752797
1251.954812,7031.956449,-6217.729913,2068.457845
1251.955142,6661.853478,-6513.812290,1225.752797
1251.955473,6587.832884,-6439.791695,995.924147
1251.955803,6587.832884,-6809.894666,1225.752797
1251.956134,6661.853478,-6883.915261,1225.752797
1251.956464,6883.915261,-6661.853478,1225.752797
1251.956795,6957.935855,-7105.977043,1762.019645
1251.957125,6735.874072,-6957.935855,1149.143247
1251.957456,6513.812290,-6883.915261,919.314598
1251.957786,6291.750507,-7105.977043,1838.629195
1251.958117,6957.935855,-6735.874072,995.924147
1251.958447,7105.977043,-6809.894666,995.924147
1251.958778,7105.977043,-6291.750507,229.828649
1251.959108,7105.977043,-6809.894666,919.314598
1251.959438,7105.977043,-6439.791695,1685.410096
1251.959769,6957.935855,-6513.812290,1072.533697
1251.960099,7105.977043,-6365.771101,1149.143247
1251.960430,7105.977043,-6217.729913,1149.143247
1251.960760,7031.956449,-6439.791695,842.705048
1251.961091,6957.935855,-6365.771101,1532.190996
1251.961421,6735.874072,-6365.771101,1149.143247
1251.961752,7105.977043,-6735.874072,766.095498
1251.962082,7105.977043,-6365.771101,919.314598
1251.962413,7105.977043,-6957.935855,842.705048
1251.962743,6735.874072,-7105.977043,1072.533697
1251.963074,6735.874072,-6809.894666,995.924147
1251.963404,6957.935855,-6735.874072,842.705048
1251.963735,7031.956449,-6883.915261,1149.143247
1251.964065,7031.956449,-6735.874072,995.924147
1251.964396,6883.915261,-7105.977043,995.924147
1251.964726,6883.915261,-6809.894666,842.705048
1251.965057,6957.935855,-6883.915261,919.314598
1251.965387,6883.915261,-6587.832884,1378.971896
1251.965717,7254.018232,-6439.791695,1225.752797
1251.966048,7328.038826,-5921.647536,1455.581446
1251.966378,7328.038826,-6513.812290,919.314598
1251.966709,7402.059420,-6439.791695,842.705048
1251.967039,7402.059420,-5699.585753,1149.143247
1251.967370,7105.977043,-6661.853478,995.924147
1251.967700,7105.977043,-6217.729913,1072.533697
1251.968030,7179.997637,-6217.729913,842.705048
1251.968359,7179.997637,-6217.729913,1072.533697
1251.968689,7105.977043,-6291.750507,995.924147
1251.969019,7105.977043,-6587.832884,1302.362347
1251.969348,7105.977043,-6439.791695,995.924147
1251.969678,7105.977043,-6291.750507,1072.533697
1251.970007,6809.894666,-6069.688724,1455.581446
1251.970337,6513.812290,-6809.894666,1149.143247
1251.970667,6883.915261,-6957.935855,1378.971896
1251.970996,6809.894666,-6365.771101,1072.533697
1251.971326,6809.894666,-6513.812290,1225.752797
1251.971655,6513.812290,-6883.915261,1072.533697
1251.971985,6735.874072,-6809.894666,766.095498
1251.972314,6513.812290,-7254.018232,1378.971896
1251.972644,6809.894666,-6809.894666,919.314598
1251.972974,7179.997637,-6513.812290,995.924147
1251.973303,7328.038826,-6291.750507,1378.971896
1251.973633,6883.915261,-6809.894666,995.924147
1251.973962,7254.018232,-6587.832884,1302.362347
1251.974292,6957.935855,-6735.874072,919.314598
1251.974622,7105.977043,-6365.771101,689.485948
1251.974951,7402.059420,-6069.688724,1072.533697
1251.975281,7105.977043,-6587.832884,1225.752797
1251.975610,6661.853478,-6513.812290,1072.533697
1251.975940,6587.832884,-6217.729913,766.095498
1251.976270,6587.832884,-6439.791695,1685.410096
1251.976599,6957.935855,-6513.812290,995.924147
1251.976929,7031.956449,-6439.791695,1378.971896
1251.977258,6143.709319,-6513.812290,1225.752797
1251.977588,6957.935855,-6809.894666,995.924147
1251.977917,6513.812290,-6809.894666,1225.752797
1251.978247,6809.894666,-6735.874072,919.314598
1251.978577,7031.956449,-6809.894666,1072.533697
1251.978906,6513.812290,-7031.956449,1225.752797
1251.979236,7031.956449,-7105.977043,383.047749
1251.979565,6587.832884,-6883.915261,1072.533697
1251.979895,6661.853478,-7031.956449,689.485948
1251.980225,6957.935855,-6883.915261,919.314598
1251.980554,6957.935855,-6365.771101,1149.143247
1251.980884,7920.203579,-7031.956449,1072.533697
1251.981213,7476.080014,-6439.791695,995.924147
1251.981543,7624.121203,-6291.750507,689.485948
1251.981872,7105.977043,-6439.791695,1225.752797
1251.982202,7105.977043,-5773.606348,919.314598
1251.982532,7402.059420,-6365.771101,919.314598
1251.982861,7179.997637,-5995.668130,766.095498
1251.983191,7105.977043,-6661.853478,1072.533697
1251.983520,7402.059420,-6217.729913,919.314598
1251.983850,7179.997637,-6513.812290,1149.143247
1251.984180,6809.894666,-6439.791695,919.314598
1251.984509,6439.791695,-6809.894666,842.705048
1251.984839,6513.812290,-6809.894666,1608.800546
1251.985168,7031.956449,-6661.853478,919.314598
1251.985498,7031.956449,-6439.791695,1762.019645
1251.985827,7105.977043,-6661.853478,1302.362347
1251.986157,6957.935855,-6587.832884,995.924147
1251.986487,6809.894666,-6661.853478,1302.362347
1251.986816,6291.750507,-7179.997637,842.705048
1251.987146,6735.874072,-6735.874072,612.876398
1251.987475,6957.935855,-6661.853478,1072.533697
1251.987805,7105.977043,-6291.750507,1149.143247
1251.988135,6883.915261,-6217.729913,1455.581446
1251.988464,7031.956449,-6365.771101,1455.581446
1251.988794,7031.956449,-6587.832884,995.924147
1251.989123,7105.977043,-6661.853478,1302.362347
1251.989453,7105.977043,-6291.750507,1225.752797
1251.989782,7254.018232,-6217.729913,536.266849
1251.990112,6957.935855,-6143.709319,995.924147
1251.990442,6735.874072,-6439.791695,1072.533697
1251.990771,6957.935855,-6809.894666,1149.143247
1251.991101,7031.956449,-6735.874072,1225.752797
1251.991430,6439.791695,-6513.812290,842.705048
1251.991760,6365.771101,-6809.894666,919.314598
1251.992090,6661.853478,-6957.935855,1149.143247
1251.992419,7031.956449,-7105.977043,1149.143247
1251.992749,7105.977043,-6809.894666,1378.971896
1251.993078,6809.894666,-6809.894666,1149.143247
1251.993408,7105.977043,-7254.018232,612.876398
1251.993737,6587.832884,-7105.977043,919.314598
1251.994067,6735.874072,-6957.935855,842.705048
1251.994397,7105.977043,-6735.874072,919.314598
1251.994726,6883.915261,-6513.812290,1149.143247
1251.995056,7105.977043,-6439.791695,919.314598
1251.995385,7328.038826,-6661.853478,1072.533697
1251.995715,7772.162391,-6217.729913,689.485948
1251.996045,7105.977043,-6291.750507,383.047749
1251.996374,7031.956449,-6513.812290,919.314598
1251.996704,7179.997637,-6439.791695,1225.752797
1251.997033,7328.038826,-6291.750507,919.314598
1251.997363,7550.100608,-5921.647536,1378.971896
1251.997692,7254.018232,-6439.791695,1072.533697
1251.998022,7254.018232,-6069.688724,1302.362347
1251.998352,7105.977043,-6291.750507,1072.533697
1251.998681,6957.935855,-6513.812290,1149.143247
1251.999011,6587.832884,-6365.771101,766.095498
1251.999340,7031.956449,-6735.874072,995.924147
1251.999670,6883.915261,-6661.853478,842.705048
1252.000000,7031.956449,-6291.750507,1149.143247
1252.000329,7105.977043,-6513.812290,1149.143247
1252.000659,6957.935855,-6809.894666,1072.533697
1252.000988,6957.935855,-7105.977043,689.485948
1252.001318,6661.853478,-6957.935855,1072.533697
1252.001648,7179.997637,-6883.915261,842.705048
1252.001977,7550.100608,-6809.894666,995.924147
1252.002307,7105.977043,-6439.791695,995.924147
1252.002636,7031.956449,-6513.812290,919.314598
1252.002966,7105.977043,-6069.688724,842.705048
1252.003295,7031.956449,-6217.729913,842.705048
1252.003625,6957.935855,-6439.791695,1149.143247
1252.003955,6957.935855,-6365.771101,1149.143247
1252.004284,6957.935855,-6439.791695,995.924147
1252.004614,6809.894666,-6513.812290,1302.362347
1252.004943,6957.935855,-6217.729913,1532.190996
1252.005273,7179.997637,-6883.915261,1378.971896
1252.005603,7105.977043,-6291.750507,1455.581446
1252.005932,6735.874072,-6587.832884,1072.533697
1252.006262,5921.647536,-6513.812290,1455.581446
1252.006591,6365.771101,-7031.956449,689.485948
1252.006921,6735.874072,-6957.935855,1378.971896
1252.007250,6587.832884,-6587.832884,1072.533697
1252.007580,6735.874072,-6661.853478,1072.533697
1252.007910,6883.915261,-6661.853478,1072.533697
1252.008239,6513.812290,-7031.956449,1072.533697
1252.008569,6587.832884,-6735.874072,842.705048
1252.008898,7105.977043,-6883.915261,919.314598
1252.009228,7031.956449,-6291.750507,612.876398
1252.009558,7105.977043,-6217.729913,1302.362347
1252.009887,7328.038826,-6439.791695,1149.143247
1252.010217,7328.038826,-6291.750507,1302.362347
1252.010546,7105.977043,-6513.812290,612.876398
1252.010876,7402.059420,-6513.812290,1302.362347
1252.011205,7105.977043,-5995.668130,842.705048
1252.011535,7254.018232,-6513.812290,1072.533697
1252.011865,7179.997637,-6365.771101,1072.533697
1252.012194,7254.018232,-6217.729913,842.705048
1252.012524,7402.059420,-6217.729913,1378.971896
1252.012853,7105.977043,-6291.750507,766.095498
1252.013183,6587.832884,-6661.853478,995.924147
1252.013513,6883.915261,-6439.791695,919.314598
1252.013842,6735.874072,-6809.894666,1455.581446
1252.014172,7105.977043,-6809.894666,612.876398
1252.014501,6957.935855,-6587.832884,1072.533697
1252.014831,6809.894666,-6883.915261,1072.533697
1252.015160,6735.874072,-6883.915261,1072.533697
1252.015490,6735.874072,-6143.709319,1149.143247
1252.015820,7105.977043,-6587.832884,1072.533697
1252.016149,7179.997637,-6365.771101,995.924147
1252.016479,7105.977043,-6069.688724,995.924147
1252.016808,7328.038826,-5255.462188,842.705048
1252.017138,7772.162391,-5329.482782,766.095498
1252.017468,8734.430116,-5329.482782,1608.800546
1252.017797,8586.388927,-5773.606348,1072.533697
1252.018127,7772.162391,-5995.668130,1072.533697
1252.018456,7328.038826,-6587.832884,306.438199
1252.018786,6291.750507,-7179.997637,153.219100
1252.019115,5921.647536,-6513.812290,383.047749
1252.019445,7031.956449,-6661.853478,919.314598
1252.019775,8364.327145,-6439.791695,1455.581446
1252.020104,8364.327145,-5181.441594,2451.505594
1252.020434,7994.224174,-4145.153275,1455.581446
1252.020763,7846.182985,-4441.235652,1149.143247
1252.021093,7550.100608,-5033.400406,1225.752797
1252.021423,8216.285956,-4811.338623,1149.143247
1252.021752,8512.368333,-5107.421000,1072.533697
1252.022082,8142.265362,-5181.441594,1225.752797
1252.022411,7698.141797,-5847.626942,536.266849
1252.022741,7698.141797,-5921.647536,612.876398
1252.023070,8364.327145,-5107.421000,306.438199
1252.023400,8142.265362,-6809.894666,842.705048
1252.023730,7994.224174,-5921.647536,919.314598
1252.024059,7920.203579,-5847.626942,0.000000
1252.024389,7994.224174,-5847.626942,1225.752797
1252.024718,8438.347739,-4885.359217,1072.533697
1252.025048,8512.368333,-4737.318029,842.705048
1252.025378,8882.471304,-4145.153275,1762.019645
1252.025707,9030.512492,-4367.215058,995.924147
1252.026037,9918.759623,-2664.741391,1532.190996
1252.026366,9474.636058,-3182.885551,1608.800546
1252.026696,9696.697840,-3034.844362,1838.629195
1252.027026,9992.780217,-2516.700203,1838.629195
1252.027355,9918.759623,-2886.803174,1762.019645
1252.027685,9548.656652,-2886.803174,1532.190996
1252.028014,9474.636058,-3701.029710,1378.971896
1252.028344,9104.533087,-4737.318029,1149.143247
1252.028673,8734.430116,-5181.441594,842.705048
1252.029003,8512.368333,-5033.400406,1455.581446
1252.029333,8660.409521,-5033.400406,1149.143247
1252.029662,7772.162391,-6143.709319,689.485948
1252.029992,7402.059420,-6513.812290,1225.752797
1252.030321,7328.038826,-6735.874072,536.266849
1252.030651,7550.100608,-5773.606348,995.924147
1252.030981,7105.977043,-5995.668130,-536.266849
1252.031310,7105.977043,-5921.647536,0.000000
1252.031640,8956.491898,-4441.235652,-306.438199
1252.031969,10658.965565,-4441.235652,612.876398
1252.032299,10658.965565,-3627.009116,842.705048
1252.032628,10881.027347,-3627.009116,1608.800546
1252.032958,11103.089130,-2368.659014,995.924147
1252.033288,9918.759623,-2886.803174,1149.143247
1252.033617,9474.636058,-2738.761985,1225.752797
1252.033947,9622.677246,-3849.070898,1149.143247
1252.034276,9844.739029,-4515.256246,2068.457845
1252.034606,9548.656652,-3849.070898,1838.629195
1252.034936,8660.409521,-3849.070898,1378.971896
1252.035265,8808.450710,-4293.194464,1991.848295
1252.035595,8364.327145,-5181.441594,1838.629195
1252.035924,8216.285956,-5033.400406,1838.629195
1252.036254,8364.327145,-4589.276840,1225.752797
1252.036583,8512.368333,-4441.235652,766.095498
1252.036913,8586.388927,-5329.482782,766.095498
1252.037243,7994.224174,-5699.585753,536.266849
1252.037572,8216.285956,-5477.523971,0.000000
1252.037902,8142.265362,-5403.503377,-459.657299
1252.038231,7994.224174,-5625.565159,76.609550
1252.038561,8142.265362,-6069.688724,306.438199
1252.038891,8216.285956,-6143.709319,459.657299
1252.039220,8290.306550,-5921.647536,536.266849
1252.039550,7772.162391,-6809.894666,1455.581446
1252.039879,7772.162391,-6883.915261,1838.629195
1252.040209,8142.265362,-6587.832884,1685.410096
1252.040538,8290.306550,-6291.750507,2145.067394
1252.040868,7698.141797,-5773.606348,1915.238745
1252.041198,8290.306550,-5181.441594,1685.410096
1252.041527,8068.244768,-4737.318029,1762.019645
1252.041857,8068.244768,-2960.823768,766.095498
1252.042186,7624.121203,-2960.823768,76.609550
1252.042516,7698.141797,-2960.823768,0.000000
1252.042846,7994.224174,-3997.112087,0.000000
1252.043175,8216.285956,-4959.379811,229.828649
1252.043505,8142.265362,-5181.441594,76.609550
1252.043834,8290.306550,-6735.874072,919.314598
1252.044164,8512.368333,-7846.182985,1225.752797
1252.044493,8142.265362,-9104.533087,2298.286494
1252.044823,7254.018232,-9030.512492,2221.676944
1252.045153,6069.688724,-8808.450710,1149.143247
1252.045482,4737.318029,-8734.430116,919.314598
1252.045812,4515.256246,-7476.080014,459.657299
1252.046141,4959.379811,-7624.121203,-153.219100
1252.046471,5255.462188,-6661.853478,-383.047749
1252.046801,5625.565159,-5847.626942,0.000000
1252.047130,6513.812290,-5181.441594,459.657299
1252.047460,7772.162391,-4737.318029,76.609550
1252.047789,7920.203579,-5255.462188,766.095498
1252.048119,8290.306550,-4811.338623,1072.533697
1252.048448,8660.409521,-5181.441594,1072.533697
1252.048778,9326.594869,-5921.647536,1838.629195
1252.049108,9178.553681,-5699.585753,1455.581446
1252.049437,7920.203579,-6217.729913,1225.752797
1252.049767,7550.100608,-5847.626942,1455.581446
1252.050096,7624.121203,-6661.853478,1838.629195
1252.050426,8142.265362,-6587.832884,2145.067394
1252.050756,8216.285956,-5551.544565,2451.505594
1252.051085,7624.121203,-5033.400406,2374.896044
1252.051415,7179.997637,-4515.256246,1762.019645
1252.051744,6513.812290,-5329.482782,1915.238745
1252.052074,6735.874072,-5403.503377,1072.533697
1252.052404,6587.832884,-5847.626942,229.828649
1252.052733,6513.812290,-7031.956449,0.000000
1252.053063,6439.791695,-7550.100608,-459.657299
1252.053392,6809.894666,-8956.491898,842.705048
1252.053722,6587.832884,-9030.512492,689.485948
1252.054051,6291.750507,-8956.491898,919.314598
1252.054381,6291.750507,-8290.306550,1532.190996
1252.054711,6661.853478,-7624.121203,1838.629195
1252.055040,6513.812290,-6809.894666,2451.505594
1252.055370,7105.977043,-5773.606348,2528.115143
1252.055699,7328.038826,-4737.318029,2068.457845
1252.056029,7402.059420,-4219.173869,1838.629195
1252.056359,7402.059420,-3627.009116,1072.533697
1252.056688,6587.832884,-4589.276840,459.657299
1252.057018,6809.894666,-5625.565159,153.219100
1252.057347,6513.812290,-6439.791695,229.828649
1252.057677,6143.709319,-7254.018232,459.657299
1252.058006,6365.771101,-8882.471304,842.705048
1252.058336,6143.709319,-9474.636058,1072.533697
1252.058666,6143.709319,-9770.718434,1072.533697
1252.058995,5625.565159,-9104.533087,1302.362347
1252.059325,5699.585753,-7846.182985,1378.971896
1252.059654,5699.585753,-7476.080014,766.095498
1252.059984,5625.565159,-6365.771101,995.924147
1252.060314,6365.771101,-5329.482782,919.314598
1252.060643,7624.121203,-4663.297435,1455.581446
1252.060973,8068.244768,-3701.029710,1838.629195
1252.061302,8660.409521,-4589.276840,1685.410096
1252.061632,8882.471304,-4367.215058,1838.629195
1252.061961,8734.430116,-4737.318029,459.657299
1252.062291,8438.347739,-5625.565159,1302.362347
1252.062621,8290.306550,-6365.771101,1455.581446
1252.062950,8290.306550,-6587.832884,306.438199
1252.063280,7328.038826,-6883.915261,536.266849
1252.063609,6587.832884,-6661.853478,536.266849
1252.063939,7105.977043,-7476.080014,306.438199
1252.064269,6513.812290,-7328.038826,995.924147
1252.064598,6069.688724,-7254.018232,1302.362347
1252.064928,6217.729913,-7031.956449,1455.581446
1252.065257,7105.977043,-5847.626942,1302.362347
1252.065587,7031.956449,-6883.915261,1455.581446
1252.065916,6513.812290,-6291.750507,995.924147
1252.066246,6661.853478,-6809.894666,689.485948
1252.066576,6957.935855,-6735.874072,-306.438199
1252.066905,6439.791695,-6439.791695,229.828649
1252.067235,6513.812290,-7105.977043,0.000000
1252.067564,6587.832884,-8142.265362,0.000000
1252.067894,6957.935855,-7920.203579,919.314598
1252.068224,7105.977043,-7698.141797,1225.752797
1252.068553,7476.080014,-6883.915261,1915.238745
1252.068883,8142.265362,-6513.812290,1838.629195
1252.069212,8142.265362,-5551.544565,1455.581446
1252.069542,7698.141797,-4589.276840,995.924147
1252.069871,7624.121203,-3701.029710,995.924147
1252.070201,7772.162391,-4293.194464,995.924147
1252.070531,7846.182985,-4589.276840,1608.800546
1252.070860,7624.121203,-5107.421000,1149.143247
1252.071190,6809.894666,-6587.832884,1302.362347
1252.071519,6883.915261,-7328.038826,1149.143247
1252.071849,6439.791695,-8364.327145,1225.752797
1252.072179,6217.729913,-8956.491898,919.314598
1252.072508,5625.565159,-9326.594869,842.705048
1252.072838,5107.421000,-8956.491898,459.657299
1252.073167,4959.379811,-7846.182985,-612.876398
1252.073505,5033.400406,-7402.059420,536.266849
1252.073834,6587.832884,-6069.688724,1072.533697
1252.074163,7698.141797,-5107.421000,1991.848295
1252.074492,7994.224174,-4071.132681,2451.505594
1252.074821,8438.347739,-4367.215058,2298.286494
1252.075150,8290.306550,-4145.153275,1762.019645
1252.075479,8438.347739,-4885.359217,1225.752797
1252.075808,8068.244768,-6217.729913,1378.971896
1252.076137,7994.224174,-6513.812290,766.095498
1252.076466,7105.977043,-7105.977043,229.828649
1252.076795,6069.688724,-7994.224174,459.657299
1252.077124,5773.606348,-8290.306550,459.657299
1252.077454,6143.709319,-8734.430116,383.047749
1252.077783,5847.626942,-8216.285956,1455.581446
1252.078112,5625.565159,-7994.224174,995.924147
1252.078441,5403.503377,-7772.162391,1455.581446
1252.078770,5995.668130,-7179.997637,1532.190996
1252.079099,6661.853478,-6143.709319,1149.143247
1252.079428,6735.874072,-5551.544565,919.314598
1252.079757,6957.935855,-5403.503377,536.266849
1252.080086,7105.977043,-5699.585753,842.705048
1252.080415,7105.977043,-6587.832884,919.314598
1252.080744,7179.997637,-6291.750507,689.485948
1252.081073,7105.977043,-6957.935855,995.924147
1252.081403,7698.141797,-7179.997637,995.924147
1252.081732,7772.162391,-7105.977043,1838.629195
1252.082061,7846.182985,-7031.956449,2145.067394
1252.082390,7698.141797,-6365.771101,1378.971896
1252.082719,7550.100608,-5551.544565,689.485948
1252.083048,7328.038826,-5625.565159,689.485948
1252.083377,7476.080014,-4663.297435,536.266849
1252.083706,7920.203579,-4663.297435,229.828649
1252.084035,6957.935855,-4737.318029,459.657299
1252.084364,7105.977043,-5625.565159,842.705048
1252.084693,7624.121203,-6587.832884,1378.971896
1252.085022,7698.141797,-6883.915261,2145.067394
1252.085352,6883.915261,-8364.327145,1225.752797
1252.085681,6143.709319,-8660.409521,919.314598
1252.086010,6217.729913,-8734.430116,306.438199
1252.086339,5847.626942,-8660.409521,0.000000
1252.086668,5551.544565,-7550.100608,76.609550
1252.086997,5921.647536,-7476.080014,383.047749
1252.087326,6439.791695,-6513.812290,459.657299
1252.087655,6735.874072,-5403.503377,612.876398
1252.087984,6809.894666,-6143.709319,2068.457845
1252.088313,7994.224174,-4515.256246,842.705048
1252.088642,7920.203579,-5551.544565,1532.190996
1252.088971,7402.059420,-5181.441594,1225.752797
1252.089301,7698.141797,-4737.318029,919.314598
1252.089630,8808.450710,-5847.626942,919.314598
1252.089959,8882.471304,-5699.585753,919.314598
1252.090288,7846.182985,-6661.853478,995.924147
1252.090617,7550.100608,-5921.647536,1455.581446
1252.090946,7105.977043,-6883.915261,1225.752797
1252.091275,7105.977043,-7624.121203,1915.238745
1252.091604,6883.915261,-7328.038826,2374.896044
1252.091933,6735.874072,-7105.977043,1225.752797
1252.092262,6513.812290,-6217.729913,1532.190996
1252.092591,5255.462188,-6365.771101,612.876398
1252.092920,5551.544565,-6143.709319,76.609550
1252.093250,5403.503377,-6587.832884,153.219100
1252.093579,5329.482782,-7328.038826,153.219100
1252.093908,5995.668130,-6957.935855,0.000000
1252.094237,6217.729913,-7920.203579,1149.143247
1252.094566,7105.977043,-7920.203579,1608.800546
1252.094895,7402.059420,-7624.121203,1915.238745
1252.095224,7624.121203,-6809.894666,1915.238745
1252.095553,7698.141797,-6365.771101,2145.067394
1252.095882,8142.265362,-4737.318029,1685.410096
1252.096211,7994.224174,-4811.338623,1455.581446
1252.096540,7846.182985,-4515.256246,1532.190996
1252.096869,7772.162391,-4293.194464,1149.143247
1252.097199,7476.080014,-4737.318029,229.828649
1252.097528,6513.812290,-5625.565159,689.485948
1252.097857,5995.668130,-7328.038826,1532.190996
1252.098186,5995.668130,-7772.162391,1149.143247
1252.098515,5699.585753,-8364.327145,1225.752797
1252.098844,5181.441594,-8512.368333,766.095498
1252.099173,6069.688724,-8956.491898,995.924147
1252.099502,6439.791695,-8068.244768,612.876398
1252.099831,6365.771101,-7476.080014,459.657299
1252.100160,6661.853478,-6439.791695,536.266849
1252.100489,6957.935855,-6661.853478,1149.143247
1252.100818,7476.080014,-5773.606348,1532.190996
1252.101148,7624.121203,-5625.565159,1608.800546
1252.101477,7698.141797,-5107.421000,1608.800546
1252.101806,7994.224174,-5255.462188,1455.581446
1252.102135,7105.977043,-6069.688724,1225.752797
1252.102464,7254.018232,-5847.626942,919.314598
1252.102793,7402.059420,-6661.853478,536.266849
1252.103122,7328.038826,-6217.729913,995.924147
1252.103451,6957.935855,-6587.832884,536.266849
1252.103780,7105.977043,-7254.018232,766.095498
1252.104109,7254.018232,-7105.977043,1225.752797
1252.104438,7105.977043,-7179.997637,919.314598
1252.104767,6957.935855,-6513.812290,1225.752797
1252.105097,6365.771101,-7105.977043,1455.581446
1252.105426,6661.853478,-7105.977043,1225.752797
1252.105755,6217.729913,-6661.853478,995.924147
1252.106084,6365.771101,-6587.832884,459.657299
1252.106413,6661.853478,-6587.832884,612.876398
1252.106742,6735.874072,-6291.750507,459.657299
1252.107071,6661.853478,-7031.956449,383.047749
1252.107400,6291.750507,-6957.935855,536.266849
1252.107729,6957.935855,-7550.100608,1225.752797
1252.108058,7031.956449,-8068.244768,1455.581446
1252.108387,7179.997637,-7254.018232,1838.629195
1252.108716,7402.059420,-6143.709319,1685.410096
1252.109046,7772.162391,-5773.606348,1302.362347
1252.109375,7772.162391,-5107.421000,842.705048
1252.109704,7698.141797,-4737.318029,1378.971896
1252.110033,7476.080014,-4589.276840,1149.143247
1252.110362,7328.038826,-4589.276840,229.828649
1252.110691,6365.771101,-5107.421000,1378.971896
1252.111020,7105.977043,-6957.935855,995.924147
1252.111349,6809.894666,-7328.038826,1149.143247
1252.111678,6883.915261,-7994.224174,995.924147
1252.112007,7328.038826,-8882.471304,1378.971896
1252.112336,7105.977043,-7772.162391,995.924147
1252.112665,6365.771101,-8216.285956,0.000000
1252.112995,5033.400406,-7994.224174,-1072.533697
1252.113324,6365.771101,-7105.977043,306.438199
1252.113653,7328.038826,-6957.935855,1072.533697
1252.113982,7698.141797,-5921.647536,1378.971896
1252.114311,7254.018232,-5625.565159,1149.143247
1252.114640,6883.915261,-5699.585753,1378.971896
1252.114969,7179.997637,-6735.874072,1685.410096
1252.115298,7624.121203,-6069.688724,1915.238745
1252.115627,7402.059420,-5255.462188,1225.752797
1252.115956,7328.038826,-5995.668130,919.314598
1252.116285,7402.059420,-6587.832884,536.266849
1252.116614,7254.018232,-7105.977043,842.705048
1252.116944,6809.894666,-7179.997637,383.047749
1252.117273,6809.894666,-7698.141797,919.314598
1252.117602,6217.729913,-6957.935855,919.314598
1252.117931,6365.771101,-7476.080014,995.924147
1252.118260,7254.018232,-7105.977043,2681.334243
1252.118589,7254.018232,-6291.750507,2068.457845
1252.118918,7105.977043,-5847.626942,995.924147
1252.119247,6587.832884,-5477.523971,536.266849
1252.119576,6587.832884,-5921.647536,229.828649
1252.119905,6661.853478,-6217.729913,842.705048
1252.120234,6513.812290,-6809.894666,612.876398
1252.120563,7105.977043,-7105.977043,766.095498
1252.120893,7254.018232,-7550.100608,1378.971896
1252.121222,7476.080014,-7846.182985,1915.238745
1252.121551,7105.977043,-7254.018232,1762.019645
1252.121880,6883.915261,-6957.935855,1532.190996
1252.122209,7105.977043,-5995.668130,2221.676944
1252.122538,7476.080014,-5033.400406,1149.143247
1252.122867,7624.121203,-3849.070898,919.314598
1252.123196,7698.141797,-3997.112087,1072.533697
1252.123525,7328.038826,-4219.173869,766.095498
1252.123854,7105.977043,-5403.503377,1149.143247
1252.124183,6809.894666,-5625.565159,995.924147
1252.124512,6809.894666,-6439.791695,153.219100
1252.124842,6069.688724,-7550.100608,1225.752797
1252.125171,6587.832884,-8660.409521,1225.752797
1252.125500,6883.915261,-9252.574275,919.314598
1252.125829,7105.977043,-8216.285956,1072.533697
1252.126158,6291.750507,-8882.471304,153.219100
1252.126487,5625.565159,-8142.265362,229.828649
1252.126816,5773.606348,-8068.244768,76.609550
1252.127145,6143.709319,-7105.977043,459.657299
1252.127474,6439.791695,-6143.709319,1302.362347
1252.127803,7105.977043,-5403.503377,1225.752797
1252.128132,7550.100608,-4885.359217,1838.629195
1252.128461,7920.203579,-4367.215058,1608.800546
1252.128791,7772.162391,-3775.050304,919.314598
1252.129120,8364.327145,-3775.050304,153.219100
1252.129449,8438.347739,-5181.441594,1072.533697
1252.129778,8142.265362,-6365.771101,1302.362347
1252.130107,7550.100608,-7402.059420,1149.143247
1252.130436,7105.977043,-7105.977043,1302.362347
1252.130765,6069.688724,-7772.162391,612.876398
1252.131094,6217.729913,-8216.285956,1302.362347
1252.131423,6587.832884,-8142.265362,2145.067394
1252.131752,6365.771101,-7328.038826,1225.752797
1252.132081,5625.565159,-5995.668130,1378.971896
1252.132410,5181.441594,-5921.647536,306.438199
1252.132740,5551.544565,-6513.812290,306.438199
1252.133069,6217.729913,-6661.853478,76.609550
1252.133398,6883.915261,-7031.956449,459.657299
1252.133727,7254.018232,-6883.915261,919.314598
1252.134056,7624.121203,-7476.080014,1149.143247
1252.134385,7476.080014,-7550.100608,1455.581446
1252.134714,7402.059420,-7254.018232,1991.848295
1252.135043,8142.265362,-6513.812290,2298.286494
1252.135372,8068.244768,-5921.647536,1991.848295
1252.135701,8586.388927,-4515.256246,2221.676944
1252.136030,8586.388927,-4515.256246,1915.238745
1252.136359,8438.347739,-4145.153275,842.705048
1252.136689,7031.956449,-4071.132681,919.314598
1252.137018,5773.606348,-4811.338623,459.657299
1252.137347,5995.668130,-5551.544565,766.095498
1252.137676,6217.729913,-7179.997637,1225.752797
1252.138005,6365.771101,-8142.265362,842.705048
1252.138334,6069.688724,-8586.388927,1225.752797
1252.138663,6365.771101,-9104.533087,919.314598
1252.138992,6883.915261,-9696.697840,612.876398
1252.139321,6143.709319,-9548.656652,612.876398
1252.139650,5921.647536,-8512.368333,0.000000
1252.139979,5847.626942,-7846.182985,0.000000
1252.140308,6217.729913,-6735.874072,306.438199
1252.140638,6587.832884,-6291.750507,766.095498
1252.140967,7105.977043,-5255.462188,1991.848295
1252.141296,7698.141797,-4737.318029,1685.410096
1252.141625,7920.203579,-3849.070898,2298.286494
1252.141954,8290.306550,-3775.050304,1915.238745
1252.142283,8586.388927,-4293.194464,1685.410096
1252.142612,8438.347739,-5255.462188,1762.019645
1252.142941,7772.162391,-5995.668130,1455.581446
1252.143270,7105.977043,-6735.874072,383.047749
1252.143599,6513.812290,-7328.038826,459.657299
1252.143928,6735.874072,-8512.368333,1378.971896
1252.144257,6069.688724,-7994.224174,1532.190996
1252.144587,6439.791695,-7105.977043,1685.410096
1252.144916,6587.832884,-6957.935855,1532.190996
1252.145245,6291.750507,-7031.956449,1225.752797
1252.145574,6143.709319,-6217.729913,612.876398
1252.145903,5773.606348,-6735.874072,306.438199
1252.146232,5847.626942,-6735.874072,153.219100
1252.146561,6143.709319,-6809.894666,153.219100
1252.146890,6661.853478,-7179.997637,766.095498
1252.147219,7105.977043,-7772.162391,1302.362347
1252.147548,7179.997637,-7624.121203,919.314598
1252.147877,6957.935855,-7698.141797,1455.581446
1252.148206,7328.038826,-7105.977043,1838.629195
1252.148536,8290.306550,-6365.771101,2604.724693
1252.148865,8290.306550,-5403.503377,2068.457845
1252.149194,7994.224174,-4071.132681,1838.629195
1252.149523,8068.244768,-3478.967927,1302.362347
1252.149852,7698.141797,-3256.906145,995.924147
1252.150181,7328.038826,-3997.112087,919.314598
1252.150510,7105.977043,-4885.359217,536.266849
1252.150839,6439.791695,-6365.771101,766.095498
1252.151168,6439.791695,-7031.956449,919.314598
1252.151497,5995.668130,-8882.471304,1762.019645
1252.151826,6661.853478,-8586.388927,842.705048
1252.152155,6439.791695,-9770.718434,1302.362347
1252.152485,6217.729913,-9548.656652,689.485948
1252.152814,5921.647536,-9400.615463,229.828649
1252.153143,5625.565159,-8438.347739,-536.266849
1252.153472,5773.606348,-7698.141797,0.000000
1252.153801,6365.771101,-6883.915261,153.219100
1252.154130,7179.997637,-6143.709319,536.266849
1252.154459,7328.038826,-5107.421000,1532.190996
1252.154788,7476.080014,-4959.379811,1608.800546
1252.155117,8364.327145,-4737.318029,1838.629195
1252.155446,8734.430116,-4515.256246,2145.067394
1252.155775,8808.450710,-4737.318029,1532.190996
1252.156104,7920.203579,-4959.379811,842.705048
1252.156434,7105.977043,-5995.668130,536.266849
1252.156763,7328.038826,-6735.874072,919.314598
1252.157092,7550.100608,-7179.997637,1225.752797
1252.157421,7105.977043,-6957.935855,1302.362347
1252.157750,6365.771101,-6957.935855,1685.410096
1252.158079,6143.709319,-7031.956449,1225.752797
1252.158408,5995.668130,-6735.874072,1302.362347
1252.158737,5921.647536,-6883.915261,1302.362347
1252.159066,6365.771101,-5847.626942,995.924147
1252.159395,6661.853478,-6069.688724,459.657299
1252.159724,6143.709319,-6217.729913,306.438199
1252.160053,6143.709319,-6513.812290,76.609550
1252.160383,6513.812290,-7254.018232,383.047749
1252.160712,6957.935855,-7476.080014,1225.752797
1252.161041,7179.997637,-7624.121203,1149.143247
1252.161370,7328.038826,-7179.997637,1608.800546
1252.161699,7624.121203,-7105.977043,1532.190996
1252.162028,7920.203579,-6069.688724,1915.238745
1252.162357,8808.450710,-4885.359217,1685.410096
1252.162686,8142.265362,-4885.359217,1915.238745
1252.163015,7994.224174,-4441.235652,842.705048
1252.163344,7105.977043,-4737.318029,842.705048
1252.163673,6735.874072,-4515.256246,76.609550
1252.164002,6883.915261,-6143.709319,1149.143247
1252.164332,7031.956449,-6217.729913,1149.143247
1252.164661,6809.894666,-6809.894666,1225.752797
1252.164990,6143.709319,-8216.285956,1225.752797
1252.165319,6069.688724,-9474.636058,1608.800546
1252.165648,5699.585753,-9400.615463,842.705048
1252.165977,5847.626942,-8956.491898,383.047749
1252.166306,5995.668130,-8586.388927,76.609550
1252.166635,5847.626942,-7772.162391,536.266849
1252.166964,6513.812290,-7179.997637,536.266849
1252.167293,6587.832884,-7105.977043,842.705048
1252.167622,6513.812290,-5921.647536,766.095498
1252.167951,6735.874072,-5329.482782,1532.190996
1252.168281,7328.038826,-4293.194464,1455.581446
1252.168610,8068.244768,-4441.235652,1225.752797
1252.168939,8438.347739,-4589.276840,1762.019645
1252.169268,8734.430116,-4589.276840,1149.143247
1252.169597,8734.430116,-5255.462188,995.924147
1252.169926,7846.182985,-5773.606348,689.485948
1252.170255,7254.018232,-6735.874072,536.266849
1252.170584,6735.874072,-7624.121203,612.876398
1252.170913,6587.832884,-7698.141797,1608.800546
1252.171242,7105.977043,-6883.915261,1608.800546
1252.171571,7328.038826,-6513.812290,2068.457845
1252.171900,7105.977043,-6957.935855,1991.848295
1252.172229,5773.606348,-7105.977043,689.485948
1252.172558,4959.379811,-7179.997637,153.219100
1252.172887,4959.379811,-7328.038826,-306.438199
1252.173216,5329.482782,-7254.018232,0.000000
1252.173545,6439.791695,-7105.977043,612.876398
1252.173874,6439.791695,-7254.018232,536.266849
1252.174203,6365.771101,-6883.915261,459.657299
1252.174532,6513.812290,-6883.915261,842.705048
1252.174861,7328.038826,-7402.059420,1455.581446
1252.175190,8142.265362,-6587.832884,2221.676944
1252.175519,8142.265362,-5773.606348,1991.848295
1252.175848,8364.327145,-4811.338623,1302.362347
1252.176177,8290.306550,-4589.276840,1378.971896
1252.176506,7994.224174,-4663.297435,995.924147
1252.176835,7624.121203,-5107.421000,1149.143247
1252.177164,7105.977043,-4885.359217,612.876398
1252.177493,7105.977043,-4811.338623,153.219100
1252.177822,6587.832884,-6069.688724,1072.533697
1252.178151,7031.956449,-7254.018232,1378.971896
1252.178480,7254.018232,-7846.182985,1378.971896
1252.178809,6735.874072,-7846.182985,1455.581446
1252.179138,5773.606348,-7846.182985,153.219100
1252.179467,5329.482782,-8512.368333,-229.828649
1252.179796,5477.523971,-9104.533087,153.219100
1252.180125,5625.565159,-8438.347739,0.000000
1252.180454,6143.709319,-6809.894666,306.438199
1252.180783,6809.894666,-6069.688724,766.095498
1252.181112,7031.956449,-5995.668130,1608.800546
1252.181441,7179.997637,-5921.647536,1685.410096
1252.181770,7328.038826,-6587.832884,2068.457845
1252.182099,8290.306550,-5625.565159,919.314598
1252.182428,7846.182985,-5329.482782,1149.143247
1252.182757,7328.038826,-5773.606348,919.314598
1252.183086,7698.141797,-5699.585753,612.876398
1252.183415,8142.265362,-5477.523971,1072.533697
1252.183744,7846.182985,-5329.482782,766.095498
1252.184073,7254.018232,-5921.647536,612.876398
1252.184402,7105.977043,-6365.771101,1762.019645
1252.184731,7031.956449,-7031.956449,1838.629195
1252.185060,6957.935855,-7105.977043,2374.896044
1252.185389,6365.771101,-7105.977043,1225.752797
1252.185718,6069.688724,-7105.977043,1072.533697
1252.186047,6439.791695,-6587.832884,689.485948
1252.186376,6809.894666,-7105.977043,536.266849
1252.186705,5921.647536,-6735.874072,306.438199
1252.187034,5847.626942,-7402.059420,383.047749
1252.187363,6143.709319,-7624.121203,536.266849
1252.187692,6217.729913,-7031.956449,689.485948
1252.188021,6587.832884,-6957.935855,2068.457845
1252.188350,7402.059420,-6883.915261,1685.410096
1252.188679,7698.141797,-6735.874072,1991.848295
1252.189008,8290.306550,-5625.565159,1838.629195
1252.189337,8290.306550,-4441.235652,1302.362347
1252.189667,8216.285956,-3997.112087,1225.752797
1252.189996,7550.100608,-4219.173869,995.924147
1252.190325,7624.121203,-5033.400406,1225.752797
1252.190654,7920.203579,-4737.318029,1302.362347
1252.190983,7476.080014,-5403.503377,842.705048
1252.191312,6957.935855,-6809.894666,1532.190996
1252.191641,6957.935855,-7698.141797,1455.581446
1252.191970,6365.771101,-8734.430116,919.314598
1252.192299,5329.482782,-8438.347739,689.485948
1252.192628,5477.523971,-8068.244768,0.000000
1252.192957,6439.791695,-8586.388927,0.000000
1252.193286,6661.853478,-7698.141797,689.485948
1252.193615,6883.915261,-7105.977043,612.876398
1252.193944,6957.935855,-5699.585753,689.485948
1252.194273,6809.894666,-6439.791695,1225.752797
1252.194602,7105.977043,-6217.729913,1225.752797
1252.194931,7105.977043,-5995.668130,1532.190996
1252.195260,7846.182985,-5921.647536,2068.457845
1252.195589,8734.430116,-5181.441594,2145.067394
1252.195918,8512.368333,-5181.441594,1378.971896
1252.196247,7698.141797,-5477.523971,919.314598
1252.196576,7328.038826,-5847.626942,383.047749
1252.196905,7105.977043,-6439.791695,1149.143247
1252.197234,6735.874072,-6661.853478,612.876398
1252.197563,6143.709319,-7031.956449,459.657299
1252.197892,6735.874072,-7328.038826,1455.581446
1252.198221,7550.100608,-7698.141797,1762.019645
1252.198550,7179.997637,-7550.100608,2528.115143
1252.198879,5995.668130,-7328.038826,1072.533697
1252.199208,5625.565159,-7179.997637,-229.828649
1252.199537,5551.544565,-7254.018232,0.000000
1252.199866,6069.688724,-7105.977043,229.828649
1252.200195,6809.894666,-7105.977043,766.095498
1252.200524,7179.997637,-6735.874072,689.485948
1252.200853,7254.018232,-6439.791695,919.314598
1252.201182,7254.018232,-6587.832884,1532.190996
1252.201511,7624.121203,-7402.059420,2374.896044
1252.201840,7698.141797,-6513.812290,1991.848295
1252.202169,7105.977043,-5255.462188,1455.581446
1252.202498,7105.977043,-4145.153275,1072.533697
1252.202827,7624.121203,-4367.215058,995.924147
1252.203156,7772.162391,-5181.441594,842.705048
1252.203485,7105.977043,-6143.709319,919.314598
1252.203814,6513.812290,-6069.688724,306.438199
1252.204143,6069.688724,-6291.750507,842.705048
1252.204472,6069.688724,-7328.038826,1072.533697
1252.204801,6883.915261,-8438.347739,1838.629195
1252.205130,7105.977043,-8882.471304,1838.629195
1252.205459,6661.853478,-8142.265362,919.314598
1252.205788,5995.668130,-7624.121203,689.485948
1252.206117,6439.791695,-7772.162391,306.438199
1252.206446,6735.874072,-7550.100608,76.609550
1252.206775,6661.853478,-7031.956449,536.266849
1252.207104,6735.874072,-6513.812290,536.266849
1252.207433,7254.018232,-5921.647536,1149.143247
1252.207762,7624.121203,-5255.462188,2221.676944
1252.208091,7105.977043,-5847.626942,1455.581446
1252.208420,7328.038826,-5699.585753,1378.971896
1252.208749,7624.121203,-5625.565159,1302.362347
1252.209078,7920.203579,-6291.750507,1838.629195
1252.209407,7402.059420,-5921.647536,1532.190996
1252.209736,7402.059420,-5477.523971,689.485948
1252.210065,7328.038826,-5847.626942,459.657299
1252.210394,6883.915261,-6661.853478,612.876398
1252.210723,6809.894666,-6587.832884,459.657299
1252.211052,7402.059420,-6661.853478,1378.971896
1252.211381,7254.018232,-6217.729913,1532.190996
1252.211710,6661.853478,-6587.832884,1378.971896
1252.212039,6587.832884,-7105.977043,1378.971896
1252.212368,6735.874072,-7476.080014,1072.533697
1252.212697,6365.771101,-7105.977043,0.000000
1252.213026,6069.688724,-6661.853478,536.266849
1252.213355,5847.626942,-6883.915261,0.000000
1252.213685,6735.874072,-7179.997637,0.000000
1252.214014,6365.771101,-7846.182985,766.095498
1252.214343,6513.812290,-7402.059420,1072.533697
1252.214672,7031.956449,-7402.059420,1838.629195
1252.215001,7105.977043,-6587.832884,2145.067394
1252.215330,7772.162391,-5773.606348,2451.505594
1252.215659,7994.224174,-4367.215058,1762.019645
1252.215988,8142.265362,-4071.132681,1455.581446
1252.216317,7994.224174,-4737.318029,1225.752797
1252.216646,7328.038826,-4367.215058,1302.362347
1252.216975,6883.915261,-5255.462188,76.609550
1252.217304,6439.791695,-6291.750507,76.609550
1252.217633,5921.647536,-7772.162391,766.095498
1252.217962,6217.729913,-8734.430116,1455.581446
1252.218291,6513.812290,-8660.409521,1608.800546
1252.218620,6291.750507,-8364.327145,1149.143247
1252.218949,4959.379811,-8512.368333,459.657299
1252.219278,5773.606348,-8290.306550,306.438199
1252.219607,6143.709319,-7772.162391,0.000000
1252.219936,6143.709319,-6735.874072,0.000000
1252.220265,6809.894666,-6365.771101,995.924147
1252.220594,7698.141797,-5699.585753,919.314598
1252.220923,8216.285956,-5625.565159,1915.238745
1252.221252,7920.203579,-5403.503377,2911.162892
1252.221581,8290.306550,-4885.359217,2068.457845
1252.221910,8290.306550,-4959.379811,2068.457845
1252.222239,8290.306550,-4885.359217,1532.190996
1252.222568,7328.038826,-5551.544565,612.876398
1252.222897,6883.915261,-6291.750507,919.314598
1252.223226,6809.894666,-6883.915261,459.657299
1252.223555,5995.668130,-6957.935855,459.657299
1252.223884,5847.626942,-6661.853478,536.266849
1252.224213,7031.956449,-6587.832884,1149.143247
1252.224542,7105.977043,-7031.956449,1762.019645
1252.224871,7179.997637,-7031.956449,1915.238745
1252.225200,7031.956449,-6809.894666,1532.190996
1252.225529,6809.894666,-6957.935855,919.314598
1252.225858,6143.709319,-6809.894666,689.485948
1252.226187,5847.626942,-7254.018232,76.609550
1252.226516,6069.688724,-7402.059420,536.266849
1252.226845,6513.812290,-7179.997637,306.438199
1252.227174,6587.832884,-8142.265362,0.000000
1252.227503,6291.750507,-7105.977043,612.876398
1252.227832,6513.812290,-7254.018232,459.657299
1252.228161,7179.997637,-6957.935855,1225.752797
1252.228490,7328.038826,-6143.709319,1838.629195
1252.228819,7698.141797,-5181.441594,2145.067394
1252.229148,8142.265362,-4589.276840,1608.800546
1252.229477,8290.306550,-4145.153275,1455.581446
1252.229806,8290.306550,-3923.091493,1072.533697
1252.230135,7994.224174,-3923.091493,1302.362347
1252.230464,7698.141797,-5329.482782,1532.190996
1252.230793,7328.038826,-5847.626942,1302.362347
1252.231122,6883.915261,-6439.791695,1072.533697
1252.231451,6957.935855,-7624.121203,1532.190996
1252.231780,6587.832884,-7920.203579,1762.019645
1252.232109,5995.668130,-8808.450710,612.876398
1252.232438,5255.462188,-8808.450710,0.000000
1252.232767,5181.441594,-8660.409521,-306.438199
1252.233096,5699.585753,-8142.265362,153.219100
1252.233425,6069.688724,-7105.977043,995.924147
1252.233754,6883.915261,-6735.874072,612.876398
1252.234083,7402.059420,-5773.606348,766.095498
1252.234412,7328.038826,-6291.750507,919.314598
1252.234741,7402.059420,-6069.688724,1762.019645
1252.235070,8142.265362,-5625.565159,1455.581446
1252.235399,7994.224174,-5699.585753,1455.581446
1252.235728,7846.182985,-5477.523971,1225.752797
1252.236057,7624.121203,-6143.709319,1149.143247
1252.236386,7624.121203,-5699.585753,1762.019645
1252.236715,7624.121203,-6143.709319,766.095498
1252.237044,7105.977043,-6217.729913,612.876398
1252.237373,5921.647536,-6883.915261,689.485948
1252.237702,6069.688724,-7772.162391,1149.143247
1252.238032,5847.626942,-7402.059420,1608.800546
1252.238361,6069.688724,-7179.997637,1378.971896
1252.238690,6069.688724,-7179.997637,1225.752797
1252.239019,6143.709319,-6365.771101,919.314598
1252.239348,5995.668130,-7254.018232,536.266849
1252.239677,6365.771101,-6809.894666,995.924147
1252.240006,6661.853478,-6883.915261,306.438199
1252.240335,6957.935855,-6217.729913,306.438199
1252.240664,6809.894666,-6809.894666,842.705048
1252.240993,7179.997637,-7254.018232,689.485948
1252.241322,7550.100608,-7031.956449,1685.410096
1252.241651,7031.956449,-7031.956449,1225.752797
1252.241980,7402.059420,-5995.668130,1685.410096
1252.242309,8068.244768,-5329.482782,1608.800546
1252.242638,8290.306550,-5551.544565,1685.410096
1252.242967,7772.162391,-4663.297435,1455.581446
1252.243296,7254.018232,-4441.235652,995.924147
1252.243625,7698.141797,-4441.235652,1685.410096
1252.243954,7402.059420,-4589.276840,1149.143247
1252.244283,6217.729913,-6143.709319,995.924147
1252.244612,5847.626942,-6883.915261,995.924147
1252.244941,6735.874072,-8068.244768,995.924147
1252.245270,6439.791695,-8290.306550,1225.752797
1252.245599,6143.709319,-8734.430116,1149.143247
1252.245928,6143.709319,-8438.347739,536.266849
1252.246257,6217.729913,-8142.265362,0.000000
1252.246586,5995.668130,-7402.059420,76.609550
1252.246915,6883.915261,-7254.018232,536.266849
1252.247244,7179.997637,-7031.956449,689.485948
1252.247573,7254.018232,-5995.668130,612.876398
1252.247902,7031.956449,-6069.688724,1302.362347
1252.248231,7254.018232,-5625.565159,1838.629195
1252.248560,8068.244768,-5699.585753,1915.238745
1252.248889,7846.182985,-5107.421000,2068.457845
1252.249218,7772.162391,-4959.379811,1685.410096
1252.249547,7624.121203,-5107.421000,383.047749
1252.249876,7328.038826,-5255.462188,766.095498
1252.250205,6587.832884,-6365.771101,766.095498
1252.250534,6809.894666,-6809.894666,1072.533697
1252.250863,7105.977043,-6661.853478,1455.581446
1252.251192,7105.977043,-7476.080014,1838.629195
1252.251521,7105.977043,-7772.162391,2068.457845
1252.251850,6661.853478,-7328.038826,1608.800546
1252.252179,6365.771101,-7179.997637,842.705048
1252.252508,5773.606348,-7105.977043,612.876398
1252.252837,5551.544565,-7105.977043,76.609550
1252.253166,5995.668130,-6809.894666,-76.609550
1252.253495,6291.750507,-6809.894666,-306.438199
1252.253824,6439.791695,-7105.977043,536.266849
1252.254153,6809.894666,-7402.059420,612.876398
1252.254482,6587.832884,-6883.915261,995.924147
1252.254811,7031.956449,-7105.977043,919.314598
1252.255140,7179.997637,-6661.853478,1072.533697
1252.255469,7846.182985,-6217.729913,1762.019645
1252.255798,8586.388927,-5699.585753,1762.019645
1252.256127,8586.388927,-4959.379811,1991.848295
1252.256456,7994.224174,-3997.112087,1378.971896
1252.256785,7254.018232,-4441.235652,383.047749
1252.257114,7105.977043,-5329.482782,689.485948
1252.257443,7254.018232,-5699.585753,1149.143247
1252.257772,7179.997637,-6069.688724,1149.143247
1252.258101,7105.977043,-6957.935855,1838.629195
1252.258430,7105.977043,-7105.977043,1455.581446
1252.258759,6439.791695,-7476.080014,919.314598
1252.259088,6217.729913,-7994.224174,306.438199
1252.259417,5995.668130,-8068.244768,459.657299
1252.259746,6217.729913,-7846.182985,229.828649
1252.260075,6217.729913,-7846.182985,153.219100
1252.260404,6809.894666,-7476.080014,612.876398
1252.260733,7328.038826,-6365.771101,536.266849
1252.261062,6883.915261,-6587.832884,1455.581446
1252.261391,6957.935855,-6291.750507,1302.362347
1252.261720,7402.059420,-5921.647536,1532.190996
1252.262050,8216.285956,-5181.441594,1072.533697
1252.262379,7772.162391,-4811.338623,1455.581446
1252.262708,7550.100608,-5181.441594,1302.362347
1252.263037,7994.224174,-5847.626942,612.876398
1252.263366,7624.121203,-6365.771101,536.266849
1252.263695,6883.915261,-7031.956449,1149.143247
1252.264024,6439.791695,-6809.894666,766.095498
1252.264353,6587.832884,-7624.121203,919.314598
1252.264682,6735.874072,-7698.141797,1762.019645
1252.265011,7328.038826,-8142.265362,2221.676944
1252.265340,6957.935855,-6883.915261,1915.238745
1252.265669,6143.709319,-6587.832884,612.876398
1252.265998,5995.668130,-6661.853478,306.438199
1252.266327,5921.647536,-6661.853478,153.219100
1252.266656,6143.709319,-6735.874072,536.266849
1252.266985,6735.874072,-6809.894666,612.876398
1252.267314,6365.771101,-7179.997637,689.485948
1252.267643,6291.750507,-7698.141797,995.924147
1252.267972,6513.812290,-7402.059420,1149.143247
1252.268301,7105.977043,-7179.997637,1149.143247
1252.268630,7179.997637,-6883.915261,1302.362347
1252.268960,7846.182985,-6291.750507,1838.629195
1252.269289,8512.368333,-5773.606348,1915.238745
1252.269618,7402.059420,-4367.215058,1532.190996
1252.269947,7550.100608,-4071.132681,995.924147
1252.270276,7254.018232,-4515.256246,612.876398
1252.270605,7550.100608,-5181.441594,1302.362347
1252.270934,7920.203579,-5847.626942,1762.019645
1252.271264,7920.203579,-6217.729913,1532.190996
1252.271593,7328.038826,-6217.729913,1378.971896
1252.271922,6513.812290,-7476.080014,1149.143247
1252.272251,6365.771101,-8290.306550,919.314598
1252.272580,6513.812290,-7698.141797,919.314598
1252.272909,6809.894666,-7550.100608,459.657299
1252.273239,6365.771101,-7476.080014,383.047749
1252.273568,6365.771101,-7624.121203,689.485948
1252.273897,6809.894666,-6957.935855,919.314598
1252.274226,6883.915261,-6809.894666,1378.971896
1252.274555,6587.832884,-6439.791695,1608.800546
1252.274884,6957.935855,-5625.565159,1762.019645
1252.275214,7402.059420,-5699.585753,1378.971896
1252.275543,8068.244768,-5403.503377,1685.410096
1252.275872,7476.080014,-5625.565159,995.924147
1252.276201,7550.100608,-5625.565159,919.314598
1252.276530,7105.977043,-6143.709319,459.657299
1252.276859,6809.894666,-7105.977043,306.438199
1252.277189,6587.832884,-6217.729913,1225.752797
1252.277518,6587.832884,-7476.080014,383.047749
1252.277847,6439.791695,-8142.265362,1685.410096
1252.278176,6809.894666,-7994.224174,2145.067394
1252.278505,6957.935855,-7179.997637,1225.752797
1252.278834,6143.709319,-6513.812290,1225.752797
1252.279163,5921.647536,-6883.915261,766.095498
1252.279493,6143.709319,-7179.997637,689.485948
1252.279822,6735.874072,-6661.853478,842.705048
1252.280151,6439.791695,-6291.750507,229.828649
1252.280480,6735.874072,-6291.750507,766.095498
1252.280809,6957.935855,-6587.832884,1378.971896
1252.281138,6957.935855,-7402.059420,1608.800546
1252.281468,7031.956449,-6809.894666,1608.800546
1252.281797,7624.121203,-6291.750507,1608.800546
1252.282126,7772.162391,-5699.585753,1378.971896
1252.282455,7476.080014,-5625.565159,995.924147
1252.282784,7105.977043,-5921.647536,842.705048
1252.283113,7031.956449,-5847.626942,689.485948
1252.283443,7105.977043,-5921.647536,842.705048
1252.283772,7031.956449,-5551.544565,1072.533697
1252.284101,7254.018232,-5699.585753,1302.362347
1252.284430,7254.018232,-6217.729913,1302.362347
1252.284759,6809.894666,-6291.750507,1838.629195
1252.285088,7105.977043,-7105.977043,1455.581446
1252.285417,7254.018232,-7328.038826,766.095498
1252.285747,6587.832884,-7105.977043,536.266849
1252.286076,6217.729913,-7105.977043,459.657299
1252.286405,6291.750507,-7624.121203,536.266849
1252.286734,6735.874072,-7772.162391,842.705048
1252.287063,7031.956449,-6883.915261,995.924147
1252.287392,6735.874072,-6439.791695,612.876398
1252.287722,6809.894666,-6217.729913,995.924147
1252.288051,6883.915261,-6513.812290,1762.019645
1252.288380,7402.059420,-6587.832884,1991.848295
1252.288709,7476.080014,-4959.379811,1532.190996
1252.289038,7402.059420,-4811.338623,1378.971896
1252.289367,7402.059420,-4811.338623,1455.581446
1252.289697,7550.100608,-5181.441594,842.705048
1252.290026,7328.038826,-5699.585753,995.924147
1252.290355,7550.100608,-6069.688724,766.095498
1252.290684,7476.080014,-5995.668130,1302.362347
1252.291013,7179.997637,-6883.915261,919.314598
1252.291342,7105.977043,-6957.935855,1532.190996
1252.291671,7031.956449,-7402.059420,1302.362347
1252.292001,6513.812290,-7772.162391,919.314598
1252.292330,5847.626942,-7550.100608,995.924147
1252.292659,5921.647536,-7994.224174,306.438199
1252.292988,6217.729913,-7994.224174,0.000000
1252.293317,5773.606348,-7179.997637,536.266849
1252.293646,5995.668130,-6883.915261,383.047749
1252.293976,6365.771101,-6809.894666,1072.533697
1252.294305,7105.977043,-6809.894666,1225.752797
1252.294634,6809.894666,-6809.894666,1378.971896
1252.294963,6957.935855,-6439.791695,1225.752797
1252.295292,7846.182985,-6439.791695,1072.533697
1252.295621,7846.182985,-5921.647536,1608.800546
1252.295951,7846.182985,-5477.523971,1455.581446
1252.296280,7920.203579,-4737.318029,1225.752797
1252.296609,7624.121203,-5329.482782,1149.143247
1252.296938,7476.080014,-5477.523971,766.095498
1252.297267,6809.894666,-5847.626942,919.314598
1252.297596,6957.935855,-6513.812290,995.924147
1252.297926,6661.853478,-7031.956449,1072.533697
1252.298255,5773.606348,-7476.080014,1225.752797
1252.298584,6587.832884,-7772.162391,1762.019645
1252.298913,6883.915261,-7994.224174,689.485948
1252.299242,6735.874072,-7328.038826,383.047749
1252.299571,6365.771101,-7254.018232,842.705048
1252.299900,7105.977043,-7476.080014,536.266849
1252.300230,7105.977043,-7254.018232,612.876398
1252.300559,6661.853478,-6661.853478,919.314598
1252.300888,7105.977043,-5995.668130,1225.752797
1252.301217,7698.141797,-6143.709319,1991.848295
1252.301546,7846.182985,-4885.359217,2374.896044
1252.301875,7772.162391,-4885.359217,1532.190996
1252.302205,7920.203579,-4219.173869,1762.019645
1252.302534,7994.224174,-4663.297435,1149.143247
1252.302863,7105.977043,-5551.544565,1302.362347
1252.303192,6957.935855,-5477.523971,689.485948
1252.303521,6661.853478,-7031.956449,842.705048
1252.303850,6513.812290,-7105.977043,842.705048
1252.304180,5995.668130,-7994.224174,919.314598
1252.304509,5773.606348,-8142.265362,1685.410096
1252.304838,6439.791695,-8364.327145,1608.800546
1252.305167,6439.791695,-8068.244768,1302.362347
1252.305496,6291.750507,-7550.100608,842.705048
1252.305825,5847.626942,-7698.141797,919.314598
1252.306154,6291.750507,-7105.977043,306.438199
1252.306484,6365.771101,-7031.956449,0.000000
1252.306813,6217.729913,-6883.915261,612.876398
1252.307142,6439.791695,-7105.977043,229.828649
1252.307471,6439.791695,-6883.915261,1225.752797
1252.307800,6513.812290,-7328.038826,1225.752797
1252.308129,7105.977043,-6365.771101,1302.362347
1252.308459,7994.224174,-6217.729913,1838.629195
1252.308788,8512.368333,-5921.647536,2528.115143
1252.309117,8438.347739,-5477.523971,2528.115143
1252.309446,8142.265362,-4737.318029,1455.581446
1252.309775,7402.059420,-4737.318029,1149.143247
1252.310104,7254.018232,-5107.421000,919.314598
1252.310434,7402.059420,-4885.359217,536.266849
1252.310763,7476.080014,-5847.626942,1378.971896
1252.311092,7105.977043,-6513.812290,1302.362347
1252.311421,6957.935855,-6883.915261,1302.362347
1252.311750,6735.874072,-6957.935855,995.924147
1252.312079,7031.956449,-7994.224174,153.219100
1252.312409,6439.791695,-8364.327145,536.266849
1252.312738,6291.750507,-7920.203579,0.000000
1252.313067,6439.791695,-7994.224174,229.828649
1252.313396,6883.915261,-7031.956449,1149.143247
1252.313725,7179.997637,-7476.080014,689.485948
1252.314054,7031.956449,-6883.915261,1072.533697
1252.314383,6883.915261,-6365.771101,766.095498
1252.314713,7105.977043,-5921.647536,1532.190996
1252.315042,7402.059420,-5329.482782,1455.581446
1252.315371,7772.162391,-5329.482782,1455.581446
1252.315700,7698.141797,-4663.297435,1532.190996
1252.316029,7846.182985,-3997.112087,919.314598
1252.316358,7402.059420,-5403.503377,842.705048
1252.316688,7624.121203,-5329.482782,919.314598
1252.317017,7254.018232,-6365.771101,995.924147
1252.317346,6809.894666,-7105.977043,919.314598
1252.317675,6735.874072,-7624.121203,1378.971896
1252.318004,6809.894666,-7994.224174,1685.410096
1252.318333,6809.894666,-8068.244768,2298.286494
1252.318663,6365.771101,-7698.141797,919.314598
1252.318992,5551.544565,-7402.059420,766.095498
1252.319321,5181.441594,-7402.059420,76.609550
1252.319650,5921.647536,-7476.080014,0.000000
1252.319979,5699.585753,-7105.977043,76.609550
1252.320308,6143.709319,-7105.977043,306.438199
1252.320637,6513.812290,-6735.874072,612.876398
1252.320967,7105.977043,-7846.182985,1225.752797
1252.321296,7476.080014,-7550.100608,1685.410096
1252.321625,7402.059420,-6365.771101,919.314598
1252.321954,7698.141797,-5921.647536,1302.362347
1252.322283,8142.265362,-5107.421000,1378.971896
1252.322612,8216.285956,-5699.585753,2374.896044
1252.322942,8364.327145,-4885.359217,1302.362347
1252.323271,7920.203579,-4589.276840,1225.752797
1252.323600,7476.080014,-4589.276840,1532.190996
1252.323929,7254.018232,-5107.421000,1455.581446
1252.324258,6883.915261,-5847.626942,1302.362347
1252.324587,6291.750507,-6587.832884,1225.752797
1252.324917,5477.523971,-6883.915261,1149.143247
1252.325246,6365.771101,-7254.018232,766.095498
1252.325575,6291.750507,-7846.182985,1838.629195
1252.325904,6365.771101,-8882.471304,536.266849
1252.326233,6513.812290,-8068.244768,612.876398
1252.326562,7105.977043,-7920.203579,536.266849
1252.326892,7254.018232,-7105.977043,612.876398
1252.327221,7328.038826,-6365.771101,919.314598
1252.327550,7328.038826,-5921.647536,995.924147
1252.327879,7179.997637,-5699.585753,1149.143247
1252.328208,7476.080014,-5551.544565,1455.581446
1252.328537,7920.203579,-5033.400406,1608.800546
1252.328866,7846.182985,-5255.462188,1378.971896
1252.329196,7402.059420,-4737.318029,1149.143247
1252.329525,7031.956449,-5699.585753,1149.143247
1252.329854,6735.874072,-6291.750507,306.438199
1252.330183,7328.038826,-6217.729913,1225.752797
1252.330512,6957.935855,-7105.977043,1378.971896
1252.330841,7105.977043,-7105.977043,1225.752797
1252.331171,6513.812290,-7624.121203,1608.800546
1252.331500,6513.812290,-8216.285956,919.314598
1252.331829,5995.668130,-7402.059420,1225.752797
1252.332158,6291.750507,-7179.997637,842.705048
1252.332487,6439.791695,-7179.997637,1072.533697
1252.332816,6217.729913,-6735.874072,459.657299
1252.333146,5847.626942,-7105.977043,536.266849
1252.333475,5995.668130,-6883.915261,0.000000
1252.333804,6069.688724,-7254.018232,76.609550
1252.334133,6365.771101,-7179.997637,76.609550
1252.334462,6439.791695,-7920.203579,1072.533697
1252.334791,7254.018232,-7920.203579,1149.143247
1252.335120,7624.121203,-6735.874072,995.924147
1252.335450,7994.224174,-6439.791695,1608.800546
1252.335779,8142.265362,-5625.565159,1685.410096
1252.336108,7772.162391,-4737.318029,919.314598
1252.336437,7550.100608,-4811.338623,995.924147
1252.336766,7105.977043,-4811.338623,536.266849
1252.337095,7328.038826,-4737.318029,1072.533697
1252.337425,7550.100608,-5255.462188,1532.190996
1252.337754,8290.306550,-6069.688724,1685.410096
1252.338083,6809.894666,-6365.771101,1455.581446
1252.338412,6365.771101,-7031.956449,1378.971896
1252.338741,6365.771101,-7994.224174,1072.533697
1252.339070,5995.668130,-8290.306550,1532.190996
1252.339400,6661.853478,-7772.162391,459.657299
1252.339729,6217.729913,-7550.100608,306.438199
1252.340058,6291.750507,-7254.018232,229.828649
1252.340387,6809.894666,-7402.059420,842.705048
1252.340716,7105.977043,-6957.935855,1532.190996
1252.341045,7254.018232,-6143.709319,1302.362347
1252.341375,7105.977043,-6143.709319,1378.971896
1252.341704,7402.059420,-5699.585753,1685.410096
1252.342033,7920.203579,-5107.421000,1915.238745
1252.342362,7994.224174,-4219.173869,1915.238745
1252.342691,8068.244768,-4663.297435,1149.143247
1252.343020,7920.203579,-4885.359217,689.485948
1252.343349,7402.059420,-5921.647536,689.485948
1252.343679,6957.935855,-6291.750507,1149.143247
1252.344008,6587.832884,-6661.853478,1225.752797
1252.344337,6513.812290,-7772.162391,1072.533697
1252.344666,6365.771101,-7550.100608,1532.190996
1252.344995,6513.812290,-7402.059420,1149.143247
1252.345324,5995.668130,-7624.121203,1685.410096
1252.345654,5995.668130,-7254.018232,842.705048
1252.345983,6143.709319,-7179.997637,612.876398
1252.346312,5995.668130,-7105.977043,306.438199
1252.346641,6217.729913,-7105.977043,689.485948
1252.346970,6513.812290,-7105.977043,459.657299
1252.347299,6365.771101,-7328.038826,383.047749
1252.347629,6217.729913,-8068.244768,1072.533697
1252.347958,6587.832884,-7994.224174,1149.143247
1252.348287,6809.894666,-7328.038826,995.924147
1252.348616,7179.997637,-6439.791695,1072.533697
1252.348945,7179.997637,-6143.709319,1915.238745
1252.349274,8512.368333,-5255.462188,1532.190996
1252.349603,8882.471304,-4441.235652,1302.362347
1252.349933,8364.327145,-3849.070898,842.705048
1252.350262,7550.100608,-4367.215058,689.485948
1252.350591,7402.059420,-5551.544565,459.657299
1252.350920,7179.997637,-6661.853478,1072.533697
1252.351249,6513.812290,-6883.915261,1455.581446
1252.351578,6735.874072,-7772.162391,1302.362347
1252.351908,6291.750507,-8290.306550,1302.362347
1252.352237,6365.771101,-8734.430116,1225.752797
1252.352566,6365.771101,-8808.450710,1149.143247
1252.352895,6735.874072,-7179.997637,919.314598
1252.353224,5995.668130,-7105.977043,536.266849
1252.353553,6291.750507,-6883.915261,536.266849
1252.353883,7105.977043,-6439.791695,919.314598
1252.354212,7476.080014,-5477.523971,1225.752797
1252.354541,7402.059420,-5033.400406,1838.629195
1252.354870,7550.100608,-5033.400406,1915.238745
1252.355199,7846.182985,-4959.379811,1378.971896
1252.355528,7846.182985,-5107.421000,1455.581446
1252.355858,7772.162391,-4515.256246,689.485948
1252.356187,7624.121203,-5551.544565,1149.143247
1252.356516,7698.141797,-5847.626942,842.705048
1252.356845,7105.977043,-6365.771101,689.485948
1252.357174,6809.894666,-6957.935855,1225.752797
1252.357503,6587.832884,-7402.059420,1378.971896
1252.357832,6217.729913,-7920.203579,1072.533697
1252.358162,6069.688724,-7994.224174,1225.752797
1252.358491,5847.626942,-7328.038826,1302.362347
1252.358820,6143.709319,-7031.956449,1532.190996
1252.359149,6587.832884,-6957.935855,1225.752797
1252.359478,6513.812290,-6513.812290,689.485948
1252.359807,6069.688724,-6365.771101,153.219100
1252.360137,6143.709319,-6883.915261,153.219100
1252.360466,7105.977043,-7476.080014,919.314598
1252.360795,7105.977043,-7994.224174,995.924147
1252.361124,7179.997637,-8068.244768,1302.362347
1252.361453,7254.018232,-7698.141797,1302.362347
1252.361782,7105.977043,-6883.915261,1302.362347
1252.362112,7254.018232,-6883.915261,1225.752797
1252.362441,7920.203579,-6143.709319,1225.752797
1252.362770,8216.285956,-5551.544565,1378.971896
1252.363099,7994.224174,-4663.297435,612.876398
1252.363428,7994.224174,-4293.194464,1072.533697
1252.363757,7402.059420,-4737.318029,1149.143247
1252.364086,7698.141797,-5625.565159,766.095498
1252.364416,7105.977043,-6587.832884,1685.410096
1252.364745,7105.977043,-6957.935855,1302.362347
1252.365074,7105.977043,-7994.224174,689.485948
1252.365403,6217.729913,-8364.327145,1072.533697
1252.365732,5847.626942,-8512.368333,612.876398
1252.366061,6069.688724,-8290.306550,153.219100
1252.366391,6143.709319,-7254.018232,1149.143247
1252.366720,6513.812290,-7550.100608,383.047749
1252.367049,6513.812290,-6809.894666,766.095498
1252.367378,6661.853478,-6587.832884,1225.752797
1252.367707,6513.812290,-6143.709319,1455.581446
1252.368036,7550.100608,-4737.318029,2374.896044
1252.368366,7772.162391,-4441.235652,2374.896044
1252.368695,7772.162391,-4515.256246,1302.362347
1252.369024,7550.100608,-4737.318029,1378.971896
1252.369353,7920.203579,-5329.482782,919.314598
1252.369682,7994.224174,-5255.462188,919.314598
1252.370011,7772.162391,-6069.688724,1225.752797
1252.370340,7328.038826,-6587.832884,919.314598
1252.370669,6809.894666,-7254.018232,919.314598
1252.370998,6439.791695,-7772.162391,1455.581446
1252.371327,6291.750507,-8216.285956,995.924147
1252.371656,6291.750507,-8216.285956,1532.190996
1252.371985,6069.688724,-7920.203579,842.705048
1252.372314,5699.585753,-6809.894666,842.705048
1252.372643,5625.565159,-7328.038826,766.095498
1252.372972,5995.668130,-6809.894666,689.485948
1252.373301,6439.791695,-6291.750507,766.095498
1252.373630,6957.935855,-6217.729913,766.095498
1252.373959,6957.935855,-6513.812290,842.705048
1252.374288,6513.812290,-7476.080014,1225.752797
1252.374617,6957.935855,-8512.368333,1532.190996
1252.374946,7105.977043,-7846.182985,1225.752797
1252.375275,7031.956449,-6661.853478,1072.533697
1252.375604,7328.038826,-6217.729913,1685.410096
1252.375933,8068.244768,-6217.729913,1149.143247
1252.376262,7994.224174,-5773.606348,1225.752797
1252.376591,7772.162391,-4737.318029,689.485948
1252.376920,7328.038826,-4293.194464,229.828649
1252.377249,7402.059420,-4737.318029,919.314598
1252.377578,6883.915261,-5625.565159,995.924147
1252.377907,6957.935855,-6439.791695,1302.362347
1252.378236,7105.977043,-7031.956449,1225.752797
1252.378565,6809.894666,-7624.121203,459.657299
1252.378894,6291.750507,-8586.388927,1302.362347
1252.379223,6217.729913,-8956.491898,536.266849
1252.379552,6143.709319,-8734.430116,76.609550
1252.379881,5773.606348,-8068.244768,229.828649
1252.380210,6587.832884,-7624.121203,306.438199
1252.380539,6809.894666,-6957.935855,1225.752797
1252.380868,7550.100608,-5921.647536,1378.971896
1252.381197,7254.018232,-5477.523971,1532.190996
1252.381526,7920.203579,-3923.091493,1225.752797
1252.381855,7772.162391,-4367.215058,1762.019645
1252.382184,7920.203579,-4293.194464,1838.629195
1252.382513,8068.244768,-4145.153275,1532.190996
1252.382842,7994.224174,-4663.297435,1302.362347
1252.383171,7920.203579,-5699.585753,842.705048
1252.383500,6957.935855,-6809.894666,919.314598
1252.383829,6587.832884,-7846.182985,612.876398
1252.384158,6661.853478,-7846.182985,612.876398
1252.384487,6291.750507,-7920.203579,1685.410096
1252.384816,6217.729913,-8660.409521,1838.629195
1252.385145,6809.894666,-7994.224174,1762.019645
1252.385474,6661.853478,-7550.100608,1608.800546
1252.385803,6291.750507,-6513.812290,383.047749
1252.386132,5255.462188,-6069.688724,842.705048
1252.386461,5995.668130,-5773.606348,0.000000
1252.386790,6661.853478,-5921.647536,76.609550
1252.387119,6809.894666,-6217.729913,995.924147
1252.387448,7550.100608,-6439.791695,1455.581446
1252.387777,7920.203579,-6957.935855,1838.629195
1252.388106,7846.182985,-7105.977043,1915.238745
1252.388435,7105.977043,-7254.018232,1378.971896
1252.388764,7105.977043,-6513.812290,1225.752797
1252.389093,7254.018232,-5995.668130,995.924147
1252.389422,7179.997637,-6291.750507,842.705048
1252.389751,7254.018232,-5255.462188,689.485948
1252.390080,7105.977043,-5255.462188,919.314598
1252.390409,6957.935855,-4959.379811,536.266849
1252.390738,6513.812290,-5995.668130,995.924147
1252.391067,6661.853478,-6439.791695,689.485948
1252.391396,6661.853478,-6217.729913,766.095498
1252.391725,7105.977043,-7105.977043,995.924147
1252.392054,6661.853478,-7920.203579,766.095498
1252.392383,6809.894666,-8216.285956,612.876398
1252.392712,6809.894666,-8216.285956,383.047749
1252.393041,7105.977043,-8216.285956,76.609550
1252.393370,7031.956449,-7846.182985,689.485948
1252.393699,7105.977043,-7254.018232,995.924147
1252.394028,7402.059420,-6365.771101,842.705048
1252.394357,7031.956449,-5477.523971,1072.533697
1252.394686,7328.038826,-5773.606348,1608.800546
1252.395015,7550.100608,-4737.318029,1762.019645
1252.395344,7476.080014,-4293.194464,1455.581446
1252.395673,7105.977043,-4367.215058,1072.533697
1252.396002,7550.100608,-4737.318029,995.924147
1252.396331,7550.100608,-6217.729913,1149.143247
1252.396660,7254.018232,-6809.894666,1455.581446
1252.396989,7105.977043,-6661.853478,919.314598
1252.397318,6439.791695,-7179.997637,842.705048
1252.397647,6735.874072,-7476.080014,1455.581446
1252.397976,6957.935855,-7920.203579,1608.800546
1252.398305,6883.915261,-7550.100608,1302.362347
1252.398634,6661.853478,-7328.038826,1455.581446
1252.398963,6291.750507,-6883.915261,842.705048
1252.399292,5995.668130,-6587.832884,459.657299
1252.399621,6069.688724,-6809.894666,76.609550
1252.399950,5995.668130,-6513.812290,0.000000
1252.400279,5847.626942,-6291.750507,0.000000
1252.400608,5921.647536,-6957.935855,536.266849
1252.400937,6661.853478,-7105.977043,383.047749
1252.401266,6957.935855,-7624.121203,995.924147
1252.401595,6883.915261,-7179.997637,1455.581446
1252.401924,7254.018232,-7105.977043,1455.581446
1252.402253,8142.265362,-6513.812290,1991.848295
1252.402582,8882.471304,-5403.503377,1685.410096
1252.402911,8586.388927,-4737.318029,2068.457845
1252.403240,8142.265362,-3775.050304,1149.143247
1252.403569,7920.203579,-4219.173869,1072.533697
1252.403898,7031.956449,-5255.462188,1225.752797
1252.404227,6365.771101,-5255.462188,1225.752797
1252.404556,6513.812290,-6439.791695,1149.143247
1252.404885,6661.853478,-7031.956449,1762.019645
1252.405214,5773.606348,-8586.388927,1149.143247
1252.405543,5699.585753,-9326.594869,766.095498
1252.405872,6513.812290,-8882.471304,0.000000
1252.406201,5847.626942,-7994.224174,-153.219100
1252.406530,6217.729913,-8290.306550,0.000000
1252.406859,6809.894666,-7179.997637,612.876398
1252.407188,7328.038826,-6513.812290,995.924147
1252.407517,8068.244768,-6069.688724,612.876398
1252.407846,7624.121203,-5847.626942,1532.190996
1252.408175,8142.265362,-5255.462188,1685.410096
1252.408504,7624.121203,-5181.441594,1532.190996
1252.408833,7402.059420,-5329.482782,1302.362347
1252.409162,7476.080014,-5033.400406,1072.533697
1252.409491,7550.100608,-5699.585753,995.924147
1252.409820,7550.100608,-5847.626942,842.705048
1252.410149,7328.038826,-7031.956449,612.876398
1252.410478,6809.894666,-7105.977043,689.485948
1252.410807,6143.709319,-7105.977043,689.485948
1252.411136,5995.668130,-8068.244768,1149.143247
1252.411465,6957.935855,-8068.244768,2221.676944
1252.411794,7328.038826,-7698.141797,1762.019645
1252.412123,6883.915261,-6661.853478,1455.581446
1252.412452,5995.668130,-6735.874072,1149.143247
1252.412781,6069.688724,-6513.812290,536.266849
1252.413110,6217.729913,-6365.771101,153.219100
1252.413439,6069.688724,-6069.688724,229.828649
1252.413768,6143.709319,-6735.874072,0.000000
1252.414097,6735.874072,-7105.977043,612.876398
1252.414426,6957.935855,-7920.203579,1149.143247
1252.414755,6809.894666,-7254.018232,919.314598
1252.415084,7254.018232,-6883.915261,1455.581446
1252.415413,7846.182985,-6809.894666,1378.971896
1252.415742,8512.368333,-6069.688724,1991.848295
1252.416071,8734.430116,-4959.379811,1685.410096
1252.416400,8586.388927,-4367.215058,1838.629195
1252.416729,7994.224174,-3256.906145,1532.190996
1252.417058,7698.141797,-4145.153275,1225.752797
1252.417387,7105.977043,-4959.379811,1302.362347
1252.417716,6587.832884,-6143.709319,1225.752797
1252.418045,5921.647536,-7105.977043,1762.019645
1252.418374,5995.668130,-8290.306550,1225.752797
1252.418703,5551.544565,-8882.471304,842.705048
1252.419032,5477.523971,-8512.368333,306.438199
1252.419361,6069.688724,-9104.533087,153.219100
1252.419690,6217.729913,-8364.327145,76.609550
1252.420019,6513.812290,-6883.915261,383.047749
1252.420348,7105.977043,-6587.832884,689.485948
1252.420677,7624.121203,-5403.503377,919.314598
1252.421006,7624.121203,-5033.400406,1225.752797
1252.421335,7772.162391,-5551.544565,1685.410096
1252.421664,8068.244768,-5255.462188,1532.190996
1252.421993,7994.224174,-5107.421000,1455.581446
1252.422322,7994.224174,-5107.421000,1378.971896
1252.422651,7772.162391,-5847.626942,842.705048
1252.422980,7328.038826,-5847.626942,995.924147
1252.423309,7031.956449,-6217.729913,842.705048
1252.423638,6809.894666,-6883.915261,306.438199
1252.423967,6957.935855,-6809.894666,995.924147
1252.424296,6587.832884,-7179.997637,1149.143247
1252.424625,6661.853478,-7846.182985,1455.581446
1252.424954,6587.832884,-7550.100608,2145.067394
1252.425283,6587.832884,-7105.977043,1302.362347
1252.425612,6513.812290,-6883.915261,1225.752797
1252.425941,5847.626942,-6661.853478,536.266849
1252.426270,5699.585753,-7179.997637,229.828649
1252.426599,5847.626942,-6735.874072,-153.219100
1252.426928,5995.668130,-7328.038826,153.219100
1252.427257,6365.771101,-7328.038826,536.266849
1252.427586,6809.894666,-7920.203579,1072.533697
1252.427916,7179.997637,-7550.100608,1225.752797
1252.428245,7105.977043,-7624.121203,1455.581446
1252.428574,7920.203579,-7179.997637,2145.067394
1252.428903,8364.327145,-5551.544565,1072.533697
1252.429232,7846.182985,-5107.421000,1302.362347
1252.429561,7328.038826,-4219.173869,766.095498
1252.429890,7550.100608,-4219.173869,459.657299
1252.430219,7550.100608,-4515.256246,919.314598
1252.430548,7179.997637,-4737.318029,1302.362347
1252.430877,7105.977043,-5847.626942,1608.800546
1252.431206,7550.100608,-6513.812290,2145.067394
1252.431535,7031.956449,-7402.059420,1532.190996
1252.431864,6069.688724,-8290.306550,1455.581446
1252.432193,5921.647536,-8734.430116,995.924147
1252.432522,5551.544565,-8660.409521,76.609550
1252.432851,5181.441594,-7772.162391,383.047749
1252.433180,5921.647536,-7772.162391,229.828649
1252.433509,6957.935855,-7254.018232,612.876398
1252.433838,6957.935855,-6217.729913,689.485948
1252.434167,7031.956449,-5847.626942,1149.143247
1252.434496,7624.121203,-4959.379811,995.924147
1252.434825,7624.121203,-5477.523971,919.314598
1252.435154,7402.059420,-5255.462188,1149.143247
1252.435483,7328.038826,-5329.482782,1532.190996
1252.435812,8068.244768,-5477.523971,1378.971896
1252.436141,8290.306550,-5847.626942,1378.971896
1252.436470,7624.121203,-6217.729913,1072.533697
1252.436799,6957.935855,-6587.832884,995.924147
1252.437128,7328.038826,-6587.832884,383.047749
1252.437457,7105.977043,-6809.894666,1072.533697
1252.437786,6809.894666,-6661.853478,1685.410096
1252.438115,7105.977043,-6957.935855,1915.238745
1252.438444,6883.915261,-6587.832884,1685.410096
1252.438773,6143.709319,-6661.853478,1072.533697
1252.439102,5847.626942,-6661.853478,1149.143247
1252.439431,5921.647536,-7105.977043,612.876398
1252.439760,5773.606348,-6957.935855,76.609550
1252.440089,5625.565159,-7105.977043,153.219100
1252.440418,6439.791695,-7402.059420,229.828649
1252.440747,6809.894666,-8142.265362,536.266849
1252.441076,6587.832884,-7698.141797,1225.752797
1252.441405,6735.874072,-7550.100608,995.924147
1252.441734,6957.935855,-7550.100608,1302.362347
1252.442063,7772.162391,-6217.729913,1991.848295
1252.442392,8438.347739,-5477.523971,1838.629195
1252.442721,8882.471304,-4737.318029,1685.410096
1252.443050,8660.409521,-3330.926739,1455.581446
1252.443379,7920.203579,-4145.153275,1072.533697
1252.443708,7624.121203,-3775.050304,1072.533697
1252.444037,6957.935855,-5329.482782,766.095498
1252.444366,6735.874072,-6957.935855,1072.533697
1252.444695,6365.771101,-7550.100608,1225.752797
1252.445024,6217.729913,-8660.409521,842.705048
1252.445353,6069.688724,-9400.615463,1072.533697
1252.445682,5699.585753,-9178.553681,766.095498
1252.446011,5625.565159,-9178.553681,153.219100
1252.446340,5773.606348,-7846.182985,0.000000
1252.446669,6513.812290,-7254.018232,459.657299
1252.446998,6735.874072,-6883.915261,153.219100
1252.447327,6513.812290,-5329.482782,689.485948
1252.447656,7105.977043,-5329.482782,1149.143247
1252.447985,8142.265362,-5477.523971,1915.238745
1252.448314,8364.327145,-4959.379811,1991.848295
1252.448643,8364.327145,-5551.544565,1838.629195
1252.448972,7920.203579,-5329.482782,1225.752797
1252.449301,7476.080014,-5773.606348,1072.533697
1252.449630,7105.977043,-5551.544565,995.924147
1252.449959,7105.977043,-6365.771101,612.876398
1252.450288,6809.894666,-7031.956449,536.266849
1252.450617,6661.853478,-6883.915261,766.095498
1252.450946,6661.853478,-7698.141797,1149.143247
1252.451275,6291.750507,-7476.080014,1455.581446
1252.451604,6513.812290,-7031.956449,1149.143247
1252.451933,6365.771101,-6883.915261,1302.362347
1252.452262,6143.709319,-5847.626942,612.876398
1252.452591,6809.894666,-6735.874072,689.485948
1252.452920,7550.100608,-5551.544565,1149.143247
1252.453249,7105.977043,-6217.729913,919.314598
1252.453578,6957.935855,-6291.750507,919.314598
1252.453907,7031.956449,-6291.750507,766.095498
1252.454236,7031.956449,-7031.956449,842.705048
1252.454565,6957.935855,-7624.121203,1455.581446
1252.454894,6809.894666,-7402.059420,1915.238745
1252.455223,7328.038826,-7328.038826,1608.800546
1252.455552,7105.977043,-6217.729913,1225.752797
1252.455881,6883.915261,-6291.750507,1225.752797
1252.456210,6809.894666,-5699.585753,689.485948
1252.456539,7105.977043,-5033.400406,536.266849
1252.456868,7031.956449,-4811.338623,229.828649
1252.457197,7179.997637,-4219.173869,842.705048
1252.457526,7624.121203,-5181.441594,919.314598
1252.457855,7994.224174,-6217.729913,1149.143247
1252.458184,7328.038826,-7179.997637,1838.629195
1252.458513,7105.977043,-7994.224174,1378.971896
1252.458842,6735.874072,-8512.368333,1149.143247
1252.459171,6069.688724,-8290.306550,459.657299
1252.459500,6143.709319,-8068.244768,229.828649
1252.459829,6513.812290,-8142.265362,919.314598
1252.460158,6883.915261,-7846.182985,1455.581446
1252.460487,6365.771101,-6735.874072,536.266849
1252.460816,5995.668130,-5699.585753,766.095498
1252.461145,6513.812290,-5847.626942,1149.143247
1252.461474,6957.935855,-6291.750507,1225.752797
1252.461803,7476.080014,-5699.585753,1838.629195
1252.462132,8142.265362,-4663.297435,1685.410096
1252.462461,8290.306550,-4441.235652,1072.533697
1252.462790,7994.224174,-5403.503377,1378.971896
1252.463119,7772.162391,-6143.709319,1838.629195
1252.463448,8142.265362,-6809.894666,536.266849
1252.463777,7105.977043,-6957.935855,1302.362347
1252.464106,6883.915261,-7179.997637,1149.143247
1252.464435,6513.812290,-7772.162391,1302.362347
1252.464764,6513.812290,-7105.977043,1532.190996
1252.465093,6069.688724,-7550.100608,919.314598
1252.465422,5477.523971,-6883.915261,842.705048
1252.465751,5477.523971,-6587.832884,229.828649
1252.466080,5847.626942,-6587.832884,153.219100
1252.466409,6217.729913,-6365.771101,536.266849
1252.466738,6217.729913,-6587.832884,229.828649
1252.467067,7105.977043,-6957.935855,1072.533697
1252.467396,7550.100608,-6291.750507,1149.143247
1252.467725,7328.038826,-7105.977043,1685.410096
1252.468054,7328.038826,-7031.956449,1762.019645
1252.468383,7402.059420,-6587.832884,1455.581446
1252.468712,7254.018232,-6587.832884,1532.190996
1252.469041,7476.080014,-5625.565159,1608.800546
1252.469370,8068.244768,-5773.606348,1685.410096
1252.469699,7772.162391,-4145.153275,919.314598
1252.470028,6883.915261,-4737.318029,1225.752797
1252.470357,6513.812290,-5329.482782,459.657299
1252.470686,6661.853478,-5477.523971,1149.143247
1252.471015,6957.935855,-6513.812290,766.095498
1252.471344,6587.832884,-6661.853478,612.876398
1252.471673,6735.874072,-8142.265362,1455.581446
1252.472002,6809.894666,-8660.409521,1378.971896
1252.472331,6217.729913,-8364.327145,842.705048
1252.472660,5921.647536,-8438.347739,459.657299
1252.472989,6217.729913,-8290.306550,76.609550
1252.473318,7105.977043,-8364.327145,766.095498
1252.473647,7105.977043,-7179.997637,919.314598
1252.473976,7328.038826,-5995.668130,1149.143247
1252.474305,7624.121203,-5477.523971,1378.971896
1252.474634,7994.224174,-5033.400406,1455.581446
1252.474963,7402.059420,-5107.421000,1838.629195
1252.475293,7846.182985,-5033.400406,1838.629195
1252.475622,7476.080014,-4663.297435,919.314598
1252.475951,7254.018232,-5033.400406,229.828649
1252.476280,7179.997637,-5403.503377,919.314598
1252.476609,7698.141797,-6661.853478,1149.143247
1252.476938,7402.059420,-6883.915261,689.485948
1252.477267,6735.874072,-7179.997637,689.485948
1252.477596,6587.832884,-7402.059420,1149.143247
1252.477925,7105.977043,-7772.162391,1378.971896
1252.478254,6957.935855,-7624.121203,1762.019645
1252.478583,6587.832884,-6883.915261,1072.533697
1252.478912,6513.812290,-6513.812290,919.314598
1252.479241,6143.709319,-6735.874072,919.314598
1252.479570,6143.709319,-7105.977043,306.438199
1252.479899,5847.626942,-6143.709319,689.485948
1252.480228,5773.606348,-7105.977043,0.000000
1252.480557,5551.544565,-7550.100608,306.438199
1252.480886,5773.606348,-7550.100608,1302.362347
1252.481216,7031.956449,-8068.244768,1302.362347
1252.481545,8068.244768,-6513.812290,1455.581446
1252.481874,8216.285956,-6217.729913,1915.238745
1252.482203,8290.306550,-5847.626942,1838.629195
1252.482532,8142.265362,-5107.421000,1685.410096
1252.482861,7476.080014,-3997.112087,1149.143247
1252.483190,7179.997637,-4737.318029,919.314598
1252.483519,7254.018232,-4811.338623,1302.362347
1252.483848,6883.915261,-5625.565159,1838.629195
1252.484177,6439.791695,-6661.853478,1532.190996
1252.484506,6217.729913,-6587.832884,1149.143247
1252.484835,6143.709319,-7179.997637,1149.143247
1252.485164,6365.771101,-7994.224174,1072.533697
1252.485493,6365.771101,-7920.203579,766.095498
1252.485822,5995.668130,-7920.203579,0.000000
1252.486151,6587.832884,-7920.203579,612.876398
1252.486480,7031.956449,-7624.121203,459.657299
1252.486810,7624.121203,-7476.080014,536.266849
1252.487139,7179.997637,-7179.997637,689.485948
1252.487468,6957.935855,-6439.791695,919.314598
1252.487797,6587.832884,-6217.729913,1072.533697
1252.488126,6809.894666,-5921.647536,1685.410096
1252.488455,7476.080014,-5403.503377,1838.629195
1252.488784,8068.244768,-5033.400406,1608.800546
1252.489113,7846.182985,-4811.338623,1685.410096
1252.489442,7402.059420,-4885.359217,919.314598
1252.489771,7179.997637,-5551.544565,842.705048
1252.490100,7550.100608,-5921.647536,1225.752797
1252.490429,7698.141797,-6143.709319,766.095498
1252.490758,7105.977043,-6365.771101,1072.533697
1252.491087,6587.832884,-7254.018232,1225.752797
1252.491416,6735.874072,-7328.038826,1149.143247
1252.491745,6439.791695,-7476.080014,1149.143247
1252.492074,6439.791695,-7254.018232,1302.362347
1252.492403,6291.750507,-7254.018232,1302.362347
1252.492733,6513.812290,-7254.018232,459.657299
1252.493062,5847.626942,-7328.038826,612.876398
1252.493391,6291.750507,-7031.956449,0.000000
1252.493720,6365.771101,-7254.018232,766.095498
1252.494049,6883.915261,-7031.956449,612.876398
1252.494378,6883.915261,-7105.977043,1455.581446
1252.494707,7105.977043,-7031.956449,1072.533697
1252.495036,7550.100608,-6439.791695,1225.752797
1252.495365,8142.265362,-5181.441594,1685.410096
1252.495694,8808.450710,-4663.297435,1532.190996
1252.496023,8734.430116,-4737.318029,1762.019645
1252.496352,8734.430116,-4071.132681,1378.971896
1252.496681,7402.059420,-4071.132681,842.705048
1252.497010,6809.894666,-5255.462188,842.705048
1252.497339,6661.853478,-6365.771101,766.095498
1252.497668,5921.647536,-7772.162391,1072.533697
1252.497997,5699.585753,-7772.162391,1762.019645
1252.498326,5921.647536,-8734.430116,1378.971896
1252.498656,6513.812290,-8586.388927,1072.533697
1252.498985,5773.606348,-8512.368333,536.266849
1252.499314,5551.544565,-8290.306550,76.609550
1252.499643,6439.791695,-7772.162391,153.219100
1252.499972,6735.874072,-7105.977043,229.828649
1252.500301,7105.977043,-6883.915261,612.876398
1252.500630,7772.162391,-5995.668130,995.924147
1252.500959,7698.141797,-5403.503377,842.705048
1252.501288,7698.141797,-6217.729913,919.314598
1252.501617,7328.038826,-5625.565159,1532.190996
1252.501946,7254.018232,-5921.647536,1072.533697
1252.502275,7476.080014,-5625.565159,1302.362347
1252.502604,7179.997637,-5773.606348,1838.629195
1252.502933,7624.121203,-6439.791695,1225.752797
1252.503262,7772.162391,-5921.647536,1455.581446
1252.503591,7476.080014,-6365.771101,1302.362347
1252.503920,7031.956449,-5995.668130,1378.971896
1252.504250,6291.750507,-6365.771101,1149.143247
1252.504579,6661.853478,-7105.977043,1378.971896
1252.504908,6513.812290,-7328.038826,1455.581446
1252.505237,6365.771101,-6661.853478,1072.533697
1252.505566,5995.668130,-6809.894666,1225.752797
1252.505895,5773.606348,-6883.915261,229.828649
1252.506224,5847.626942,-7402.059420,229.828649
1252.506553,6587.832884,-7105.977043,459.657299
1252.506882,6809.894666,-7476.080014,689.485948
1252.507211,6513.812290,-6587.832884,919.314598
1252.507540,6735.874072,-7624.121203,1149.143247
1252.507869,7179.997637,-7328.038826,1685.410096
1252.508198,7698.141797,-6365.771101,1455.581446
1252.508527,7624.121203,-5995.668130,766.095498
1252.508856,7254.018232,-5255.462188,1608.800546
1252.509185,8290.306550,-4811.338623,1378.971896
1252.509514,8364.327145,-4441.235652,1838.629195
1252.509843,7698.141797,-4071.132681,1608.800546
1252.510173,7624.121203,-4959.379811,1225.752797
1252.510502,7179.997637,-5033.400406,919.314598
1252.510831,7254.018232,-6365.771101,1149.143247
1252.511160,6735.874072,-7772.162391,1532.190996
1252.511489,6439.791695,-7920.203579,1762.019645
1252.511818,5773.606348,-8512.368333,612.876398
1252.512147,5403.503377,-8734.430116,459.657299
1252.512476,5551.544565,-8216.285956,0.000000
1252.512805,5921.647536,-8364.327145,306.438199
1252.513134,6661.853478,-8216.285956,229.828649
1252.513463,6587.832884,-7476.080014,536.266849
1252.513792,6957.935855,-6439.791695,689.485948
1252.514121,7550.100608,-5773.606348,1378.971896
1252.514450,7846.182985,-5625.565159,1532.190996
1252.514779,8216.285956,-5403.503377,1762.019645
1252.515108,8290.306550,-4441.235652,1685.410096
1252.515437,8438.347739,-4515.256246,1455.581446
1252.515766,8290.306550,-5107.421000,1072.533697
1252.516096,7772.162391,-5847.626942,1149.143247
1252.516425,7254.018232,-6735.874072,0.000000
1252.516754,6661.853478,-6809.894666,536.266849
1252.517083,6291.750507,-7105.977043,689.485948
1252.517412,6291.750507,-7846.182985,1072.533697
1252.517741,6883.915261,-7179.997637,1838.629195
1252.518070,6513.812290,-7402.059420,1455.581446
1252.518399,6069.688724,-7179.997637,1225.752797
1252.518728,5921.647536,-6957.935855,1455.581446
1252.519057,6735.874072,-6217.729913,612.876398
1252.519386,6217.729913,-6735.874072,689.485948
1252.519715,6587.832884,-6217.729913,612.876398
1252.520044,6735.874072,-6439.791695,536.266849
1252.520373,6809.894666,-6883.915261,766.095498
1252.520702,7105.977043,-7550.100608,1072.533697
1252.521031,6809.894666,-7254.018232,1072.533697
1252.521360,7179.997637,-6809.894666,1378.971896
1252.521690,7402.059420,-6513.812290,1378.971896
1252.522019,7624.121203,-6069.688724,1608.800546
1252.522348,8068.244768,-5403.503377,1838.629195
1252.522677,8660.409521,-4737.318029,1302.362347
1252.523006,7994.224174,-4515.256246,1072.533697
1252.523335,7698.141797,-4663.297435,995.924147
1252.523664,7328.038826,-5477.523971,1378.971896
1252.523993,6883.915261,-5921.647536,1072.533697
1252.524322,6587.832884,-6513.812290,919.314598
1252.524651,6735.874072,-7254.018232,1225.752797
1252.524980,6883.915261,-7772.162391,1302.362347
1252.525309,6661.853478,-8364.327145,1302.362347
1252.525638,5995.668130,-8586.388927,306.438199
1252.525967,5551.544565,-8734.430116,306.438199
1252.526296,5551.544565,-8364.327145,76.609550
1252.526625,5255.462188,-6957.935855,0.000000
1252.526954,6365.771101,-7105.977043,612.876398
1252.527283,6883.915261,-6513.812290,1072.533697
1252.527613,7105.977043,-6217.729913,1072.533697
1252.527942,7550.100608,-5921.647536,1685.410096
1252.528271,7846.182985,-5255.462188,1532.190996
1252.528600,7254.018232,-5921.647536,1455.581446
1252.528929,7624.121203,-4663.297435,1072.533697
1252.529258,7698.141797,-5847.626942,1378.971896
1252.529587,8586.388927,-5921.647536,1915.238745
1252.529916,7772.162391,-5625.565159,689.485948
1252.530245,7105.977043,-5995.668130,612.876398
1252.530574,6809.894666,-6587.832884,995.924147
1252.530903,6513.812290,-7772.162391,1302.362347
1252.531232,7105.977043,-7105.977043,1225.752797
1252.531561,6661.853478,-6883.915261,1302.362347
1252.531890,6957.935855,-6735.874072,995.924147
1252.532219,6291.750507,-6291.750507,1608.800546
1252.532548,5921.647536,-7476.080014,689.485948
1252.532877,5773.606348,-6809.894666,383.047749
1252.533206,5773.606348,-7105.977043,76.609550
1252.533536,5995.668130,-7476.080014,459.657299
1252.533865,6217.729913,-7772.162391,612.876398
1252.534194,6735.874072,-7476.080014,995.924147
1252.534523,6957.935855,-7550.100608,1302.362347
1252.534852,7179.997637,-6883.915261,1302.362347
1252.535181,7550.100608,-6365.771101,1532.190996
1252.535510,8290.306550,-5699.585753,1608.800546
1252.535839,8808.450710,-4959.379811,1378.971896
1252.536168,8216.285956,-4515.256246,1455.581446
1252.536497,8142.265362,-4145.153275,1302.362347
1252.536826,7476.080014,-4219.173869,842.705048
1252.537155,7846.182985,-4145.153275,1072.533697
1252.537484,6809.894666,-6513.812290,1378.971896
1252.537813,6217.729913,-7476.080014,1072.533697
1252.538142,5921.647536,-8586.388927,612.876398
1252.538471,5477.523971,-9326.594869,842.705048
1252.538800,5699.585753,-9252.574275,689.485948
1252.539130,6143.709319,-8956.491898,229.828649
1252.539459,5847.626942,-8290.306550,612.876398
1252.539788,6069.688724,-7994.224174,153.219100
1252.540117,6513.812290,-6587.832884,229.828649
1252.540446,6883.915261,-5773.606348,919.314598
1252.540775,7105.977043,-5551.544565,612.876398
1252.541104,7328.038826,-5699.585753,1685.410096
1252.541433,7846.182985,-5181.441594,1991.848295
1252.541762,8068.244768,-4811.338623,1532.190996
1252.542091,7846.182985,-4737.318029,1762.019645
1252.542420,8068.244768,-5255.462188,1685.410096
1252.542749,7772.162391,-5921.647536,766.095498
1252.543078,7624.121203,-5995.668130,919.314598
1252.543407,7105.977043,-6291.750507,383.047749
1252.543736,6957.935855,-7105.977043,689.485948
1252.544065,6735.874072,-7402.059420,1225.752797
1252.544394,6809.894666,-7476.080014,1302.362347
1252.544723,6735.874072,-6809.894666,1378.971896
1252.545053,6217.729913,-6587.832884,919.314598
1252.545382,6143.709319,-7031.956449,536.266849
1252.545711,6069.688724,-7105.977043,842.705048
1252.546040,6291.750507,-6809.894666,536.266849
1252.546369,6439.791695,-6957.935855,689.485948
1252.546698,6513.812290,-6809.894666,689.485948
1252.547027,6957.935855,-7328.038826,766.095498
1252.547356,7105.977043,-7105.977043,1302.362347
1252.547685,7105.977043,-7254.018232,1302.362347
1252.548014,6735.874072,-7105.977043,1149.143247
1252.548343,6735.874072,-6291.750507,1072.533697
1252.548672,7328.038826,-6069.688724,1455.581446
1252.549001,7550.100608,-5477.523971,1915.238745
1252.549330,7920.203579,-4737.318029,1762.019645
1252.549659,8142.265362,-4441.235652,1225.752797
1252.549988,7846.182985,-4589.276840,919.314598
1252.550317,7179.997637,-5181.441594,995.924147
1252.550646,7031.956449,-5773.606348,612.876398
1252.550976,6809.894666,-6217.729913,842.705048
1252.551305,6957.935855,-7105.977043,1378.971896
1252.551634,7179.997637,-7920.203579,1149.143247
1252.551963,7105.977043,-8290.306550,1225.752797
1252.552292,6735.874072,-8216.285956,229.828649
1252.552621,5551.544565,-8068.244768,-459.657299
1252.552950,5477.523971,-8364.327145,383.047749
1252.553279,5995.668130,-7994.224174,229.828649
1252.553608,6883.915261,-7105.977043,842.705048
1252.553937,7328.038826,-5477.523971,1149.143247
1252.554266,7624.121203,-5625.565159,1608.800546
1252.554595,7846.182985,-5181.441594,1608.800546
1252.554924,7772.162391,-5255.462188,1608.800546
1252.555253,7698.141797,-5773.606348,1455.581446
1252.555582,7846.182985,-4441.235652,1378.971896
1252.555911,7402.059420,-5625.565159,995.924147
1252.556240,7698.141797,-6217.729913,919.314598
1252.556569,7179.997637,-6365.771101,536.266849
1252.556899,6883.915261,-6587.832884,0.000000
1252.557228,6291.750507,-7254.018232,459.657299
1252.557557,6217.729913,-7920.203579,1225.752797
1252.557886,6513.812290,-7698.141797,1225.752797
1252.558215,6661.853478,-7846.182985,1532.190996
1252.558544,6217.729913,-7550.100608,1685.410096
1252.558873,6513.812290,-6735.874072,1149.143247
1252.559202,5921.647536,-6365.771101,919.314598
1252.559531,6069.688724,-6513.812290,229.828649
1252.559860,6291.750507,-6809.894666,153.219100
1252.560189,6809.894666,-7031.956449,612.876398
1252.560518,7031.956449,-7031.956449,842.705048
1252.560847,7105.977043,-6957.935855,1532.190996
1252.561176,7328.038826,-6735.874072,1532.190996
1252.561505,6809.894666,-6291.750507,1455.581446
1252.561834,7402.059420,-5921.647536,1455.581446
1252.562163,7624.121203,-5995.668130,1762.019645
1252.562493,7698.141797,-5847.626942,1762.019645
1252.562822,7328.038826,-4959.379811,1685.410096
1252.563151,7105.977043,-4737.318029,1149.143247
1252.563480,7105.977043,-5329.482782,842.705048
1252.563809,7105.977043,-5995.668130,1378.971896
1252.564138,7031.956449,-5995.668130,1378.971896
1252.564467,7254.018232,-6439.791695,1378.971896
1252.564796,7105.977043,-6291.750507,1072.533697
1252.565125,6809.894666,-7772.162391,919.314598
1252.565454,6883.915261,-8290.306550,919.314598
1252.565783,6661.853478,-7698.141797,842.705048
1252.566112,6661.853478,-7920.203579,-689.485948
1252.566441,6143.709319,-7254.018232,229.828649
1252.566770,6217.729913,-7402.059420,689.485948
1252.567099,6513.812290,-7254.018232,612.876398
1252.567428,6217.729913,-5995.668130,1302.362347
1252.567757,6809.894666,-5773.606348,1378.971896
1252.568086,7105.977043,-5699.585753,1685.410096
1252.568416,7476.080014,-5847.626942,1685.410096
1252.568745,7550.100608,-6069.688724,1762.019645
1252.569074,7698.141797,-5477.523971,1225.752797
1252.569403,7698.141797,-5699.585753,612.876398
1252.569732,7105.977043,-6069.688724,766.095498
1252.570061,6809.894666,-6439.791695,766.095498
1252.570390,7031.956449,-6735.874072,766.095498
1252.570719,7105.977043,-6661.853478,612.876398
1252.571048,6957.935855,-6957.935855,1608.800546
1252.571377,7031.956449,-7105.977043,2068.457845
1252.571706,7031.956449,-7402.059420,1685.410096
1252.572035,5995.668130,-7105.977043,1685.410096
1252.572364,5699.585753,-6809.894666,0.000000
1252.572693,5773.606348,-7476.080014,0.000000
1252.573022,5995.668130,-7328.038826,383.047749
1252.573351,6587.832884,-7105.977043,0.000000
1252.573680,6735.874072,-6587.832884,689.485948
1252.574010,6957.935855,-7402.059420,306.438199
1252.574339,7105.977043,-7402.059420,1455.581446
1252.574668,7254.018232,-7031.956449,1608.800546
1252.574997,7846.182985,-6513.812290,1378.971896
1252.575326,8290.306550,-5551.544565,2451.505594
1252.575655,8142.265362,-5255.462188,2068.457845
1252.575984,8142.265362,-5033.400406,1991.848295
1252.576313,7772.162391,-4219.173869,1762.019645
1252.576642,7698.141797,-4589.276840,1532.190996
1252.576971,6587.832884,-4737.318029,536.266849
1252.577300,6513.812290,-5033.400406,919.314598
1252.577629,6365.771101,-6957.935855,1072.533697
1252.577959,6957.935855,-7624.121203,1302.362347
1252.578288,6735.874072,-8364.327145,2068.457845
1252.578617,6513.812290,-8586.388927,1072.533697
1252.578946,6587.832884,-8512.368333,919.314598
1252.579275,5773.606348,-8142.265362,-306.438199
1252.579604,5699.585753,-7994.224174,76.609550
1252.579933,6365.771101,-7476.080014,0.000000
1252.580262,6957.935855,-7105.977043,536.266849
1252.580591,7179.997637,-6291.750507,1149.143247
1252.580920,7402.059420,-5625.565159,1608.800546
1252.581249,7624.121203,-5107.421000,1072.533697
1252.581578,7698.141797,-5107.421000,1455.581446
1252.581907,7920.203579,-4663.297435,1838.629195
1252.582237,8216.285956,-5403.503377,1532.190996
1252.582566,8512.368333,-5107.421000,1378.971896
1252.582895,7772.162391,-5699.585753,919.314598
1252.583224,7328.038826,-6587.832884,842.705048
1252.583553,6735.874072,-6883.915261,383.047749
1252.583882,6291.750507,-7105.977043,689.485948
1252.584211,6365.771101,-8068.244768,612.876398
1252.584540,6439.791695,-7476.080014,1302.362347
1252.584869,6217.729913,-8068.244768,1302.362347
1252.585198,6069.688724,-7254.018232,1302.362347
1252.585527,5921.647536,-7105.977043,536.266849
1252.585856,6291.750507,-6661.853478,0.000000
1252.586186,5921.647536,-6883.915261,153.219100
1252.586515,5995.668130,-6809.894666,153.219100
1252.586844,6809.894666,-6809.894666,0.000000
1252.587173,7476.080014,-6883.915261,1455.581446
1252.587502,7772.162391,-6883.915261,1455.581446
1252.587831,7550.100608,-6957.935855,1685.410096
1252.588160,7476.080014,-6513.812290,1608.800546
1252.588489,7254.018232,-6365.771101,1225.752797
1252.588818,7624.121203,-6291.750507,1915.238745
1252.589147,7476.080014,-5921.647536,1455.581446
1252.589476,7624.121203,-5477.523971,1532.190996
1252.589805,7624.121203,-4811.338623,1455.581446
1252.590135,7105.977043,-4441.235652,1762.019645
1252.590464,7105.977043,-4959.379811,919.314598
1252.590793,7031.956449,-5033.400406,1532.190996
1252.591122,7328.038826,-6069.688724,1455.581446
1252.591451,7476.080014,-6735.874072,1838.629195
1252.591780,7476.080014,-6661.853478,1762.019645
1252.592109,6735.874072,-8142.265362,1149.143247
1252.592438,6513.812290,-7846.182985,229.828649
1252.592767,6587.832884,-8142.265362,153.219100
1252.593096,6809.894666,-8660.409521,76.609550
1252.593425,6587.832884,-7402.059420,1072.533697
1252.593754,6439.791695,-7328.038826,383.047749
1252.594083,6513.812290,-6735.874072,766.095498
1252.594413,6513.812290,-6291.750507,995.924147
1252.594742,7105.977043,-5921.647536,766.095498
1252.595071,7476.080014,-5477.523971,1378.971896
1252.595400,8216.285956,-5181.441594,1455.581446
1252.595729,8290.306550,-4293.194464,919.314598
1252.596058,8142.265362,-5477.523971,1149.143247
1252.596387,8142.265362,-5403.503377,1149.143247
1252.596716,7402.059420,-6291.750507,689.485948
1252.597045,6957.935855,-6587.832884,919.314598
1252.597374,6587.832884,-6439.791695,995.924147
1252.597703,6735.874072,-7624.121203,1455.581446
1252.598032,6513.812290,-8142.265362,2145.067394
1252.598362,5995.668130,-7994.224174,1455.581446
1252.598691,5625.565159,-8142.265362,1532.190996
1252.599020,5181.441594,-6957.935855,689.485948
1252.599349,5033.400406,-7624.121203,1072.533697
1252.599678,5551.544565,-6365.771101,-153.219100
1252.600007,5551.544565,-6513.812290,229.828649
1252.600336,6587.832884,-6883.915261,459.657299
1252.600665,7105.977043,-6513.812290,1149.143247
1252.600994,7624.121203,-6513.812290,1455.581446
1252.601323,8216.285956,-6439.791695,1378.971896
1252.601652,8068.244768,-6143.709319,1838.629195
1252.601981,8290.306550,-6291.750507,1532.190996
1252.602311,8290.306550,-5181.441594,2145.067394
1252.602640,8142.265362,-5625.565159,1378.971896
1252.602969,7698.141797,-5255.462188,842.705048
1252.603298,7105.977043,-5107.421000,995.924147
1252.603627,6513.812290,-5921.647536,766.095498
1252.603956,6513.812290,-5551.544565,383.047749
1252.604285,6217.729913,-6883.915261,1072.533697
1252.604614,6217.729913,-6513.812290,1225.752797
1252.604943,6661.853478,-7624.121203,1302.362347
1252.605272,6291.750507,-8882.471304,1455.581446
1252.605601,6735.874072,-7994.224174,459.657299
1252.605930,6587.832884,-7624.121203,766.095498
1252.606260,6513.812290,-6957.935855,459.657299
1252.606589,6439.791695,-7328.038826,383.047749
1252.606918,7328.038826,-6217.729913,612.876398
1252.607247,6957.935855,-7031.956449,842.705048
1252.607576,7254.018232,-6735.874072,1225.752797
1252.607905,7698.141797,-6069.688724,1532.190996
1252.608234,7698.141797,-5403.503377,1455.581446
1252.608563,7624.121203,-5033.400406,1378.971896
1252.608892,7254.018232,-5255.462188,1455.581446
1252.609221,7550.100608,-5107.421000,536.266849
1252.609550,7476.080014,-5551.544565,306.438199
1252.609879,6957.935855,-5477.523971,689.485948
1252.610208,6735.874072,-6439.791695,76.609550
1252.610538,6513.812290,-7105.977043,1149.143247
1252.610867,6735.874072,-7105.977043,1608.800546
1252.611196,7550.100608,-7105.977043,2068.457845
1252.611525,7698.141797,-6291.750507,3294.210641
1252.611854,7550.100608,-7031.956449,1532.190996
1252.612183,7105.977043,-6661.853478,1455.581446
1252.612512,6069.688724,-7179.997637,919.314598
1252.612841,5625.565159,-7402.059420,0.000000
1252.613170,5181.441594,-6661.853478,0.000000
1252.613499,5329.482782,-7031.956449,76.609550
1252.613828,5921.647536,-7698.141797,536.266849
1252.614157,6217.729913,-7105.977043,1225.752797
1252.614487,6513.812290,-6587.832884,995.924147
1252.614816,6809.894666,-6291.750507,842.705048
1252.615145,6735.874072,-6587.832884,1455.581446
1252.615474,7920.203579,-5921.647536,995.924147
1252.615803,8512.368333,-5699.585753,1762.019645
1252.616132,9104.533087,-5107.421000,1608.800546
1252.616461,8956.491898,-4737.318029,1608.800546
1252.616790,8882.471304,-5181.441594,1762.019645
1252.617119,7550.100608,-4885.359217,842.705048
1252.617448,7105.977043,-5773.606348,766.095498
1252.617777,7105.977043,-6291.750507,1455.581446
1252.618106,7105.977043,-7179.997637,1302.362347
1252.618436,6513.812290,-7846.182985,1072.533697
1252.618765,5477.523971,-7254.018232,612.876398
1252.619094,5181.441594,-8216.285956,766.095498
1252.619423,5403.503377,-7994.224174,76.609550
1252.619752,5403.503377,-7550.100608,0.000000
1252.620081,5995.668130,-7402.059420,153.219100
1252.620410,6661.853478,-6587.832884,919.314598
1252.620739,7179.997637,-6661.853478,1225.752797
1252.621068,7476.080014,-6513.812290,1225.752797
1252.621397,7846.182985,-6365.771101,1991.848295
1252.621726,7920.203579,-6069.688724,1685.410096
1252.622055,8512.368333,-5477.523971,689.485948
1252.622384,8068.244768,-5329.482782,1302.362347
1252.622714,8216.285956,-5255.462188,1072.533697
1252.623043,7994.224174,-5403.503377,536.266849
1252.623372,7254.018232,-5181.441594,536.266849
1252.623701,7105.977043,-6439.791695,383.047749
1252.624030,6883.915261,-6735.874072,995.924147
1252.624359,6661.853478,-7105.977043,1302.362347
1252.624688,6439.791695,-7476.080014,1072.533697
1252.625017,6217.729913,-7328.038826,1685.410096
1252.625346,6439.791695,-7254.018232,1378.971896
1252.625675,6809.894666,-7105.977043,1149.143247
1252.626004,6439.791695,-7105.977043,842.705048
1252.626333,6365.771101,-7624.121203,229.828649
1252.626663,6513.812290,-6883.915261,0.000000
1252.626992,6291.750507,-7328.038826,383.047749
1252.627321,6587.832884,-7550.100608,842.705048
1252.627650,6439.791695,-7328.038826,1149.143247
1252.627979,6439.791695,-6809.894666,1378.971896
1252.628308,6661.853478,-6587.832884,1149.143247
1252.628637,7031.956449,-5995.668130,1455.581446
1252.628966,7698.141797,-5181.441594,1762.019645
1252.629295,8290.306550,-5107.421000,1685.410096
1252.629624,8734.430116,-4145.153275,2145.067394
1252.629953,8512.368333,-4219.173869,1072.533697
1252.630282,8216.285956,-4885.359217,1302.362347
1252.630612,7772.162391,-5847.626942,1532.190996
1252.630941,7254.018232,-6735.874072,689.485948
1252.631270,6809.894666,-6883.915261,766.095498
1252.631599,6217.729913,-7698.141797,689.485948
1252.631928,5773.606348,-9104.533087,842.705048
1252.632257,5625.565159,-9030.512492,536.266849
1252.632586,5477.523971,-8068.244768,842.705048
1252.632915,6069.688724,-7698.141797,306.438199
1252.633244,5847.626942,-7105.977043,383.047749
1252.633573,6439.791695,-6883.915261,536.266849
1252.633902,7179.997637,-5995.668130,1302.362347
1252.634231,7624.121203,-5107.421000,1225.752797
1252.634560,7698.141797,-5625.565159,1532.190996
1252.634890,7772.162391,-4959.379811,1915.238745
1252.635219,8142.265362,-5255.462188,1838.629195
1252.635548,8438.347739,-5699.585753,1532.190996
1252.635877,7920.203579,-5403.503377,1302.362347
1252.636206,7624.121203,-5921.647536,766.095498
1252.636535,7105.977043,-6217.729913,459.657299
1252.636864,6513.812290,-6883.915261,1072.533697
1252.637193,6365.771101,-7920.203579,536.266849
1252.637522,5995.668130,-7698.141797,1072.533697
1252.637851,5551.544565,-8068.244768,1072.533697
1252.638180,6143.709319,-8068.244768,1225.752797
1252.638509,6809.894666,-7328.038826,1455.581446
1252.638839,6661.853478,-7031.956449,1149.143247
1252.639168,6217.729913,-7105.977043,689.485948
1252.639497,5995.668130,-6735.874072,612.876398
1252.639826,6957.935855,-6291.750507,383.047749
1252.640155,7031.956449,-6439.791695,689.485948
1252.640484,7105.977043,-6809.894666,1149.143247
1252.640813,7624.121203,-7328.038826,1378.971896
1252.641142,7328.038826,-6883.915261,1225.752797
1252.641471,7031.956449,-6587.832884,1532.190996
1252.641800,7105.977043,-6883.915261,1762.019645
1252.642129,7402.059420,-6291.750507,1991.848295
1252.642458,7550.100608,-6143.709319,1685.410096
1252.642788,6957.935855,-4737.318029,995.924147
1252.643117,7105.977043,-4515.256246,995.924147
1252.643446,7550.100608,-4663.297435,919.314598
1252.643775,7402.059420,-5329.482782,1149.143247
1252.644104,7105.977043,-5403.503377,1532.190996
1252.644433,7105.977043,-6143.709319,1302.362347
1252.644762,7031.956449,-6957.935855,1072.533697
1252.645091,6809.894666,-7328.038826,995.924147
1252.645420,6735.874072,-8142.265362,612.876398
1252.645749,6143.709319,-7698.141797,153.219100
1252.646078,5921.647536,-7772.162391,76.609550
1252.646407,5551.544565,-8142.265362,0.000000
1252.646736,6513.812290,-7994.224174,153.219100
1252.647066,7105.977043,-7105.977043,1072.533697
1252.647395,7254.018232,-5921.647536,1378.971896
1252.647724,7105.977043,-5255.462188,1532.190996
1252.648053,7772.162391,-5699.585753,1685.410096
1252.648382,7846.182985,-4737.318029,1991.848295
1252.648711,7550.100608,-4589.276840,1532.190996
1252.649040,7179.997637,-5107.421000,1225.752797
1252.649369,7105.977043,-4885.359217,1225.752797
1252.649698,7105.977043,-6217.729913,995.924147
1252.650027,7105.977043,-6661.853478,766.095498
1252.650356,6513.812290,-6809.894666,536.266849
1252.650685,6513.812290,-7772.162391,459.657299
1252.651015,6439.791695,-8216.285956,995.924147
1252.651344,6439.791695,-8290.306550,1762.019645
1252.651673,6661.853478,-7698.141797,1762.019645
1252.652002,6217.729913,-7179.997637,1378.971896
1252.652331,6809.894666,-7179.997637,766.095498
1252.652660,6587.832884,-6217.729913,306.438199
1252.652989,6735.874072,-6439.791695,383.047749
1252.653318,7031.956449,-5921.647536,459.657299
1252.653647,6587.832884,-6217.729913,766.095498
1252.653976,7254.018232,-6735.874072,842.705048
1252.654305,7105.977043,-7402.059420,1225.752797
1252.654634,7105.977043,-6809.894666,1378.971896
1252.654964,7105.977043,-6513.812290,1455.581446
1252.655293,7402.059420,-6513.812290,1302.362347
1252.655622,7772.162391,-6069.688724,1302.362347
1252.655951,7772.162391,-6069.688724,1455.581446
1252.656280,7698.141797,-5625.565159,1225.752797
1252.656609,7402.059420,-4959.379811,1072.533697
1252.656938,7254.018232,-5181.441594,1149.143247
1252.657267,7105.977043,-4959.379811,1149.143247
1252.657596,7254.018232,-5921.647536,689.485948
1252.657925,7105.977043,-6809.894666,919.314598
1252.658254,6883.915261,-7402.059420,1532.190996
1252.658583,6143.709319,-7476.080014,766.095498
1252.658912,5551.544565,-8068.244768,153.219100
1252.659242,5773.606348,-8216.285956,229.828649
1252.659571,5995.668130,-8660.409521,229.828649
1252.659900,6809.894666,-8364.327145,306.438199
1252.660229,7179.997637,-7476.080014,842.705048
1252.660558,7179.997637,-6291.750507,612.876398
1252.660887,6957.935855,-6217.729913,919.314598
1252.661216,7105.977043,-5625.565159,1762.019645
1252.661545,7920.203579,-5033.400406,1838.629195
1252.661874,8438.347739,-4145.153275,2145.067394
1252.662203,8512.368333,-3849.070898,1838.629195
1252.662532,8290.306550,-4441.235652,1685.410096
1252.662861,7846.182985,-4885.359217,1072.533697
1252.663191,7328.038826,-5403.503377,689.485948
1252.663520,6735.874072,-6513.812290,612.876398
1252.663849,6735.874072,-7254.018232,919.314598
1252.664178,6513.812290,-7772.162391,1225.752797
1252.664507,6217.729913,-7698.141797,1378.971896
1252.664836,6513.812290,-8216.285956,1685.410096
1252.665165,6217.729913,-8142.265362,995.924147
1252.665494,5699.585753,-7624.121203,919.314598
1252.665823,5995.668130,-7105.977043,76.609550
1252.666152,5847.626942,-7328.038826,306.438199
1252.666481,6217.729913,-6661.853478,383.047749
1252.666810,6365.771101,-6735.874072,919.314598
1252.667140,7105.977043,-6661.853478,842.705048
1252.667469,7476.080014,-5995.668130,1608.800546
1252.667798,6957.935855,-6661.853478,919.314598
1252.668127,6809.894666,-7105.977043,1225.752797
1252.668456,7105.977043,-7105.977043,1762.019645
1252.668785,7772.162391,-6439.791695,1149.143247
1252.669114,7994.224174,-5255.462188,1072.533697
1252.669443,8142.265362,-5255.462188,1302.362347
1252.669772,7994.224174,-5329.482782,842.705048
1252.670101,7254.018232,-5255.462188,1072.533697
1252.670430,6661.853478,-5403.503377,919.314598
1252.670759,6661.853478,-5403.503377,536.266849
1252.671088,6883.915261,-6291.750507,1685.410096
1252.671418,6439.791695,-7179.997637,1149.143247
1252.671747,6587.832884,-7328.038826,919.314598
1252.672076,6809.894666,-7772.162391,1225.752797
1252.672405,6513.812290,-7920.203579,689.485948
1252.672734,6587.832884,-7920.203579,1149.143247
1252.673063,6735.874072,-7698.141797,229.828649
1252.673392,6661.853478,-7550.100608,306.438199
1252.673721,6661.853478,-7402.059420,766.095498
1252.674050,7254.018232,-6439.791695,919.314598
1252.674379,7624.121203,-6143.709319,1455.581446
1252.674708,7476.080014,-5107.421000,1378.971896
1252.675037,7994.224174,-5033.400406,1225.752797
1252.675367,7254.018232,-5477.523971,1608.800546
1252.675696,7179.997637,-5477.523971,1455.581446
1252.676025,7105.977043,-5107.421000,612.876398
1252.676354,7476.080014,-4737.318029,842.705048
1252.676683,7476.080014,-6365.771101,1532.190996
1252.677012,7550.100608,-7031.956449,1762.019645
1252.677341,7254.018232,-6957.935855,1762.019645
1252.677671,6587.832884,-7105.977043,1149.143247
1252.678000,6291.750507,-7698.141797,1838.629195
1252.678329,6513.812290,-8290.306550,1762.019645
1252.678658,6143.709319,-8068.244768,842.705048
1252.678987,5403.503377,-7105.977043,229.828649
1252.679316,4959.379811,-7846.182985,0.000000
1252.679645,5329.482782,-7476.080014,0.000000
1252.679974,5921.647536,-7476.080014,229.828649
1252.680304,6069.688724,-7254.018232,383.047749
1252.680633,6439.791695,-7105.977043,383.047749
1252.680962,6809.894666,-7550.100608,766.095498
1252.681291,7476.080014,-6957.935855,1455.581446
1252.681620,8142.265362,-6143.709319,1991.848295
1252.681949,8734.430116,-5551.544565,1915.238745
1252.682278,8586.388927,-4885.359217,1378.971896
1252.682608,8290.306550,-4959.379811,1532.190996
1252.682937,8734.430116,-4441.235652,1762.019645
1252.683266,8660.409521,-4663.297435,1532.190996
1252.683595,8068.244768,-4367.215058,1302.362347
1252.683924,6735.874072,-5033.400406,612.876398
1252.684253,6735.874072,-6143.709319,612.876398
1252.684582,6217.729913,-7328.038826,1149.143247
1252.684911,6217.729913,-8142.265362,1149.143247
1252.685241,5847.626942,-8734.430116,1072.533697
1252.685570,6513.812290,-7105.977043,1072.533697
1252.685899,5995.668130,-8734.430116,76.609550
1252.686228,6661.853478,-8290.306550,536.266849
1252.686557,7105.977043,-7179.997637,919.314598
1252.686886,7920.203579,-6809.894666,1149.143247
1252.687215,7772.162391,-5329.482782,1838.629195
1252.687545,7846.182985,-5995.668130,1378.971896
1252.687874,7328.038826,-5255.462188,1532.190996
1252.688203,7105.977043,-5181.441594,1302.362347
1252.688532,7402.059420,-5995.668130,1302.362347
1252.688861,8142.265362,-5033.400406,1608.800546
1252.689190,7994.224174,-4959.379811,1149.143247
1252.689519,7402.059420,-5921.647536,536.266849
1252.689849,6587.832884,-6439.791695,766.095498
1252.690178,6587.832884,-7105.977043,76.609550
1252.690507,6809.894666,-7105.977043,536.266849
1252.690836,6439.791695,-7179.997637,1072.533697
1252.691165,7254.018232,-7994.224174,2068.457845
1252.691494,7624.121203,-6883.915261,2068.457845
1252.691823,6513.812290,-7402.059420,1991.848295
1252.692152,6069.688724,-6735.874072,919.314598
1252.692482,5699.585753,-6735.874072,153.219100
1252.692811,5625.565159,-6587.832884,229.828649
1252.693140,5403.503377,-7105.977043,153.219100
1252.693469,6217.729913,-7476.080014,612.876398
1252.693798,6661.853478,-7698.141797,689.485948
1252.694127,7031.956449,-7179.997637,995.924147
1252.694456,7179.997637,-7031.956449,995.924147
1252.694786,6957.935855,-7105.977043,1378.971896
1252.695115,7105.977043,-7550.100608,1455.581446
1252.695444,7476.080014,-6217.729913,1225.752797
1252.695773,7994.224174,-5255.462188,1302.362347
1252.696102,8956.491898,-4367.215058,1455.581446
1252.696431,8438.347739,-4367.215058,1685.410096
1252.696760,8068.244768,-4811.338623,1072.533697
1252.697090,7179.997637,-4885.359217,1072.533697
1252.697419,6957.935855,-5255.462188,995.924147
1252.697748,6661.853478,-6143.709319,995.924147
1252.698077,6365.771101,-6883.915261,919.314598
1252.698406,5995.668130,-8290.306550,766.095498
1252.698735,6217.729913,-8290.306550,766.095498
1252.699064,5625.565159,-8068.244768,1225.752797
1252.699393,6365.771101,-9104.533087,612.876398
1252.699723,6587.832884,-7846.182985,459.657299
1252.700052,6439.791695,-7105.977043,229.828649
1252.700381,6365.771101,-6735.874072,229.828649
1252.700710,6661.853478,-5773.606348,842.705048
1252.701039,7402.059420,-5699.585753,1532.190996
1252.701368,8068.244768,-5329.482782,1685.410096
1252.701697,7920.203579,-4589.276840,1838.629195
1252.702027,8512.368333,-4589.276840,1532.190996
1252.702356,8216.285956,-4737.318029,1455.581446
1252.702685,7920.203579,-5551.544565,1302.362347
1252.703014,7772.162391,-5477.523971,766.095498
1252.703343,7698.141797,-5921.647536,689.485948
1252.703672,7031.956449,-6587.832884,689.485948
1252.704001,6069.688724,-7846.182985,1072.533697
1252.704330,6069.688724,-8290.306550,1455.581446
1252.704660,6587.832884,-7698.141797,1532.190996
1252.704989,6291.750507,-7105.977043,1685.410096
1252.705318,6809.894666,-6439.791695,1608.800546
1252.705647,5921.647536,-7105.977043,766.095498
1252.705976,5847.626942,-7105.977043,612.876398
1252.706305,5699.585753,-6587.832884,229.828649
1252.706634,6365.771101,-6661.853478,0.000000
1252.706964,6513.812290,-7179.997637,383.047749
1252.707293,6883.915261,-7105.977043,995.924147
1252.707622,6883.915261,-8068.244768,1149.143247
1252.707951,7105.977043,-7179.997637,1455.581446
1252.708280,7031.956449,-7105.977043,1838.629195
1252.708609,7402.059420,-6587.832884,1225.752797
1252.708938,7179.997637,-5699.585753,1225.752797
1252.709268,6883.915261,-5921.647536,919.314598
1252.709597,7179.997637,-4663.297435,919.314598
1252.709926,7402.059420,-4737.318029,1608.800546
1252.710255,7920.203579,-5181.441594,1225.752797
1252.710584,7698.141797,-4737.318029,1378.971896
1252.710913,7031.956449,-5477.523971,766.095498
1252.711242,6809.894666,-6883.915261,383.047749
1252.711571,6513.812290,-7846.182985,1685.410096
1252.711901,6513.812290,-8142.265362,1149.143247
1252.712230,6217.729913,-7994.224174,459.657299
1252.712559,6143.709319,-8216.285956,612.876398
1252.712888,6809.894666,-8290.306550,995.924147
1252.713217,6809.894666,-8142.265362,766.095498
1252.713546,6661.853478,-7105.977043,689.485948
1252.713875,6883.915261,-6143.709319,1072.533697
1252.714205,6513.812290,-4811.338623,1455.581446
1252.714534,7179.997637,-5033.400406,1532.190996
1252.714863,7105.977043,-5033.400406,1532.190996
1252.715192,7846.182985,-4737.318029,1608.800546
1252.715521,8364.327145,-5033.400406,1685.410096
1252.715850,7920.203579,-5403.503377,1455.581446
1252.716179,7476.080014,-5477.523971,1378.971896
