#time,accel_x,accel_y,accel_z
1211.753071,7328.038826,-6217.729913,689.485948
1211.753402,6883.915261,-6439.791695,995.924147
1211.753732,6735.874072,-6439.791695,383.047749
1211.754063,6735.874072,-6587.832884,995.924147
1211.754393,7031.956449,-5847.626942,1149.143247
1211.754724,7402.059420,-6291.750507,1072.533697
1211.755055,7550.100608,-6217.729913,1378.971896
1211.755385,7254.018232,-6143.709319,919.314598
1211.755716,6587.832884,-6291.750507,842.705048
1211.756046,6735.874072,-6661.853478,1072.533697
1211.756377,6809.894666,-6513.812290,919.314598
1211.756707,6957.935855,-6513.812290,766.095498
1211.757038,6809.894666,-6661.853478,919.314598
1211.757369,7105.977043,-6735.874072,766.095498
1211.757699,7031.956449,-6957.935855,1149.143247
1211.758030,6735.874072,-6513.812290,689.485948
1211.758360,6513.812290,-6957.935855,919.314598
1211.758691,7105.977043,-6957.935855,1149.143247
1211.759021,7328.038826,-7328.038826,1149.143247
1211.759352,7328.038826,-6291.750507,995.924147
1211.759682,7328.038826,-6143.709319,1378.971896
1211.760013,7402.059420,-6069.688724,1225.752797
1211.760344,7550.100608,-5995.668130,1149.143247
1211.760674,7105.977043,-6513.812290,1378.971896
1211.761005,6957.935855,-6513.812290,919.314598
1211.761335,6957.935855,-6587.832884,919.314598
1211.761666,6957.935855,-6513.812290,1072.533697
1211.761996,7105.977043,-5773.606348,1302.362347
1211.762327,7179.997637,-6439.791695,1302.362347
1211.762658,7105.977043,-6587.832884,1455.581446
1211.762988,6587.832884,-6513.812290,919.314598
1211.763319,6587.832884,-6513.812290,766.095498
1211.763649,6587.832884,-7105.977043,919.314598
1211.763980,6809.894666,-7105.977043,995.924147
1211.764310,6587.832884,-7031.956449,1302.362347
1211.764641,6735.874072,-6735.874072,1072.533697
1211.764972,6809.894666,-6957.935855,1455.581446
1211.765302,6809.894666,-6439.791695,995.924147
1211.765633,6439.791695,-7328.038826,919.314598
1211.765963,6735.874072,-6883.915261,536.266849
1211.766294,7105.977043,-6957.935855,1149.143247
1211.766624,7105.977043,-6291.750507,919.314598
1211.766955,7328.038826,-6365.771101,1149.143247
1211.767286,7402.059420,-6291.750507,1149.143247
1211.767616,7550.100608,-6439.791695,1072.533697
1211.767947,7105.977043,-6957.935855,689.485948
1211.768277,7031.956449,-6291.750507,919.314598
1211.768608,7105.977043,-6217.729913,842.705048
1211.768938,7105.977043,-6513.812290,919.314598
1211.769269,6883.915261,-6587.832884,1302.362347
1211.769599,7031.956449,-5921.647536,766.095498
1211.769930,7624.121203,-5921.647536,1149.143247
1211.770261,6957.935855,-6143.709319,766.095498
1211.770591,6513.812290,-6661.853478,842.705048
1211.770922,6957.935855,-6883.915261,1149.143247
1211.771252,7105.977043,-6809.894666,1072.533697
1211.771583,7179.997637,-6587.832884,919.314598
1211.771913,7328.038826,-6735.874072,995.924147
1211.772244,7031.956449,-6883.915261,1225.752797
1211.772575,7105.977043,-6661.853478,766.095498
1211.772905,6069.688724,-6883.915261,766.095498
1211.773236,6735.874072,-6735.874072,612.876398
1211.773566,7105.977043,-6883.915261,1225.752797
1211.773897,7105.977043,-6143.709319,919.314598
1211.774227,7328.038826,-6069.688724,1149.143247
1211.774558,7550.100608,-5847.626942,1072.533697
1211.774889,7402.059420,-6439.791695,919.314598
1211.775219,7031.956449,-6587.832884,919.314598
1211.775550,6883.915261,-6883.915261,1378.971896
1211.775880,7105.977043,-6587.832884,1149.143247
1211.776211,6809.894666,-6291.750507,1072.533697
1211.776541,7105.977043,-6439.791695,919.314598
1211.776872,7031.956449,-5847.626942,1149.143247
1211.777203,7476.080014,-6365.771101,1455.581446
1211.777533,6661.853478,-6291.750507,995.924147
1211.777864,6365.771101,-6661.853478,1072.533697
1211.778194,6439.791695,-6735.874072,766.095498
1211.778525,6143.709319,-7031.956449,1685.410096
1211.778855,7031.956449,-6735.874072,1378.971896
1211.779186,6809.894666,-6661.853478,842.705048
1211.779516,6809.894666,-7105.977043,1149.143247
1211.779847,6587.832884,-7031.956449,766.095498
1211.780178,6735.874072,-6513.812290,1149.143247
1211.780508,6587.832884,-7031.956449,689.485948
1211.780839,6957.935855,-7179.997637,1149.143247
1211.781169,7254.018232,-6957.935855,1072.533697
1211.781500,7624.121203,-6513.812290,842.705048
1211.781830,7328.038826,-6291.750507,1378.971896
1211.782161,7254.018232,-6587.832884,995.924147
1211.782492,7105.977043,-6439.791695,1149.143247
1211.782822,7105.977043,-6291.750507,1302.362347
1211.783153,6661.853478,-6809.894666,689.485948
1211.783483,6883.915261,-6365.771101,459.657299
1211.783814,6735.874072,-6661.853478,995.924147
1211.784144,7179.997637,-6513.812290,1225.752797
1211.784475,7328.038826,-6365.771101,1302.362347
1211.784806,7179.997637,-6513.812290,689.485948
1211.785136,7031.956449,-6217.729913,995.924147
1211.785467,6735.874072,-6735.874072,766.095498
1211.785797,7105.977043,-6809.894666,1072.533697
1211.786128,7031.956449,-6957.935855,766.095498
1211.786458,6957.935855,-6365.771101,1302.362347
1211.786789,6735.874072,-6661.853478,1149.143247
1211.787119,6957.935855,-6587.832884,919.314598
1211.787450,6661.853478,-6587.832884,919.314598
1211.787781,6661.853478,-6883.915261,1302.362347
1211.788111,6735.874072,-6587.832884,995.924147
1211.788442,7179.997637,-6513.812290,842.705048
1211.788772,7698.141797,-6587.832884,842.705048
1211.789103,7550.100608,-5995.668130,1532.190996
1211.789433,7402.059420,-6143.709319,995.924147
1211.789764,7402.059420,-6513.812290,1072.533697
1211.790095,6957.935855,-6587.832884,919.314598
1211.790425,6809.894666,-6513.812290,919.314598
1211.790756,6513.812290,-6291.750507,1532.190996
1211.791086,7031.956449,-5995.668130,1072.533697
1211.791417,7031.956449,-6735.874072,1378.971896
1211.791747,7105.977043,-6365.771101,1532.190996
1211.792078,7105.977043,-6439.791695,1225.752797
1211.792409,6809.894666,-6143.709319,1455.581446
1211.792739,6587.832884,-6587.832884,995.924147
1211.793070,6439.791695,-6661.853478,919.314598
1211.793400,6883.915261,-6883.915261,842.705048
1211.793731,6883.915261,-7031.956449,1302.362347
1211.794061,7105.977043,-6809.894666,1378.971896
1211.794392,6661.853478,-6809.894666,842.705048
1211.794723,6513.812290,-7105.977043,766.095498
1211.795053,6291.750507,-7550.100608,689.485948
1211.795384,6513.812290,-6809.894666,1225.752797
1211.795714,6735.874072,-6883.915261,995.924147
1211.796045,7105.977043,-6587.832884,919.314598
1211.796375,7105.977043,-6513.812290,1225.752797
1211.796706,7254.018232,-6365.771101,1302.362347
1211.797036,7105.977043,-6069.688724,842.705048
1211.797367,6957.935855,-6439.791695,1149.143247
1211.797698,7031.956449,-6291.750507,1149.143247
1211.798028,7254.018232,-6143.709319,995.924147
1211.798359,6735.874072,-6217.729913,1762.019645
1211.798689,7105.977043,-6217.729913,1072.533697
1211.799020,7179.997637,-6291.750507,1378.971896
1211.799350,7254.018232,-6661.853478,1149.143247
1211.799681,6661.853478,-6735.874072,536.266849
1211.800012,6143.709319,-6661.853478,689.485948
1211.800342,6735.874072,-7031.956449,1149.143247
1211.800673,6957.935855,-6587.832884,1149.143247
1211.801003,6809.894666,-6439.791695,995.924147
1211.801334,7105.977043,-6291.750507,766.095498
1211.801664,7254.018232,-6809.894666,689.485948
1211.801995,6809.894666,-6661.853478,919.314598
1211.802326,6883.915261,-6735.874072,1072.533697
1211.802656,6809.894666,-6513.812290,689.485948
1211.802987,7105.977043,-6661.853478,536.266849
1211.803317,7328.038826,-6883.915261,1225.752797
1211.803648,7476.080014,-6069.688724,919.314598
1211.803978,7402.059420,-6513.812290,1225.752797
1211.804309,7476.080014,-6143.709319,995.924147
1211.804640,7550.100608,-6291.750507,1532.190996
1211.804970,7105.977043,-6069.688724,1302.362347
1211.805301,7031.956449,-6661.853478,995.924147
1211.805631,6735.874072,-6291.750507,1072.533697
1211.805962,7328.038826,-6513.812290,1378.971896
1211.806292,7105.977043,-6513.812290,842.705048
1211.806623,7254.018232,-6439.791695,1302.362347
1211.806953,7105.977043,-6513.812290,1149.143247
1211.807284,6735.874072,-6735.874072,1225.752797
1211.807615,6883.915261,-6809.894666,766.095498
1211.807945,6957.935855,-6735.874072,1225.752797
1211.808276,6957.935855,-6735.874072,995.924147
1211.808606,6513.812290,-6809.894666,1149.143247
1211.808937,6957.935855,-6957.935855,1302.362347
1211.809267,6365.771101,-6587.832884,1149.143247
1211.809598,6217.729913,-6809.894666,612.876398
1211.809929,6735.874072,-6883.915261,766.095498
1211.810259,7031.956449,-7105.977043,1149.143247
1211.810590,7105.977043,-6735.874072,1149.143247
1211.810920,7031.956449,-6809.894666,1072.533697
1211.811251,7402.059420,-6365.771101,1378.971896
1211.811581,7179.997637,-6661.853478,1149.143247
1211.811912,7254.018232,-6513.812290,1225.752797
1211.812243,7328.038826,-6809.894666,919.314598
1211.812573,6735.874072,-6439.791695,612.876398
1211.812904,6661.853478,-6365.771101,919.314598
1211.813234,6957.935855,-6513.812290,1072.533697
1211.813565,6957.935855,-5995.668130,1608.800546
1211.813895,7179.997637,-6661.853478,1225.752797
1211.814226,7179.997637,-6217.729913,1072.533697
1211.814557,6809.894666,-6439.791695,536.266849
1211.814887,6587.832884,-6883.915261,1149.143247
1211.815218,6809.894666,-6365.771101,766.095498
1211.815548,6809.894666,-7031.956449,1072.533697
1211.815879,7105.977043,-6587.832884,1149.143247
1211.816208,7105.977043,-6661.853478,1149.143247
1211.816538,6809.894666,-6587.832884,306.438199
1211.816868,6735.874072,-6513.812290,612.876398
1211.817197,6513.812290,-6735.874072,536.266849
1211.817527,7031.956449,-6809.894666,995.924147
1211.817856,7105.977043,-6957.935855,1302.362347
1211.818186,7476.080014,-6365.771101,1532.190996
1211.818515,7624.121203,-6439.791695,1455.581446
1211.818845,7550.100608,-6291.750507,1072.533697
1211.819175,7328.038826,-5921.647536,766.095498
1211.819504,7105.977043,-6587.832884,1608.800546
1211.819834,6957.935855,-6587.832884,689.485948
1211.820163,6661.853478,-6439.791695,995.924147
1211.820493,7105.977043,-6217.729913,842.705048
1211.820823,6883.915261,-6217.729913,1225.752797
1211.821152,7105.977043,-5699.585753,995.924147
1211.821482,7105.977043,-6365.771101,919.314598
1211.821811,6735.874072,-6587.832884,995.924147
1211.822141,6365.771101,-6883.915261,689.485948
1211.822471,6809.894666,-7179.997637,919.314598
1211.822800,6365.771101,-6809.894666,1072.533697
1211.823130,6587.832884,-7105.977043,1302.362347
1211.823459,6735.874072,-6883.915261,919.314598
1211.823789,6661.853478,-6957.935855,766.095498
1211.824118,7031.956449,-7031.956449,536.266849
1211.824448,6661.853478,-7031.956449,1149.143247
1211.824778,6809.894666,-6883.915261,919.314598
1211.825107,7031.956449,-6883.915261,1149.143247
1211.825437,7105.977043,-6587.832884,1455.581446
1211.825766,7402.059420,-6735.874072,842.705048
1211.826096,7698.141797,-6217.729913,1455.581446
1211.826426,7179.997637,-6365.771101,842.705048
1211.826755,7179.997637,-6661.853478,1149.143247
1211.827085,7105.977043,-6365.771101,1302.362347
1211.827414,6809.894666,-6291.750507,612.876398
1211.827744,6513.812290,-5921.647536,842.705048
1211.828074,6661.853478,-6365.771101,1072.533697
1211.828403,7105.977043,-6587.832884,1149.143247
1211.828733,7105.977043,-6143.709319,1225.752797
1211.829062,6957.935855,-6291.750507,919.314598
1211.829392,6513.812290,-6661.853478,995.924147
1211.829722,6883.915261,-6661.853478,1225.752797
1211.830051,6735.874072,-6809.894666,1225.752797
1211.830381,7105.977043,-6735.874072,1455.581446
1211.830710,7179.997637,-6365.771101,1072.533697
1211.831040,6809.894666,-6735.874072,612.876398
1211.831369,6735.874072,-6809.894666,766.095498
1211.831699,6957.935855,-6883.915261,612.876398
1211.832029,6809.894666,-6883.915261,536.266849
1211.832358,6957.935855,-6735.874072,842.705048
1211.832688,7179.997637,-6735.874072,919.314598
1211.833017,7402.059420,-6291.750507,919.314598
1211.833347,7328.038826,-5995.668130,2145.067394
1211.833677,7624.121203,-6143.709319,766.095498
1211.834006,7105.977043,-6143.709319,1072.533697
1211.834336,7031.956449,-6069.688724,842.705048
1211.834665,7031.956449,-6513.812290,1072.533697
1211.834995,7105.977043,-6217.729913,766.095498
1211.835325,6883.915261,-6365.771101,919.314598
1211.835654,6957.935855,-6365.771101,1302.362347
1211.835984,7179.997637,-6365.771101,1455.581446
1211.836313,6735.874072,-5847.626942,1991.848295
1211.836643,6587.832884,-6587.832884,919.314598
1211.836972,6661.853478,-6883.915261,1302.362347
1211.837302,6957.935855,-6957.935855,689.485948
1211.837632,7105.977043,-7031.956449,1149.143247
1211.837961,7031.956449,-6069.688724,1685.410096
1211.838291,6809.894666,-7031.956449,1149.143247
1211.838620,6513.812290,-7031.956449,612.876398
1211.838950,6217.729913,-6883.915261,689.485948
1211.839280,6809.894666,-6439.791695,229.828649
1211.839609,7105.977043,-6957.935855,919.314598
1211.839939,7105.977043,-6957.935855,1149.143247
1211.840268,7254.018232,-6661.853478,995.924147
1211.840598,7328.038826,-6365.771101,1225.752797
1211.840928,7402.059420,-6365.771101,1072.533697
1211.841257,7328.038826,-6735.874072,1072.533697
1211.841587,7105.977043,-6587.832884,1378.971896
1211.841916,7105.977043,-6587.832884,919.314598
1211.842246,7105.977043,-6513.812290,1149.143247
1211.842575,6957.935855,-6069.688724,919.314598
1211.842905,7031.956449,-6439.791695,919.314598
1211.843235,7105.977043,-6439.791695,1225.752797
1211.843564,7105.977043,-6365.771101,1225.752797
1211.843894,6661.853478,-6291.750507,689.485948
1211.844223,6587.832884,-6883.915261,842.705048
1211.844553,6735.874072,-7179.997637,1608.800546
1211.844883,6809.894666,-6809.894666,1149.143247
1211.845212,6883.915261,-6217.729913,1225.752797
1211.845542,6957.935855,-7179.997637,995.924147
1211.845871,6957.935855,-7105.977043,612.876398
1211.846201,6513.812290,-6587.832884,766.095498
1211.846531,6587.832884,-6883.915261,842.705048
1211.846860,7031.956449,-6661.853478,1302.362347
1211.847190,7772.162391,-5995.668130,1225.752797
1211.847519,7105.977043,-6069.688724,1072.533697
1211.847849,7402.059420,-6587.832884,1455.581446
1211.848178,7476.080014,-6143.709319,1225.752797
1211.848508,7402.059420,-5625.565159,612.876398
1211.848838,6883.915261,-6217.729913,1149.143247
1211.849167,6735.874072,-6661.853478,612.876398
1211.849497,6883.915261,-6439.791695,1149.143247
1211.849826,6883.915261,-6217.729913,1149.143247
1211.850156,7031.956449,-6587.832884,766.095498
1211.850486,7328.038826,-6143.709319,1378.971896
1211.850815,7328.038826,-6365.771101,1225.752797
1211.851145,6809.894666,-6513.812290,919.314598
1211.851474,6809.894666,-6365.771101,919.314598
1211.851804,6735.874072,-6587.832884,842.705048
1211.852134,6883.915261,-6661.853478,612.876398
1211.852463,6661.853478,-7031.956449,1225.752797
1211.852793,6809.894666,-6883.915261,1149.143247
1211.853122,6661.853478,-6883.915261,1378.971896
1211.853452,6513.812290,-6883.915261,919.314598
1211.853781,6809.894666,-6809.894666,383.047749
1211.854111,6661.853478,-7179.997637,536.266849
1211.854441,7328.038826,-6587.832884,995.924147
1211.854770,7031.956449,-6513.812290,1072.533697
1211.855100,7254.018232,-6587.832884,1149.143247
1211.855429,7550.100608,-6513.812290,995.924147
1211.855759,7550.100608,-6217.729913,919.314598
1211.856089,7179.997637,-6439.791695,1455.581446
1211.856418,7105.977043,-6439.791695,1072.533697
1211.856748,6809.894666,-6439.791695,842.705048
1211.857077,6513.812290,-6069.688724,995.924147
1211.857407,7105.977043,-6439.791695,1149.143247
1211.857737,7105.977043,-6143.709319,1455.581446
1211.858066,7105.977043,-6365.771101,1455.581446
1211.858396,6957.935855,-6513.812290,1302.362347
1211.858725,6291.750507,-6735.874072,919.314598
1211.859055,6735.874072,-6291.750507,612.876398
1211.859384,6661.853478,-6661.853478,919.314598
1211.859714,6957.935855,-6957.935855,1149.143247
1211.860044,6957.935855,-6587.832884,1225.752797
1211.860373,6883.915261,-6883.915261,1149.143247
1211.860703,6809.894666,-6587.832884,995.924147
1211.861032,6587.832884,-6809.894666,842.705048
1211.861362,6883.915261,-7105.977043,612.876398
1211.861692,7328.038826,-6735.874072,1608.800546
1211.862021,7550.100608,-6587.832884,842.705048
1211.862351,7328.038826,-6439.791695,1302.362347
1211.862680,7624.121203,-6217.729913,1378.971896
1211.863010,7328.038826,-6291.750507,842.705048
1211.863340,7031.956449,-6365.771101,995.924147
1211.863669,7402.059420,-6661.853478,919.314598
1211.863999,6883.915261,-6513.812290,919.314598
1211.864328,7031.956449,-6439.791695,1225.752797
1211.864658,7105.977043,-6143.709319,1149.143247
1211.864987,7105.977043,-6069.688724,1225.752797
1211.865317,7179.997637,-6069.688724,1302.362347
1211.865647,7179.997637,-5921.647536,919.314598
1211.865976,7105.977043,-5551.544565,1149.143247
1211.866306,7624.121203,-5329.482782,1532.190996
1211.866635,8068.244768,-5921.647536,1455.581446
1211.866965,7920.203579,-6439.791695,1378.971896
1211.867295,7105.977043,-6143.709319,612.876398
1211.867624,5921.647536,-7550.100608,0.000000
1211.867954,5329.482782,-7698.141797,383.047749
1211.868283,6217.729913,-7402.059420,0.000000
1211.868613,7179.997637,-7550.100608,536.266849
1211.868943,8068.244768,-7105.977043,1608.800546
1211.869272,8290.306550,-5625.565159,1455.581446
1211.869602,8512.368333,-4219.173869,1532.190996
1211.869931,8882.471304,-4589.276840,1455.581446
1211.870261,8734.430116,-4219.173869,1072.533697
1211.870590,8808.450710,-4145.153275,1302.362347
1211.870920,9178.553681,-4071.132681,1838.629195
1211.871250,7994.224174,-4071.132681,536.266849
1211.871579,8068.244768,-4737.318029,919.314598
1211.871909,8216.285956,-3997.112087,612.876398
1211.872238,8808.450710,-5403.503377,1149.143247
1211.872568,8734.430116,-4737.318029,2298.286494
1211.872898,8660.409521,-5181.441594,1225.752797
1211.873227,7698.141797,-5403.503377,612.876398
1211.873557,7772.162391,-5181.441594,1072.533697
1211.873886,7994.224174,-5551.544565,766.095498
1211.874216,8216.285956,-5255.462188,995.924147
1211.874546,8290.306550,-3997.112087,1378.971896
1211.874875,8956.491898,-4515.256246,1225.752797
1211.875205,9030.512492,-3404.947333,1302.362347
1211.875534,8882.471304,-3997.112087,1915.238745
1211.875864,9178.553681,-3330.926739,1302.362347
1211.876194,9474.636058,-2960.823768,1302.362347
1211.876523,9178.553681,-4145.153275,995.924147
1211.876853,9252.574275,-3923.091493,842.705048
1211.877182,9696.697840,-4663.297435,1838.629195
1211.877512,9622.677246,-4885.359217,1302.362347
1211.877841,9326.594869,-5477.523971,919.314598
1211.878171,8364.327145,-5403.503377,766.095498
1211.878501,8142.265362,-6069.688724,459.657299
1211.878830,7698.141797,-6291.750507,995.924147
1211.879160,7698.141797,-5329.482782,1225.752797
1211.879489,8068.244768,-5107.421000,842.705048
1211.879819,8734.430116,-4589.276840,1072.533697
1211.880149,8290.306550,-4811.338623,612.876398
1211.880478,7624.121203,-5995.668130,153.219100
1211.880808,7476.080014,-5699.585753,229.828649
1211.881137,7105.977043,-5699.585753,-229.828649
1211.881467,7402.059420,-6809.894666,-306.438199
1211.881797,8808.450710,-5921.647536,536.266849
1211.882126,9474.636058,-6513.812290,536.266849
1211.882456,9696.697840,-5477.523971,995.924147
1211.882785,9178.553681,-4959.379811,766.095498
1211.883115,8808.450710,-3552.988522,689.485948
1211.883444,9252.574275,-3849.070898,1149.143247
1211.883774,9326.594869,-3627.009116,1378.971896
1211.884104,9400.615463,-3034.844362,1915.238745
1211.884433,9548.656652,-3256.906145,1838.629195
1211.884763,9178.553681,-2886.803174,2528.115143
1211.885092,9104.533087,-3923.091493,1762.019645
1211.885422,8586.388927,-4663.297435,1762.019645
1211.885752,8142.265362,-5255.462188,1072.533697
1211.886081,7105.977043,-5847.626942,306.438199
1211.886411,6809.894666,-5699.585753,0.000000
1211.886740,6883.915261,-6957.935855,-306.438199
1211.887070,7179.997637,-7328.038826,0.000000
1211.887400,6809.894666,-7550.100608,-383.047749
1211.887729,6883.915261,-7105.977043,0.000000
1211.888059,7402.059420,-7254.018232,459.657299
1211.888388,7550.100608,-6735.874072,842.705048
1211.888718,7328.038826,-6513.812290,995.924147
1211.889047,6809.894666,-6217.729913,995.924147
1211.889377,7105.977043,-6069.688724,1225.752797
1211.889707,7772.162391,-5477.523971,1762.019645
1211.890036,8660.409521,-5403.503377,2221.676944
1211.890366,9178.553681,-5699.585753,2451.505594
1211.890695,8808.450710,-5921.647536,2528.115143
1211.891025,7772.162391,-5699.585753,1608.800546
1211.891355,6809.894666,-5477.523971,612.876398
1211.891684,6513.812290,-6069.688724,229.828649
1211.892014,6291.750507,-6439.791695,-612.876398
1211.892343,6365.771101,-5921.647536,-612.876398
1211.892673,6217.729913,-5847.626942,-536.266849
1211.893003,7105.977043,-6513.812290,-306.438199
1211.893332,7328.038826,-7105.977043,76.609550
1211.893662,7402.059420,-7179.997637,76.609550
1211.893991,6883.915261,-7550.100608,919.314598
1211.894321,7179.997637,-8068.244768,1532.190996
1211.894650,7846.182985,-7476.080014,2911.162892
1211.894980,8142.265362,-7550.100608,3217.601092
1211.895310,7624.121203,-6883.915261,3140.991542
1211.895639,7105.977043,-6513.812290,2374.896044
1211.895969,5921.647536,-6587.832884,2068.457845
1211.896298,5329.482782,-5773.606348,1225.752797
1211.896628,5107.421000,-5403.503377,229.828649
1211.896958,6069.688724,-3478.967927,-536.266849
1211.897287,5995.668130,-4145.153275,-306.438199
1211.897617,6587.832884,-5255.462188,536.266849
1211.897946,6809.894666,-5551.544565,0.000000
1211.898276,6661.853478,-5699.585753,229.828649
1211.898606,6957.935855,-5995.668130,919.314598
1211.898935,7920.203579,-8216.285956,2834.553343
1211.899265,8882.471304,-8364.327145,3600.648841
1211.899594,9104.533087,-7105.977043,3294.210641
1211.899924,7920.203579,-6809.894666,3217.601092
1211.900253,6661.853478,-6809.894666,1838.629195
1211.900583,6069.688724,-7105.977043,995.924147
1211.900913,5477.523971,-7476.080014,383.047749
1211.901242,5403.503377,-6143.709319,-689.485948
1211.901572,5329.482782,-5847.626942,-1149.143247
1211.901901,6069.688724,-6587.832884,-229.828649
1211.902231,6957.935855,-7772.162391,229.828649
1211.902561,6957.935855,-7624.121203,229.828649
1211.902890,5995.668130,-7179.997637,0.000000
1211.903220,5551.544565,-7920.203579,919.314598
1211.903549,6661.853478,-7846.182985,2374.896044
1211.903879,8512.368333,-7402.059420,3524.039291
1211.904209,8808.450710,-6291.750507,3140.991542
1211.904538,8364.327145,-4737.318029,3064.381992
1211.904868,7254.018232,-4737.318029,1991.848295
1211.905197,6735.874072,-5551.544565,1225.752797
1211.905527,6513.812290,-5255.462188,536.266849
1211.905856,6587.832884,-5255.462188,229.828649
1211.906186,5329.482782,-5921.647536,-689.485948
1211.906516,6143.709319,-6809.894666,-383.047749
1211.906845,7105.977043,-7254.018232,-536.266849
1211.907175,7328.038826,-7402.059420,0.000000
1211.907504,6809.894666,-7772.162391,459.657299
1211.907834,7105.977043,-8586.388927,1378.971896
1211.908164,7550.100608,-7698.141797,2374.896044
1211.908493,7772.162391,-7402.059420,2757.943793
1211.908823,7846.182985,-5847.626942,3140.991542
1211.909152,8216.285956,-4219.173869,2145.067394
1211.909482,7698.141797,-3997.112087,2145.067394
1211.909812,7402.059420,-3034.844362,1072.533697
1211.910141,7476.080014,-2960.823768,306.438199
1211.910471,7698.141797,-2664.741391,0.000000
1211.910800,7402.059420,-5329.482782,0.000000
1211.911130,7772.162391,-6587.832884,0.000000
1211.911459,7624.121203,-6883.915261,0.000000
1211.911789,7179.997637,-7476.080014,0.000000
1211.912119,6957.935855,-9178.553681,919.314598
1211.912448,6809.894666,-9326.594869,1149.143247
1211.912778,6365.771101,-9474.636058,1225.752797
1211.913107,5699.585753,-8734.430116,766.095498
1211.913437,5551.544565,-8142.265362,1608.800546
1211.913767,5699.585753,-7772.162391,1378.971896
1211.914096,5773.606348,-6957.935855,536.266849
1211.914426,5699.585753,-5551.544565,0.000000
1211.914755,6143.709319,-4885.359217,0.000000
1211.915085,7328.038826,-5773.606348,383.047749
1211.915415,7550.100608,-5847.626942,383.047749
1211.915744,7772.162391,-6365.771101,306.438199
1211.916074,8216.285956,-6217.729913,919.314598
1211.916403,8882.471304,-7105.977043,842.705048
1211.916733,8142.265362,-7328.038826,1915.238745
1211.917062,7105.977043,-7476.080014,1685.410096
1211.917392,6957.935855,-7105.977043,1991.848295
1211.917722,6439.791695,-6587.832884,1378.971896
1211.918051,5699.585753,-6143.709319,1149.143247
1211.918381,4811.338623,-5773.606348,842.705048
1211.918710,5329.482782,-5921.647536,919.314598
1211.919040,6217.729913,-4959.379811,459.657299
1211.919369,7328.038826,-5033.400406,766.095498
1211.919699,8142.265362,-5625.565159,1225.752797
1211.920028,8882.471304,-5995.668130,1532.190996
1211.920358,8660.409521,-7328.038826,1455.581446
1211.920687,8438.347739,-7550.100608,2068.457845
1211.921017,8586.388927,-7402.059420,2068.457845
1211.921346,8290.306550,-7624.121203,1838.629195
1211.921675,7624.121203,-7105.977043,2221.676944
1211.922005,6439.791695,-7031.956449,1608.800546
1211.922334,5255.462188,-6883.915261,766.095498
1211.922664,4219.173869,-6661.853478,919.314598
1211.922993,3923.091493,-6439.791695,76.609550
1211.923323,4885.359217,-5625.565159,0.000000
1211.923652,5699.585753,-5847.626942,536.266849
1211.923982,6217.729913,-6661.853478,1302.362347
1211.924311,7254.018232,-6957.935855,995.924147
1211.924641,8068.244768,-7328.038826,1762.019645
1211.924970,8660.409521,-7476.080014,1915.238745
1211.925300,8216.285956,-8068.244768,2374.896044
1211.925629,7772.162391,-7179.997637,2834.553343
1211.925959,7698.141797,-7105.977043,2451.505594
1211.926288,7994.224174,-5921.647536,1838.629195
1211.926618,6809.894666,-5551.544565,1838.629195
1211.926947,6439.791695,-4885.359217,459.657299
1211.927277,5773.606348,-4367.215058,-306.438199
1211.927606,5329.482782,-4885.359217,-612.876398
1211.927935,5995.668130,-5107.421000,-229.828649
1211.928265,7031.956449,-5403.503377,689.485948
1211.928594,7920.203579,-5995.668130,612.876398
1211.928924,7846.182985,-7402.059420,689.485948
1211.929253,7772.162391,-7698.141797,842.705048
1211.929583,7550.100608,-9252.574275,995.924147
1211.929912,7550.100608,-9400.615463,1838.629195
1211.930242,7402.059420,-8882.471304,1378.971896
1211.930571,6735.874072,-8142.265362,1455.581446
1211.930901,6217.729913,-7476.080014,1455.581446
1211.931230,5847.626942,-7031.956449,1072.533697
1211.931560,5625.565159,-6513.812290,0.000000
1211.931889,4959.379811,-5033.400406,0.000000
1211.932219,5699.585753,-4515.256246,-1072.533697
1211.932548,6291.750507,-5181.441594,-766.095498
1211.932878,7254.018232,-5329.482782,536.266849
1211.933207,8586.388927,-5773.606348,383.047749
1211.933537,9030.512492,-5921.647536,1532.190996
1211.933866,9400.615463,-6291.750507,2068.457845
1211.934195,9474.636058,-6587.832884,1915.238745
1211.934525,9104.533087,-6587.832884,2604.724693
1211.934854,8512.368333,-6513.812290,2221.676944
1211.935184,7402.059420,-6069.688724,1378.971896
1211.935513,6883.915261,-5847.626942,1455.581446
1211.935843,6365.771101,-5477.523971,689.485948
1211.936172,5847.626942,-4959.379811,-229.828649
1211.936502,5477.523971,-5403.503377,-306.438199
1211.936831,5625.565159,-5847.626942,-459.657299
1211.937161,6217.729913,-6143.709319,0.000000
1211.937490,5995.668130,-6587.832884,0.000000
1211.937820,7846.182985,-7105.977043,919.314598
1211.938149,8512.368333,-7254.018232,1532.190996
1211.938479,9030.512492,-7772.162391,2911.162892
1211.938808,9030.512492,-7994.224174,2987.772442
1211.939138,8438.347739,-6735.874072,2528.115143
1211.939467,6735.874072,-6291.750507,1915.238745
1211.939796,5255.462188,-7476.080014,1072.533697
1211.940126,5107.421000,-6291.750507,919.314598
1211.940455,4663.297435,-6809.894666,0.000000
1211.940785,4737.318029,-7476.080014,76.609550
1211.941114,4515.256246,-6587.832884,-536.266849
1211.941444,5181.441594,-7254.018232,-612.876398
1211.941773,5995.668130,-7698.141797,0.000000
1211.942103,5995.668130,-8586.388927,459.657299
1211.942432,7254.018232,-8808.450710,1685.410096
1211.942762,7994.224174,-7105.977043,2374.896044
1211.943091,9030.512492,-6587.832884,2451.505594
1211.943421,9474.636058,-5255.462188,3677.258390
1211.943750,9844.739029,-4367.215058,3983.696590
1211.944080,9474.636058,-4515.256246,2451.505594
1211.944409,7624.121203,-2886.803174,1838.629195
1211.944739,6513.812290,-3478.967927,383.047749
1211.945068,6513.812290,-4071.132681,-536.266849
1211.945398,5847.626942,-5551.544565,153.219100
1211.945727,6069.688724,-7698.141797,76.609550
1211.946056,6513.812290,-7031.956449,0.000000
1211.946386,5995.668130,-8290.306550,383.047749
1211.946715,6809.894666,-9104.533087,1532.190996
1211.947045,7105.977043,-9696.697840,1378.971896
1211.947374,6661.853478,-9326.594869,1455.581446
1211.947704,5847.626942,-8956.491898,1225.752797
1211.948033,5773.606348,-7846.182985,1302.362347
1211.948363,6069.688724,-7031.956449,1455.581446
1211.948692,5773.606348,-6661.853478,1072.533697
1211.949022,5921.647536,-5625.565159,536.266849
1211.949351,6365.771101,-4293.194464,0.000000
1211.949681,6291.750507,-4737.318029,-306.438199
1211.950010,7846.182985,-4737.318029,536.266849
1211.950340,8290.306550,-5181.441594,0.000000
1211.950669,8512.368333,-6069.688724,383.047749
1211.950999,8142.265362,-7179.997637,995.924147
1211.951328,8290.306550,-8068.244768,1608.800546
1211.951658,8512.368333,-7328.038826,1915.238745
1211.951987,7772.162391,-7179.997637,2068.457845
1211.952316,7105.977043,-7031.956449,1991.848295
1211.952646,6587.832884,-6735.874072,1838.629195
1211.952975,6735.874072,-5329.482782,689.485948
1211.953305,5329.482782,-4219.173869,459.657299
1211.953634,6291.750507,-4219.173869,229.828649
1211.953964,7179.997637,-4293.194464,383.047749
1211.954293,7994.224174,-5403.503377,689.485948
1211.954623,7698.141797,-5995.668130,995.924147
1211.954952,7846.182985,-6365.771101,383.047749
1211.955282,8068.244768,-6439.791695,536.266849
1211.955611,7846.182985,-7846.182985,1455.581446
1211.955941,8216.285956,-8512.368333,2298.286494
1211.956270,8808.450710,-7698.141797,2221.676944
1211.956600,7105.977043,-7698.141797,1608.800546
1211.956929,5551.544565,-7698.141797,1225.752797
1211.957259,4885.359217,-7698.141797,1532.190996
1211.957588,4367.215058,-7105.977043,153.219100
1211.957918,4071.132681,-6513.812290,-459.657299
1211.958247,4293.194464,-6291.750507,-612.876398
1211.958576,5329.482782,-6735.874072,-689.485948
1211.958906,6587.832884,-7179.997637,0.000000
1211.959235,7179.997637,-7698.141797,536.266849
1211.959565,7550.100608,-7476.080014,1685.410096
1211.959894,7994.224174,-7328.038826,1838.629195
1211.960224,8216.285956,-7105.977043,2757.943793
1211.960553,9548.656652,-5995.668130,2834.553343
1211.960883,9326.594869,-5255.462188,3294.210641
1211.961212,9400.615463,-4145.153275,3370.820191
1211.961542,7846.182985,-4293.194464,2681.334243
1211.961871,6661.853478,-2368.659014,995.924147
1211.962201,5699.585753,-4071.132681,-306.438199
1211.962530,5551.544565,-5181.441594,-306.438199
1211.962860,5329.482782,-6439.791695,-229.828649
1211.963189,5847.626942,-7254.018232,-76.609550
1211.963519,6735.874072,-7402.059420,153.219100
1211.963848,7179.997637,-8216.285956,306.438199
1211.964178,7624.121203,-9474.636058,1149.143247
1211.964507,7476.080014,-10362.883188,1991.848295
1211.964836,7254.018232,-9474.636058,1762.019645
1211.965166,6513.812290,-8734.430116,1455.581446
1211.965495,6217.729913,-8290.306550,1608.800546
1211.965825,5921.647536,-7624.121203,1455.581446
1211.966154,5477.523971,-6735.874072,1225.752797
1211.966484,4811.338623,-5033.400406,919.314598
1211.966813,5403.503377,-4145.153275,-383.047749
1211.967143,6661.853478,-4219.173869,76.609550
1211.967472,7476.080014,-4441.235652,383.047749
1211.967802,7772.162391,-5329.482782,612.876398
1211.968131,7920.203579,-5847.626942,919.314598
1211.968461,8734.430116,-6143.709319,1991.848295
1211.968790,9178.553681,-6883.915261,2145.067394
1211.969120,9178.553681,-6809.894666,2681.334243
1211.969449,8586.388927,-7179.997637,2604.724693
1211.969779,7624.121203,-6513.812290,1838.629195
1211.970108,6439.791695,-5995.668130,1455.581446
1211.970438,5773.606348,-5847.626942,0.000000
1211.970767,6217.729913,-5921.647536,229.828649
1211.971096,6513.812290,-6291.750507,76.609550
1211.971426,6513.812290,-5181.441594,0.000000
1211.971755,6957.935855,-5107.421000,536.266849
1211.972085,7920.203579,-5625.565159,536.266849
1211.972414,8512.368333,-6291.750507,1072.533697
1211.972744,8438.347739,-7105.977043,1072.533697
1211.973073,7846.182985,-7624.121203,1072.533697
1211.973403,7550.100608,-8216.285956,1455.581446
1211.973732,7550.100608,-8364.327145,2298.286494
1211.974062,7328.038826,-7476.080014,2757.943793
1211.974391,6439.791695,-7550.100608,1838.629195
1211.974721,5329.482782,-6587.832884,1149.143247
1211.975050,4885.359217,-6291.750507,76.609550
1211.975380,4441.235652,-6809.894666,0.000000
1211.975709,4663.297435,-5995.668130,-536.266849
1211.976039,4737.318029,-6661.853478,-689.485948
1211.976368,5847.626942,-6735.874072,0.000000
1211.976698,6957.935855,-8512.368333,1302.362347
1211.977027,7846.182985,-7698.141797,1838.629195
1211.977356,7624.121203,-7105.977043,2221.676944
1211.977686,8142.265362,-6587.832884,2528.115143
1211.978015,8808.450710,-6069.688724,2681.334243
1211.978345,9326.594869,-5403.503377,3140.991542
1211.978674,8512.368333,-4663.297435,3140.991542
1211.979004,7624.121203,-4071.132681,1838.629195
1211.979333,6661.853478,-3849.070898,536.266849
1211.979663,6217.729913,-4589.276840,153.219100
1211.979992,6513.812290,-5773.606348,0.000000
1211.980322,6439.791695,-6365.771101,0.000000
1211.980651,6439.791695,-6957.935855,-306.438199
1211.980981,6143.709319,-7476.080014,0.000000
1211.981310,6809.894666,-8068.244768,306.438199
1211.981640,7328.038826,-9474.636058,1149.143247
1211.981969,7476.080014,-9400.615463,1608.800546
1211.982299,7105.977043,-9696.697840,2221.676944
1211.982628,7105.977043,-8956.491898,2374.896044
1211.982957,6513.812290,-7698.141797,2451.505594
1211.983287,5403.503377,-6735.874072,1838.629195
1211.983616,5107.421000,-5699.585753,689.485948
1211.983946,5033.400406,-5033.400406,76.609550
1211.984275,6291.750507,-4515.256246,-229.828649
1211.984605,6957.935855,-4367.215058,383.047749
1211.984934,7550.100608,-4885.359217,229.828649
1211.985264,7550.100608,-5847.626942,0.000000
1211.985593,7994.224174,-6661.853478,995.924147
1211.985923,8364.327145,-7105.977043,1532.190996
1211.986252,9104.533087,-7402.059420,1991.848295
1211.986582,8290.306550,-7179.997637,1915.238745
1211.986911,7920.203579,-7179.997637,1608.800546
1211.987241,7254.018232,-7328.038826,2145.067394
1211.987570,6809.894666,-6513.812290,459.657299
1211.987900,5477.523971,-6513.812290,383.047749
1211.988229,5033.400406,-5921.647536,229.828649
1211.988559,5551.544565,-5551.544565,0.000000
1211.988888,6513.812290,-5699.585753,229.828649
1211.989217,7476.080014,-5477.523971,689.485948
1211.989547,7698.141797,-5477.523971,383.047749
1211.989876,7920.203579,-6291.750507,689.485948
1211.990206,8142.265362,-7254.018232,612.876398
1211.990535,8142.265362,-7550.100608,2834.553343
1211.990865,8364.327145,-7624.121203,2374.896044
1211.991194,8068.244768,-7698.141797,2298.286494
1211.991524,6957.935855,-7031.956449,1838.629195
1211.991853,6143.709319,-6809.894666,1532.190996
1211.992183,5551.544565,-6661.853478,689.485948
1211.992512,4959.379811,-5921.647536,0.000000
1211.992842,4441.235652,-6069.688724,-689.485948
1211.993171,4737.318029,-6217.729913,-1072.533697
1211.993501,5847.626942,-6957.935855,0.000000
1211.993830,7179.997637,-6957.935855,153.219100
1211.994160,7550.100608,-7328.038826,689.485948
1211.994489,7920.203579,-7328.038826,1378.971896
1211.994819,7994.224174,-7328.038826,1838.629195
1211.995148,8808.450710,-6587.832884,2451.505594
1211.995477,9104.533087,-6439.791695,2528.115143
1211.995807,9400.615463,-5551.544565,2834.553343
1211.996136,8290.306550,-4811.338623,2757.943793
1211.996466,7624.121203,-3627.009116,1685.410096
1211.996795,5847.626942,-3701.029710,612.876398
1211.997125,5551.544565,-4811.338623,0.000000
1211.997454,5551.544565,-5329.482782,0.000000
1211.997784,6069.688724,-6069.688724,76.609550
1211.998113,6143.709319,-5921.647536,0.000000
1211.998443,6587.832884,-7031.956449,76.609550
1211.998772,6883.915261,-8364.327145,306.438199
1211.999102,6957.935855,-9252.574275,1149.143247
1211.999431,7031.956449,-10140.821405,1455.581446
1211.999761,7105.977043,-8512.368333,1378.971896
1212.000090,6513.812290,-8734.430116,1608.800546
1212.000420,5773.606348,-8438.347739,1915.238745
1212.000749,5995.668130,-7624.121203,1685.410096
1212.001079,5773.606348,-6365.771101,612.876398
1212.001408,5477.523971,-4219.173869,536.266849
1212.001737,6217.729913,-4293.194464,153.219100
1212.002067,6957.935855,-5107.421000,229.828649
1212.002396,7105.977043,-4959.379811,536.266849
1212.002726,7328.038826,-5551.544565,459.657299
1212.003055,8068.244768,-5403.503377,1149.143247
1212.003385,8882.471304,-6439.791695,1915.238745
1212.003714,9252.574275,-6587.832884,2451.505594
1212.004044,8660.409521,-6661.853478,2221.676944
1212.004373,7920.203579,-6587.832884,2987.772442
1212.004703,6809.894666,-6883.915261,1838.629195
1212.005032,6217.729913,-7031.956449,1072.533697
1212.005362,5625.565159,-6365.771101,536.266849
1212.005691,5625.565159,-5773.606348,229.828649
1212.006021,5773.606348,-6143.709319,383.047749
1212.006350,6513.812290,-5255.462188,153.219100
1212.006680,6661.853478,-5921.647536,153.219100
1212.007009,7402.059420,-5773.606348,-306.438199
1212.007339,7920.203579,-6883.915261,536.266849
1212.007668,7994.224174,-7772.162391,1149.143247
1212.007997,8586.388927,-8068.244768,2068.457845
1212.008327,8660.409521,-7698.141797,2068.457845
1212.008656,7994.224174,-7550.100608,2374.896044
1212.008986,7179.997637,-7402.059420,1608.800546
1212.009315,5847.626942,-7402.059420,1149.143247
1212.009645,5255.462188,-6365.771101,689.485948
1212.009974,4441.235652,-6217.729913,-229.828649
1212.010304,4737.318029,-5995.668130,-766.095498
1212.010633,5329.482782,-5921.647536,0.000000
1212.010963,6735.874072,-6217.729913,383.047749
1212.011292,7105.977043,-6661.853478,536.266849
1212.011622,7105.977043,-7328.038826,1378.971896
1212.011951,7550.100608,-6957.935855,1302.362347
1212.012281,8142.265362,-7476.080014,2528.115143
1212.012610,8808.450710,-6143.709319,2528.115143
1212.012940,8882.471304,-5995.668130,2757.943793
1212.013269,9104.533087,-4515.256246,3064.381992
1212.013599,8512.368333,-4811.338623,2221.676944
1212.013928,7254.018232,-5033.400406,1072.533697
1212.014257,5921.647536,-4811.338623,0.000000
1212.014587,5625.565159,-5699.585753,0.000000
1212.014916,6365.771101,-5773.606348,-689.485948
1212.015246,6439.791695,-6291.750507,383.047749
1212.015575,7476.080014,-6883.915261,153.219100
1212.015905,7254.018232,-7031.956449,153.219100
1212.016234,7105.977043,-7624.121203,459.657299
1212.016564,6661.853478,-9474.636058,1149.143247
1212.016893,6809.894666,-9400.615463,1838.629195
1212.017220,6513.812290,-9474.636058,1455.581446
1212.017550,6217.729913,-8216.285956,2221.676944
1212.017879,6513.812290,-7031.956449,2145.067394
1212.018208,6883.915261,-5921.647536,1608.800546
1212.018537,5921.647536,-5329.482782,842.705048
1212.018867,5699.585753,-5329.482782,0.000000
1212.019196,5625.565159,-5033.400406,-919.314598
1212.019525,5625.565159,-5329.482782,-306.438199
1212.019855,6883.915261,-5699.585753,306.438199
1212.020184,7772.162391,-6735.874072,612.876398
1212.020513,8660.409521,-6513.812290,1991.848295
1212.020843,9178.553681,-6069.688724,2068.457845
1212.021172,9030.512492,-6587.832884,2757.943793
1212.021501,8364.327145,-7179.997637,2451.505594
1212.021830,7772.162391,-7105.977043,1838.629195
1212.022160,6735.874072,-6143.709319,919.314598
1212.022489,5847.626942,-5699.585753,536.266849
1212.022818,6365.771101,-5847.626942,612.876398
1212.023148,6513.812290,-5699.585753,153.219100
1212.023477,6365.771101,-5181.441594,229.828649
1212.023806,6439.791695,-5625.565159,-306.438199
1212.024135,6809.894666,-6069.688724,-229.828649
1212.024465,6809.894666,-7105.977043,153.219100
1212.024794,6957.935855,-7254.018232,383.047749
1212.025123,7994.224174,-7698.141797,1378.971896
1212.025453,8660.409521,-7920.203579,2681.334243
1212.025782,8364.327145,-8216.285956,2528.115143
1212.026111,7920.203579,-7846.182985,2528.115143
1212.026441,7105.977043,-6809.894666,2145.067394
1212.026770,5699.585753,-6513.812290,1225.752797
1212.027099,4589.276840,-6143.709319,689.485948
1212.027428,4589.276840,-5921.647536,-306.438199
1212.027758,4663.297435,-5995.668130,-383.047749
1212.028087,5181.441594,-6661.853478,-383.047749
1212.028416,5773.606348,-7179.997637,306.438199
1212.028746,7031.956449,-8660.409521,536.266849
1212.029075,6957.935855,-7994.224174,766.095498
1212.029404,7105.977043,-7920.203579,1149.143247
1212.029733,7550.100608,-7994.224174,2528.115143
1212.030063,8734.430116,-5551.544565,1991.848295
1212.030392,9400.615463,-5477.523971,3064.381992
1212.030721,9474.636058,-4071.132681,3140.991542
1212.031051,8956.491898,-3997.112087,2068.457845
1212.031380,7624.121203,-3404.947333,1225.752797
1212.031709,7031.956449,-3923.091493,459.657299
1212.032039,6883.915261,-4145.153275,612.876398
1212.032368,7105.977043,-4885.359217,536.266849
1212.032697,7105.977043,-6217.729913,306.438199
1212.033026,6883.915261,-6439.791695,612.876398
1212.033356,6217.729913,-8512.368333,0.000000
1212.033685,6587.832884,-9104.533087,919.314598
1212.034014,6069.688724,-9992.780217,1072.533697
1212.034344,5773.606348,-10584.944971,1532.190996
1212.034673,5551.544565,-9474.636058,1302.362347
1212.035002,5625.565159,-9104.533087,1302.362347
1212.035331,5625.565159,-7402.059420,1225.752797
1212.035661,5847.626942,-6143.709319,995.924147
1212.035990,6143.709319,-5329.482782,689.485948
1212.036319,6439.791695,-4219.173869,0.000000
1212.036649,6735.874072,-4219.173869,0.000000
1212.036978,7476.080014,-5107.421000,229.828649
1212.037307,8290.306550,-5625.565159,536.266849
1212.037637,8216.285956,-6217.729913,842.705048
1212.037966,8216.285956,-6957.935855,1302.362347
1212.038295,7994.224174,-7698.141797,1149.143247
1212.038624,7994.224174,-7624.121203,1762.019645
1212.038954,7846.182985,-7328.038826,1532.190996
1212.039283,7994.224174,-6957.935855,2298.286494
1212.039612,7105.977043,-6439.791695,1685.410096
1212.039942,6217.729913,-5107.421000,1302.362347
1212.040271,5921.647536,-4293.194464,612.876398
1212.040600,6809.894666,-3775.050304,459.657299
1212.040929,7550.100608,-3775.050304,766.095498
1212.041259,8364.327145,-4441.235652,1225.752797
1212.041588,8142.265362,-4737.318029,919.314598
1212.041917,7624.121203,-5921.647536,612.876398
1212.042247,7550.100608,-6809.894666,612.876398
1212.042576,7624.121203,-7994.224174,1608.800546
1212.042905,7698.141797,-9104.533087,1608.800546
1212.043235,7920.203579,-8734.430116,2451.505594
1212.043564,7550.100608,-7846.182985,2068.457845
1212.043893,6143.709319,-7994.224174,1225.752797
1212.044222,4737.318029,-6883.915261,1378.971896
1212.044552,4219.173869,-7105.977043,-229.828649
1212.044881,4071.132681,-6217.729913,-842.705048
1212.045210,3997.112087,-5625.565159,-842.705048
1212.045540,5033.400406,-6883.915261,-766.095498
1212.045869,6439.791695,-6661.853478,0.000000
1212.046198,6735.874072,-7846.182985,689.485948
1212.046527,7179.997637,-7402.059420,919.314598
1212.046857,7698.141797,-7920.203579,1608.800546
1212.047186,8438.347739,-7920.203579,2451.505594
1212.047515,8586.388927,-7254.018232,2528.115143
1212.047845,8438.347739,-6661.853478,3064.381992
1212.048174,8808.450710,-4367.215058,2987.772442
1212.048503,8438.347739,-4293.194464,2068.457845
1212.048832,7328.038826,-3256.906145,2068.457845
1212.049162,7105.977043,-3552.988522,919.314598
1212.049491,7105.977043,-3627.009116,459.657299
1212.049820,6957.935855,-4071.132681,0.000000
1212.050150,6439.791695,-5699.585753,0.000000
1212.050479,7031.956449,-6291.750507,306.438199
1212.050808,6735.874072,-7550.100608,459.657299
1212.051138,7105.977043,-8956.491898,1225.752797
1212.051467,7624.121203,-9622.677246,1762.019645
1212.051796,7624.121203,-9474.636058,1762.019645
1212.052125,7031.956449,-9844.739029,1838.629195
1212.052455,6069.688724,-8882.471304,1762.019645
1212.052784,5403.503377,-7476.080014,919.314598
1212.053113,4737.318029,-7476.080014,536.266849
1212.053443,4441.235652,-6291.750507,76.609550
1212.053772,5255.462188,-5329.482782,-153.219100
1212.054101,6883.915261,-4441.235652,0.000000
1212.054430,7179.997637,-4737.318029,76.609550
1212.054760,7994.224174,-5551.544565,1149.143247
1212.055089,8586.388927,-5773.606348,919.314598
1212.055418,8438.347739,-6513.812290,1685.410096
1212.055748,8216.285956,-6809.894666,1455.581446
1212.056077,8216.285956,-7105.977043,2145.067394
1212.056406,7846.182985,-7402.059420,1915.238745
1212.056736,7698.141797,-6957.935855,2145.067394
1212.057065,7179.997637,-6217.729913,1762.019645
1212.057394,6513.812290,-6069.688724,1915.238745
1212.057723,6365.771101,-5255.462188,689.485948
1212.058053,6143.709319,-4737.318029,153.219100
1212.058382,6883.915261,-4367.215058,0.000000
1212.058711,7105.977043,-4811.338623,229.828649
1212.059041,7476.080014,-5107.421000,383.047749
1212.059370,8364.327145,-5551.544565,689.485948
1212.059699,8660.409521,-6217.729913,1149.143247
1212.060028,8586.388927,-7476.080014,1532.190996
1212.060358,8364.327145,-8068.244768,2451.505594
1212.060687,7624.121203,-8142.265362,2451.505594
1212.061016,7254.018232,-7402.059420,2221.676944
1212.061346,6513.812290,-7105.977043,1762.019645
1212.061675,5551.544565,-7031.956449,1302.362347
1212.062004,4441.235652,-7105.977043,153.219100
1212.062334,3478.967927,-6883.915261,-153.219100
1212.062663,3552.988522,-6661.853478,-995.924147
1212.062992,4589.276840,-7105.977043,-842.705048
1212.063321,5255.462188,-8068.244768,459.657299
1212.063651,6217.729913,-8290.306550,306.438199
1212.063980,7105.977043,-8438.347739,995.924147
1212.064309,7476.080014,-7994.224174,1608.800546
1212.064639,8290.306550,-7550.100608,1455.581446
1212.064968,8586.388927,-7254.018232,2374.896044
1212.065297,8956.491898,-6365.771101,2528.115143
1212.065626,9030.512492,-5403.503377,2681.334243
1212.065956,8364.327145,-4737.318029,2451.505594
1212.066285,7920.203579,-3256.906145,153.219100
1212.066614,7105.977043,-2960.823768,153.219100
1212.066944,6957.935855,-3330.926739,0.000000
1212.067273,6957.935855,-4589.276840,-153.219100
1212.067602,6883.915261,-5773.606348,153.219100
1212.067932,7031.956449,-6143.709319,0.000000
1212.068261,7031.956449,-7328.038826,153.219100
1212.068590,7179.997637,-8586.388927,1149.143247
1212.068919,8068.244768,-9030.512492,2221.676944
1212.069249,7624.121203,-8882.471304,2068.457845
1212.069578,6735.874072,-8364.327145,1762.019645
1212.069907,5995.668130,-7698.141797,1455.581446
1212.070237,5773.606348,-7624.121203,1608.800546
1212.070566,5477.523971,-6809.894666,919.314598
1212.070895,5551.544565,-6291.750507,383.047749
1212.071224,5329.482782,-4885.359217,-153.219100
1212.071554,5921.647536,-4737.318029,-459.657299
1212.071883,6439.791695,-6143.709319,-153.219100
1212.072212,7105.977043,-6587.832884,536.266849
1212.072542,7846.182985,-6735.874072,766.095498
1212.072871,7920.203579,-7550.100608,1455.581446
1212.073200,8216.285956,-7624.121203,2145.067394
1212.073530,8364.327145,-7476.080014,2374.896044
1212.073859,7846.182985,-7328.038826,2834.553343
1212.074188,7328.038826,-6291.750507,2068.457845
1212.074517,6587.832884,-6217.729913,1532.190996
1212.074847,6143.709319,-5033.400406,995.924147
1212.075176,6069.688724,-4663.297435,612.876398
1212.075505,6513.812290,-4145.153275,536.266849
1212.075835,7031.956449,-4737.318029,689.485948
1212.076164,7402.059420,-5255.462188,459.657299
1212.076493,7402.059420,-5699.585753,459.657299
1212.076822,7031.956449,-7105.977043,1072.533697
1212.077152,7550.100608,-7476.080014,1378.971896
1212.077481,7994.224174,-8586.388927,1838.629195
1212.077810,7846.182985,-8586.388927,1991.848295
1212.078140,7328.038826,-8364.327145,1915.238745
1212.078469,7105.977043,-7698.141797,1378.971896
1212.078798,5847.626942,-7179.997637,1455.581446
1212.079128,5107.421000,-7179.997637,919.314598
1212.079457,4663.297435,-6439.791695,153.219100
1212.079786,4515.256246,-5699.585753,-612.876398
1212.080115,4885.359217,-5773.606348,-383.047749
1212.080445,5921.647536,-6291.750507,76.609550
1212.080774,7179.997637,-6587.832884,306.438199
1212.081103,7920.203579,-6661.853478,766.095498
1212.081433,8290.306550,-6809.894666,2068.457845
1212.081762,8956.491898,-7105.977043,2221.676944
1212.082091,9548.656652,-6291.750507,2451.505594
1212.082420,9030.512492,-6217.729913,3064.381992
1212.082750,8512.368333,-5255.462188,2604.724693
1212.083079,7994.224174,-5403.503377,2221.676944
1212.083408,7550.100608,-4293.194464,1225.752797
1212.083738,6217.729913,-4737.318029,919.314598
1212.084067,6143.709319,-4885.359217,459.657299
1212.084396,5995.668130,-4737.318029,842.705048
1212.084726,5995.668130,-5329.482782,0.000000
1212.085055,6365.771101,-5921.647536,153.219100
1212.085384,7105.977043,-7105.977043,0.000000
1212.085713,7624.121203,-7920.203579,383.047749
1212.086043,7402.059420,-8734.430116,1072.533697
1212.086372,7402.059420,-9178.553681,1302.362347
1212.086701,7624.121203,-8808.450710,1608.800546
1212.087031,7105.977043,-8882.471304,1685.410096
1212.087360,6217.729913,-8068.244768,1378.971896
1212.087689,5921.647536,-7254.018232,1762.019645
1212.088018,5329.482782,-6513.812290,383.047749
1212.088348,5255.462188,-5403.503377,-153.219100
1212.088677,5033.400406,-4885.359217,-536.266849
1212.089006,6365.771101,-5773.606348,-536.266849
1212.089336,6439.791695,-5699.585753,0.000000
1212.089665,6957.935855,-6513.812290,229.828649
1212.089994,7846.182985,-6365.771101,1072.533697
1212.090324,8882.471304,-7105.977043,2374.896044
1212.090653,9178.553681,-7105.977043,1762.019645
1212.090982,8364.327145,-7179.997637,2374.896044
1212.091311,7846.182985,-7624.121203,2604.724693
1212.091641,7698.141797,-6217.729913,2068.457845
1212.091970,6513.812290,-5773.606348,1991.848295
1212.092299,6587.832884,-4515.256246,1302.362347
1212.092629,6069.688724,-4737.318029,383.047749
1212.092958,6069.688724,-4737.318029,153.219100
1212.093287,6291.750507,-5477.523971,0.000000
1212.093616,6587.832884,-5477.523971,76.609550
1212.093946,6809.894666,-6439.791695,0.000000
1212.094275,6809.894666,-7105.977043,0.000000
1212.094604,7846.182985,-7846.182985,1302.362347
1212.094934,8956.491898,-8512.368333,3370.820191
1212.095263,9918.759623,-7772.162391,2681.334243
1212.095592,8512.368333,-7254.018232,2451.505594
1212.095922,7031.956449,-7179.997637,2068.457845
1212.096251,6291.750507,-7179.997637,1225.752797
1212.096580,5181.441594,-6513.812290,1072.533697
1212.096909,4145.153275,-6587.832884,229.828649
1212.097239,4367.215058,-5625.565159,-612.876398
1212.097568,4885.359217,-5995.668130,-689.485948
1212.097897,5847.626942,-7031.956449,229.828649
1212.098227,6513.812290,-7105.977043,995.924147
1212.098556,6883.915261,-7846.182985,766.095498
1212.098885,7179.997637,-7254.018232,1072.533697
1212.099214,7402.059420,-7772.162391,1915.238745
1212.099544,8216.285956,-6809.894666,2451.505594
1212.099873,8734.430116,-6883.915261,3064.381992
1212.100202,8438.347739,-5773.606348,2681.334243
1212.100532,8142.265362,-5329.482782,2298.286494
1212.100861,7550.100608,-4441.235652,1455.581446
1212.101190,7031.956449,-4071.132681,612.876398
1212.101520,6587.832884,-4737.318029,76.609550
1212.101849,6957.935855,-4737.318029,0.000000
1212.102178,7105.977043,-5329.482782,383.047749
1212.102507,7328.038826,-5625.565159,536.266849
1212.102837,7328.038826,-6439.791695,612.876398
1212.103166,7550.100608,-7772.162391,766.095498
1212.103495,6883.915261,-9548.656652,766.095498
1212.103825,6587.832884,-9844.739029,1455.581446
1212.104154,6365.771101,-8882.471304,919.314598
1212.104483,6365.771101,-8364.327145,1378.971896
1212.104812,6143.709319,-7920.203579,1378.971896
1212.105142,6069.688724,-7105.977043,1685.410096
1212.105471,5847.626942,-5773.606348,842.705048
1212.105800,6069.688724,-4589.276840,459.657299
1212.106130,5773.606348,-4145.153275,-383.047749
1212.106459,6143.709319,-5329.482782,-383.047749
1212.106788,6883.915261,-6069.688724,306.438199
1212.107118,7772.162391,-6809.894666,1149.143247
1212.107447,8068.244768,-7254.018232,1072.533697
1212.107776,8364.327145,-7550.100608,1915.238745
1212.108105,8586.388927,-7846.182985,2145.067394
1212.108435,8290.306550,-7624.121203,1838.629195
1212.108764,7920.203579,-7254.018232,1455.581446
1212.109093,6735.874072,-6365.771101,1225.752797
1212.109423,6365.771101,-6069.688724,1378.971896
1212.109752,6291.750507,-5329.482782,459.657299
1212.110081,6217.729913,-4811.338623,459.657299
1212.110410,6661.853478,-4441.235652,459.657299
1212.110740,6957.935855,-4737.318029,0.000000
1212.111069,7105.977043,-5773.606348,536.266849
1212.111398,7476.080014,-5625.565159,766.095498
1212.111728,7772.162391,-5995.668130,1225.752797
1212.112057,8290.306550,-7105.977043,1455.581446
1212.112386,9030.512492,-7624.121203,2298.286494
1212.112716,9104.533087,-8512.368333,2681.334243
1212.113045,8142.265362,-7105.977043,2911.162892
1212.113374,6661.853478,-7031.956449,1685.410096
1212.113703,5181.441594,-7254.018232,919.314598
1212.114033,4219.173869,-6809.894666,536.266849
1212.114362,4071.132681,-7105.977043,153.219100
1212.114691,4071.132681,-5921.647536,-306.438199
1212.115021,4663.297435,-6217.729913,-536.266849
1212.115350,4959.379811,-6365.771101,-229.828649
1212.115679,6365.771101,-6883.915261,383.047749
1212.116008,7328.038826,-7624.121203,995.924147
1212.116338,8364.327145,-6661.853478,1991.848295
1212.116667,8882.471304,-7402.059420,2374.896044
1212.116996,9474.636058,-6809.894666,2451.505594
1212.117326,9178.553681,-6291.750507,2681.334243
1212.117655,8734.430116,-5477.523971,2681.334243
1212.117984,7624.121203,-5107.421000,1915.238745
1212.118314,6809.894666,-4959.379811,842.705048
1212.118643,5921.647536,-4885.359217,459.657299
1212.118972,5847.626942,-4737.318029,383.047749
1212.119301,6809.894666,-5773.606348,0.000000
1212.119630,6217.729913,-5773.606348,-383.047749
1212.119960,6291.750507,-6735.874072,0.000000
1212.120289,6069.688724,-7846.182985,229.828649
1212.120618,6513.812290,-8512.368333,995.924147
1212.120947,6883.915261,-9326.594869,1455.581446
1212.121276,7254.018232,-9474.636058,1685.410096
1212.121606,7254.018232,-9252.574275,1685.410096
1212.121935,7254.018232,-7846.182985,1991.848295
1212.122264,7105.977043,-6957.935855,2374.896044
1212.122593,5995.668130,-6291.750507,1225.752797
1212.122922,5995.668130,-5033.400406,766.095498
1212.123252,5625.565159,-4885.359217,-306.438199
1212.123581,5699.585753,-4737.318029,-306.438199
1212.123910,6291.750507,-5477.523971,-229.828649
1212.124239,7402.059420,-6291.750507,0.000000
1212.124568,7772.162391,-6365.771101,383.047749
1212.124897,7920.203579,-6735.874072,919.314598
1212.125227,8142.265362,-7402.059420,1302.362347
1212.125556,8734.430116,-7402.059420,2451.505594
1212.125885,7920.203579,-7476.080014,2068.457845
1212.126214,7624.121203,-6661.853478,2374.896044
1212.126543,7402.059420,-5699.585753,2145.067394
1212.126873,7328.038826,-4959.379811,1455.581446
1212.127202,6661.853478,-5403.503377,1302.362347
1212.127531,6217.729913,-4293.194464,306.438199
1212.127860,6365.771101,-4515.256246,153.219100
1212.128189,6143.709319,-5033.400406,0.000000
1212.128519,6587.832884,-5477.523971,0.000000
1212.128848,7328.038826,-6735.874072,536.266849
1212.129177,7920.203579,-6587.832884,459.657299
1212.129506,7476.080014,-8216.285956,1072.533697
1212.129835,8290.306550,-8734.430116,2451.505594
1212.130164,8068.244768,-8364.327145,2221.676944
1212.130494,7402.059420,-8364.327145,1608.800546
1212.130823,6365.771101,-7846.182985,1991.848295
1212.131152,5847.626942,-7105.977043,1455.581446
1212.131481,5329.482782,-5995.668130,689.485948
1212.131810,4737.318029,-5847.626942,76.609550
1212.132140,5033.400406,-5403.503377,-306.438199
1212.132469,5625.565159,-5403.503377,-459.657299
1212.132798,5995.668130,-6587.832884,0.000000
1212.133127,6587.832884,-7328.038826,459.657299
1212.133456,7179.997637,-7550.100608,1072.533697
1212.133785,7846.182985,-7476.080014,1302.362347
1212.134115,8290.306550,-8068.244768,1762.019645
1212.134444,8660.409521,-7179.997637,2451.505594
1212.134773,8512.368333,-7031.956449,2374.896044
1212.135102,8142.265362,-6661.853478,2298.286494
1212.135431,7179.997637,-5551.544565,1991.848295
1212.135761,6587.832884,-4515.256246,1072.533697
1212.136090,6661.853478,-4737.318029,919.314598
1212.136419,6069.688724,-4071.132681,306.438199
1212.136748,6291.750507,-4589.276840,0.000000
1212.137077,7105.977043,-4811.338623,0.000000
1212.137407,7624.121203,-6217.729913,536.266849
1212.137736,7402.059420,-7328.038826,229.828649
1212.138065,7402.059420,-7698.141797,919.314598
1212.138394,8512.368333,-8660.409521,1532.190996
1212.138723,8142.265362,-8808.450710,1915.238745
1212.139052,7698.141797,-8290.306550,2834.553343
1212.139382,7105.977043,-7550.100608,1608.800546
1212.139711,6143.709319,-6661.853478,1302.362347
1212.140040,5403.503377,-6661.853478,919.314598
1212.140369,5403.503377,-6365.771101,0.000000
1212.140698,5773.606348,-5181.441594,153.219100
1212.141028,5921.647536,-4737.318029,153.219100
1212.141357,6735.874072,-5181.441594,153.219100
1212.141686,6883.915261,-5403.503377,459.657299
1212.142015,7328.038826,-6291.750507,766.095498
1212.142344,7846.182985,-7254.018232,1302.362347
1212.142673,7624.121203,-7624.121203,1532.190996
1212.143003,7698.141797,-7846.182985,1991.848295
1212.143332,7698.141797,-7920.203579,2145.067394
1212.143661,7698.141797,-6883.915261,1455.581446
1212.143990,7105.977043,-6883.915261,1762.019645
1212.144319,6661.853478,-5921.647536,1455.581446
1212.144649,6069.688724,-4959.379811,383.047749
1212.144978,6439.791695,-4885.359217,229.828649
1212.145307,6217.729913,-4811.338623,0.000000
1212.145636,6957.935855,-5107.421000,459.657299
1212.145965,7550.100608,-5995.668130,459.657299
1212.146295,7920.203579,-6439.791695,919.314598
1212.146624,7920.203579,-7179.997637,1378.971896
1212.146953,8512.368333,-7624.121203,1685.410096
1212.147282,7994.224174,-8142.265362,2068.457845
1212.147611,7254.018232,-8068.244768,2298.286494
1212.147940,7105.977043,-7920.203579,1991.848295
1212.148270,6513.812290,-6587.832884,1838.629195
1212.148599,5773.606348,-6365.771101,1149.143247
1212.148928,5107.421000,-6587.832884,689.485948
1212.149257,5033.400406,-6291.750507,383.047749
1212.149586,4663.297435,-5107.421000,-383.047749
1212.149916,4959.379811,-6439.791695,-76.609550
1212.150245,5921.647536,-6439.791695,383.047749
1212.150574,7105.977043,-7105.977043,842.705048
1212.150903,7994.224174,-7179.997637,1225.752797
1212.151232,7920.203579,-7402.059420,1915.238745
1212.151561,7994.224174,-7550.100608,1838.629195
1212.151891,8290.306550,-7105.977043,2068.457845
1212.152220,8142.265362,-7031.956449,2298.286494
1212.152549,8512.368333,-6217.729913,2681.334243
1212.152878,7402.059420,-5477.523971,1685.410096
1212.153207,7105.977043,-5033.400406,842.705048
1212.153537,6735.874072,-4663.297435,689.485948
1212.153866,6735.874072,-4737.318029,0.000000
1212.154195,7328.038826,-5033.400406,-229.828649
1212.154524,6513.812290,-5847.626942,76.609550
1212.154853,6883.915261,-6883.915261,153.219100
1212.155183,7179.997637,-7402.059420,612.876398
1212.155512,7624.121203,-7476.080014,1608.800546
1212.155841,7476.080014,-8734.430116,1532.190996
1212.156170,7328.038826,-8438.347739,2145.067394
1212.156499,7179.997637,-8216.285956,2221.676944
1212.156828,6365.771101,-7402.059420,1915.238745
1212.157158,6069.688724,-6587.832884,1455.581446
1212.157487,5773.606348,-6069.688724,919.314598
1212.157816,5477.523971,-5625.565159,536.266849
1212.158145,5403.503377,-5477.523971,0.000000
1212.158474,5255.462188,-5477.523971,-459.657299
1212.158804,6217.729913,-5921.647536,-229.828649
1212.159133,6809.894666,-6439.791695,153.219100
1212.159462,7476.080014,-7105.977043,689.485948
1212.159791,7846.182985,-7254.018232,1455.581446
1212.160120,8808.450710,-7402.059420,1532.190996
1212.160450,8438.347739,-7402.059420,1838.629195
1212.160779,8216.285956,-7179.997637,2221.676944
1212.161108,7846.182985,-6661.853478,1455.581446
1212.161437,7105.977043,-5477.523971,1685.410096
1212.161766,7105.977043,-4737.318029,689.485948
1212.162095,6883.915261,-4515.256246,459.657299
1212.162425,7105.977043,-4293.194464,459.657299
1212.162754,7105.977043,-4441.235652,229.828649
1212.163083,7476.080014,-4811.338623,0.000000
1212.163412,6957.935855,-6365.771101,536.266849
1212.163741,6513.812290,-7328.038826,459.657299
1212.164071,7254.018232,-7994.224174,842.705048
1212.164400,7772.162391,-7772.162391,1608.800546
1212.164729,8512.368333,-8808.450710,2911.162892
1212.165058,7994.224174,-8142.265362,2528.115143
1212.165387,7179.997637,-7624.121203,2068.457845
1212.165716,6143.709319,-7179.997637,1378.971896
1212.166046,5329.482782,-6883.915261,919.314598
1212.166375,4959.379811,-6365.771101,383.047749
1212.166704,4737.318029,-5847.626942,-689.485948
1212.167033,4811.338623,-6365.771101,-383.047749
1212.167362,5773.606348,-6217.729913,-536.266849
1212.167692,6587.832884,-6439.791695,383.047749
1212.168021,7254.018232,-7328.038826,612.876398
1212.168350,7328.038826,-8364.327145,536.266849
1212.168679,7698.141797,-8290.306550,1762.019645
1212.169008,7846.182985,-7846.182985,1915.238745
1212.169338,8364.327145,-6957.935855,1915.238745
1212.169667,8068.244768,-6439.791695,2604.724693
1212.169996,8512.368333,-5551.544565,2451.505594
1212.170325,8142.265362,-4515.256246,1455.581446
1212.170654,7254.018232,-4145.153275,995.924147
1212.170983,6809.894666,-2886.803174,766.095498
1212.171313,6809.894666,-3627.009116,0.000000
1212.171642,6883.915261,-3997.112087,306.438199
1212.171971,6735.874072,-5847.626942,383.047749
1212.172300,7105.977043,-6957.935855,383.047749
1212.172629,6735.874072,-7698.141797,306.438199
1212.172959,6809.894666,-8808.450710,919.314598
1212.173288,7698.141797,-9474.636058,1685.410096
1212.173617,8290.306550,-9326.594869,2221.676944
1212.173946,7328.038826,-8512.368333,1685.410096
1212.174275,6809.894666,-7698.141797,1915.238745
1212.174604,6217.729913,-6809.894666,1455.581446
1212.174934,5921.647536,-6143.709319,383.047749
1212.175263,5255.462188,-5625.565159,229.828649
1212.175592,5255.462188,-5699.585753,-383.047749
1212.175921,5847.626942,-5033.400406,-306.438199
1212.176250,6365.771101,-5107.421000,0.000000
1212.176580,7031.956449,-6069.688724,689.485948
1212.176909,7920.203579,-6217.729913,536.266849
1212.177238,8438.347739,-6661.853478,1762.019645
1212.177567,8216.285956,-7179.997637,2068.457845
1212.177896,7846.182985,-7550.100608,2221.676944
1212.178226,7994.224174,-7254.018232,2298.286494
1212.178555,7550.100608,-6735.874072,2221.676944
1212.178884,7179.997637,-5699.585753,1915.238745
1212.179213,6513.812290,-5551.544565,1532.190996
1212.179542,6439.791695,-4811.338623,612.876398
1212.179871,6143.709319,-4811.338623,536.266849
1212.180201,6069.688724,-5329.482782,0.000000
1212.180530,6661.853478,-5477.523971,-459.657299
1212.180859,6957.935855,-5625.565159,229.828649
1212.181188,7402.059420,-6809.894666,459.657299
1212.181517,7920.203579,-7624.121203,1149.143247
1212.181847,8882.471304,-8142.265362,1991.848295
1212.182176,8956.491898,-8734.430116,2451.505594
1212.182505,7772.162391,-7994.224174,2221.676944
1212.182834,6513.812290,-7846.182985,2451.505594
1212.183163,5995.668130,-7402.059420,1532.190996
1212.183492,4885.359217,-7031.956449,689.485948
1212.183822,4885.359217,-6513.812290,229.828649
1212.184151,5255.462188,-5699.585753,306.438199
1212.184480,5995.668130,-4885.359217,229.828649
1212.184809,6143.709319,-5329.482782,-229.828649
1212.185138,6291.750507,-6735.874072,306.438199
1212.185468,7105.977043,-7254.018232,229.828649
1212.185797,7105.977043,-7994.224174,1302.362347
1212.186126,7402.059420,-7624.121203,1685.410096
1212.186455,7328.038826,-7846.182985,1838.629195
1212.186784,7698.141797,-7846.182985,2298.286494
1212.187114,7624.121203,-7179.997637,2298.286494
1212.187443,7550.100608,-5995.668130,1532.190996
1212.187772,7550.100608,-4959.379811,1378.971896
1212.188101,7105.977043,-4219.173869,689.485948
1212.188430,6735.874072,-4071.132681,612.876398
1212.188759,7031.956449,-3701.029710,229.828649
1212.189089,7772.162391,-3997.112087,0.000000
1212.189418,7772.162391,-5107.421000,306.438199
1212.189747,7698.141797,-6069.688724,919.314598
1212.190076,7846.182985,-7624.121203,383.047749
1212.190405,7550.100608,-8586.388927,1455.581446
1212.190735,7179.997637,-9178.553681,1685.410096
1212.191064,7550.100608,-8586.388927,1915.238745
1212.191393,7105.977043,-8364.327145,2068.457845
1212.191722,6143.709319,-8068.244768,1455.581446
1212.192051,5033.400406,-7105.977043,919.314598
1212.192380,4959.379811,-6957.935855,76.609550
1212.192710,4737.318029,-6069.688724,76.609550
1212.193039,5255.462188,-5625.565159,0.000000
1212.193368,5921.647536,-4885.359217,-153.219100
1212.193697,7031.956449,-5255.462188,76.609550
1212.194026,7550.100608,-6069.688724,612.876398
1212.194356,7994.224174,-7031.956449,1225.752797
1212.194685,8068.244768,-7476.080014,1608.800546
1212.195014,8808.450710,-7179.997637,2528.115143
1212.195343,8364.327145,-7402.059420,1762.019645
1212.195672,7772.162391,-7402.059420,1991.848295
1212.196002,7550.100608,-6587.832884,1608.800546
1212.196331,7402.059420,-6069.688724,1149.143247
1212.196660,6661.853478,-5181.441594,1149.143247
1212.196989,6439.791695,-4811.338623,229.828649
1212.197318,6587.832884,-5033.400406,0.000000
1212.197647,6809.894666,-5033.400406,383.047749
1212.197977,6809.894666,-5921.647536,229.828649
1212.198306,7254.018232,-6365.771101,919.314598
1212.198635,7772.162391,-6883.915261,1072.533697
1212.198964,8068.244768,-7550.100608,1072.533697
1212.199293,7402.059420,-8364.327145,2068.457845
1212.199623,7772.162391,-8216.285956,2374.896044
1212.199952,7920.203579,-7920.203579,2374.896044
1212.200281,6661.853478,-7476.080014,1455.581446
1212.200610,5477.523971,-6809.894666,1225.752797
1212.200939,4737.318029,-6513.812290,842.705048
1212.201269,4885.359217,-6365.771101,0.000000
1212.201598,4663.297435,-6291.750507,0.000000
1212.201927,5033.400406,-5995.668130,-536.266849
1212.202256,5847.626942,-6439.791695,-306.438199
1212.202585,6809.894666,-6957.935855,0.000000
1212.202914,7105.977043,-7254.018232,1149.143247
1212.203244,8142.265362,-7550.100608,1455.581446
1212.203573,7920.203579,-7698.141797,1685.410096
1212.203902,7772.162391,-7772.162391,2298.286494
1212.204231,7994.224174,-6883.915261,3140.991542
1212.204560,8586.388927,-5921.647536,2451.505594
1212.204890,7846.182985,-5255.462188,2451.505594
1212.205219,7328.038826,-4367.215058,1762.019645
1212.205548,6883.915261,-3330.926739,1225.752797
1212.205877,7105.977043,-3627.009116,306.438199
1212.206206,7105.977043,-4071.132681,229.828649
1212.206535,6735.874072,-5847.626942,306.438199
1212.206865,6661.853478,-6217.729913,383.047749
1212.207194,6217.729913,-6809.894666,383.047749
1212.207523,6735.874072,-8290.306550,842.705048
1212.207852,7476.080014,-8660.409521,1532.190996
1212.208181,8142.265362,-9696.697840,2374.896044
1212.208511,7402.059420,-9030.512492,2451.505594
1212.208840,6513.812290,-8142.265362,1838.629195
1212.209169,5699.585753,-7698.141797,383.047749
1212.209498,5255.462188,-7254.018232,842.705048
1212.209827,4959.379811,-7105.977043,306.438199
1212.210157,4885.359217,-5551.544565,229.828649
1212.210486,5995.668130,-4885.359217,-383.047749
1212.210815,6513.812290,-5255.462188,-536.266849
1212.211144,7105.977043,-5921.647536,76.609550
1212.211473,7772.162391,-6957.935855,612.876398
1212.211802,8216.285956,-6143.709319,1149.143247
1212.212132,8438.347739,-7031.956449,1915.238745
1212.212461,8734.430116,-7031.956449,2068.457845
1212.212790,8734.430116,-6883.915261,2451.505594
1212.213119,8512.368333,-6143.709319,2298.286494
1212.213448,7772.162391,-5699.585753,1991.848295
1212.213778,7179.997637,-5477.523971,1685.410096
1212.214107,6883.915261,-5107.421000,1225.752797
1212.214436,6069.688724,-5033.400406,536.266849
1212.214765,6217.729913,-5033.400406,0.000000
1212.215094,5995.668130,-5403.503377,0.000000
1212.215423,6513.812290,-6513.812290,0.000000
1212.215753,6957.935855,-6291.750507,0.000000
1212.216082,7328.038826,-7402.059420,612.876398
1212.216411,7772.162391,-7920.203579,919.314598
1212.216740,8364.327145,-8438.347739,2068.457845
1212.217069,8142.265362,-8882.471304,1838.629195
1212.217399,8142.265362,-7772.162391,2451.505594
1212.217728,7254.018232,-7105.977043,2068.457845
1212.218057,5995.668130,-6957.935855,842.705048
1212.218386,4737.318029,-6661.853478,689.485948
1212.218715,4737.318029,-6439.791695,0.000000
1212.219044,5255.462188,-5477.523971,-842.705048
1212.219374,5107.421000,-6217.729913,-536.266849
1212.219703,5847.626942,-7031.956449,-306.438199
1212.220032,6439.791695,-7254.018232,0.000000
1212.220361,7105.977043,-7920.203579,766.095498
1212.220690,6957.935855,-7476.080014,1532.190996
1212.221019,7550.100608,-8068.244768,1608.800546
1212.221348,7994.224174,-7920.203579,2145.067394
1212.221678,8438.347739,-7328.038826,2681.334243
1212.222007,8068.244768,-5995.668130,3370.820191
1212.222336,7846.182985,-5847.626942,2604.724693
1212.222665,7179.997637,-4293.194464,1762.019645
1212.222994,7105.977043,-3478.967927,842.705048
1212.223323,7328.038826,-3552.988522,459.657299
1212.223653,7328.038826,-4145.153275,306.438199
1212.223982,7179.997637,-5255.462188,689.485948
1212.224311,7698.141797,-5699.585753,459.657299
1212.224640,7550.100608,-6661.853478,459.657299
1212.224969,7624.121203,-7179.997637,919.314598
1212.225298,8438.347739,-7994.224174,1378.971896
1212.225627,7624.121203,-8956.491898,1838.629195
1212.225957,6735.874072,-8882.471304,1532.190996
1212.226286,6513.812290,-7772.162391,1991.848295
1212.226615,5773.606348,-7550.100608,1455.581446
1212.226944,5403.503377,-7254.018232,1149.143247
1212.227273,5625.565159,-7105.977043,919.314598
1212.227602,5551.544565,-5329.482782,306.438199
1212.227932,5921.647536,-4737.318029,0.000000
1212.228261,6587.832884,-5033.400406,306.438199
1212.228590,6809.894666,-6291.750507,229.828649
1212.228919,7254.018232,-6883.915261,612.876398
1212.229248,7328.038826,-6957.935855,919.314598
1212.229577,8068.244768,-7698.141797,1302.362347
1212.229906,7994.224174,-7550.100608,2374.896044
1212.230236,7846.182985,-7698.141797,1838.629195
1212.230565,7254.018232,-7105.977043,1378.971896
1212.230894,7254.018232,-6217.729913,1838.629195
1212.231223,7402.059420,-5847.626942,1149.143247
1212.231552,6957.935855,-4737.318029,612.876398
1212.231881,6809.894666,-4589.276840,766.095498
1212.232211,7328.038826,-4293.194464,76.609550
1212.232540,7476.080014,-5107.421000,153.219100
1212.232869,7476.080014,-5773.606348,612.876398
1212.233198,7994.224174,-6587.832884,229.828649
1212.233527,7624.121203,-7476.080014,842.705048
1212.233856,7550.100608,-7846.182985,1762.019645
1212.234185,7920.203579,-8068.244768,2298.286494
1212.234515,8364.327145,-8216.285956,2528.115143
1212.234844,7698.141797,-7994.224174,2298.286494
1212.235173,6069.688724,-7105.977043,1378.971896
1212.235502,5033.400406,-7105.977043,766.095498
1212.235831,4811.338623,-6291.750507,0.000000
1212.236160,4441.235652,-6661.853478,0.000000
1212.236490,4663.297435,-6439.791695,-612.876398
1212.236819,4959.379811,-6661.853478,-612.876398
1212.237148,5773.606348,-7105.977043,153.219100
1212.237477,6735.874072,-7550.100608,0.000000
1212.237806,7031.956449,-7994.224174,536.266849
1212.238135,7476.080014,-7994.224174,1149.143247
1212.238464,7698.141797,-8512.368333,1685.410096
1212.238794,7846.182985,-7698.141797,2374.896044
1212.239123,8290.306550,-7254.018232,2298.286494
1212.239452,8142.265362,-6291.750507,2221.676944
1212.239781,7772.162391,-5033.400406,2298.286494
1212.240110,7179.997637,-3997.112087,1685.410096
1212.240439,7402.059420,-4071.132681,459.657299
1212.240769,7105.977043,-2812.782580,689.485948
1212.241098,7179.997637,-3552.988522,153.219100
1212.241427,7624.121203,-4219.173869,459.657299
1212.241756,7476.080014,-5403.503377,842.705048
1212.242085,7920.203579,-6661.853478,1225.752797
1212.242414,7772.162391,-7476.080014,919.314598
1212.242743,7772.162391,-8364.327145,1685.410096
1212.243073,7846.182985,-8808.450710,1762.019645
1212.243402,7550.100608,-9104.533087,2604.724693
1212.243731,6217.729913,-8290.306550,1455.581446
1212.244060,5477.523971,-8068.244768,1225.752797
1212.244389,5107.421000,-6957.935855,383.047749
1212.244718,5033.400406,-6587.832884,-153.219100
1212.245048,5255.462188,-5921.647536,0.000000
1212.245377,6143.709319,-5255.462188,0.000000
1212.245706,6587.832884,-5699.585753,0.000000
1212.246035,6809.894666,-5773.606348,153.219100
1212.246364,7550.100608,-6291.750507,766.095498
1212.246693,8216.285956,-6587.832884,919.314598
1212.247022,8438.347739,-7476.080014,1685.410096
1212.247352,8364.327145,-7254.018232,2451.505594
1212.247681,8068.244768,-7179.997637,1685.410096
1212.248010,7328.038826,-6291.750507,1838.629195
1212.248339,6809.894666,-6291.750507,1455.581446
1212.248668,6513.812290,-5995.668130,1532.190996
1212.248997,6587.832884,-5403.503377,919.314598
1212.249327,6217.729913,-5033.400406,612.876398
1212.249656,6365.771101,-4737.318029,459.657299
1212.249985,6661.853478,-5107.421000,229.828649
1212.250314,7328.038826,-6735.874072,383.047749
1212.250643,7105.977043,-7105.977043,766.095498
1212.250972,7624.121203,-7105.977043,306.438199
1212.251301,8216.285956,-8142.265362,1685.410096
1212.251631,7994.224174,-8290.306550,2145.067394
1212.251960,7624.121203,-8882.471304,2374.896044
1212.252289,7476.080014,-7698.141797,1915.238745
1212.252618,6069.688724,-6735.874072,2068.457845
1212.252947,5477.523971,-7105.977043,306.438199
1212.253276,4885.359217,-6439.791695,0.000000
1212.253606,5329.482782,-5921.647536,153.219100
1212.253935,5921.647536,-5625.565159,-766.095498
1212.254264,5921.647536,-6069.688724,0.000000
1212.254593,6439.791695,-6217.729913,0.000000
1212.254922,7031.956449,-6661.853478,76.609550
1212.255251,7105.977043,-7698.141797,1072.533697
1212.255580,6883.915261,-7254.018232,1225.752797
1212.255910,7772.162391,-7476.080014,2068.457845
1212.256239,8586.388927,-7105.977043,2681.334243
1212.256568,8808.450710,-6661.853478,2451.505594
1212.256897,7698.141797,-5921.647536,2221.676944
1212.257226,7698.141797,-5255.462188,1838.629195
1212.257555,6809.894666,-4737.318029,995.924147
1212.257885,6143.709319,-4293.194464,459.657299
1212.258214,6661.853478,-3849.070898,0.000000
1212.258543,7476.080014,-4737.318029,306.438199
1212.258872,7402.059420,-5255.462188,536.266849
1212.259201,7179.997637,-6143.709319,153.219100
1212.259530,7105.977043,-6587.832884,229.828649
1212.259859,7994.224174,-7179.997637,842.705048
1212.260189,8216.285956,-8956.491898,995.924147
1212.260518,8068.244768,-9548.656652,2374.896044
1212.260847,7254.018232,-8660.409521,2068.457845
1212.261176,6439.791695,-7476.080014,1149.143247
1212.261505,5773.606348,-7105.977043,1149.143247
1212.261834,5403.503377,-7254.018232,612.876398
1212.262164,5403.503377,-6809.894666,76.609550
1212.262493,5033.400406,-5773.606348,-306.438199
1212.262822,5625.565159,-5033.400406,0.000000
1212.263151,6439.791695,-4737.318029,766.095498
1212.263480,7772.162391,-5699.585753,1072.533697
1212.263809,8512.368333,-6513.812290,1302.362347
1212.264138,8290.306550,-6439.791695,1378.971896
1212.264468,7698.141797,-6735.874072,1991.848295
1212.264797,8290.306550,-7179.997637,2068.457845
1212.265126,7920.203579,-7624.121203,2298.286494
1212.265455,7624.121203,-7031.956449,2145.067394
1212.265784,6883.915261,-6439.791695,1378.971896
1212.266113,6291.750507,-5699.585753,1685.410096
1212.266443,6365.771101,-5551.544565,919.314598
1212.266772,6513.812290,-5107.421000,459.657299
1212.267101,6661.853478,-4737.318029,76.609550
1212.267430,6587.832884,-5773.606348,229.828649
1212.267759,6957.935855,-6217.729913,612.876398
1212.268088,7476.080014,-7031.956449,766.095498
1212.268417,7994.224174,-7031.956449,1072.533697
1212.268747,8290.306550,-7031.956449,1915.238745
1212.269076,8438.347739,-7994.224174,2374.896044
1212.269405,8068.244768,-7698.141797,2221.676944
1212.269734,7105.977043,-7624.121203,1608.800546
1212.270063,6143.709319,-7031.956449,1608.800546
1212.270392,5625.565159,-6587.832884,842.705048
1212.270722,5255.462188,-6291.750507,306.438199
1212.271051,4737.318029,-6069.688724,0.000000
1212.271380,4959.379811,-6069.688724,-383.047749
1212.271709,5329.482782,-6661.853478,76.609550
1212.272038,5773.606348,-7031.956449,153.219100
1212.272367,6217.729913,-7550.100608,1149.143247
1212.272696,6513.812290,-8216.285956,612.876398
1212.273026,7105.977043,-8216.285956,1532.190996
1212.273355,7550.100608,-7698.141797,2068.457845
1212.273684,8438.347739,-7105.977043,2451.505594
1212.274013,8882.471304,-6291.750507,2451.505594
1212.274342,8808.450710,-5255.462188,2145.067394
1212.274671,7698.141797,-4811.338623,1455.581446
1212.275001,7031.956449,-4737.318029,842.705048
1212.275330,6809.894666,-4515.256246,459.657299
1212.275659,7254.018232,-3849.070898,76.609550
1212.275988,7402.059420,-4145.153275,306.438199
1212.276317,7328.038826,-6365.771101,0.000000
1212.276646,6957.935855,-7328.038826,-76.609550
1212.276976,6735.874072,-8216.285956,612.876398
1212.277305,7328.038826,-8364.327145,1685.410096
1212.277634,7920.203579,-8216.285956,2145.067394
1212.277963,7920.203579,-7994.224174,2298.286494
1212.278292,7105.977043,-7254.018232,2374.896044
1212.278621,6143.709319,-7254.018232,1685.410096
1212.278950,5847.626942,-6513.812290,689.485948
1212.279280,5181.441594,-6587.832884,689.485948
1212.279609,5033.400406,-5477.523971,229.828649
1212.279938,4959.379811,-5329.482782,0.000000
1212.280267,6291.750507,-5847.626942,-306.438199
1212.280596,6661.853478,-5921.647536,76.609550
1212.280925,7550.100608,-6661.853478,459.657299
1212.281255,7920.203579,-6883.915261,1072.533697
1212.281584,7994.224174,-6957.935855,995.924147
1212.281913,8216.285956,-7846.182985,1838.629195
1212.282242,8438.347739,-7476.080014,1762.019645
1212.282571,8068.244768,-7179.997637,1838.629195
1212.282900,7994.224174,-6365.771101,1608.800546
1212.283229,7328.038826,-5329.482782,1762.019645
1212.283559,7105.977043,-5699.585753,1225.752797
1212.283888,6883.915261,-4515.256246,842.705048
1212.284217,6143.709319,-4515.256246,76.609550
1212.284546,6217.729913,-5107.421000,0.000000
1212.284875,6661.853478,-5625.565159,229.828649
1212.285204,6809.894666,-6587.832884,0.000000
1212.285534,6957.935855,-7179.997637,383.047749
1212.285863,7698.141797,-8142.265362,766.095498
1212.286192,7994.224174,-8808.450710,2145.067394
1212.286521,8142.265362,-8438.347739,2451.505594
1212.286850,7920.203579,-7476.080014,2451.505594
1212.287179,7105.977043,-6587.832884,2068.457845
1212.287508,5995.668130,-6069.688724,919.314598
1212.287838,5477.523971,-6365.771101,842.705048
1212.288167,5329.482782,-5995.668130,459.657299
1212.288496,5107.421000,-5625.565159,-383.047749
1212.288825,4515.256246,-5551.544565,76.609550
1212.289154,5403.503377,-6957.935855,0.000000
1212.289483,6957.935855,-7772.162391,612.876398
1212.289813,7254.018232,-7920.203579,459.657299
1212.290142,7105.977043,-8438.347739,1149.143247
1212.290471,6883.915261,-7920.203579,919.314598
1212.290800,7624.121203,-8364.327145,1378.971896
1212.291129,8068.244768,-7402.059420,2451.505594
1212.291458,8290.306550,-6291.750507,2528.115143
1212.291787,8216.285956,-5107.421000,2451.505594
1212.292117,7624.121203,-3997.112087,2221.676944
1212.292446,7179.997637,-3552.988522,1149.143247
1212.292775,6661.853478,-3330.926739,612.876398
1212.293104,7105.977043,-3256.906145,76.609550
1212.293433,6957.935855,-4663.297435,0.000000
1212.293762,7105.977043,-5921.647536,459.657299
1212.294092,6957.935855,-6809.894666,459.657299
1212.294421,7328.038826,-8068.244768,612.876398
1212.294750,7254.018232,-8734.430116,1225.752797
1212.295079,7402.059420,-9770.718434,2068.457845
1212.295408,7179.997637,-9326.594869,2068.457845
1212.295737,6809.894666,-7846.182985,1532.190996
1212.296066,6439.791695,-7328.038826,1149.143247
1212.296396,5625.565159,-6513.812290,919.314598
1212.296725,5699.585753,-6069.688724,919.314598
1212.297054,5699.585753,-4959.379811,0.000000
1212.297383,5551.544565,-4737.318029,0.000000
1212.297712,6143.709319,-4885.359217,0.000000
1212.298041,7105.977043,-5921.647536,306.438199
1212.298371,7328.038826,-6291.750507,842.705048
1212.298700,7698.141797,-6365.771101,612.876398
1212.299029,8290.306550,-7254.018232,1608.800546
1212.299358,8734.430116,-7105.977043,2757.943793
1212.299687,8660.409521,-7254.018232,2298.286494
1212.300016,7994.224174,-6661.853478,2068.457845
1212.300345,7328.038826,-6439.791695,1838.629195
1212.300675,6883.915261,-5477.523971,1532.190996
1212.301004,6365.771101,-4885.359217,612.876398
1212.301333,6069.688724,-4515.256246,536.266849
1212.301662,6069.688724,-5033.400406,0.000000
1212.301991,6217.729913,-5921.647536,0.000000
1212.302320,6513.812290,-6365.771101,842.705048
1212.302650,6587.832884,-7031.956449,0.000000
1212.302979,7031.956449,-7402.059420,689.485948
1212.303308,7624.121203,-8512.368333,995.924147
1212.303637,8290.306550,-8438.347739,2145.067394
1212.303966,8882.471304,-8142.265362,2757.943793
1212.304295,8956.491898,-7105.977043,2374.896044
1212.304624,7402.059420,-6883.915261,2068.457845
1212.304954,6143.709319,-7105.977043,1225.752797
1212.305283,5699.585753,-6217.729913,459.657299
1212.305612,5403.503377,-5477.523971,383.047749
1212.305941,4885.359217,-5329.482782,-229.828649
1212.306270,5625.565159,-6291.750507,536.266849
1212.306599,5995.668130,-5995.668130,306.438199
1212.306929,6365.771101,-5995.668130,-536.266849
1212.307258,6143.709319,-7772.162391,536.266849
1212.307587,7105.977043,-8512.368333,1225.752797
1212.307916,7476.080014,-8438.347739,1608.800546
1212.308245,7920.203579,-7994.224174,2374.896044
1212.308574,7920.203579,-6883.915261,2374.896044
1212.308903,8438.347739,-6587.832884,2604.724693
1212.309233,7920.203579,-5921.647536,2221.676944
1212.309562,7105.977043,-4811.338623,2068.457845
1212.309891,7105.977043,-4219.173869,919.314598
1212.310220,7031.956449,-3627.009116,612.876398
1212.310549,6735.874072,-3701.029710,-229.828649
1212.310878,7031.956449,-4959.379811,612.876398
1212.311208,7920.203579,-5995.668130,306.438199
1212.311537,7698.141797,-6661.853478,229.828649
1212.311866,6735.874072,-7550.100608,383.047749
1212.312195,6809.894666,-9030.512492,842.705048
1212.312524,7772.162391,-8956.491898,1532.190996
1212.312853,7624.121203,-8734.430116,1532.190996
1212.313182,7031.956449,-7624.121203,1838.629195
1212.313512,6365.771101,-7328.038826,1608.800546
1212.313841,6069.688724,-6735.874072,1302.362347
1212.314170,5181.441594,-6217.729913,536.266849
1212.314499,4811.338623,-5033.400406,383.047749
1212.314828,5403.503377,-5107.421000,-459.657299
1212.315157,5847.626942,-5847.626942,-153.219100
1212.315487,6957.935855,-6365.771101,383.047749
1212.315816,7476.080014,-6957.935855,766.095498
1212.316145,7994.224174,-6883.915261,1302.362347
1212.316474,7772.162391,-7476.080014,1532.190996
1212.316803,7920.203579,-7772.162391,1838.629195
1212.317132,8438.347739,-7550.100608,1762.019645
1212.317461,7994.224174,-6587.832884,1915.238745
1212.317791,7254.018232,-6143.709319,1608.800546
1212.318120,7550.100608,-5699.585753,1838.629195
1212.318449,7105.977043,-4885.359217,1149.143247
1212.318778,6513.812290,-4737.318029,459.657299
1212.319107,6957.935855,-4441.235652,153.219100
1212.319436,6809.894666,-5551.544565,76.609550
1212.319766,6957.935855,-5625.565159,229.828649
1212.320095,6883.915261,-6291.750507,536.266849
1212.320424,8068.244768,-6957.935855,919.314598
1212.320753,8290.306550,-8142.265362,1685.410096
1212.321082,8882.471304,-8068.244768,2221.676944
1212.321411,8438.347739,-7179.997637,2604.724693
1212.321740,7476.080014,-7328.038826,2374.896044
1212.322069,7179.997637,-6957.935855,1838.629195
1212.322399,5847.626942,-6587.832884,1149.143247
1212.322728,4885.359217,-6217.729913,383.047749
1212.323057,4737.318029,-6513.812290,0.000000
1212.323386,4959.379811,-5699.585753,-842.705048
1212.323715,4885.359217,-6735.874072,-536.266849
1212.324044,5699.585753,-7105.977043,0.000000
1212.324373,6587.832884,-7624.121203,459.657299
1212.324703,7105.977043,-8216.285956,459.657299
1212.325032,7179.997637,-8364.327145,842.705048
1212.325361,7328.038826,-8586.388927,1838.629195
1212.325690,7994.224174,-8586.388927,2145.067394
1212.326019,8216.285956,-7476.080014,2221.676944
1212.326348,7994.224174,-5921.647536,2681.334243
1212.326677,7772.162391,-4811.338623,2221.676944
1212.327007,7402.059420,-3997.112087,1685.410096
1212.327336,6957.935855,-3182.885551,919.314598
1212.327665,7328.038826,-3034.844362,689.485948
1212.327994,7846.182985,-3182.885551,0.000000
1212.328323,7105.977043,-5181.441594,306.438199
1212.328652,7105.977043,-5995.668130,306.438199
1212.328981,6883.915261,-7105.977043,153.219100
1212.329310,6809.894666,-8734.430116,919.314598
1212.329640,7105.977043,-9992.780217,1762.019645
1212.329969,7105.977043,-9844.739029,2145.067394
1212.330298,6809.894666,-9178.553681,1838.629195
1212.330627,6439.791695,-8290.306550,1532.190996
1212.330956,5773.606348,-7550.100608,995.924147
1212.331285,6143.709319,-6883.915261,1072.533697
1212.331614,5625.565159,-5921.647536,153.219100
1212.331944,5033.400406,-5403.503377,0.000000
1212.332273,5551.544565,-4737.318029,-689.485948
1212.332602,6809.894666,-5255.462188,229.828649
1212.332931,7698.141797,-5773.606348,0.000000
1212.333260,7994.224174,-6291.750507,612.876398
1212.333589,8512.368333,-6661.853478,842.705048
1212.333918,8364.327145,-7105.977043,1378.971896
1212.334248,8586.388927,-7624.121203,2374.896044
1212.334577,8290.306550,-7624.121203,2528.115143
1212.334906,8216.285956,-6513.812290,2374.896044
1212.335235,7476.080014,-5995.668130,1915.238745
1212.335564,6217.729913,-5403.503377,1608.800546
1212.335893,6365.771101,-5107.421000,459.657299
1212.336222,6439.791695,-4737.318029,536.266849
1212.336551,6439.791695,-4441.235652,229.828649
1212.336881,6291.750507,-5107.421000,0.000000
1212.337210,7031.956449,-5477.523971,0.000000
1212.337539,7624.121203,-6587.832884,383.047749
1212.337868,7624.121203,-6883.915261,766.095498
1212.338197,7550.100608,-7920.203579,1225.752797
1212.338526,8142.265362,-8734.430116,2987.772442
1212.338855,8808.450710,-7550.100608,2681.334243
1212.339185,8068.244768,-7254.018232,2145.067394
1212.339514,7328.038826,-6883.915261,2145.067394
1212.339843,6069.688724,-6809.894666,1225.752797
1212.340172,5625.565159,-5921.647536,76.609550
1212.340501,4441.235652,-5921.647536,-689.485948
1212.340830,4663.297435,-6217.729913,-1072.533697
1212.341159,5255.462188,-6365.771101,-306.438199
1212.341489,5699.585753,-7328.038826,0.000000
1212.341818,6217.729913,-7328.038826,459.657299
1212.342147,7254.018232,-7698.141797,1149.143247
1212.342476,8290.306550,-7624.121203,1532.190996
1212.342805,7994.224174,-8290.306550,1991.848295
1212.343134,7920.203579,-7846.182985,2068.457845
1212.343463,7624.121203,-6809.894666,2374.896044
1212.343792,7254.018232,-6291.750507,1991.848295
1212.344122,6957.935855,-5181.441594,2221.676944
1212.344451,7105.977043,-4885.359217,1838.629195
1212.344780,7328.038826,-3552.988522,842.705048
1212.345109,6809.894666,-2960.823768,76.609550
1212.345438,6735.874072,-4219.173869,76.609550
1212.345767,7328.038826,-4959.379811,76.609550
1212.346096,7624.121203,-6291.750507,536.266849
1212.346426,7328.038826,-7254.018232,919.314598
1212.346755,7698.141797,-7698.141797,1455.581446
1212.347084,7846.182985,-8512.368333,1149.143247
1212.347413,7698.141797,-9548.656652,1991.848295
1212.347742,7402.059420,-9326.594869,2298.286494
1212.348071,6735.874072,-8290.306550,1455.581446
1212.348400,5329.482782,-7179.997637,459.657299
1212.348730,4811.338623,-7179.997637,842.705048
1212.349059,5033.400406,-6217.729913,153.219100
1212.349388,5625.565159,-5033.400406,229.828649
1212.349717,5847.626942,-4885.359217,-153.219100
1212.350046,6809.894666,-5107.421000,229.828649
1212.350375,7254.018232,-5773.606348,459.657299
1212.350704,7994.224174,-6439.791695,1225.752797
1212.351033,7550.100608,-7179.997637,919.314598
1212.351363,7846.182985,-7698.141797,1378.971896
1212.351692,8438.347739,-8068.244768,2068.457845
1212.352021,8512.368333,-7402.059420,2681.334243
1212.352350,7179.997637,-5995.668130,1838.629195
1212.352679,6735.874072,-6439.791695,1302.362347
1212.353008,6587.832884,-5921.647536,1149.143247
1212.353337,6291.750507,-4737.318029,612.876398
1212.353667,6883.915261,-4293.194464,0.000000
1212.353996,6883.915261,-4663.297435,766.095498
1212.354325,7179.997637,-4737.318029,459.657299
1212.354654,7698.141797,-5255.462188,153.219100
1212.354983,7772.162391,-5847.626942,459.657299
1212.355312,8290.306550,-7624.121203,536.266849
1212.355641,7920.203579,-7846.182985,1378.971896
1212.355971,7698.141797,-8512.368333,2068.457845
1212.356300,8142.265362,-8068.244768,2145.067394
1212.356629,7476.080014,-8216.285956,2221.676944
1212.356958,6735.874072,-7105.977043,1991.848295
1212.357287,5033.400406,-7105.977043,612.876398
1212.357616,4219.173869,-6883.915261,153.219100
1212.357945,4071.132681,-5847.626942,-689.485948
1212.358275,4737.318029,-6143.709319,0.000000
1212.358604,5551.544565,-6143.709319,229.828649
1212.358933,6439.791695,-7105.977043,306.438199
1212.359262,6809.894666,-6957.935855,536.266849
1212.359591,7105.977043,-7328.038826,995.924147
1212.359920,7476.080014,-7994.224174,1685.410096
1212.360249,8660.409521,-8364.327145,2221.676944
1212.360578,8364.327145,-7476.080014,2374.896044
1212.360908,8364.327145,-6809.894666,2298.286494
1212.361237,8142.265362,-6069.688724,2757.943793
1212.361566,7994.224174,-5551.544565,1455.581446
1212.361895,7105.977043,-4663.297435,842.705048
1212.362224,6365.771101,-3330.926739,0.000000
1212.362553,6957.935855,-3775.050304,-383.047749
1212.362882,6883.915261,-4145.153275,0.000000
1212.363212,6809.894666,-5033.400406,306.438199
1212.363541,7550.100608,-5847.626942,536.266849
1212.363870,7328.038826,-7105.977043,1149.143247
1212.364199,7254.018232,-6883.915261,1302.362347
1212.364528,7105.977043,-8808.450710,2068.457845
1212.364857,7031.956449,-9474.636058,2145.067394
1212.365186,6957.935855,-8364.327145,1838.629195
1212.365516,6291.750507,-8364.327145,1225.752797
1212.365845,5921.647536,-7624.121203,1149.143247
1212.366174,5181.441594,-7105.977043,842.705048
1212.366503,5255.462188,-5995.668130,153.219100
1212.366832,4959.379811,-5403.503377,-229.828649
1212.367161,5847.626942,-5329.482782,0.000000
1212.367490,7179.997637,-4959.379811,76.609550
1212.367819,7402.059420,-5477.523971,0.000000
1212.368149,7476.080014,-5995.668130,842.705048
1212.368478,8512.368333,-6439.791695,1915.238745
1212.368807,9326.594869,-7402.059420,2068.457845
1212.369136,9326.594869,-7254.018232,2374.896044
1212.369465,8290.306550,-6661.853478,2068.457845
1212.369794,7550.100608,-7105.977043,1455.581446
1212.370123,6809.894666,-6291.750507,1608.800546
1212.370453,5551.544565,-5847.626942,1149.143247
1212.370782,6365.771101,-5329.482782,689.485948
1212.371111,6513.812290,-5033.400406,536.266849
1212.371440,6513.812290,-5699.585753,306.438199
1212.371769,5847.626942,-6439.791695,0.000000
1212.372098,5995.668130,-6365.771101,0.000000
1212.372427,6809.894666,-6809.894666,0.000000
1212.372757,7328.038826,-7402.059420,1072.533697
1212.373086,8512.368333,-7698.141797,2068.457845
1212.373415,9326.594869,-7624.121203,2374.896044
1212.373744,8660.409521,-6883.915261,2604.724693
1212.374073,7476.080014,-7179.997637,2374.896044
1212.374402,7254.018232,-6587.832884,1608.800546
1212.374731,6365.771101,-6513.812290,842.705048
1212.375060,5329.482782,-6809.894666,-76.609550
1212.375390,4737.318029,-6291.750507,-383.047749
1212.375719,4885.359217,-6439.791695,-689.485948
1212.376048,5551.544565,-7105.977043,-459.657299
1212.376377,5847.626942,-7254.018232,306.438199
1212.376706,6217.729913,-8068.244768,0.000000
1212.377035,6439.791695,-8216.285956,76.609550
1212.377364,6217.729913,-8364.327145,1378.971896
1212.377694,7550.100608,-7994.224174,2068.457845
1212.378023,8660.409521,-7105.977043,2834.553343
1212.378352,8438.347739,-5847.626942,2911.162892
1212.378681,8364.327145,-5625.565159,2911.162892
1212.379010,7920.203579,-4663.297435,2145.067394
1212.379339,7624.121203,-3627.009116,1378.971896
1212.379668,6957.935855,-2960.823768,459.657299
1212.379998,7031.956449,-3552.988522,306.438199
1212.380327,7402.059420,-4737.318029,842.705048
1212.380656,7994.224174,-5921.647536,536.266849
1212.380985,7328.038826,-6217.729913,689.485948
1212.381314,6809.894666,-7550.100608,0.000000
1212.381643,6365.771101,-9474.636058,1149.143247
1212.381972,7031.956449,-10214.842000,1762.019645
1212.382301,7254.018232,-9770.718434,1762.019645
1212.382631,6513.812290,-8586.388927,1915.238745
1212.382960,5847.626942,-7698.141797,1225.752797
1212.383289,5773.606348,-6957.935855,766.095498
1212.383618,5773.606348,-6439.791695,1149.143247
1212.383947,5921.647536,-5921.647536,-229.828649
1212.384276,6143.709319,-4515.256246,-383.047749
1212.384605,6513.812290,-4737.318029,0.000000
1212.384935,7550.100608,-5107.421000,229.828649
1212.385264,7994.224174,-5847.626942,1225.752797
1212.385593,9104.533087,-5699.585753,766.095498
1212.385922,8438.347739,-6809.894666,1302.362347
1212.386251,7994.224174,-7254.018232,2298.286494
1212.386580,7846.182985,-7920.203579,2221.676944
1212.386909,7105.977043,-7402.059420,1838.629195
1212.387239,6809.894666,-6661.853478,1455.581446
1212.387568,6143.709319,-6587.832884,919.314598
1212.387897,5847.626942,-6069.688724,766.095498
1212.388226,5847.626942,-5255.462188,612.876398
1212.388555,5551.544565,-5181.441594,689.485948
1212.388884,6365.771101,-4885.359217,-306.438199
1212.389213,7031.956449,-5255.462188,0.000000
1212.389542,7698.141797,-5625.565159,0.000000
1212.389872,8438.347739,-6069.688724,689.485948
1212.390201,9178.553681,-6587.832884,1072.533697
1212.390530,9178.553681,-7698.141797,2145.067394
1212.390859,9252.574275,-7846.182985,2528.115143
1212.391188,8216.285956,-7846.182985,2145.067394
1212.391517,7105.977043,-7994.224174,1915.238745
1212.391846,5995.668130,-7179.997637,1608.800546
1212.392176,5181.441594,-7328.038826,842.705048
1212.392505,4737.318029,-6291.750507,229.828649
1212.392834,4441.235652,-6365.771101,-229.828649
1212.393163,4811.338623,-5551.544565,-995.924147
1212.393492,4959.379811,-7105.977043,-536.266849
1212.393821,5995.668130,-7402.059420,76.609550
1212.394150,6735.874072,-7698.141797,229.828649
1212.394480,7328.038826,-7179.997637,1072.533697
1212.394809,7624.121203,-7846.182985,1991.848295
1212.395138,8956.491898,-7476.080014,2451.505594
1212.395467,9178.553681,-6883.915261,2451.505594
1212.395796,8290.306550,-6069.688724,2528.115143
1212.396125,7846.182985,-5181.441594,1532.190996
1212.396454,6957.935855,-4737.318029,1532.190996
1212.396783,6809.894666,-4589.276840,919.314598
1212.397113,6587.832884,-3997.112087,689.485948
1212.397442,7031.956449,-3478.967927,689.485948
1212.397771,7920.203579,-5181.441594,306.438199
1212.398100,7328.038826,-5773.606348,612.876398
1212.398429,6883.915261,-6957.935855,229.828649
1212.398758,6735.874072,-7624.121203,995.924147
1212.399087,7105.977043,-7994.224174,1991.848295
1212.399417,7179.997637,-9030.512492,2145.067394
1212.399746,7624.121203,-8586.388927,2528.115143
1212.400075,7254.018232,-7846.182985,2221.676944
1212.400404,6143.709319,-7402.059420,1532.190996
1212.400733,5255.462188,-7105.977043,1685.410096
1212.401062,5255.462188,-5995.668130,995.924147
1212.401391,5329.482782,-5773.606348,306.438199
1212.401721,5773.606348,-5033.400406,-153.219100
1212.402050,6291.750507,-5773.606348,-383.047749
1212.402379,7254.018232,-6143.709319,153.219100
1212.402708,7402.059420,-6957.935855,766.095498
1212.403037,7920.203579,-7105.977043,1072.533697
1212.403366,8216.285956,-7105.977043,1532.190996
1212.403695,8660.409521,-7624.121203,1762.019645
1212.404024,7994.224174,-7328.038826,1915.238745
1212.404354,7698.141797,-7105.977043,2068.457845
1212.404683,7328.038826,-6513.812290,919.314598
1212.405012,6957.935855,-5921.647536,1378.971896
1212.405341,6291.750507,-4811.338623,919.314598
1212.405670,6513.812290,-4737.318029,76.609550
1212.405999,6883.915261,-4589.276840,536.266849
1212.406328,7105.977043,-5107.421000,383.047749
1212.406658,6957.935855,-5477.523971,766.095498
1212.406987,7328.038826,-5773.606348,1149.143247
1212.407316,7698.141797,-7031.956449,842.705048
1212.407645,7772.162391,-7624.121203,1378.971896
1212.407974,8068.244768,-7920.203579,1991.848295
1212.408303,8364.327145,-8068.244768,2451.505594
1212.408632,7698.141797,-7254.018232,2374.896044
1212.408962,6735.874072,-6957.935855,1838.629195
1212.409291,5551.544565,-6513.812290,1455.581446
1212.409620,4737.318029,-6661.853478,612.876398
1212.409949,4811.338623,-6883.915261,0.000000
1212.410278,4219.173869,-6513.812290,-459.657299
1212.410607,4811.338623,-5921.647536,-689.485948
1212.410936,5699.585753,-6809.894666,-306.438199
1212.411265,6957.935855,-7328.038826,229.828649
1212.411595,7402.059420,-7698.141797,689.485948
1212.411924,7624.121203,-7402.059420,689.485948
1212.412253,8216.285956,-7846.182985,1915.238745
1212.412582,8290.306550,-7550.100608,2068.457845
1212.412911,8882.471304,-6809.894666,2681.334243
1212.413240,8438.347739,-6143.709319,2604.724693
1212.413569,7994.224174,-5255.462188,2145.067394
1212.413899,7328.038826,-4589.276840,1608.800546
1212.414228,7254.018232,-3478.967927,995.924147
1212.414557,6809.894666,-3849.070898,76.609550
1212.414886,7031.956449,-4441.235652,153.219100
1212.415215,7105.977043,-5181.441594,0.000000
1212.415544,7105.977043,-6291.750507,0.000000
1212.415873,6957.935855,-6883.915261,0.000000
1212.416203,6957.935855,-8882.471304,612.876398
1212.416532,7254.018232,-9622.677246,1838.629195
1212.416861,7698.141797,-9400.615463,2221.676944
1212.417190,7624.121203,-8438.347739,1838.629195
1212.417519,6809.894666,-7920.203579,1762.019645
1212.417848,5995.668130,-7254.018232,1149.143247
1212.418177,5847.626942,-7105.977043,459.657299
1212.418506,5181.441594,-5847.626942,612.876398
1212.418836,5181.441594,-4959.379811,459.657299
1212.419165,5847.626942,-5033.400406,-612.876398
1212.419494,6661.853478,-5329.482782,229.828649
1212.419823,6957.935855,-6217.729913,0.000000
1212.420152,7328.038826,-6217.729913,459.657299
1212.420481,8216.285956,-6661.853478,1072.533697
1212.420810,8586.388927,-7254.018232,1532.190996
1212.421140,8142.265362,-8142.265362,2528.115143
1212.421469,8216.285956,-7550.100608,2374.896044
1212.421798,7772.162391,-6661.853478,1149.143247
1212.422127,6735.874072,-6735.874072,2068.457845
1212.422456,6587.832884,-6291.750507,1532.190996
1212.422785,6143.709319,-5403.503377,995.924147
1212.423114,5699.585753,-3997.112087,459.657299
1212.423443,6365.771101,-4367.215058,0.000000
1212.423773,6735.874072,-4885.359217,0.000000
1212.424102,7105.977043,-6217.729913,229.828649
1212.424431,7105.977043,-6217.729913,383.047749
1212.424760,7624.121203,-6365.771101,153.219100
1212.425089,7994.224174,-7476.080014,1225.752797
1212.425418,8290.306550,-7846.182985,2145.067394
1212.425747,8882.471304,-8290.306550,2604.724693
1212.426077,8586.388927,-7402.059420,2451.505594
1212.426406,7846.182985,-7105.977043,1378.971896
1212.426735,5921.647536,-7105.977043,1532.190996
1212.427064,4811.338623,-6735.874072,306.438199
1212.427393,4737.318029,-6661.853478,76.609550
1212.427722,4737.318029,-5995.668130,-306.438199
1212.428051,5699.585753,-6439.791695,-766.095498
1212.428380,5847.626942,-6883.915261,459.657299
1212.428710,6587.832884,-7031.956449,459.657299
1212.429039,6957.935855,-7550.100608,306.438199
1212.429368,6957.935855,-7179.997637,842.705048
1212.429697,7772.162391,-8068.244768,1915.238745
1212.430026,8142.265362,-8142.265362,1991.848295
1212.430355,7846.182985,-6513.812290,2068.457845
1212.430684,7698.141797,-5995.668130,2068.457845
1212.431013,7624.121203,-5403.503377,2298.286494
1212.431343,7254.018232,-5107.421000,1532.190996
1212.431672,7328.038826,-4145.153275,1072.533697
1212.432001,7550.100608,-3034.844362,459.657299
1212.432330,7698.141797,-4515.256246,229.828649
1212.432659,7402.059420,-5033.400406,612.876398
1212.432988,7179.997637,-6217.729913,229.828649
1212.433317,7328.038826,-6809.894666,-306.438199
1212.433647,7254.018232,-7846.182985,536.266849
1212.433976,7105.977043,-8808.450710,2451.505594
1212.434305,7550.100608,-8660.409521,1302.362347
1212.434634,6809.894666,-8438.347739,1762.019645
1212.434963,6217.729913,-7476.080014,1762.019645
1212.435292,6069.688724,-7031.956449,1225.752797
1212.435621,5921.647536,-6735.874072,1302.362347
1212.435950,5625.565159,-6291.750507,919.314598
1212.436280,5403.503377,-4737.318029,0.000000
1212.436609,5477.523971,-5477.523971,-306.438199
1212.436938,6143.709319,-5477.523971,766.095498
1212.437267,6957.935855,-7031.956449,229.828649
1212.437596,7402.059420,-6291.750507,842.705048
1212.437925,7402.059420,-7105.977043,689.485948
1212.438254,7920.203579,-7698.141797,1685.410096
1212.438583,8290.306550,-8290.306550,2374.896044
1212.438913,7846.182985,-8216.285956,2145.067394
1212.439242,7476.080014,-6661.853478,1915.238745
1212.439571,6809.894666,-5625.565159,1455.581446
1212.439900,6513.812290,-4959.379811,1302.362347
1212.440229,7031.956449,-5255.462188,1302.362347
1212.440558,7105.977043,-4515.256246,536.266849
1212.440887,7254.018232,-4367.215058,306.438199
1212.441217,7105.977043,-4515.256246,76.609550
1212.441546,7031.956449,-5625.565159,383.047749
1212.441875,7328.038826,-6809.894666,689.485948
1212.442204,7772.162391,-7179.997637,1072.533697
1212.442533,8216.285956,-8068.244768,1685.410096
1212.442862,8364.327145,-7994.224174,2681.334243
1212.443191,8290.306550,-7476.080014,2298.286494
1212.443520,7402.059420,-7550.100608,2145.067394
1212.443850,6365.771101,-7179.997637,1455.581446
1212.444179,4959.379811,-7254.018232,995.924147
1212.444508,4737.318029,-6439.791695,153.219100
1212.444837,4367.215058,-5995.668130,0.000000
1212.445166,4737.318029,-6143.709319,-229.828649
1212.445495,5551.544565,-6661.853478,0.000000
1212.445824,6217.729913,-7105.977043,306.438199
1212.446153,7105.977043,-7402.059420,842.705048
1212.446483,7179.997637,-7105.977043,459.657299
1212.446812,7476.080014,-7476.080014,1149.143247
1212.447141,7846.182985,-7846.182985,2068.457845
1212.447470,8364.327145,-7994.224174,2145.067394
1212.447799,8438.347739,-6957.935855,2298.286494
1212.448128,7920.203579,-5477.523971,1915.238745
1212.448457,7254.018232,-5107.421000,1685.410096
1212.448787,7328.038826,-4589.276840,919.314598
1212.449116,7550.100608,-3997.112087,1302.362347
1212.449445,7105.977043,-3552.988522,0.000000
1212.449774,7031.956449,-4293.194464,459.657299
1212.450103,7624.121203,-4959.379811,766.095498
1212.450432,7328.038826,-6365.771101,612.876398
1212.450761,7105.977043,-7624.121203,842.705048
1212.451090,7031.956449,-8068.244768,1225.752797
1212.451420,7179.997637,-9622.677246,1685.410096
1212.451749,7254.018232,-9252.574275,2068.457845
1212.452078,6661.853478,-9178.553681,2068.457845
1212.452407,6217.729913,-8142.265362,1302.362347
1212.452736,5033.400406,-7105.977043,842.705048
1212.453065,4737.318029,-7328.038826,612.876398
1212.453394,5403.503377,-6069.688724,153.219100
1212.453723,5773.606348,-4737.318029,459.657299
1212.454053,5995.668130,-4589.276840,-153.219100
1212.454382,6957.935855,-5329.482782,306.438199
1212.454711,7920.203579,-5847.626942,689.485948
1212.455040,8808.450710,-5699.585753,1072.533697
1212.455369,8660.409521,-6957.935855,1685.410096
1212.455698,8808.450710,-7254.018232,2068.457845
1212.456027,8364.327145,-7846.182985,2068.457845
1212.456357,7846.182985,-7920.203579,2451.505594
1212.456686,7476.080014,-6735.874072,1532.190996
1212.457015,6883.915261,-6439.791695,1608.800546
1212.457344,6661.853478,-5181.441594,1225.752797
1212.457673,6365.771101,-5033.400406,995.924147
1212.458002,6069.688724,-4885.359217,536.266849
1212.458331,6291.750507,-4663.297435,76.609550
1212.458660,5921.647536,-5847.626942,0.000000
1212.458990,6513.812290,-5699.585753,383.047749
1212.459319,7105.977043,-6587.832884,76.609550
1212.459648,7994.224174,-7254.018232,842.705048
1212.459977,8216.285956,-7476.080014,1838.629195
1212.460306,9178.553681,-8438.347739,2681.334243
1212.460635,9400.615463,-7772.162391,2834.553343
1212.460964,7698.141797,-7402.059420,2374.896044
1212.461293,7179.997637,-6883.915261,1225.752797
1212.461623,5625.565159,-6809.894666,1072.533697
1212.461952,5181.441594,-7105.977043,229.828649
1212.462281,4737.318029,-6735.874072,-306.438199
1212.462610,4663.297435,-5551.544565,-689.485948
1212.462939,5329.482782,-6513.812290,-689.485948
1212.463268,5329.482782,-7179.997637,0.000000
1212.463597,6069.688724,-7772.162391,229.828649
1212.463927,6735.874072,-7698.141797,306.438199
1212.464256,7254.018232,-7179.997637,1838.629195
1212.464585,8142.265362,-7402.059420,2068.457845
1212.464914,8586.388927,-6883.915261,2221.676944
1212.465243,8512.368333,-6439.791695,2911.162892
1212.465572,9326.594869,-4885.359217,2451.505594
1212.465901,8290.306550,-4737.318029,2374.896044
1212.466230,7698.141797,-3701.029710,1838.629195
1212.466560,7476.080014,-3478.967927,766.095498
1212.466889,7031.956449,-3701.029710,0.000000
1212.467218,6513.812290,-5255.462188,536.266849
1212.467547,6735.874072,-6587.832884,153.219100
1212.467876,6883.915261,-7105.977043,153.219100
1212.468205,6587.832884,-8290.306550,383.047749
1212.468534,6291.750507,-8808.450710,459.657299
1212.468864,6957.935855,-8660.409521,1685.410096
1212.469193,7698.141797,-9030.512492,1762.019645
1212.469522,7105.977043,-8808.450710,2068.457845
1212.469851,6587.832884,-7328.038826,1608.800546
1212.470180,6069.688724,-7105.977043,995.924147
1212.470509,5995.668130,-6365.771101,919.314598
1212.470838,5921.647536,-5551.544565,536.266849
1212.471167,6661.853478,-4885.359217,459.657299
1212.471497,7105.977043,-4737.318029,306.438199
1212.471826,7179.997637,-5329.482782,689.485948
1212.472155,7328.038826,-6439.791695,919.314598
1212.472484,7105.977043,-6883.915261,536.266849
1212.472813,7105.977043,-7698.141797,919.314598
1212.473142,7105.977043,-8438.347739,1302.362347
1212.473471,7402.059420,-7772.162391,2451.505594
1212.473800,7550.100608,-7624.121203,2451.505594
1212.474130,7105.977043,-6883.915261,1608.800546
1212.474459,6735.874072,-6143.709319,1838.629195
1212.474788,6365.771101,-4737.318029,919.314598
1212.475117,6661.853478,-4737.318029,1072.533697
1212.475446,7105.977043,-4293.194464,612.876398
1212.475775,7476.080014,-4515.256246,459.657299
1212.476104,7550.100608,-4737.318029,459.657299
1212.476434,7772.162391,-5329.482782,153.219100
1212.476763,8438.347739,-6587.832884,842.705048
1212.477092,7920.203579,-7105.977043,1225.752797
1212.477421,7920.203579,-8364.327145,1608.800546
1212.477750,7994.224174,-8142.265362,2374.896044
1212.478079,7698.141797,-7772.162391,2298.286494
1212.478408,7105.977043,-7550.100608,2374.896044
1212.478737,6439.791695,-6587.832884,1915.238745
1212.479067,5477.523971,-6217.729913,689.485948
1212.479396,4663.297435,-6069.688724,766.095498
1212.479725,4071.132681,-5477.523971,-383.047749
1212.480054,4811.338623,-6513.812290,-153.219100
1212.480383,5773.606348,-6291.750507,0.000000
1212.480712,6217.729913,-7105.977043,0.000000
1212.481041,7031.956449,-7920.203579,842.705048
1212.481370,7402.059420,-7846.182985,995.924147
1212.481700,7402.059420,-8882.471304,1225.752797
1212.482029,7328.038826,-8438.347739,1762.019645
1212.482358,7772.162391,-7328.038826,2451.505594
1212.482687,8512.368333,-6587.832884,1838.629195
1212.483016,7624.121203,-5847.626942,2451.505594
1212.483345,7328.038826,-4737.318029,1455.581446
1212.483674,7328.038826,-3627.009116,1072.533697
1212.484004,6809.894666,-2368.659014,766.095498
1212.484333,6883.915261,-3552.988522,0.000000
1212.484662,7624.121203,-4219.173869,306.438199
1212.484991,7772.162391,-5107.421000,612.876398
1212.485320,8068.244768,-5921.647536,842.705048
1212.485649,7920.203579,-7105.977043,1225.752797
1212.485978,7920.203579,-8290.306550,1302.362347
1212.486307,7476.080014,-8882.471304,1302.362347
1212.486637,6587.832884,-9696.697840,1762.019645
1212.486966,6735.874072,-9104.533087,1378.971896
1212.487295,5403.503377,-8734.430116,919.314598
1212.487624,4885.359217,-7772.162391,1149.143247
1212.487953,4811.338623,-7550.100608,306.438199
1212.488282,4811.338623,-5847.626942,-383.047749
1212.488611,4737.318029,-5477.523971,-459.657299
1212.488940,5403.503377,-5329.482782,-229.828649
1212.489270,6809.894666,-5403.503377,0.000000
1212.489599,7698.141797,-6143.709319,383.047749
1212.489928,8216.285956,-6365.771101,1302.362347
1212.490257,8438.347739,-6883.915261,1991.848295
1212.490586,8956.491898,-7105.977043,1532.190996
1212.490915,8512.368333,-7624.121203,2145.067394
1212.491244,8216.285956,-7105.977043,2451.505594
1212.491574,7550.100608,-7476.080014,1608.800546
1212.491903,6587.832884,-5995.668130,1302.362347
1212.492232,5699.585753,-6069.688724,612.876398
1212.492561,5995.668130,-4441.235652,306.438199
1212.492890,6883.915261,-4515.256246,1302.362347
1212.493219,7179.997637,-4515.256246,383.047749
1212.493548,7031.956449,-4737.318029,0.000000
1212.493877,7031.956449,-5995.668130,919.314598
1212.494207,7328.038826,-6365.771101,383.047749
1212.494536,8364.327145,-7994.224174,1455.581446
1212.494865,8290.306550,-7476.080014,2068.457845
1212.495194,8438.347739,-7846.182985,2451.505594
1212.495523,8216.285956,-7920.203579,2221.676944
1212.495852,7105.977043,-7179.997637,2374.896044
1212.496181,6439.791695,-7328.038826,766.095498
1212.496510,5477.523971,-7105.977043,766.095498
1212.496840,4737.318029,-6661.853478,0.000000
1212.497169,3849.070898,-6439.791695,-919.314598
1212.497498,4441.235652,-5773.606348,-153.219100
1212.497827,5403.503377,-6513.812290,-919.314598
1212.498156,6217.729913,-7402.059420,0.000000
1212.498485,6735.874072,-7402.059420,612.876398
1212.498814,7179.997637,-7772.162391,383.047749
1212.499144,7624.121203,-7772.162391,2068.457845
1212.499473,7994.224174,-7624.121203,2221.676944
1212.499802,8882.471304,-6735.874072,2681.334243
1212.500131,9178.553681,-5847.626942,3447.429741
1212.500460,9104.533087,-5033.400406,3217.601092
1212.500789,8512.368333,-4071.132681,1838.629195
1212.501118,7402.059420,-3404.947333,1149.143247
1212.501447,7031.956449,-3182.885551,153.219100
1212.501777,6587.832884,-3997.112087,0.000000
1212.502106,6957.935855,-4663.297435,383.047749
1212.502435,6661.853478,-6217.729913,153.219100
1212.502764,6365.771101,-6883.915261,306.438199
1212.503093,6587.832884,-8290.306550,306.438199
1212.503422,6661.853478,-9178.553681,1532.190996
1212.503751,7698.141797,-9474.636058,1762.019645
1212.504081,7328.038826,-8956.491898,1608.800546
1212.504410,7105.977043,-7994.224174,1762.019645
1212.504739,6735.874072,-7402.059420,1532.190996
1212.505068,6587.832884,-7105.977043,1149.143247
1212.505397,6291.750507,-6809.894666,766.095498
1212.505726,5403.503377,-5699.585753,0.000000
1212.506055,5255.462188,-5255.462188,-1072.533697
1212.506384,5847.626942,-5847.626942,229.828649
1212.506714,6587.832884,-6291.750507,76.609550
1212.507043,7179.997637,-6439.791695,612.876398
1212.507372,7550.100608,-6587.832884,1302.362347
1212.507701,7772.162391,-7179.997637,1455.581446
1212.508030,7328.038826,-7402.059420,1838.629195
1212.508359,7624.121203,-7254.018232,2068.457845
1212.508688,7772.162391,-6735.874072,2068.457845
1212.509017,7105.977043,-6143.709319,1838.629195
1212.509347,7105.977043,-5329.482782,1685.410096
1212.509676,7105.977043,-4663.297435,1072.533697
1212.510005,7105.977043,-4071.132681,229.828649
1212.510334,6365.771101,-4737.318029,0.000000
1212.510663,6661.853478,-5847.626942,0.000000
1212.510992,7179.997637,-5773.606348,-153.219100
1212.511321,7105.977043,-6883.915261,383.047749
1212.511651,7179.997637,-7476.080014,1149.143247
1212.511980,7698.141797,-7846.182985,1225.752797
1212.512309,8364.327145,-8512.368333,1915.238745
1212.512638,9030.512492,-7846.182985,2911.162892
1212.512967,7624.121203,-7698.141797,2145.067394
1212.513296,6883.915261,-6661.853478,1455.581446
1212.513625,5847.626942,-6365.771101,1072.533697
1212.513954,5329.482782,-5995.668130,153.219100
1212.514284,5773.606348,-5625.565159,0.000000
1212.514613,5625.565159,-5403.503377,76.609550
1212.514942,5403.503377,-5921.647536,0.000000
1212.515271,4663.297435,-7105.977043,-306.438199
1212.515600,6291.750507,-7254.018232,0.000000
1212.515929,6661.853478,-8290.306550,842.705048
1212.516258,6883.915261,-8142.265362,1149.143247
1212.516587,7328.038826,-8216.285956,1762.019645
1212.516917,8290.306550,-7772.162391,2528.115143
1212.517246,8882.471304,-7179.997637,2451.505594
1212.517575,8364.327145,-6143.709319,2604.724693
1212.517904,8512.368333,-5551.544565,2298.286494
1212.518233,7920.203579,-3775.050304,2068.457845
1212.518562,7254.018232,-3034.844362,1149.143247
1212.518891,7328.038826,-2886.803174,0.000000
1212.519221,7698.141797,-3627.009116,76.609550
1212.519550,7994.224174,-5403.503377,383.047749
1212.519879,7846.182985,-5403.503377,689.485948
1212.520208,6957.935855,-7105.977043,0.000000
1212.520537,6365.771101,-8512.368333,306.438199
1212.520866,6661.853478,-9696.697840,1149.143247
1212.521195,7254.018232,-9696.697840,1915.238745
1212.521524,7105.977043,-8660.409521,2451.505594
1212.521854,6735.874072,-7846.182985,1455.581446
1212.522183,5847.626942,-7179.997637,919.314598
1212.522512,5033.400406,-7254.018232,995.924147
1212.522841,5699.585753,-6143.709319,306.438199
1212.523170,5477.523971,-5329.482782,229.828649
1212.523499,5921.647536,-4737.318029,-229.828649
1212.523829,6587.832884,-5699.585753,76.609550
1212.524158,6957.935855,-6513.812290,536.266849
1212.524487,7031.956449,-6809.894666,76.609550
1212.524816,7476.080014,-7105.977043,919.314598
1212.525145,7994.224174,-8216.285956,1532.190996
1212.525474,8216.285956,-7698.141797,1838.629195
1212.525803,7624.121203,-7105.977043,1915.238745
1212.526133,7698.141797,-6661.853478,2221.676944
1212.526462,7402.059420,-6513.812290,1838.629195
1212.526791,6513.812290,-6143.709319,1532.190996
1212.527120,6069.688724,-4219.173869,383.047749
1212.527449,6439.791695,-4071.132681,0.000000
1212.527778,7105.977043,-3923.091493,536.266849
1212.528108,7179.997637,-5403.503377,536.266849
1212.528437,7846.182985,-6069.688724,842.705048
1212.528766,7920.203579,-5921.647536,919.314598
1212.529095,7772.162391,-7105.977043,919.314598
1212.529424,7328.038826,-8216.285956,1915.238745
1212.529753,7476.080014,-8660.409521,2145.067394
1212.530082,7772.162391,-7846.182985,1991.848295
1212.530412,7254.018232,-7476.080014,1762.019645
1212.530741,6809.894666,-7105.977043,2068.457845
1212.531070,6143.709319,-7254.018232,1378.971896
1212.531399,5181.441594,-6069.688724,459.657299
1212.531728,4589.276840,-5995.668130,-306.438199
1212.532057,4959.379811,-5773.606348,-383.047749
1212.532386,6143.709319,-6143.709319,-459.657299
1212.532716,5625.565159,-6957.935855,0.000000
1212.533045,6957.935855,-7328.038826,612.876398
1212.533374,7550.100608,-7550.100608,459.657299
1212.533703,8216.285956,-7920.203579,995.924147
1212.534032,7550.100608,-8660.409521,2374.896044
1212.534361,7920.203579,-8068.244768,2068.457845
1212.534691,7994.224174,-6587.832884,1991.848295
1212.535020,7772.162391,-5477.523971,2451.505594
1212.535349,7550.100608,-5181.441594,2451.505594
1212.535678,7402.059420,-3923.091493,1838.629195
1212.536007,7624.121203,-2590.720797,1149.143247
1212.536336,7402.059420,-2442.679609,76.609550
1212.536665,7105.977043,-3775.050304,459.657299
1212.536995,7402.059420,-5477.523971,766.095498
1212.537324,7105.977043,-6439.791695,306.438199
1212.537653,6735.874072,-7698.141797,229.828649
1212.537982,6957.935855,-8586.388927,612.876398
1212.538311,7402.059420,-9918.759623,1378.971896
1212.538640,7328.038826,-9770.718434,1991.848295
1212.538969,6217.729913,-9400.615463,1838.629195
1212.539299,5773.606348,-8068.244768,1455.581446
1212.539628,5773.606348,-7328.038826,1149.143247
1212.539957,5477.523971,-7105.977043,919.314598
1212.540286,5255.462188,-5995.668130,306.438199
1212.540615,5551.544565,-4737.318029,0.000000
1212.540944,6143.709319,-4737.318029,-459.657299
1212.541274,7402.059420,-5033.400406,766.095498
1212.541603,7624.121203,-6513.812290,612.876398
1212.541932,8438.347739,-5995.668130,229.828649
1212.542261,7994.224174,-6883.915261,766.095498
1212.542590,8068.244768,-7624.121203,1838.629195
1212.542919,7846.182985,-8068.244768,2834.553343
1212.543248,8438.347739,-7031.956449,2681.334243
1212.543578,7698.141797,-6069.688724,2145.067394
1212.543907,6587.832884,-5995.668130,1762.019645
1212.544236,6439.791695,-5921.647536,1378.971896
1212.544565,5551.544565,-5403.503377,459.657299
1212.544894,5773.606348,-4145.153275,0.000000
1212.545223,6217.729913,-4441.235652,229.828649
1212.545552,7105.977043,-5255.462188,536.266849
1212.545882,7772.162391,-6217.729913,1072.533697
1212.546211,7698.141797,-7105.977043,1072.533697
1212.546540,8290.306550,-7476.080014,842.705048
1212.546869,8364.327145,-8290.306550,1455.581446
1212.547198,8364.327145,-8734.430116,2221.676944
1212.547527,7772.162391,-8290.306550,2451.505594
1212.547857,7179.997637,-7920.203579,1762.019645
1212.548186,6143.709319,-7179.997637,1225.752797
1212.548515,5181.441594,-7031.956449,1149.143247
1212.548844,5181.441594,-6143.709319,229.828649
1212.549173,4737.318029,-5107.421000,229.828649
1212.549502,4589.276840,-5329.482782,-306.438199
1212.549831,5477.523971,-5699.585753,-306.438199
1212.550161,6365.771101,-6587.832884,612.876398
1212.550490,7328.038826,-6809.894666,689.485948
1212.550819,7254.018232,-7105.977043,612.876398
1212.551148,7179.997637,-7994.224174,1149.143247
1212.551477,7994.224174,-8438.347739,2068.457845
1212.551806,8734.430116,-7994.224174,2757.943793
1212.552136,9104.533087,-5995.668130,2834.553343
1212.552465,8512.368333,-5255.462188,2528.115143
1212.552794,7624.121203,-4589.276840,1608.800546
1212.553123,6661.853478,-4367.215058,1072.533697
1212.553452,6957.935855,-3256.906145,766.095498
1212.553781,7105.977043,-3256.906145,229.828649
1212.554110,7254.018232,-4367.215058,0.000000
1212.554440,6957.935855,-5625.565159,153.219100
1212.554769,7179.997637,-6439.791695,153.219100
1212.555098,7105.977043,-7179.997637,0.000000
1212.555427,6735.874072,-9030.512492,842.705048
1212.555756,6883.915261,-9622.677246,1072.533697
1212.556085,7179.997637,-10362.883188,1225.752797
1212.556414,7179.997637,-9030.512492,2145.067394
1212.556744,6217.729913,-8438.347739,1532.190996
1212.557073,6291.750507,-7105.977043,1225.752797
1212.557402,5773.606348,-6069.688724,1532.190996
1212.557731,5995.668130,-5181.441594,459.657299
1212.558060,5921.647536,-4293.194464,0.000000
1212.558389,5477.523971,-4811.338623,-306.438199
1212.558719,6291.750507,-5699.585753,0.000000
1212.559048,6957.935855,-6883.915261,459.657299
1212.559377,7624.121203,-7328.038826,459.657299
1212.559706,7698.141797,-7105.977043,1149.143247
1212.560035,7994.224174,-7328.038826,1532.190996
1212.560364,7994.224174,-8438.347739,2221.676944
1212.560693,8216.285956,-7476.080014,2298.286494
1212.561023,8364.327145,-6587.832884,2298.286494
1212.561352,6809.894666,-5477.523971,1608.800546
1212.561681,6439.791695,-4811.338623,1072.533697
1212.562010,6661.853478,-4885.359217,842.705048
1212.562339,7031.956449,-4293.194464,0.000000
1212.562668,7105.977043,-4737.318029,612.876398
1212.562997,6809.894666,-5403.503377,0.000000
1212.563327,7105.977043,-6365.771101,229.828649
1212.563656,7105.977043,-6883.915261,689.485948
1212.563985,7772.162391,-7994.224174,1302.362347
1212.564314,7994.224174,-7846.182985,1838.629195
1212.564643,8734.430116,-8142.265362,3140.991542
1212.564972,8364.327145,-7698.141797,2528.115143
1212.565302,7105.977043,-7402.059420,1991.848295
1212.565631,5995.668130,-6587.832884,1378.971896
1212.565960,4811.338623,-6587.832884,842.705048
1212.566289,4219.173869,-6143.709319,229.828649
1212.566618,4293.194464,-5625.565159,-153.219100
1212.566947,4959.379811,-5699.585753,-612.876398
1212.567276,5551.544565,-6365.771101,-153.219100
1212.567606,6217.729913,-7254.018232,76.609550
1212.567935,7254.018232,-7698.141797,612.876398
1212.568264,7254.018232,-7698.141797,1225.752797
1212.568593,8142.265362,-8142.265362,2068.457845
1212.568922,8290.306550,-7476.080014,2374.896044
1212.569251,8956.491898,-6957.935855,2298.286494
