#time,accel_x,accel_y,accel_z
1443.667532,6883.915261,-6883.915261,1072.533697
1443.667862,6735.874072,-6661.853478,995.924147
1443.668192,7031.956449,-7031.956449,842.705048
1443.668522,6883.915261,-6809.894666,1072.533697
1443.668852,6587.832884,-7031.956449,842.705048
1443.669182,7105.977043,-6661.853478,1072.533697
1443.669513,7105.977043,-5847.626942,536.266849
1443.669843,7179.997637,-6587.832884,612.876398
1443.670173,7402.059420,-6439.791695,919.314598
1443.670503,7402.059420,-6439.791695,1149.143247
1443.670833,7105.977043,-5699.585753,995.924147
1443.671163,7328.038826,-5773.606348,919.314598
1443.671493,7476.080014,-6291.750507,995.924147
1443.671823,7105.977043,-6513.812290,1149.143247
1443.672154,7254.018232,-6217.729913,1532.190996
1443.672484,7179.997637,-6069.688724,1149.143247
1443.672814,6957.935855,-6513.812290,995.924147
1443.673144,6661.853478,-6217.729913,1225.752797
1443.673474,6661.853478,-6587.832884,919.314598
1443.673804,6587.832884,-6661.853478,1225.752797
1443.674134,6883.915261,-6735.874072,1685.410096
1443.674464,6883.915261,-6587.832884,1072.533697
1443.674794,7105.977043,-7105.977043,1455.581446
1443.675125,6735.874072,-6513.812290,1532.190996
1443.675455,6439.791695,-6439.791695,1378.971896
1443.675785,6809.894666,-6661.853478,766.095498
1443.676115,6587.832884,-7031.956449,612.876398
1443.676445,6809.894666,-7179.997637,919.314598
1443.676775,7179.997637,-6883.915261,1149.143247
1443.677105,6883.915261,-6365.771101,1225.752797
1443.677435,7031.956449,-6809.894666,919.314598
1443.677766,6957.935855,-6587.832884,1072.533697
1443.678096,7031.956449,-6661.853478,766.095498
1443.678426,6735.874072,-6587.832884,1149.143247
1443.678756,7031.956449,-6217.729913,1225.752797
1443.679086,7254.018232,-6661.853478,995.924147
1443.679416,6809.894666,-6513.812290,1072.533697
1443.679746,7105.977043,-6439.791695,995.924147
1443.680076,7476.080014,-6661.853478,689.485948
1443.680406,7105.977043,-6735.874072,1225.752797
1443.680737,6735.874072,-6291.750507,842.705048
1443.681067,6957.935855,-6809.894666,766.095498
1443.681397,7105.977043,-7105.977043,995.924147
1443.681727,7105.977043,-6809.894666,919.314598
1443.682057,7105.977043,-6957.935855,995.924147
1443.682387,6809.894666,-6735.874072,1225.752797
1443.682717,6735.874072,-6513.812290,766.095498
1443.683047,6883.915261,-6513.812290,1302.362347
1443.683378,6735.874072,-7031.956449,1149.143247
1443.683708,6957.935855,-6661.853478,766.095498
1443.684038,7105.977043,-6809.894666,1149.143247
1443.684368,6957.935855,-6291.750507,1149.143247
1443.684698,7698.141797,-6587.832884,689.485948
1443.685028,7624.121203,-6365.771101,612.876398
1443.685358,7254.018232,-6513.812290,1225.752797
1443.685688,7254.018232,-6291.750507,842.705048
1443.686019,7624.121203,-5921.647536,919.314598
1443.686349,7476.080014,-6365.771101,1225.752797
1443.686679,7179.997637,-5995.668130,995.924147
1443.687009,6957.935855,-6439.791695,1072.533697
1443.687339,6661.853478,-6217.729913,1149.143247
1443.687669,6439.791695,-5847.626942,1762.019645
1443.687999,6809.894666,-6291.750507,919.314598
1443.688329,6957.935855,-6291.750507,612.876398
1443.688659,6809.894666,-6661.853478,1072.533697
1443.688990,6587.832884,-6809.894666,1225.752797
1443.689320,6809.894666,-6735.874072,1225.752797
1443.689650,6809.894666,-6957.935855,1302.362347
1443.689980,6809.894666,-6735.874072,1378.971896
1443.690310,6735.874072,-7031.956449,689.485948
1443.690640,6735.874072,-7105.977043,612.876398
1443.690970,7031.956449,-7031.956449,919.314598
1443.691300,7179.997637,-6587.832884,536.266849
1443.691631,7105.977043,-6365.771101,1225.752797
1443.691961,6883.915261,-6809.894666,612.876398
1443.692291,7328.038826,-6883.915261,229.828649
1443.692621,7105.977043,-6661.853478,766.095498
1443.692951,6809.894666,-6957.935855,1072.533697
1443.693281,7105.977043,-6587.832884,1455.581446
1443.693611,6661.853478,-6217.729913,1302.362347
1443.693941,7105.977043,-6587.832884,689.485948
1443.694272,7031.956449,-6291.750507,995.924147
1443.694602,7179.997637,-6365.771101,919.314598
1443.694932,7105.977043,-6661.853478,995.924147
1443.695262,6513.812290,-5995.668130,2145.067394
1443.695592,6587.832884,-6365.771101,766.095498
1443.695922,6513.812290,-6957.935855,995.924147
1443.696252,6513.812290,-6735.874072,1225.752797
1443.696582,6957.935855,-6661.853478,1225.752797
1443.696912,6883.915261,-6291.750507,1149.143247
1443.697243,6735.874072,-6291.750507,1149.143247
1443.697573,6957.935855,-6809.894666,689.485948
1443.697903,6809.894666,-6883.915261,766.095498
1443.698233,7105.977043,-6957.935855,1225.752797
1443.698563,7179.997637,-6513.812290,919.314598
1443.698893,7254.018232,-6291.750507,1072.533697
1443.699223,7328.038826,-6587.832884,919.314598
1443.699553,7179.997637,-6513.812290,766.095498
1443.699884,7402.059420,-5995.668130,1072.533697
1443.700214,7105.977043,-6439.791695,842.705048
1443.700544,7031.956449,-6217.729913,842.705048
1443.700874,7402.059420,-6291.750507,766.095498
1443.701204,7179.997637,-6217.729913,995.924147
1443.701534,7328.038826,-6439.791695,1072.533697
1443.701864,7254.018232,-6291.750507,1225.752797
1443.702194,7105.977043,-6291.750507,842.705048
1443.702524,7105.977043,-6735.874072,1225.752797
1443.702855,6735.874072,-6291.750507,1685.410096
1443.703185,6809.894666,-6439.791695,995.924147
1443.703515,7105.977043,-6883.915261,1149.143247
1443.703845,6883.915261,-6809.894666,919.314598
1443.704175,6809.894666,-6809.894666,536.266849
1443.704505,6513.812290,-7105.977043,1302.362347
1443.704835,6587.832884,-6883.915261,1149.143247
1443.705165,6735.874072,-6809.894666,689.485948
1443.705496,6439.791695,-7105.977043,1762.019645
1443.705826,6957.935855,-6809.894666,612.876398
1443.706156,7105.977043,-6883.915261,842.705048
1443.706486,7031.956449,-6661.853478,1149.143247
1443.706816,6957.935855,-6513.812290,842.705048
1443.707146,7105.977043,-6883.915261,1302.362347
1443.707476,7105.977043,-6587.832884,919.314598
1443.707806,7031.956449,-6587.832884,995.924147
1443.708137,6957.935855,-6291.750507,842.705048
1443.708467,6809.894666,-6513.812290,1225.752797
1443.708797,6513.812290,-5699.585753,1455.581446
1443.709127,6883.915261,-6587.832884,1302.362347
1443.709457,7031.956449,-6587.832884,612.876398
1443.709787,6735.874072,-6439.791695,995.924147
1443.710117,6587.832884,-6439.791695,995.924147
1443.710447,7105.977043,-6735.874072,766.095498
1443.710777,6809.894666,-6513.812290,995.924147
1443.711108,7105.977043,-6661.853478,1455.581446
1443.711438,7105.977043,-6587.832884,842.705048
1443.711768,6809.894666,-6883.915261,1149.143247
1443.712098,7031.956449,-6957.935855,1072.533697
1443.712428,6957.935855,-7031.956449,689.485948
1443.712758,6809.894666,-6735.874072,1072.533697
1443.713088,6809.894666,-6957.935855,995.924147
1443.713418,7624.121203,-6439.791695,1302.362347
1443.713749,7476.080014,-6513.812290,995.924147
1443.714079,7179.997637,-6439.791695,995.924147
1443.714409,7105.977043,-6069.688724,1072.533697
1443.714739,7254.018232,-6365.771101,612.876398
1443.715069,7031.956449,-5847.626942,1685.410096
1443.715399,7328.038826,-6217.729913,1225.752797
1443.715729,7550.100608,-6143.709319,995.924147
1443.716059,7328.038826,-6439.791695,995.924147
1443.716389,7105.977043,-5921.647536,1302.362347
1443.716720,6957.935855,-6069.688724,842.705048
1443.717050,7105.977043,-6365.771101,1455.581446
1443.717380,7031.956449,-6291.750507,689.485948
1443.717710,6883.915261,-6439.791695,689.485948
1443.718040,7105.977043,-7031.956449,229.828649
1443.718370,6883.915261,-6661.853478,1149.143247
1443.718700,6957.935855,-7031.956449,1072.533697
1443.719030,6809.894666,-7031.956449,1225.752797
1443.719361,6957.935855,-6513.812290,1608.800546
1443.719691,7105.977043,-6809.894666,995.924147
1443.720021,6735.874072,-6809.894666,766.095498
1443.720351,6661.853478,-6809.894666,1149.143247
1443.720681,7179.997637,-6809.894666,995.924147
1443.721011,7105.977043,-6587.832884,1149.143247
1443.721341,7105.977043,-6513.812290,1225.752797
1443.721671,7105.977043,-6735.874072,995.924147
1443.722002,7254.018232,-6661.853478,1302.362347
1443.722332,7105.977043,-6587.832884,1072.533697
1443.722662,7550.100608,-6291.750507,612.876398
1443.722992,7031.956449,-6291.750507,919.314598
1443.723322,7031.956449,-6513.812290,842.705048
1443.723652,6883.915261,-6587.832884,1685.410096
1443.723982,6957.935855,-6439.791695,995.924147
1443.724312,6957.935855,-6365.771101,689.485948
1443.724642,6735.874072,-6439.791695,1378.971896
1443.724973,6439.791695,-6217.729913,919.314598
1443.725303,6587.832884,-6661.853478,1072.533697
1443.725633,6439.791695,-6735.874072,1838.629195
1443.725963,6809.894666,-6587.832884,1225.752797
1443.726293,6883.915261,-7105.977043,1072.533697
1443.726623,6883.915261,-6809.894666,1532.190996
1443.726953,7105.977043,-7031.956449,1378.971896
1443.727283,6439.791695,-6587.832884,995.924147
1443.727614,6587.832884,-6661.853478,919.314598
1443.727944,7105.977043,-7105.977043,689.485948
1443.728274,6883.915261,-5995.668130,1072.533697
1443.728604,7179.997637,-5847.626942,1149.143247
1443.728934,7402.059420,-6291.750507,995.924147
1443.729264,7476.080014,-6143.709319,995.924147
1443.729594,7328.038826,-6365.771101,842.705048
1443.729924,7179.997637,-6291.750507,919.314598
1443.730255,7402.059420,-6217.729913,842.705048
1443.730585,7328.038826,-6735.874072,995.924147
1443.730915,7476.080014,-6143.709319,919.314598
1443.731245,7105.977043,-6587.832884,612.876398
1443.731575,7254.018232,-6217.729913,1378.971896
1443.731905,7105.977043,-6365.771101,995.924147
1443.732235,6883.915261,-6217.729913,995.924147
1443.732565,6809.894666,-6439.791695,842.705048
1443.732895,7031.956449,-6439.791695,1225.752797
1443.733226,7105.977043,-6513.812290,1149.143247
1443.733556,6587.832884,-6883.915261,995.924147
1443.733886,6735.874072,-6587.832884,1225.752797
1443.734216,6809.894666,-6957.935855,689.485948
1443.734546,6809.894666,-7031.956449,689.485948
1443.734876,7031.956449,-7031.956449,536.266849
1443.735206,6957.935855,-7402.059420,842.705048
1443.735536,7254.018232,-7254.018232,995.924147
1443.735867,7105.977043,-6513.812290,1149.143247
1443.736197,6883.915261,-5921.647536,689.485948
1443.736527,7105.977043,-6143.709319,1072.533697
1443.736857,6957.935855,-6439.791695,1225.752797
1443.737187,7031.956449,-6143.709319,919.314598
1443.737517,7031.956449,-6143.709319,919.314598
1443.737847,6957.935855,-5995.668130,1685.410096
1443.738177,6883.915261,-6513.812290,1072.533697
1443.738507,6883.915261,-6587.832884,1225.752797
1443.738837,7105.977043,-6735.874072,1225.752797
1443.739167,7402.059420,-6883.915261,1608.800546
1443.739497,6661.853478,-6217.729913,1608.800546
1443.739826,6661.853478,-6439.791695,842.705048
1443.740156,6735.874072,-6809.894666,1072.533697
1443.740486,6957.935855,-6513.812290,1532.190996
1443.740816,7105.977043,-6587.832884,1455.581446
1443.741145,6883.915261,-7105.977043,1149.143247
1443.741475,6957.935855,-6217.729913,1302.362347
1443.741805,6735.874072,-7105.977043,842.705048
1443.742134,6661.853478,-6809.894666,689.485948
1443.742464,6809.894666,-6957.935855,919.314598
1443.742794,7105.977043,-6957.935855,612.876398
1443.743124,7031.956449,-6587.832884,1455.581446
1443.743453,7105.977043,-6735.874072,1072.533697
1443.743783,7105.977043,-6883.915261,1455.581446
1443.744113,7402.059420,-6439.791695,1225.752797
1443.744442,7846.182985,-6291.750507,842.705048
1443.744772,7328.038826,-6069.688724,1072.533697
1443.745102,7105.977043,-6439.791695,1072.533697
1443.745432,7105.977043,-6069.688724,536.266849
1443.745761,7105.977043,-6291.750507,1072.533697
1443.746091,7105.977043,-6365.771101,995.924147
1443.746421,7105.977043,-6513.812290,995.924147
1443.746751,7105.977043,-6217.729913,1072.533697
1443.747080,7179.997637,-6365.771101,919.314598
1443.747410,7105.977043,-6365.771101,1072.533697
1443.747740,6957.935855,-6587.832884,1455.581446
1443.748069,7328.038826,-6439.791695,919.314598
1443.748399,7254.018232,-6883.915261,842.705048
1443.748729,6957.935855,-6661.853478,1608.800546
1443.749059,7105.977043,-6735.874072,689.485948
1443.749388,6735.874072,-6957.935855,842.705048
1443.749718,6587.832884,-6957.935855,1455.581446
1443.750048,6587.832884,-6809.894666,536.266849
1443.750377,7105.977043,-6439.791695,1225.752797
1443.750707,7105.977043,-6513.812290,995.924147
1443.751037,7179.997637,-6513.812290,1149.143247
1443.751367,7328.038826,-5847.626942,1532.190996
1443.751696,7105.977043,-6513.812290,919.314598
1443.752026,7105.977043,-6439.791695,995.924147
1443.752356,7254.018232,-6291.750507,995.924147
1443.752686,7179.997637,-6809.894666,1072.533697
1443.753015,7105.977043,-6291.750507,1149.143247
1443.753345,6661.853478,-6661.853478,1072.533697
1443.753675,6957.935855,-7031.956449,1072.533697
1443.754004,6735.874072,-6661.853478,1225.752797
1443.754334,6513.812290,-6883.915261,1302.362347
1443.754664,6735.874072,-6587.832884,1149.143247
1443.754994,6735.874072,-6661.853478,1455.581446
1443.755323,6587.832884,-6661.853478,1302.362347
1443.755653,6809.894666,-6587.832884,1302.362347
1443.755983,6809.894666,-6143.709319,1455.581446
1443.756312,6661.853478,-7105.977043,1072.533697
1443.756642,6661.853478,-7105.977043,689.485948
1443.756972,6587.832884,-6883.915261,536.266849
1443.757302,6661.853478,-7254.018232,1455.581446
1443.757631,7328.038826,-7105.977043,1072.533697
1443.757961,7105.977043,-6365.771101,1225.752797
1443.758291,7105.977043,-6661.853478,995.924147
1443.758621,7105.977043,-6217.729913,1072.533697
1443.758950,7105.977043,-6291.750507,1838.629195
1443.759280,7031.956449,-6439.791695,1072.533697
1443.759610,6957.935855,-5995.668130,1072.533697
1443.759939,7105.977043,-5995.668130,842.705048
1443.760269,7328.038826,-6291.750507,842.705048
1443.760599,7105.977043,-6661.853478,1149.143247
1443.760929,7105.977043,-6587.832884,689.485948
1443.761258,7031.956449,-6809.894666,1149.143247
1443.761588,6809.894666,-6587.832884,1225.752797
1443.761918,6957.935855,-6143.709319,689.485948
1443.762247,7105.977043,-6883.915261,1149.143247
1443.762577,6957.935855,-6365.771101,1225.752797
1443.762907,7105.977043,-6587.832884,1072.533697
1443.763237,6661.853478,-6809.894666,1149.143247
1443.763566,7254.018232,-6661.853478,1378.971896
1443.763896,6883.915261,-6957.935855,459.657299
1443.764226,6809.894666,-6809.894666,919.314598
1443.764556,6661.853478,-7105.977043,919.314598
1443.764885,7105.977043,-6587.832884,459.657299
1443.765215,7179.997637,-6587.832884,1149.143247
1443.765545,7254.018232,-6365.771101,919.314598
1443.765874,7105.977043,-6587.832884,995.924147
1443.766204,7105.977043,-6513.812290,1072.533697
1443.766534,7179.997637,-6587.832884,995.924147
1443.766864,7254.018232,-6143.709319,995.924147
1443.767193,7105.977043,-6217.729913,612.876398
1443.767523,7105.977043,-6069.688724,1225.752797
1443.767853,6735.874072,-6291.750507,1225.752797
1443.768182,7031.956449,-6291.750507,1072.533697
1443.768512,6957.935855,-6365.771101,1225.752797
1443.768842,6735.874072,-6661.853478,1302.362347
1443.769172,6661.853478,-6661.853478,1072.533697
1443.769501,6513.812290,-6513.812290,1149.143247
1443.769831,6957.935855,-7105.977043,995.924147
1443.770161,7031.956449,-6957.935855,1072.533697
1443.770491,6957.935855,-6883.915261,1149.143247
1443.770820,7105.977043,-6439.791695,1302.362347
1443.771150,6735.874072,-6439.791695,612.876398
1443.771480,6513.812290,-6809.894666,995.924147
1443.771809,6513.812290,-7105.977043,1149.143247
1443.772139,6809.894666,-7031.956449,612.876398
1443.772469,6883.915261,-6291.750507,842.705048
1443.772799,7254.018232,-7031.956449,842.705048
1443.773128,7105.977043,-6883.915261,919.314598
1443.773458,7402.059420,-6587.832884,1149.143247
1443.773788,7105.977043,-6513.812290,919.314598
1443.774118,7179.997637,-5995.668130,1225.752797
1443.774447,7105.977043,-5995.668130,766.095498
1443.774777,7105.977043,-6587.832884,995.924147
1443.775107,7105.977043,-6365.771101,1378.971896
1443.775436,6957.935855,-6439.791695,1072.533697
1443.775766,6957.935855,-6439.791695,1455.581446
1443.776096,7031.956449,-6587.832884,919.314598
1443.776426,6809.894666,-6365.771101,1072.533697
1443.776755,6587.832884,-6439.791695,842.705048
1443.777085,7031.956449,-6069.688724,1455.581446
1443.777415,6883.915261,-6217.729913,1149.143247
1443.777744,6883.915261,-6661.853478,1072.533697
1443.778074,6809.894666,-6365.771101,1225.752797
1443.778404,6957.935855,-6809.894666,995.924147
1443.778734,6957.935855,-6883.915261,1072.533697
1443.779063,6883.915261,-6587.832884,919.314598
1443.779393,7031.956449,-6809.894666,689.485948
1443.779723,7179.997637,-6661.853478,919.314598
1443.780053,7179.997637,-5921.647536,1149.143247
1443.780382,7105.977043,-6735.874072,919.314598
1443.780712,7105.977043,-6365.771101,919.314598
1443.781042,7476.080014,-6513.812290,1072.533697
1443.781371,7105.977043,-6661.853478,919.314598
1443.781701,7105.977043,-5921.647536,919.314598
1443.782031,7179.997637,-6439.791695,766.095498
1443.782361,7105.977043,-6069.688724,995.924147
1443.782690,6735.874072,-6365.771101,1072.533697
1443.783020,6661.853478,-5625.565159,1072.533697
1443.783350,7328.038826,-6439.791695,1225.752797
1443.783679,6957.935855,-6143.709319,919.314598
1443.784009,6735.874072,-6587.832884,689.485948
1443.784339,6217.729913,-6809.894666,919.314598
1443.784669,6957.935855,-6809.894666,1685.410096
1443.784998,6809.894666,-6883.915261,995.924147
1443.785328,6735.874072,-7105.977043,995.924147
1443.785658,6587.832884,-6883.915261,1149.143247
1443.785988,6661.853478,-7105.977043,842.705048
1443.786317,6439.791695,-6883.915261,919.314598
1443.786647,6735.874072,-7105.977043,1072.533697
1443.786977,7328.038826,-6661.853478,995.924147
1443.787306,7105.977043,-6217.729913,995.924147
1443.787636,6735.874072,-6291.750507,1225.752797
1443.787966,7550.100608,-6513.812290,1072.533697
1443.788296,7328.038826,-6587.832884,1378.971896
1443.788625,7179.997637,-5551.544565,842.705048
1443.788955,7402.059420,-5255.462188,766.095498
1443.789285,7994.224174,-5107.421000,1378.971896
1443.789614,8364.327145,-5847.626942,1072.533697
1443.789944,8290.306550,-5921.647536,1685.410096
1443.790274,6883.915261,-6143.709319,689.485948
1443.790604,6439.791695,-7105.977043,0.000000
1443.790933,5699.585753,-7105.977043,842.705048
1443.791263,6439.791695,-6513.812290,536.266849
1443.791593,7846.182985,-6587.832884,689.485948
1443.791923,8216.285956,-5773.606348,1915.238745
1443.792252,9178.553681,-5551.544565,1378.971896
1443.792582,8438.347739,-4071.132681,919.314598
1443.792912,7994.224174,-4885.359217,1608.800546
1443.793241,7772.162391,-4885.359217,995.924147
1443.793571,8734.430116,-4219.173869,1225.752797
1443.793901,8512.368333,-5033.400406,1072.533697
1443.794231,8216.285956,-4885.359217,612.876398
1443.794560,7772.162391,-5847.626942,766.095498
1443.794890,8068.244768,-5255.462188,383.047749
1443.795220,8660.409521,-6069.688724,919.314598
1443.795549,8808.450710,-6217.729913,1149.143247
1443.795879,8068.244768,-5625.565159,383.047749
1443.796209,7920.203579,-5921.647536,383.047749
1443.796539,7994.224174,-4885.359217,1149.143247
1443.796868,8808.450710,-4737.318029,1072.533697
1443.797198,9104.533087,-3478.967927,1302.362347
1443.797528,9400.615463,-3330.926739,1532.190996
1443.797858,9770.718434,-3552.988522,1455.581446
1443.798187,9474.636058,-2886.803174,2374.896044
1443.798517,9474.636058,-3552.988522,1225.752797
1443.798847,9474.636058,-3034.844362,1072.533697
1443.799176,9474.636058,-3478.967927,1225.752797
1443.799506,9622.677246,-4219.173869,1762.019645
1443.799836,9400.615463,-3701.029710,1149.143247
1443.800166,9326.594869,-5329.482782,1532.190996
1443.800495,8734.430116,-4959.379811,842.705048
1443.800825,8290.306550,-5847.626942,919.314598
1443.801155,7624.121203,-5255.462188,1149.143247
1443.801484,7624.121203,-5255.462188,1225.752797
1443.801814,8216.285956,-5181.441594,1149.143247
1443.802144,8808.450710,-3923.091493,1302.362347
1443.802474,9178.553681,-4589.276840,1149.143247
1443.802803,9770.718434,-3256.906145,1455.581446
1443.803133,9474.636058,-4515.256246,689.485948
1443.803463,9030.512492,-4441.235652,612.876398
1443.803793,9104.533087,-3849.070898,766.095498
1443.804122,9326.594869,-4737.318029,229.828649
1443.804452,9844.739029,-4885.359217,612.876398
1443.804782,9326.594869,-5995.668130,919.314598
1443.805111,9178.553681,-5699.585753,689.485948
1443.805441,8808.450710,-5033.400406,306.438199
1443.805771,8290.306550,-4737.318029,766.095498
1443.806101,8660.409521,-5403.503377,153.219100
1443.806430,8290.306550,-4959.379811,1455.581446
1443.806760,8882.471304,-3552.988522,1455.581446
1443.807090,8882.471304,-3256.906145,919.314598
1443.807419,9252.574275,-3330.926739,2451.505594
1443.807749,10066.800811,-3404.947333,2604.724693
1443.808079,9918.759623,-4145.153275,2068.457845
1443.808409,8808.450710,-3552.988522,1455.581446
1443.808738,8142.265362,-4145.153275,689.485948
1443.809068,8882.471304,-3923.091493,766.095498
1443.809398,8956.491898,-4663.297435,459.657299
1443.809728,8734.430116,-4959.379811,0.000000
1443.810057,8364.327145,-4589.276840,-612.876398
1443.810387,8586.388927,-5181.441594,0.000000
1443.810717,8808.450710,-6143.709319,383.047749
1443.811046,8956.491898,-5107.421000,536.266849
1443.811376,8956.491898,-5699.585753,995.924147
1443.811706,8586.388927,-5477.523971,1225.752797
1443.812036,8734.430116,-5625.565159,1608.800546
1443.812365,9400.615463,-4293.194464,2298.286494
1443.812695,9474.636058,-4589.276840,2374.896044
1443.813025,9400.615463,-3552.988522,2298.286494
1443.813354,9622.677246,-1998.556043,1762.019645
1443.813684,9474.636058,-2146.597232,1072.533697
1443.814014,9918.759623,-1850.514855,689.485948
1443.814344,10288.862594,-1776.494261,76.609550
1443.814673,10510.924376,-2812.782580,0.000000
1443.815003,9992.780217,-3330.926739,536.266849
1443.815333,9178.553681,-5329.482782,0.000000
1443.815663,8512.368333,-6217.729913,76.609550
1443.815992,8068.244768,-7105.977043,766.095498
1443.816322,7772.162391,-9252.574275,1685.410096
1443.816652,7476.080014,-7994.224174,1378.971896
1443.816981,6661.853478,-7624.121203,536.266849
1443.817311,6587.832884,-6439.791695,153.219100
1443.817641,7402.059420,-5921.647536,995.924147
1443.817971,8808.450710,-4071.132681,1072.533697
1443.818300,9992.780217,-2664.741391,1608.800546
1443.818630,10214.842000,-1406.391290,919.314598
1443.818960,10658.965565,-222.061783,1225.752797
1443.819289,10658.965565,-148.041188,1378.971896
1443.819619,11399.171507,-148.041188,1762.019645
1443.819949,12139.377449,-740.205942,919.314598
1443.820279,12213.398043,-1628.453072,1072.533697
1443.820608,11399.171507,-3404.947333,1455.581446
1443.820938,10436.903782,-6439.791695,1455.581446
1443.821268,8512.368333,-6957.935855,1762.019645
1443.821598,6513.812290,-8734.430116,766.095498
1443.821927,5107.421000,-8512.368333,229.828649
1443.822257,4663.297435,-8216.285956,0.000000
1443.822587,5477.523971,-8586.388927,-383.047749
1443.822916,6439.791695,-7402.059420,229.828649
1443.823246,7624.121203,-5921.647536,1225.752797
1443.823576,9178.553681,-3701.029710,1378.971896
1443.823906,10214.842000,-2886.803174,1915.238745
1443.824235,10362.883188,-1110.308913,1225.752797
1443.824565,10066.800811,-962.267725,766.095498
1443.824895,11251.130318,74.020594,612.876398
1443.825224,12583.501014,-666.185348,1378.971896
1443.825554,12953.603985,-1554.432478,2451.505594
1443.825884,12953.603985,-2146.597232,2681.334243
1443.826214,11843.295072,-3478.967927,1915.238745
1443.826543,9918.759623,-4145.153275,1915.238745
1443.826873,7402.059420,-6513.812290,1455.581446
1443.827203,6143.709319,-7328.038826,536.266849
1443.827533,4515.256246,-7772.162391,0.000000
1443.827862,3997.112087,-7624.121203,-995.924147
1443.828192,4589.276840,-7772.162391,-459.657299
1443.828522,6957.935855,-5181.441594,0.000000
1443.828851,9030.512492,-3478.967927,766.095498
1443.829181,10658.965565,-2368.659014,0.000000
1443.829511,11251.130318,-1998.556043,1608.800546
1443.829841,11769.274478,-1998.556043,1685.410096
1443.830170,11473.192101,-3108.864956,1991.848295
1443.830500,9622.677246,-3256.906145,1608.800546
1443.830830,8956.491898,-4737.318029,995.924147
1443.831159,8290.306550,-7254.018232,1532.190996
1443.831489,7994.224174,-7550.100608,2298.286494
1443.831819,8068.244768,-8364.327145,2451.505594
1443.832149,8438.347739,-6291.750507,1685.410096
1443.832478,7105.977043,-3627.009116,383.047749
1443.832808,6587.832884,-2368.659014,-689.485948
1443.833138,8142.265362,-2294.638420,229.828649
1443.833468,9918.759623,-2516.700203,1149.143247
1443.833797,10436.903782,-2146.597232,1149.143247
1443.834127,10584.944971,-1480.411884,919.314598
1443.834457,11103.089130,-2516.700203,766.095498
1443.834786,11103.089130,-4737.318029,1838.629195
1443.835116,10510.924376,-5921.647536,1991.848295
1443.835446,9474.636058,-6069.688724,1838.629195
1443.835776,8586.388927,-5921.647536,612.876398
1443.836105,7994.224174,-5329.482782,153.219100
1443.836435,7550.100608,-5329.482782,229.828649
1443.836765,7550.100608,-7698.141797,995.924147
1443.837094,7698.141797,-8216.285956,2451.505594
1443.837424,6957.935855,-6513.812290,842.705048
1443.837754,5921.647536,-4515.256246,-612.876398
1443.838084,5403.503377,-4737.318029,-383.047749
1443.838413,7698.141797,-5033.400406,1072.533697
1443.838743,10436.903782,-4219.173869,1608.800546
1443.839073,11621.233289,-1998.556043,2451.505594
1443.839403,12065.356855,-222.061783,1532.190996
1443.839732,12435.459826,1036.288319,1532.190996
1443.840062,11843.295072,-2590.720797,1149.143247
1443.840392,9918.759623,-4663.297435,1608.800546
1443.840721,9104.533087,-4515.256246,1455.581446
1443.841051,9252.574275,-5107.421000,919.314598
1443.841380,9326.594869,-4737.318029,1838.629195
1443.841709,9104.533087,-6069.688724,2221.676944
1443.842038,9030.512492,-5033.400406,1072.533697
1443.842367,7772.162391,-4441.235652,536.266849
1443.842696,7328.038826,-3923.091493,459.657299
1443.843026,8512.368333,-4293.194464,689.485948
1443.843355,8734.430116,-4885.359217,76.609550
1443.843684,7550.100608,-4959.379811,383.047749
1443.844013,7402.059420,-5477.523971,536.266849
1443.844342,9474.636058,-5477.523971,1455.581446
1443.844671,9844.739029,-5033.400406,1532.190996
1443.845001,9104.533087,-5477.523971,1149.143247
1443.845330,8882.471304,-4145.153275,1072.533697
1443.845659,7328.038826,-6513.812290,-536.266849
1443.845988,7031.956449,-7698.141797,1378.971896
1443.846317,7328.038826,-6735.874072,536.266849
1443.846646,8216.285956,-4293.194464,536.266849
1443.846976,8660.409521,-3552.988522,1225.752797
1443.847305,9252.574275,-5181.441594,1608.800546
1443.847634,9474.636058,-4515.256246,2145.067394
1443.847963,9992.780217,-2812.782580,1532.190996
1443.848292,10214.842000,-2960.823768,2145.067394
1443.848621,9548.656652,-3923.091493,842.705048
1443.848951,7994.224174,-4145.153275,459.657299
1443.849280,7476.080014,-4885.359217,306.438199
1443.849609,8808.450710,-5921.647536,1608.800546
1443.849938,9104.533087,-5107.421000,2604.724693
1443.850267,8586.388927,-6069.688724,1455.581446
1443.850596,6809.894666,-6513.812290,1072.533697
1443.850926,5181.441594,-7550.100608,-383.047749
1443.851255,4441.235652,-8660.409521,0.000000
1443.851584,4441.235652,-7846.182985,0.000000
1443.851913,5329.482782,-8660.409521,689.485948
1443.852242,6439.791695,-7698.141797,919.314598
1443.852571,7698.141797,-5403.503377,689.485948
1443.852901,8142.265362,-5477.523971,1149.143247
1443.853230,9474.636058,-5773.606348,1302.362347
1443.853559,9474.636058,-6217.729913,1838.629195
1443.853888,7772.162391,-5773.606348,536.266849
1443.854217,7105.977043,-5107.421000,612.876398
1443.854547,6957.935855,-5699.585753,1302.362347
1443.854876,7179.997637,-7550.100608,1149.143247
1443.855205,7254.018232,-7105.977043,1838.629195
1443.855534,8142.265362,-5329.482782,766.095498
1443.855863,7328.038826,-5255.462188,536.266849
1443.856192,5995.668130,-5181.441594,1378.971896
1443.856522,5995.668130,-4811.338623,1532.190996
1443.856851,7550.100608,-4367.215058,1149.143247
1443.857180,9622.677246,-1776.494261,2221.676944
1443.857509,9992.780217,-3404.947333,1838.629195
1443.857838,9622.677246,-3997.112087,1915.238745
1443.858167,8364.327145,-6069.688724,1685.410096
1443.858497,7105.977043,-6735.874072,766.095498
1443.858826,5329.482782,-7031.956449,229.828649
1443.859155,5699.585753,-10658.965565,1838.629195
1443.859484,5403.503377,-10436.903782,306.438199
1443.859813,4589.276840,-9918.759623,612.876398
1443.860142,5255.462188,-8956.491898,919.314598
1443.860472,5773.606348,-9178.553681,995.924147
1443.860801,5181.441594,-8734.430116,842.705048
1443.861130,4663.297435,-6735.874072,76.609550
1443.861459,5699.585753,-6365.771101,766.095498
1443.861788,7179.997637,-4219.173869,1149.143247
1443.862117,8586.388927,-3256.906145,842.705048
1443.862447,8734.430116,-4441.235652,1302.362347
1443.862776,9178.553681,-4367.215058,689.485948
1443.863105,8438.347739,-6513.812290,1685.410096
1443.863434,7994.224174,-6957.935855,2451.505594
1443.863763,7624.121203,-6957.935855,1838.629195
1443.864092,7550.100608,-6883.915261,1762.019645
1443.864422,6735.874072,-6587.832884,1072.533697
1443.864751,6217.729913,-6661.853478,1455.581446
1443.865080,6217.729913,-6883.915261,536.266849
1443.865409,5477.523971,-7698.141797,383.047749
1443.865738,4515.256246,-7179.997637,0.000000
1443.866067,4441.235652,-7328.038826,306.438199
1443.866397,5403.503377,-7031.956449,306.438199
1443.866726,7179.997637,-5329.482782,0.000000
1443.867055,7846.182985,-5921.647536,766.095498
1443.867384,9400.615463,-4737.318029,1608.800546
1443.867713,10214.842000,-4367.215058,1149.143247
1443.868042,8438.347739,-6957.935855,1685.410096
1443.868372,7105.977043,-7476.080014,1072.533697
1443.868701,7105.977043,-7476.080014,689.485948
1443.869030,7402.059420,-7550.100608,1149.143247
1443.869359,6661.853478,-8438.347739,1762.019645
1443.869688,6661.853478,-7105.977043,1608.800546
1443.870017,6143.709319,-5625.565159,0.000000
1443.870347,4663.297435,-5995.668130,-536.266849
1443.870676,5033.400406,-5551.544565,0.000000
1443.871005,6439.791695,-5847.626942,995.924147
1443.871334,7328.038826,-5995.668130,536.266849
1443.871663,7179.997637,-6439.791695,1225.752797
1443.871992,7846.182985,-5477.523971,1072.533697
1443.872322,9252.574275,-5329.482782,919.314598
1443.872651,9474.636058,-7476.080014,2834.553343
1443.872980,7920.203579,-8068.244768,2374.896044
1443.873309,7031.956449,-7105.977043,842.705048
1443.873638,6291.750507,-6957.935855,229.828649
1443.873967,6439.791695,-7402.059420,1072.533697
1443.874297,7105.977043,-7846.182985,1225.752797
1443.874626,7254.018232,-7179.997637,1838.629195
1443.874955,5921.647536,-6291.750507,1608.800546
1443.875284,5921.647536,-5921.647536,766.095498
1443.875613,6883.915261,-4885.359217,1225.752797
1443.875942,5847.626942,-6291.750507,76.609550
1443.876272,5921.647536,-6365.771101,0.000000
1443.876601,6883.915261,-6291.750507,383.047749
1443.876930,7254.018232,-6291.750507,383.047749
1443.877259,7105.977043,-7105.977043,842.705048
1443.877588,6587.832884,-7920.203579,842.705048
1443.877917,7328.038826,-8290.306550,1685.410096
1443.878247,7846.182985,-8956.491898,1608.800546
1443.878576,7994.224174,-6513.812290,1915.238745
1443.878905,7179.997637,-6365.771101,1915.238745
1443.879234,7846.182985,-5107.421000,1685.410096
1443.879563,6661.853478,-4219.173869,1225.752797
1443.879892,5921.647536,-5403.503377,1378.971896
1443.880222,6439.791695,-4959.379811,2451.505594
1443.880551,5773.606348,-6587.832884,919.314598
1443.880880,5329.482782,-6143.709319,766.095498
1443.881209,6069.688724,-5329.482782,919.314598
1443.881538,7328.038826,-7179.997637,536.266849
1443.881867,7328.038826,-7031.956449,689.485948
1443.882197,6439.791695,-8364.327145,1149.143247
1443.882526,7179.997637,-7550.100608,1072.533697
1443.882855,7550.100608,-8142.265362,1532.190996
1443.883184,7402.059420,-8586.388927,2068.457845
1443.883513,7105.977043,-7328.038826,1455.581446
1443.883843,7698.141797,-6883.915261,1455.581446
1443.884172,7624.121203,-6587.832884,1225.752797
1443.884501,6957.935855,-4589.276840,842.705048
1443.884830,6735.874072,-4811.338623,612.876398
1443.885159,6513.812290,-6069.688724,689.485948
1443.885488,6217.729913,-5699.585753,536.266849
1443.885818,5847.626942,-6439.791695,0.000000
1443.886147,6587.832884,-6587.832884,842.705048
1443.886476,7105.977043,-7624.121203,1455.581446
1443.886805,6957.935855,-8660.409521,1225.752797
1443.887134,5847.626942,-8586.388927,842.705048
1443.887463,5477.523971,-7846.182985,229.828649
1443.887793,6217.729913,-7476.080014,689.485948
1443.888122,7328.038826,-7624.121203,1149.143247
1443.888451,8068.244768,-5847.626942,2221.676944
1443.888780,8216.285956,-4737.318029,1149.143247
1443.889109,7105.977043,-5033.400406,1149.143247
1443.889438,6661.853478,-4219.173869,1072.533697
1443.889768,6957.935855,-5625.565159,1762.019645
1443.890097,7698.141797,-4737.318029,1532.190996
1443.890426,7105.977043,-4293.194464,536.266849
1443.890755,7179.997637,-5033.400406,1455.581446
1443.891084,8216.285956,-6513.812290,995.924147
1443.891413,7402.059420,-7402.059420,842.705048
1443.891743,5921.647536,-8734.430116,459.657299
1443.892072,5699.585753,-8882.471304,1149.143247
1443.892401,6809.894666,-7179.997637,459.657299
1443.892730,6883.915261,-7254.018232,842.705048
1443.893059,7105.977043,-6809.894666,1685.410096
1443.893388,8956.491898,-5699.585753,1532.190996
1443.893718,8290.306550,-4515.256246,1455.581446
1443.894047,7179.997637,-3923.091493,1685.410096
1443.894376,7105.977043,-4737.318029,1532.190996
1443.894705,7402.059420,-4959.379811,1378.971896
1443.895034,7550.100608,-5329.482782,995.924147
1443.895363,8142.265362,-5625.565159,1608.800546
1443.895693,7994.224174,-6513.812290,2145.067394
1443.896022,6661.853478,-8956.491898,766.095498
1443.896351,4663.297435,-9918.759623,689.485948
1443.896680,4663.297435,-8142.265362,0.000000
1443.897009,5033.400406,-9252.574275,-689.485948
1443.897338,5625.565159,-8586.388927,229.828649
1443.897668,6291.750507,-8290.306550,1608.800546
1443.897997,8142.265362,-6661.853478,1225.752797
1443.898326,7846.182985,-4885.359217,766.095498
1443.898655,6735.874072,-4885.359217,1149.143247
1443.898984,7476.080014,-5477.523971,1378.971896
1443.899313,8142.265362,-5181.441594,1302.362347
1443.899643,8808.450710,-5699.585753,2068.457845
1443.899972,8290.306550,-4737.318029,1608.800546
1443.900301,9030.512492,-5033.400406,1608.800546
1443.900630,7624.121203,-7254.018232,1455.581446
1443.900959,5847.626942,-8512.368333,689.485948
1443.901288,4959.379811,-7920.203579,153.219100
1443.901618,5329.482782,-8068.244768,-842.705048
1443.901947,4959.379811,-9252.574275,689.485948
1443.902276,5329.482782,-7105.977043,766.095498
1443.902605,6217.729913,-6883.915261,383.047749
1443.902934,6957.935855,-6291.750507,1149.143247
1443.903263,6809.894666,-5403.503377,1532.190996
1443.903593,7328.038826,-4663.297435,1608.800546
1443.903922,8290.306550,-4959.379811,1302.362347
1443.904251,9030.512492,-4737.318029,1915.238745
1443.904580,8882.471304,-4737.318029,1455.581446
1443.904909,9252.574275,-4589.276840,1378.971896
1443.905238,9104.533087,-6217.729913,1838.629195
1443.905568,7772.162391,-7846.182985,1608.800546
1443.905897,6883.915261,-8660.409521,1378.971896
1443.906226,5181.441594,-9400.615463,306.438199
1443.906555,4145.153275,-9030.512492,0.000000
1443.906884,3849.070898,-8512.368333,0.000000
1443.907213,5403.503377,-6809.894666,0.000000
1443.907543,7031.956449,-5847.626942,383.047749
1443.907872,7179.997637,-5847.626942,1685.410096
1443.908201,7402.059420,-4145.153275,1455.581446
1443.908530,7846.182985,-4441.235652,1149.143247
1443.908859,7920.203579,-4663.297435,919.314598
1443.909188,8142.265362,-5403.503377,1762.019645
1443.909518,9030.512492,-5995.668130,2451.505594
1443.909847,9326.594869,-6587.832884,2221.676944
1443.910176,7624.121203,-7550.100608,1762.019645
1443.910505,5995.668130,-7920.203579,1455.581446
1443.910834,4737.318029,-9030.512492,229.828649
1443.911163,4367.215058,-10658.965565,229.828649
1443.911493,3997.112087,-9400.615463,689.485948
1443.911822,4145.153275,-8956.491898,689.485948
1443.912151,5255.462188,-7031.956449,1149.143247
1443.912480,5477.523971,-6143.709319,1149.143247
1443.912809,6439.791695,-5033.400406,842.705048
1443.913139,7105.977043,-3330.926739,1685.410096
1443.913468,8142.265362,-2664.741391,229.828649
1443.913797,8512.368333,-3330.926739,383.047749
1443.914126,9178.553681,-4441.235652,1378.971896
1443.914455,10436.903782,-5921.647536,2298.286494
1443.914784,9992.780217,-7105.977043,2757.943793
1443.915114,8068.244768,-8586.388927,1991.848295
1443.915443,5773.606348,-8734.430116,766.095498
1443.915772,4959.379811,-9844.739029,612.876398
1443.916101,4737.318029,-10066.800811,842.705048
1443.916430,5033.400406,-8216.285956,1072.533697
1443.916759,4885.359217,-7105.977043,76.609550
1443.917089,4737.318029,-6957.935855,153.219100
1443.917418,5403.503377,-5181.441594,383.047749
1443.917747,6143.709319,-4959.379811,1378.971896
1443.918076,7624.121203,-4219.173869,2068.457845
1443.918405,9178.553681,-3034.844362,995.924147
1443.918734,10436.903782,-3701.029710,2068.457845
1443.919064,10881.027347,-4441.235652,2068.457845
1443.919393,10584.944971,-5847.626942,1915.238745
1443.919722,9474.636058,-7179.997637,1685.410096
1443.920051,7920.203579,-7772.162391,1072.533697
1443.920380,6661.853478,-9104.533087,1302.362347
1443.920709,5477.523971,-10214.842000,689.485948
1443.921039,4589.276840,-9104.533087,153.219100
1443.921368,3923.091493,-8364.327145,-612.876398
1443.921697,3923.091493,-7328.038826,-689.485948
1443.922026,3775.050304,-6513.812290,-1225.752797
1443.922355,3997.112087,-6291.750507,0.000000
1443.922684,7031.956449,-5403.503377,766.095498
1443.923014,8734.430116,-4663.297435,766.095498
1443.923343,9918.759623,-3404.947333,1608.800546
1443.923672,10362.883188,-3701.029710,2298.286494
1443.924001,11103.089130,-4589.276840,2298.286494
1443.924330,9770.718434,-6587.832884,2298.286494
1443.924659,8364.327145,-7179.997637,1991.848295
1443.924989,7031.956449,-7624.121203,1225.752797
1443.925318,5995.668130,-8734.430116,1225.752797
1443.925647,4811.338623,-9400.615463,842.705048
1443.925976,4737.318029,-8586.388927,842.705048
1443.926305,4441.235652,-6957.935855,-153.219100
1443.926634,4367.215058,-7254.018232,-689.485948
1443.926964,4737.318029,-5403.503377,459.657299
1443.927293,6143.709319,-4589.276840,0.000000
1443.927622,8068.244768,-3775.050304,536.266849
1443.927951,9474.636058,-3478.967927,1685.410096
1443.928280,10362.883188,-3404.947333,2068.457845
1443.928609,10955.047942,-4219.173869,1991.848295
1443.928939,9548.656652,-6513.812290,2451.505594
1443.929268,7698.141797,-7402.059420,2221.676944
1443.929597,7105.977043,-9326.594869,1608.800546
1443.929926,6883.915261,-9326.594869,1532.190996
1443.930255,5921.647536,-9104.533087,1302.362347
1443.930584,5403.503377,-8956.491898,1378.971896
1443.930914,5847.626942,-7402.059420,306.438199
1443.931243,5329.482782,-7179.997637,0.000000
1443.931572,4737.318029,-5625.565159,0.000000
1443.931901,5255.462188,-5403.503377,-229.828649
1443.932230,6291.750507,-5995.668130,229.828649
1443.932559,6439.791695,-4959.379811,689.485948
1443.932889,7328.038826,-5107.421000,842.705048
1443.933218,8956.491898,-4367.215058,1608.800546
1443.933547,8660.409521,-5699.585753,1838.629195
1443.933876,8512.368333,-7624.121203,2298.286494
1443.934205,7846.182985,-7476.080014,2145.067394
1443.934534,7476.080014,-8586.388927,1225.752797
1443.934864,6661.853478,-8956.491898,1378.971896
1443.935193,6365.771101,-8734.430116,1608.800546
1443.935522,6217.729913,-8438.347739,1072.533697
1443.935851,5403.503377,-7254.018232,536.266849
1443.936180,4663.297435,-6735.874072,76.609550
1443.936509,5255.462188,-4737.318029,229.828649
1443.936839,6513.812290,-5403.503377,459.657299
1443.937168,7254.018232,-3775.050304,995.924147
1443.937497,8216.285956,-3108.864956,689.485948
1443.937826,8956.491898,-3849.070898,1225.752797
1443.938155,9104.533087,-5181.441594,1838.629195
1443.938484,8734.430116,-7031.956449,2374.896044
1443.938814,8882.471304,-8068.244768,2451.505594
1443.939143,8142.265362,-7994.224174,2374.896044
1443.939472,6143.709319,-8438.347739,1532.190996
1443.939801,6143.709319,-8142.265362,1532.190996
1443.940130,6883.915261,-8438.347739,1302.362347
1443.940459,6957.935855,-7550.100608,612.876398
1443.940788,5477.523971,-6291.750507,1149.143247
1443.941117,4589.276840,-6217.729913,459.657299
1443.941446,4737.318029,-5403.503377,-459.657299
1443.941775,5477.523971,-4737.318029,76.609550
1443.942104,7179.997637,-4367.215058,459.657299
1443.942433,8438.347739,-4441.235652,1532.190996
1443.942763,8438.347739,-5773.606348,1762.019645
1443.943092,7772.162391,-6587.832884,842.705048
1443.943421,7476.080014,-6661.853478,1225.752797
1443.943750,7402.059420,-8660.409521,1608.800546
1443.944079,6957.935855,-11251.130318,2298.286494
1443.944408,5995.668130,-10436.903782,1532.190996
1443.944737,5995.668130,-7328.038826,536.266849
1443.945066,6365.771101,-9178.553681,1302.362347
1443.945395,6069.688724,-6883.915261,1378.971896
1443.945724,5773.606348,-5255.462188,689.485948
1443.946053,5847.626942,-5699.585753,995.924147
1443.946382,5847.626942,-3627.009116,0.000000
1443.946711,5847.626942,-3330.926739,0.000000
1443.947040,7105.977043,-3108.864956,229.828649
1443.947369,8512.368333,-4959.379811,383.047749
1443.947698,9030.512492,-6365.771101,1455.581446
1443.948027,8068.244768,-7402.059420,2221.676944
1443.948356,8290.306550,-7328.038826,2604.724693
1443.948685,8660.409521,-8882.471304,1762.019645
1443.949014,6661.853478,-8808.450710,1378.971896
1443.949344,5625.565159,-8956.491898,919.314598
1443.949673,6735.874072,-8290.306550,1608.800546
1443.950002,6513.812290,-7698.141797,536.266849
1443.950331,4441.235652,-7254.018232,459.657299
1443.950660,5033.400406,-4663.297435,0.000000
1443.950989,6439.791695,-5329.482782,-306.438199
1443.951318,7550.100608,-4737.318029,383.047749
1443.951647,7698.141797,-3849.070898,1532.190996
1443.951976,10066.800811,-3404.947333,2068.457845
1443.952305,10510.924376,-4737.318029,1302.362347
1443.952634,8956.491898,-4737.318029,2604.724693
1443.952963,8216.285956,-7698.141797,2221.676944
1443.953292,8142.265362,-9252.574275,1225.752797
1443.953621,6143.709319,-9770.718434,1838.629195
1443.953950,4515.256246,-9918.759623,919.314598
1443.954279,5551.544565,-7920.203579,1532.190996
1443.954608,5699.585753,-8142.265362,919.314598
1443.954937,4737.318029,-7920.203579,76.609550
1443.955266,4663.297435,-6439.791695,1072.533697
1443.955596,4959.379811,-6439.791695,0.000000
1443.955925,5329.482782,-4737.318029,-689.485948
1443.956254,6291.750507,-4219.173869,153.219100
1443.956583,8216.285956,-3997.112087,229.828649
1443.956912,9622.677246,-4441.235652,1072.533697
1443.957241,9696.697840,-5847.626942,1608.800546
1443.957570,9178.553681,-5255.462188,1762.019645
1443.957899,9400.615463,-7105.977043,2145.067394
1443.958228,8290.306550,-7994.224174,1991.848295
1443.958557,6513.812290,-8142.265362,1149.143247
1443.958886,6439.791695,-9474.636058,995.924147
1443.959215,5847.626942,-8512.368333,1072.533697
1443.959544,4959.379811,-7994.224174,919.314598
1443.959873,4145.153275,-7402.059420,459.657299
1443.960202,3701.029710,-5773.606348,-76.609550
1443.960531,4737.318029,-6439.791695,-459.657299
1443.960860,5625.565159,-5551.544565,306.438199
1443.961189,7624.121203,-4737.318029,1302.362347
1443.961518,9918.759623,-3330.926739,1532.190996
1443.961847,9992.780217,-3182.885551,2604.724693
1443.962177,9326.594869,-4737.318029,2374.896044
1443.962506,8808.450710,-6217.729913,2145.067394
1443.962835,8364.327145,-7550.100608,2145.067394
1443.963164,7920.203579,-7179.997637,1532.190996
1443.963493,7254.018232,-7550.100608,2298.286494
1443.963822,6587.832884,-7994.224174,1532.190996
1443.964151,5329.482782,-8808.450710,459.657299
1443.964480,3701.029710,-7920.203579,229.828649
1443.964809,4293.194464,-7772.162391,-76.609550
1443.965138,5255.462188,-7105.977043,-383.047749
1443.965467,5625.565159,-4737.318029,-536.266849
1443.965796,6661.853478,-4885.359217,-153.219100
1443.966125,8586.388927,-5699.585753,689.485948
1443.966454,8956.491898,-5995.668130,1685.410096
1443.966783,8438.347739,-6143.709319,1915.238745
1443.967112,8512.368333,-6439.791695,1685.410096
1443.967441,8512.368333,-7031.956449,2068.457845
1443.967770,7328.038826,-7624.121203,1532.190996
1443.968099,7105.977043,-7698.141797,2145.067394
1443.968429,7105.977043,-6513.812290,1608.800546
1443.968758,6439.791695,-6883.915261,612.876398
1443.969087,5255.462188,-7402.059420,689.485948
1443.969416,4515.256246,-6883.915261,306.438199
1443.969745,4367.215058,-8364.327145,76.609550
1443.970074,4737.318029,-6809.894666,-459.657299
1443.970403,5625.565159,-6143.709319,153.219100
1443.970732,7624.121203,-4737.318029,919.314598
1443.971061,8438.347739,-4441.235652,1072.533697
1443.971390,8290.306550,-6217.729913,1378.971896
1443.971719,7994.224174,-5329.482782,1608.800546
1443.972048,8882.471304,-6809.894666,1608.800546
1443.972377,9474.636058,-6735.874072,2298.286494
1443.972706,9400.615463,-6883.915261,2911.162892
1443.973035,8882.471304,-7105.977043,2604.724693
1443.973364,7550.100608,-6735.874072,1838.629195
1443.973693,5255.462188,-7105.977043,995.924147
1443.974022,4293.194464,-5921.647536,-536.266849
1443.974351,4589.276840,-6661.853478,0.000000
1443.974680,5033.400406,-5699.585753,-306.438199
1443.975010,4885.359217,-5477.523971,0.000000
1443.975339,6217.729913,-6069.688724,383.047749
1443.975668,8216.285956,-4885.359217,1225.752797
1443.975997,8512.368333,-6217.729913,1455.581446
1443.976326,8956.491898,-6513.812290,2068.457845
1443.976655,8882.471304,-6661.853478,2451.505594
1443.976984,8216.285956,-7402.059420,1838.629195
1443.977313,7550.100608,-7624.121203,1762.019645
1443.977642,7402.059420,-7550.100608,1838.629195
1443.977971,7846.182985,-6513.812290,1225.752797
1443.978300,6587.832884,-7328.038826,1302.362347
1443.978629,5625.565159,-7550.100608,1302.362347
1443.978958,5551.544565,-6587.832884,459.657299
1443.979287,5033.400406,-6439.791695,76.609550
1443.979616,5329.482782,-5625.565159,0.000000
1443.979945,5995.668130,-5477.523971,-689.485948
1443.980274,6365.771101,-5033.400406,-306.438199
1443.980603,7328.038826,-6217.729913,536.266849
1443.980932,7328.038826,-7772.162391,1455.581446
1443.981262,7179.997637,-7772.162391,1455.581446
1443.981591,7550.100608,-8290.306550,1302.362347
1443.981920,7846.182985,-7698.141797,1685.410096
1443.982249,8216.285956,-7402.059420,2298.286494
1443.982578,8808.450710,-7105.977043,2374.896044
1443.982907,7846.182985,-6957.935855,2374.896044
1443.983236,6587.832884,-6291.750507,1072.533697
1443.983565,6069.688724,-5551.544565,766.095498
1443.983894,6439.791695,-4959.379811,229.828649
1443.984223,5625.565159,-5921.647536,0.000000
1443.984552,4959.379811,-5995.668130,76.609550
1443.984881,6661.853478,-5699.585753,919.314598
1443.985210,7254.018232,-6291.750507,536.266849
1443.985539,6809.894666,-6291.750507,919.314598
1443.985868,6143.709319,-7254.018232,1225.752797
1443.986197,6735.874072,-8734.430116,766.095498
1443.986526,6661.853478,-8290.306550,1838.629195
1443.986855,8216.285956,-7698.141797,1838.629195
1443.987184,9474.636058,-6513.812290,2145.067394
1443.987513,9030.512492,-5255.462188,2374.896044
1443.987843,7698.141797,-6513.812290,1685.410096
1443.988172,7402.059420,-5033.400406,1532.190996
1443.988501,7328.038826,-4219.173869,1225.752797
1443.988830,6883.915261,-4959.379811,689.485948
1443.989159,6069.688724,-4737.318029,383.047749
1443.989488,6439.791695,-4737.318029,306.438199
1443.989817,6661.853478,-5847.626942,0.000000
1443.990146,6291.750507,-7920.203579,1149.143247
1443.990475,6143.709319,-7254.018232,1685.410096
1443.990804,6513.812290,-8808.450710,1149.143247
1443.991133,7402.059420,-8660.409521,1915.238745
1443.991462,7920.203579,-7772.162391,2451.505594
1443.991791,8512.368333,-7179.997637,1838.629195
1443.992120,8512.368333,-5107.421000,1378.971896
1443.992449,6661.853478,-5921.647536,919.314598
1443.992778,5995.668130,-5107.421000,689.485948
1443.993107,6365.771101,-4885.359217,536.266849
1443.993436,5995.668130,-5847.626942,842.705048
1443.993765,6217.729913,-6883.915261,383.047749
1443.994095,6587.832884,-6365.771101,612.876398
1443.994424,6661.853478,-6069.688724,-536.266849
1443.994753,5847.626942,-7179.997637,76.609550
1443.995082,5403.503377,-8660.409521,536.266849
1443.995411,5921.647536,-8956.491898,306.438199
1443.995740,6809.894666,-9474.636058,1455.581446
1443.996069,7624.121203,-9178.553681,1991.848295
1443.996398,8364.327145,-6661.853478,2068.457845
1443.996727,8216.285956,-5255.462188,2068.457845
1443.997056,7105.977043,-5551.544565,995.924147
1443.997385,6957.935855,-4663.297435,536.266849
1443.997714,7402.059420,-4293.194464,1378.971896
1443.998043,8364.327145,-5477.523971,1302.362347
1443.998372,7105.977043,-5033.400406,1072.533697
1443.998701,6809.894666,-4589.276840,536.266849
1443.999030,7328.038826,-5847.626942,0.000000
1443.999359,7105.977043,-6809.894666,689.485948
1443.999688,6809.894666,-7994.224174,1225.752797
1444.000017,5847.626942,-10066.800811,383.047749
1444.000346,5551.544565,-8216.285956,766.095498
1444.000676,5773.606348,-9474.636058,383.047749
1444.001005,7105.977043,-8364.327145,1455.581446
1444.001334,8290.306550,-6439.791695,2145.067394
1444.001663,7476.080014,-6439.791695,1072.533697
1444.001992,7698.141797,-4367.215058,1302.362347
1444.002321,7920.203579,-4515.256246,1455.581446
1444.002650,8068.244768,-4071.132681,919.314598
1444.002979,7105.977043,-5847.626942,919.314598
1444.003308,7105.977043,-5699.585753,459.657299
1444.003637,7698.141797,-4885.359217,0.000000
1444.003966,7476.080014,-7105.977043,612.876398
1444.004295,6439.791695,-7698.141797,1455.581446
1444.004624,4589.276840,-9326.594869,-229.828649
1444.004953,4737.318029,-10510.924376,1072.533697
1444.005282,5551.544565,-9252.574275,919.314598
1444.005611,5995.668130,-8808.450710,1072.533697
1444.005940,6217.729913,-7105.977043,1991.848295
1444.006269,6587.832884,-6883.915261,995.924147
1444.006598,7105.977043,-3849.070898,842.705048
1444.006928,7105.977043,-4071.132681,1072.533697
1444.007257,7920.203579,-4663.297435,2145.067394
1444.007586,8290.306550,-4441.235652,2145.067394
1444.007915,7254.018232,-4737.318029,1072.533697
1444.008244,7772.162391,-4367.215058,459.657299
1444.008573,7328.038826,-4811.338623,612.876398
1444.008902,7254.018232,-7624.121203,1302.362347
1444.009231,5847.626942,-9104.533087,842.705048
1444.009560,5847.626942,-7994.224174,0.000000
1444.009889,6439.791695,-7994.224174,536.266849
1444.010218,6661.853478,-9252.574275,1532.190996
1444.010547,6587.832884,-7031.956449,1762.019645
1444.010876,7550.100608,-5551.544565,1838.629195
1444.011205,7550.100608,-5329.482782,1149.143247
1444.011534,6809.894666,-3182.885551,2145.067394
1444.011863,7328.038826,-5255.462188,1685.410096
1444.012192,6809.894666,-4737.318029,842.705048
1444.012521,7105.977043,-4145.153275,689.485948
1444.012850,8586.388927,-4737.318029,1685.410096
1444.013179,10732.986159,-5329.482782,2987.772442
1444.013509,10140.821405,-7254.018232,2681.334243
1444.013838,7105.977043,-8808.450710,1378.971896
1444.014167,4811.338623,-9400.615463,0.000000
1444.014496,4071.132681,-10066.800811,-842.705048
1444.014825,3404.947333,-8882.471304,-1149.143247
1444.015154,4737.318029,-9474.636058,689.485948
1444.015483,6957.935855,-8290.306550,1225.752797
1444.015812,7179.997637,-6365.771101,919.314598
1444.016141,7031.956449,-4959.379811,995.924147
1444.016470,7254.018232,-4219.173869,842.705048
1444.016799,7402.059420,-4589.276840,383.047749
1444.017128,7031.956449,-5181.441594,536.266849
1444.017457,7476.080014,-5329.482782,919.314598
1444.017786,9326.594869,-5625.565159,1302.362347
1444.018115,9474.636058,-6957.935855,1685.410096
1444.018444,8290.306550,-7476.080014,1455.581446
1444.018773,7105.977043,-8142.265362,1455.581446
1444.019102,6291.750507,-9770.718434,1225.752797
1444.019431,5403.503377,-9252.574275,689.485948
1444.019761,4145.153275,-8068.244768,-306.438199
1444.020090,4737.318029,-7328.038826,229.828649
1444.020419,6069.688724,-5773.606348,919.314598
1444.020748,6143.709319,-4885.359217,1225.752797
1444.021077,7105.977043,-3997.112087,1455.581446
1444.021406,8438.347739,-2590.720797,1838.629195
1444.021735,8734.430116,-3775.050304,612.876398
1444.022064,8216.285956,-3997.112087,1302.362347
1444.022393,9252.574275,-3923.091493,2221.676944
1444.022722,10584.944971,-5625.565159,2068.457845
1444.023051,8586.388927,-6809.894666,1838.629195
1444.023380,6217.729913,-7772.162391,1149.143247
1444.023709,6439.791695,-8586.388927,459.657299
1444.024038,6439.791695,-9474.636058,229.828649
1444.024367,5181.441594,-9474.636058,689.485948
1444.024696,4737.318029,-8586.388927,1149.143247
1444.025025,5995.668130,-7105.977043,689.485948
1444.025354,5847.626942,-5329.482782,-689.485948
1444.025683,5625.565159,-4663.297435,612.876398
1444.026012,7105.977043,-4515.256246,536.266849
1444.026342,7920.203579,-4515.256246,919.314598
1444.026671,7476.080014,-3330.926739,1072.533697
1444.027000,8808.450710,-4959.379811,1685.410096
1444.027329,9844.739029,-5255.462188,1608.800546
1444.027658,8586.388927,-7772.162391,1608.800546
1444.027987,6809.894666,-8512.368333,1685.410096
1444.028316,6513.812290,-9178.553681,1072.533697
1444.028645,6069.688724,-10362.883188,919.314598
1444.028974,5181.441594,-9400.615463,536.266849
1444.029303,4589.276840,-9474.636058,842.705048
1444.029632,4959.379811,-7698.141797,459.657299
1444.029961,4885.359217,-6143.709319,306.438199
1444.030290,5551.544565,-4367.215058,-383.047749
1444.030619,7476.080014,-3627.009116,919.314598
1444.030948,9326.594869,-4441.235652,1762.019645
1444.031277,9696.697840,-3552.988522,1838.629195
1444.031606,9400.615463,-3330.926739,1225.752797
1444.031935,9696.697840,-3849.070898,995.924147
1444.032264,9104.533087,-6069.688724,1608.800546
1444.032594,7179.997637,-8512.368333,1762.019645
1444.032923,6513.812290,-8512.368333,1685.410096
1444.033252,6365.771101,-9844.739029,995.924147
1444.033581,5181.441594,-10288.862594,1072.533697
1444.033910,5181.441594,-9548.656652,1149.143247
1444.034239,5255.462188,-8734.430116,919.314598
1444.034568,5255.462188,-5995.668130,0.000000
1444.034897,4811.338623,-5625.565159,0.000000
1444.035226,6143.709319,-3627.009116,766.095498
1444.035555,7846.182985,-3627.009116,842.705048
1444.035884,8364.327145,-4293.194464,1455.581446
1444.036213,9178.553681,-3034.844362,2145.067394
1444.036542,9770.718434,-4293.194464,1608.800546
1444.036871,9696.697840,-5107.421000,2221.676944
1444.037200,7624.121203,-6883.915261,2068.457845
1444.037529,6661.853478,-8438.347739,1991.848295
1444.037858,5995.668130,-8882.471304,766.095498
1444.038187,4811.338623,-10214.842000,766.095498
1444.038516,5107.421000,-9844.739029,1072.533697
1444.038846,5995.668130,-8956.491898,1455.581446
1444.039175,6217.729913,-6587.832884,229.828649
1444.039504,5107.421000,-5847.626942,153.219100
1444.039833,5329.482782,-4663.297435,306.438199
1444.040162,7179.997637,-3404.947333,459.657299
1444.040491,8142.265362,-4589.276840,1532.190996
1444.040820,8512.368333,-3256.906145,1455.581446
1444.041149,9104.533087,-4219.173869,1302.362347
1444.041478,9178.553681,-6513.812290,1838.629195
1444.041807,8438.347739,-7179.997637,1455.581446
1444.042136,7328.038826,-7846.182985,1685.410096
1444.042465,6957.935855,-9030.512492,1455.581446
1444.042794,6143.709319,-9918.759623,1532.190996
1444.043123,5625.565159,-10140.821405,1072.533697
1444.043452,5329.482782,-8956.491898,689.485948
1444.043781,5329.482782,-7105.977043,689.485948
1444.044110,5255.462188,-7105.977043,0.000000
1444.044439,4959.379811,-4737.318029,229.828649
1444.044768,6365.771101,-4367.215058,153.219100
1444.045097,7846.182985,-4737.318029,689.485948
1444.045426,8586.388927,-3552.988522,1302.362347
1444.045755,9548.656652,-2960.823768,1378.971896
1444.046084,10362.883188,-3034.844362,1455.581446
1444.046413,9400.615463,-5477.523971,1991.848295
1444.046742,8142.265362,-8142.265362,1915.238745
1444.047071,6587.832884,-9030.512492,1685.410096
1444.047400,6513.812290,-9326.594869,1149.143247
1444.047729,5995.668130,-9474.636058,1532.190996
1444.048058,6143.709319,-9252.574275,2145.067394
1444.048387,6809.894666,-7550.100608,1532.190996
1444.048716,5847.626942,-6957.935855,229.828649
1444.049045,5329.482782,-5033.400406,0.000000
1444.049374,5107.421000,-4367.215058,-383.047749
1444.049703,6069.688724,-5033.400406,766.095498
1444.050032,7550.100608,-4145.153275,1072.533697
1444.050361,8512.368333,-4367.215058,919.314598
1444.050690,8438.347739,-5403.503377,1225.752797
1444.051019,8882.471304,-5107.421000,2068.457845
1444.051348,8882.471304,-6883.915261,1302.362347
1444.051677,7698.141797,-7476.080014,1455.581446
1444.052006,6291.750507,-9622.677246,1072.533697
1444.052335,5551.544565,-10584.944971,919.314598
1444.052664,5403.503377,-9622.677246,919.314598
1444.052993,5403.503377,-9252.574275,689.485948
1444.053322,6143.709319,-7179.997637,689.485948
1444.053651,6143.709319,-6365.771101,0.000000
1444.053980,5847.626942,-5477.523971,0.000000
1444.054309,6735.874072,-4737.318029,536.266849
1444.054638,6883.915261,-4071.132681,76.609550
1444.054967,7698.141797,-2812.782580,-229.828649
1444.055296,8068.244768,-4071.132681,1225.752797
1444.055625,8808.450710,-5181.441594,2145.067394
1444.055954,9104.533087,-7179.997637,2911.162892
1444.056283,8364.327145,-7105.977043,2451.505594
1444.056612,7031.956449,-7994.224174,1455.581446
1444.056941,6439.791695,-9474.636058,1225.752797
1444.057270,6365.771101,-8808.450710,2681.334243
1444.057599,6217.729913,-8512.368333,1762.019645
1444.057928,5773.606348,-7550.100608,536.266849
1444.058257,5403.503377,-6661.853478,536.266849
1444.058586,5403.503377,-6439.791695,76.609550
1444.058915,5995.668130,-5107.421000,229.828649
1444.059244,5625.565159,-4737.318029,229.828649
1444.059573,6513.812290,-4515.256246,153.219100
1444.059902,7920.203579,-3923.091493,919.314598
1444.060231,9474.636058,-3849.070898,1762.019645
1444.060560,9326.594869,-5477.523971,1532.190996
1444.060889,7994.224174,-7402.059420,2298.286494
1444.061218,7254.018232,-9326.594869,1838.629195
1444.061547,7031.956449,-9474.636058,1838.629195
1444.061876,6809.894666,-9622.677246,2298.286494
1444.062205,6883.915261,-9104.533087,1915.238745
1444.062534,6883.915261,-8216.285956,1838.629195
1444.062863,6291.750507,-6069.688724,842.705048
1444.063192,5995.668130,-5551.544565,153.219100
1444.063521,5847.626942,-5403.503377,842.705048
1444.063850,6143.709319,-4811.338623,306.438199
1444.064179,5921.647536,-4589.276840,0.000000
1444.064508,6291.750507,-3849.070898,229.828649
1444.064837,7994.224174,-4071.132681,1072.533697
1444.065166,9400.615463,-5477.523971,1762.019645
1444.065495,8586.388927,-6735.874072,2451.505594
1444.065824,7179.997637,-7105.977043,1915.238745
1444.066153,6735.874072,-9104.533087,1072.533697
1444.066482,5995.668130,-9474.636058,1455.581446
1444.066811,6217.729913,-9548.656652,1455.581446
1444.067140,7105.977043,-9474.636058,1838.629195
1444.067469,7846.182985,-7698.141797,1302.362347
1444.067798,6587.832884,-6143.709319,1149.143247
1444.068127,6069.688724,-5329.482782,689.485948
1444.068456,6735.874072,-4737.318029,612.876398
1444.068785,6217.729913,-3923.091493,0.000000
1444.069114,5847.626942,-4145.153275,0.000000
1444.069443,7105.977043,-4145.153275,612.876398
1444.069772,8512.368333,-5699.585753,1302.362347
1444.070101,7698.141797,-6513.812290,1838.629195
1444.070430,7105.977043,-7254.018232,1378.971896
1444.070759,7328.038826,-7920.203579,383.047749
1444.071088,6587.832884,-10362.883188,1685.410096
1444.071417,6957.935855,-9474.636058,1762.019645
1444.071746,7550.100608,-7994.224174,1685.410096
1444.072075,7402.059420,-8364.327145,1915.238745
1444.072404,5995.668130,-7624.121203,689.485948
1444.072733,5847.626942,-5995.668130,0.000000
1444.073062,5847.626942,-5773.606348,995.924147
1444.073391,6513.812290,-5329.482782,306.438199
1444.073720,6957.935855,-1924.535449,-383.047749
1444.074049,6809.894666,-2812.782580,459.657299
1444.074378,8660.409521,-3775.050304,612.876398
1444.074707,9178.553681,-4515.256246,1608.800546
1444.075036,8142.265362,-5847.626942,2145.067394
1444.075365,7624.121203,-7772.162391,2145.067394
1444.075694,6735.874072,-8734.430116,1685.410096
1444.076023,6513.812290,-9104.533087,842.705048
1444.076352,6069.688724,-10584.944971,1685.410096
1444.076681,7550.100608,-8290.306550,1608.800546
1444.077010,7105.977043,-7698.141797,536.266849
1444.077339,6365.771101,-6069.688724,919.314598
1444.077668,5995.668130,-6291.750507,919.314598
1444.077997,6439.791695,-5699.585753,0.000000
1444.078326,5107.421000,-4811.338623,383.047749
1444.078655,5773.606348,-4589.276840,0.000000
1444.078984,7698.141797,-4441.235652,689.485948
1444.079313,7920.203579,-4367.215058,842.705048
1444.079642,7698.141797,-5403.503377,842.705048
1444.079971,7698.141797,-6143.709319,1072.533697
1444.080300,8290.306550,-8956.491898,1991.848295
1444.080629,7624.121203,-8438.347739,1608.800546
1444.080958,7031.956449,-7846.182985,1838.629195
1444.081287,7328.038826,-8438.347739,1302.362347
1444.081616,7254.018232,-7698.141797,919.314598
1444.081945,6365.771101,-6883.915261,689.485948
1444.082274,6587.832884,-6735.874072,919.314598
1444.082603,6735.874072,-5847.626942,459.657299
1444.082932,6513.812290,-4515.256246,229.828649
1444.083261,5107.421000,-4811.338623,-612.876398
1444.083590,7105.977043,-3552.988522,229.828649
1444.083919,7994.224174,-4737.318029,612.876398
1444.084248,8216.285956,-4663.297435,1225.752797
1444.084577,8882.471304,-6217.729913,2528.115143
1444.084906,9622.677246,-7254.018232,2834.553343
1444.085235,8216.285956,-7402.059420,2145.067394
1444.085564,5847.626942,-8290.306550,1302.362347
1444.085893,5773.606348,-8364.327145,1072.533697
1444.086222,6587.832884,-8216.285956,459.657299
1444.086551,5921.647536,-8956.491898,1532.190996
1444.086880,5699.585753,-7476.080014,842.705048
1444.087210,5921.647536,-8438.347739,536.266849
1444.087539,4663.297435,-7105.977043,459.657299
1444.087868,4219.173869,-5033.400406,-1302.362347
1444.088197,6069.688724,-4959.379811,-229.828649
1444.088526,7772.162391,-4071.132681,919.314598
1444.088855,7994.224174,-5403.503377,536.266849
1444.089184,7402.059420,-5625.565159,1532.190996
1444.089513,8660.409521,-5625.565159,1302.362347
1444.089842,9696.697840,-7624.121203,1302.362347
1444.090171,8586.388927,-6661.853478,3600.648841
1444.090500,8290.306550,-8734.430116,2451.505594
1444.090829,7179.997637,-7402.059420,1685.410096
1444.091158,5329.482782,-5847.626942,689.485948
1444.091487,5403.503377,-7772.162391,612.876398
1444.091816,7031.956449,-6069.688724,842.705048
1444.092145,6513.812290,-7105.977043,1378.971896
1444.092474,5773.606348,-4441.235652,-306.438199
1444.092803,6513.812290,-3997.112087,153.219100
1444.093132,7920.203579,-4663.297435,1149.143247
1444.093461,8882.471304,-4219.173869,995.924147
1444.093790,7402.059420,-6439.791695,1915.238745
1444.094119,8142.265362,-4737.318029,1532.190996
1444.094448,7624.121203,-6735.874072,1378.971896
1444.094777,7550.100608,-7254.018232,2145.067394
1444.095106,7846.182985,-7105.977043,2987.772442
1444.095435,8290.306550,-7920.203579,2068.457845
1444.095764,6809.894666,-7920.203579,1378.971896
1444.096093,4515.256246,-9252.574275,995.924147
1444.096422,4071.132681,-8438.347739,0.000000
1444.096751,3627.009116,-7698.141797,-766.095498
1444.097080,3108.864956,-7402.059420,-766.095498
1444.097409,5477.523971,-6735.874072,0.000000
1444.097738,7772.162391,-6069.688724,459.657299
1444.098067,8882.471304,-5255.462188,1455.581446
1444.098396,7920.203579,-6217.729913,1149.143247
1444.098725,7402.059420,-5995.668130,459.657299
1444.099054,6587.832884,-7105.977043,383.047749
1444.099383,6513.812290,-8512.368333,1378.971896
1444.099712,8142.265362,-7105.977043,1991.848295
1444.100041,9252.574275,-6291.750507,2298.286494
1444.100370,8512.368333,-7105.977043,1915.238745
1444.100699,6809.894666,-6661.853478,2068.457845
1444.101028,5847.626942,-7105.977043,1225.752797
1444.101357,5033.400406,-6513.812290,383.047749
1444.101686,4811.338623,-6587.832884,0.000000
1444.102015,5477.523971,-6513.812290,306.438199
1444.102344,7624.121203,-5403.503377,1225.752797
1444.102673,7846.182985,-5625.565159,1149.143247
1444.103002,8438.347739,-4293.194464,1378.971896
1444.103331,8364.327145,-4441.235652,612.876398
1444.103660,8438.347739,-5403.503377,1072.533697
1444.103989,7698.141797,-5921.647536,612.876398
1444.104318,7402.059420,-8142.265362,1225.752797
1444.104647,9326.594869,-6439.791695,2145.067394
1444.104976,9622.677246,-6439.791695,1991.848295
1444.105305,8808.450710,-6143.709319,2068.457845
1444.105634,7698.141797,-5921.647536,1608.800546
1444.105963,6661.853478,-6513.812290,689.485948
1444.106292,5329.482782,-5625.565159,153.219100
1444.106621,5107.421000,-6809.894666,0.000000
1444.106950,5551.544565,-5625.565159,229.828649
1444.107279,5625.565159,-6957.935855,-229.828649
1444.107608,5403.503377,-7846.182985,76.609550
1444.107937,6069.688724,-7179.997637,842.705048
1444.108266,7031.956449,-7994.224174,919.314598
1444.108595,7179.997637,-6809.894666,1378.971896
1444.108924,7254.018232,-7254.018232,1149.143247
1444.109253,8512.368333,-7698.141797,1685.410096
1444.109582,8660.409521,-5921.647536,1378.971896
1444.109911,7179.997637,-6883.915261,919.314598
1444.110240,7031.956449,-6513.812290,842.705048
1444.110569,6957.935855,-7105.977043,1532.190996
1444.110898,7105.977043,-6291.750507,1225.752797
1444.111227,6143.709319,-6439.791695,842.705048
1444.111556,5773.606348,-5847.626942,0.000000
1444.111885,6513.812290,-4737.318029,-153.219100
1444.112214,5921.647536,-5033.400406,-229.828649
1444.112543,5403.503377,-6513.812290,76.609550
1444.112872,6143.709319,-7994.224174,689.485948
1444.113201,7698.141797,-9252.574275,1608.800546
1444.113530,6957.935855,-8808.450710,1378.971896
1444.113859,7624.121203,-7328.038826,1991.848295
1444.114188,9326.594869,-5107.421000,1608.800546
1444.114517,9844.739029,-4515.256246,1762.019645
1444.114846,9252.574275,-5403.503377,1991.848295
1444.115175,8734.430116,-4737.318029,2681.334243
1444.115504,8142.265362,-5181.441594,2834.553343
1444.115833,6217.729913,-5107.421000,1149.143247
1444.116162,5033.400406,-6513.812290,1302.362347
1444.116491,6069.688724,-7254.018232,612.876398
1444.116820,5625.565159,-5995.668130,536.266849
1444.117149,5033.400406,-7624.121203,229.828649
1444.117478,5255.462188,-8290.306550,536.266849
1444.117807,5699.585753,-8734.430116,229.828649
1444.118136,5255.462188,-8882.471304,383.047749
1444.118465,5255.462188,-8512.368333,995.924147
1444.118794,7105.977043,-8956.491898,1225.752797
1444.119123,8142.265362,-6661.853478,1685.410096
1444.119452,7920.203579,-7031.956449,2145.067394
1444.119781,8586.388927,-5107.421000,1991.848295
1444.120110,9104.533087,-4737.318029,1915.238745
1444.120439,8068.244768,-4145.153275,1685.410096
1444.120768,7772.162391,-3849.070898,1225.752797
1444.121097,7772.162391,-4293.194464,1149.143247
1444.121426,7624.121203,-4737.318029,1149.143247
1444.121755,4589.276840,-6291.750507,76.609550
1444.122084,3404.947333,-8512.368333,689.485948
1444.122413,4293.194464,-8882.471304,536.266849
1444.122742,5329.482782,-9474.636058,229.828649
1444.123071,5625.565159,-8438.347739,919.314598
1444.123400,7105.977043,-7698.141797,2528.115143
1444.123729,7624.121203,-7920.203579,1915.238745
1444.124058,7105.977043,-6217.729913,842.705048
1444.124387,7031.956449,-5921.647536,1225.752797
1444.124716,8808.450710,-5107.421000,1072.533697
1444.125045,9030.512492,-5477.523971,2528.115143
1444.125374,8438.347739,-4959.379811,2298.286494
1444.125703,8956.491898,-4515.256246,1149.143247
1444.126032,8660.409521,-4959.379811,842.705048
1444.126361,6513.812290,-6365.771101,689.485948
1444.126690,4589.276840,-7328.038826,-306.438199
1444.127019,4811.338623,-8438.347739,-689.485948
1444.127348,4515.256246,-9252.574275,-459.657299
1444.127677,5255.462188,-9474.636058,0.000000
1444.128006,7105.977043,-8882.471304,1302.362347
1444.128335,8660.409521,-7402.059420,1685.410096
1444.128664,8216.285956,-6957.935855,1608.800546
1444.128993,8216.285956,-4737.318029,1685.410096
1444.129322,9030.512492,-3330.926739,1072.533697
1444.129651,9326.594869,-4219.173869,1685.410096
1444.129980,8142.265362,-3923.091493,1608.800546
1444.130309,7994.224174,-4515.256246,1149.143247
1444.130638,8586.388927,-4367.215058,1455.581446
1444.130967,7402.059420,-5773.606348,689.485948
1444.131296,5773.606348,-7624.121203,1455.581446
1444.131625,5107.421000,-7328.038826,229.828649
1444.131954,5551.544565,-9030.512492,0.000000
1444.132283,5847.626942,-8438.347739,229.828649
1444.132612,7328.038826,-7772.162391,1378.971896
1444.132941,8068.244768,-6957.935855,1378.971896
1444.133270,7328.038826,-6365.771101,229.828649
1444.133599,6439.791695,-7105.977043,842.705048
1444.133928,7772.162391,-5403.503377,995.924147
1444.134257,8364.327145,-5107.421000,995.924147
1444.134586,7105.977043,-5403.503377,1685.410096
1444.134915,7624.121203,-4145.153275,995.924147
1444.135244,8216.285956,-4737.318029,842.705048
1444.135573,7624.121203,-5773.606348,536.266849
1444.135902,6587.832884,-7254.018232,1302.362347
1444.136231,6217.729913,-7772.162391,1149.143247
1444.136560,5551.544565,-7550.100608,0.000000
1444.136889,4737.318029,-9326.594869,229.828649
1444.137218,6143.709319,-8882.471304,842.705048
1444.137547,5921.647536,-8586.388927,995.924147
1444.137876,6661.853478,-6291.750507,689.485948
1444.138205,6365.771101,-6513.812290,842.705048
1444.138534,7179.997637,-5625.565159,1302.362347
1444.138863,7476.080014,-4663.297435,995.924147
1444.139192,6957.935855,-6291.750507,1378.971896
1444.139521,7624.121203,-5329.482782,1838.629195
1444.139850,8290.306550,-4737.318029,1532.190996
1444.140179,9030.512492,-4663.297435,2298.286494
1444.140508,8364.327145,-6365.771101,1915.238745
1444.140837,7105.977043,-7476.080014,1072.533697
1444.141166,6439.791695,-8438.347739,1072.533697
1444.141495,5847.626942,-9252.574275,612.876398
1444.141825,6291.750507,-9178.553681,1608.800546
1444.142154,5551.544565,-8808.450710,612.876398
1444.142483,4885.359217,-8882.471304,459.657299
1444.142812,4219.173869,-7328.038826,-229.828649
1444.143141,4071.132681,-8586.388927,153.219100
1444.143470,5329.482782,-7105.977043,1225.752797
1444.143799,5255.462188,-7402.059420,536.266849
1444.144128,4811.338623,-7031.956449,229.828649
1444.144457,5329.482782,-7402.059420,229.828649
1444.144786,7402.059420,-8216.285956,2374.896044
1444.145115,8364.327145,-7105.977043,1915.238745
1444.145444,7624.121203,-7920.203579,2145.067394
1444.145773,6661.853478,-8068.244768,1225.752797
1444.146103,5255.462188,-8882.471304,1072.533697
1444.146432,5255.462188,-8660.409521,536.266849
1444.146761,5329.482782,-8882.471304,459.657299
1444.147090,6365.771101,-7624.121203,1991.848295
1444.147419,7105.977043,-5699.585753,1455.581446
1444.147748,6957.935855,-5921.647536,2451.505594
1444.148077,6365.771101,-4145.153275,1838.629195
1444.148406,5107.421000,-5551.544565,919.314598
1444.148735,3701.029710,-6957.935855,842.705048
1444.149064,3404.947333,-6883.915261,76.609550
1444.149393,4737.318029,-7105.977043,-383.047749
1444.149722,5773.606348,-8660.409521,842.705048
1444.150051,5403.503377,-11769.274478,2221.676944
1444.150381,5699.585753,-11695.253884,2604.724693
1444.150710,5255.462188,-10807.006753,1149.143247
1444.151039,4219.173869,-9992.780217,842.705048
1444.151368,3849.070898,-9992.780217,1225.752797
1444.151697,4737.318029,-9992.780217,1225.752797
1444.152026,5625.565159,-7105.977043,919.314598
1444.152355,5995.668130,-6143.709319,1838.629195
1444.152684,6365.771101,-5995.668130,1915.238745
1444.153013,5921.647536,-5033.400406,1455.581446
1444.153342,4219.173869,-6735.874072,536.266849
1444.153671,3627.009116,-7994.224174,-306.438199
1444.154000,4589.276840,-6661.853478,1149.143247
1444.154329,5255.462188,-9178.553681,612.876398
1444.154659,5551.544565,-9918.759623,1378.971896
1444.154988,5995.668130,-9918.759623,1762.019645
1444.155317,6365.771101,-11103.089130,1608.800546
1444.155646,5181.441594,-11251.130318,842.705048
1444.155975,3478.967927,-10732.986159,459.657299
1444.156304,4663.297435,-10584.944971,153.219100
1444.156633,5107.421000,-9474.636058,1838.629195
1444.156962,5255.462188,-7920.203579,2068.457845
1444.157291,5403.503377,-5699.585753,919.314598
1444.157620,4959.379811,-5403.503377,0.000000
1444.157949,4737.318029,-6661.853478,995.924147
1444.158278,4959.379811,-7476.080014,919.314598
1444.158607,4737.318029,-8216.285956,995.924147
1444.158937,4663.297435,-7772.162391,612.876398
1444.159266,4885.359217,-8956.491898,2068.457845
1444.159595,5255.462188,-10584.944971,1838.629195
1444.159924,5255.462188,-8956.491898,1685.410096
1444.160253,4515.256246,-8586.388927,153.219100
1444.160582,4959.379811,-9548.656652,689.485948
1444.160911,4737.318029,-11251.130318,1608.800546
1444.161240,3997.112087,-11325.150913,1149.143247
1444.161569,3478.967927,-9178.553681,-229.828649
1444.161898,3775.050304,-8290.306550,0.000000
1444.162227,3997.112087,-8882.471304,0.000000
1444.162556,4367.215058,-9400.615463,2068.457845
1444.162885,5255.462188,-6957.935855,842.705048
1444.163215,5847.626942,-5255.462188,-612.876398
1444.163544,5847.626942,-5699.585753,-153.219100
1444.163873,6735.874072,-7698.141797,1685.410096
1444.164202,7031.956449,-9696.697840,2374.896044
1444.164531,5477.523971,-8956.491898,1991.848295
1444.164860,4515.256246,-9252.574275,0.000000
1444.165189,4367.215058,-10436.903782,689.485948
1444.165518,4737.318029,-12805.562797,2374.896044
1444.165847,4737.318029,-12879.583391,2221.676944
1444.166176,5255.462188,-7920.203579,919.314598
1444.166505,5255.462188,-6217.729913,689.485948
1444.166834,5551.544565,-6735.874072,1455.581446
1444.167163,5847.626942,-7698.141797,2604.724693
1444.167493,5403.503377,-7624.121203,2221.676944
1444.167822,4219.173869,-6735.874072,0.000000
1444.168151,2368.659014,-7402.059420,229.828649
1444.168480,2886.803174,-8956.491898,612.876398
1444.168809,4367.215058,-9844.739029,919.314598
1444.169138,4589.276840,-9252.574275,1149.143247
1444.169467,4589.276840,-9474.636058,842.705048
1444.169796,4959.379811,-9104.533087,1532.190996
1444.170125,6217.729913,-8882.471304,1225.752797
1444.170454,6883.915261,-8068.244768,995.924147
1444.170783,6513.812290,-8216.285956,842.705048
1444.171112,5551.544565,-9104.533087,1608.800546
1444.171441,5181.441594,-9400.615463,1762.019645
1444.171771,5403.503377,-7698.141797,1915.238745
1444.172100,5255.462188,-5995.668130,1072.533697
1444.172429,4959.379811,-7328.038826,689.485948
1444.172758,4219.173869,-9992.780217,1532.190996
1444.173087,3627.009116,-10584.944971,1149.143247
1444.173416,3478.967927,-8882.471304,153.219100
1444.173745,3182.885551,-7550.100608,229.828649
1444.174074,3997.112087,-8956.491898,459.657299
1444.174403,5181.441594,-10510.924376,1455.581446
1444.174732,5995.668130,-9770.718434,2145.067394
1444.175061,6217.729913,-8438.347739,1608.800546
1444.175390,6143.709319,-6513.812290,1225.752797
1444.175719,5551.544565,-7698.141797,1302.362347
1444.176049,5033.400406,-10658.965565,1991.848295
1444.176378,4737.318029,-9844.739029,1378.971896
1444.176707,3256.906145,-9178.553681,76.609550
1444.177036,2664.741391,-8882.471304,-229.828649
1444.177365,3404.947333,-9326.594869,229.828649
1444.177694,4515.256246,-10140.821405,919.314598
1444.178023,4293.194464,-9474.636058,1072.533697
1444.178352,4145.153275,-8956.491898,1455.581446
1444.178681,5255.462188,-7476.080014,842.705048
1444.179010,5773.606348,-7105.977043,689.485948
1444.179339,6439.791695,-6143.709319,1225.752797
1444.179668,6587.832884,-6661.853478,1762.019645
1444.179997,6587.832884,-8068.244768,1302.362347
1444.180327,5921.647536,-8956.491898,1608.800546
1444.180656,5181.441594,-9474.636058,1378.971896
1444.180985,4441.235652,-10066.800811,1225.752797
1444.181314,2886.803174,-10658.965565,1149.143247
1444.181643,1998.556043,-12139.377449,76.609550
1444.181972,2368.659014,-11177.109724,0.000000
1444.182301,3478.967927,-9696.697840,0.000000
1444.182630,4885.359217,-9030.512492,306.438199
1444.182959,5773.606348,-7698.141797,1685.410096
1444.183288,6069.688724,-7698.141797,1762.019645
1444.183617,6587.832884,-6291.750507,1302.362347
1444.183946,6217.729913,-5847.626942,1608.800546
1444.184275,6661.853478,-5181.441594,1762.019645
1444.184605,6809.894666,-5995.668130,1838.629195
1444.184934,6661.853478,-6587.832884,1149.143247
1444.185263,6143.709319,-7402.059420,383.047749
1444.185592,5551.544565,-8438.347739,919.314598
1444.185921,4885.359217,-9770.718434,536.266849
1444.186250,4515.256246,-11103.089130,612.876398
1444.186579,4367.215058,-11547.212695,1149.143247
1444.186908,3923.091493,-11325.150913,919.314598
1444.187237,3701.029710,-10362.883188,1685.410096
1444.187566,3404.947333,-9622.677246,1838.629195
1444.187895,4071.132681,-8734.430116,1225.752797
1444.188224,4441.235652,-7328.038826,1608.800546
1444.188553,4737.318029,-6661.853478,2145.067394
1444.188883,5773.606348,-5847.626942,1991.848295
1444.189212,6439.791695,-4589.276840,1762.019645
1444.189541,6735.874072,-5477.523971,1302.362347
1444.189870,6143.709319,-5625.565159,306.438199
1444.190199,4885.359217,-7920.203579,0.000000
1444.190528,4145.153275,-10658.965565,766.095498
1444.190857,4145.153275,-12953.603985,1302.362347
1444.191186,3923.091493,-13249.686362,1685.410096
1444.191515,4071.132681,-12657.521608,1302.362347
1444.191844,4737.318029,-11621.233289,1762.019645
1444.192173,4737.318029,-10140.821405,1991.848295
1444.192502,4441.235652,-8364.327145,1608.800546
1444.192831,4219.173869,-6513.812290,1455.581446
1444.193161,4293.194464,-5477.523971,1302.362347
1444.193490,4219.173869,-5551.544565,1149.143247
1444.193819,4959.379811,-5847.626942,995.924147
1444.194148,5551.544565,-5181.441594,306.438199
1444.194477,5403.503377,-6587.832884,0.000000
1444.194806,5551.544565,-7550.100608,459.657299
1444.195135,5921.647536,-10214.842000,459.657299
1444.195464,5255.462188,-12435.459826,612.876398
1444.195793,4515.256246,-12805.562797,1378.971896
1444.196122,3923.091493,-13693.809927,1455.581446
1444.196451,3997.112087,-12213.398043,2145.067394
1444.196780,4663.297435,-10807.006753,2834.553343
1444.197109,4959.379811,-9326.594869,3064.381992
1444.197439,5625.565159,-6143.709319,2987.772442
1444.197768,6291.750507,-5329.482782,2604.724693
1444.198097,6291.750507,-3923.091493,2451.505594
1444.198426,6143.709319,-4293.194464,2145.067394
1444.198755,5773.606348,-5255.462188,1762.019645
1444.199084,5255.462188,-5773.606348,1302.362347
1444.199413,4885.359217,-7994.224174,995.924147
1444.199742,4885.359217,-9326.594869,1225.752797
1444.200071,5181.441594,-11621.233289,1762.019645
1444.200400,4885.359217,-12065.356855,1991.848295
1444.200729,4959.379811,-11399.171507,2221.676944
1444.201058,5033.400406,-11473.192101,2911.162892
1444.201387,5921.647536,-9178.553681,3753.867940
1444.201717,6809.894666,-7254.018232,4519.963438
1444.202046,6809.894666,-4811.338623,4366.744339
1444.202375,6735.874072,-3330.926739,4060.306139
1444.202704,7031.956449,-3627.009116,3217.601092
1444.203033,6809.894666,-3701.029710,2681.334243
1444.203362,6143.709319,-4663.297435,2451.505594
1444.203691,6439.791695,-5847.626942,2681.334243
1444.204020,6365.771101,-7179.997637,2834.553343
1444.204349,6143.709319,-8438.347739,3677.258390
1444.204678,6365.771101,-8364.327145,4136.915689
1444.205007,6069.688724,-9030.512492,3600.648841
1444.205336,5995.668130,-8512.368333,3830.477490
1444.205665,6365.771101,-7846.182985,4060.306139
1444.205995,6957.935855,-6365.771101,4060.306139
1444.206324,7402.059420,-5477.523971,3983.696590
1444.206653,7254.018232,-4737.318029,4366.744339
1444.206982,7772.162391,-4737.318029,4366.744339
1444.207311,7031.956449,-4515.256246,4443.353888
1444.207640,7031.956449,-4219.173869,4213.525239
1444.207969,7031.956449,-5329.482782,3524.039291
1444.208298,7402.059420,-6587.832884,3677.258390
1444.208627,7254.018232,-7476.080014,4136.915689
1444.208956,7105.977043,-8586.388927,4519.963438
1444.209285,6513.812290,-9474.636058,3907.087040
1444.209614,5477.523971,-10362.883188,3600.648841
1444.209943,4145.153275,-10807.006753,3677.258390
1444.210273,3478.967927,-10658.965565,3524.039291
1444.210602,3775.050304,-9992.780217,3830.477490
1444.210931,4515.256246,-8586.388927,4366.744339
1444.211260,5329.482782,-6661.853478,5439.278036
1444.211589,7105.977043,-5699.585753,5439.278036
1444.211918,7698.141797,-4737.318029,5362.668486
1444.212247,8216.285956,-3923.091493,5515.887586
1444.212576,8956.491898,-3404.947333,5669.106685
1444.212905,9844.739029,-3182.885551,6052.154434
1444.213234,10066.800811,-3108.864956,5439.278036
1444.213563,10066.800811,-4367.215058,5592.497135
1444.213892,9696.697840,-5477.523971,5132.839837
1444.214221,8512.368333,-6513.812290,4903.011187
1444.214551,7105.977043,-7402.059420,4136.915689
1444.214880,5995.668130,-8660.409521,4213.525239
1444.215209,4959.379811,-9178.553681,3753.867940
1444.215538,3849.070898,-9622.677246,3600.648841
1444.215867,2590.720797,-9770.718434,3983.696590
1444.216196,2590.720797,-9326.594869,3830.477490
1444.216525,3404.947333,-7698.141797,3140.991542
1444.216854,4737.318029,-6439.791695,3217.601092
1444.217183,6439.791695,-5107.421000,4443.353888
1444.217512,9030.512492,-4737.318029,5286.058936
1444.217841,10436.903782,-3182.885551,6052.154434
1444.218170,11177.109724,-2294.638420,6128.763984
1444.218499,10807.006753,-2590.720797,5439.278036
1444.218829,9918.759623,-3627.009116,4519.963438
1444.219158,7994.224174,-6217.729913,3983.696590
1444.219487,6069.688724,-7254.018232,2681.334243
1444.219816,5551.544565,-8882.471304,2451.505594
1444.220145,5403.503377,-9474.636058,2681.334243
1444.220474,5255.462188,-9400.615463,3064.381992
1444.220803,5329.482782,-10066.800811,3524.039291
1444.221132,5033.400406,-8364.327145,3447.429741
1444.221461,5181.441594,-6735.874072,3294.210641
1444.221790,6809.894666,-4737.318029,2911.162892
1444.222119,8364.327145,-3923.091493,3370.820191
1444.222448,9474.636058,-4071.132681,3753.867940
1444.222777,9622.677246,-4737.318029,3447.429741
1444.223107,8808.450710,-5921.647536,3983.696590
1444.223436,8068.244768,-6291.750507,4519.963438
1444.223765,7179.997637,-7476.080014,3677.258390
1444.224094,6217.729913,-7476.080014,3447.429741
1444.224423,5551.544565,-8142.265362,3600.648841
1444.224752,5551.544565,-8438.347739,3677.258390
1444.225081,6809.894666,-7476.080014,3524.039291
1444.225410,6957.935855,-6883.915261,3600.648841
1444.225739,7105.977043,-6587.832884,3753.867940
1444.226068,6587.832884,-5699.585753,3830.477490
1444.226397,6735.874072,-5403.503377,2987.772442
1444.226726,7550.100608,-3997.112087,3447.429741
1444.227055,8882.471304,-3701.029710,3753.867940
1444.227385,9844.739029,-3997.112087,4213.525239
1444.227714,8956.491898,-4737.318029,4213.525239
1444.228043,7254.018232,-6883.915261,3294.210641
1444.228372,6217.729913,-8956.491898,2451.505594
1444.228701,5329.482782,-11103.089130,3294.210641
1444.229030,4737.318029,-11399.171507,3447.429741
1444.229359,4367.215058,-9474.636058,3217.601092
1444.229688,5181.441594,-8364.327145,3294.210641
1444.230017,5773.606348,-6513.812290,3217.601092
1444.230346,6957.935855,-5625.565159,3983.696590
1444.230675,8068.244768,-5255.462188,5056.230287
1444.231004,8438.347739,-4515.256246,5132.839837
1444.231333,8808.450710,-3404.947333,5056.230287
1444.231663,9474.636058,-2220.617826,4979.620737
1444.231992,10214.842000,-3108.864956,4903.011187
1444.232321,10362.883188,-3108.864956,4826.401637
1444.232650,8882.471304,-4737.318029,4366.744339
1444.232979,7105.977043,-7328.038826,3294.210641
1444.233308,5625.565159,-9326.594869,3830.477490
1444.233637,3849.070898,-11473.192101,3370.820191
1444.233966,3256.906145,-12361.439231,2987.772442
1444.234295,2590.720797,-10807.006753,3294.210641
1444.234624,3627.009116,-9548.656652,3064.381992
1444.234953,5033.400406,-7031.956449,3677.258390
1444.235282,6809.894666,-4811.338623,4519.963438
1444.235611,9326.594869,-4293.194464,5362.668486
1444.235941,10066.800811,-2960.823768,5822.325785
1444.236270,9622.677246,-2146.597232,5439.278036
1444.236599,9252.574275,-1776.494261,4826.401637
1444.236928,8290.306550,-2812.782580,4519.963438
1444.237257,7328.038826,-5033.400406,4826.401637
1444.237586,6883.915261,-8216.285956,4519.963438
1444.237915,7624.121203,-9326.594869,5209.449386
1444.238244,7550.100608,-9474.636058,4366.744339
1444.238573,6291.750507,-9474.636058,3907.087040
1444.238902,4663.297435,-8438.347739,3370.820191
1444.239231,4441.235652,-7846.182985,2987.772442
1444.239560,5477.523971,-7254.018232,3677.258390
1444.239889,6883.915261,-6365.771101,5209.449386
1444.240219,7994.224174,-5255.462188,5209.449386
1444.240548,7402.059420,-4367.215058,4673.182538
1444.240877,6587.832884,-4959.379811,4443.353888
1444.241206,7402.059420,-5699.585753,4826.401637
1444.241535,7476.080014,-4737.318029,4673.182538
1444.241864,7698.141797,-4737.318029,3983.696590
1444.242193,7698.141797,-5181.441594,3983.696590
1444.242522,7698.141797,-7105.977043,4290.134789
1444.242851,7105.977043,-9474.636058,4443.353888
1444.243180,6661.853478,-8808.450710,5209.449386
1444.243509,6883.915261,-8290.306550,3677.258390
1444.243838,5403.503377,-7624.121203,2681.334243
1444.244168,4663.297435,-7476.080014,3294.210641
1444.244497,5699.585753,-8290.306550,4060.306139
1444.244826,7772.162391,-6143.709319,5132.839837
1444.245155,8290.306550,-4515.256246,5669.106685
1444.245484,7624.121203,-3034.844362,4903.011187
1444.245813,7031.956449,-2960.823768,3294.210641
1444.246142,7179.997637,-3849.070898,3370.820191
1444.246471,7772.162391,-4737.318029,3753.867940
1444.246800,8512.368333,-5329.482782,4366.744339
1444.247129,8512.368333,-7105.977043,4519.963438
1444.247458,7105.977043,-9474.636058,4673.182538
1444.247787,5847.626942,-9992.780217,4290.134789
1444.248117,5477.523971,-8586.388927,3524.039291
1444.248446,5847.626942,-7920.203579,3064.381992
1444.248775,6513.812290,-7179.997637,3830.477490
1444.249104,6661.853478,-6143.709319,3677.258390
1444.249433,6365.771101,-5847.626942,3983.696590
1444.249762,6365.771101,-4515.256246,3524.039291
1444.250091,6291.750507,-5699.585753,3217.601092
1444.250420,6957.935855,-5329.482782,3677.258390
1444.250749,7550.100608,-3701.029710,4060.306139
1444.251078,7550.100608,-4367.215058,3447.429741
1444.251407,7550.100608,-5477.523971,2911.162892
1444.251736,7624.121203,-7698.141797,3217.601092
1444.252066,8142.265362,-8290.306550,3600.648841
1444.252395,7920.203579,-8512.368333,3677.258390
1444.252724,5847.626942,-9770.718434,3217.601092
1444.253053,5033.400406,-9178.553681,2834.553343
1444.253382,5921.647536,-6661.853478,3064.381992
1444.253711,7328.038826,-4811.338623,3064.381992
1444.254040,8290.306550,-4293.194464,3447.429741
1444.254369,7550.100608,-5773.606348,3447.429741
1444.254698,6217.729913,-4959.379811,2374.896044
1444.255027,5107.421000,-4811.338623,1838.629195
1444.255356,6513.812290,-4959.379811,2374.896044
1444.255685,7624.121203,-5107.421000,1685.410096
1444.256015,7846.182985,-7105.977043,1532.190996
1444.256344,7772.162391,-8216.285956,2528.115143
1444.256673,7698.141797,-7624.121203,1762.019645
1444.257002,7179.997637,-8142.265362,1302.362347
1444.257331,6809.894666,-9918.759623,1762.019645
1444.257660,5995.668130,-10362.883188,1915.238745
1444.257989,5329.482782,-9474.636058,2221.676944
1444.258318,6217.729913,-6439.791695,2068.457845
1444.258647,7624.121203,-4737.318029,2987.772442
1444.258976,8438.347739,-4589.276840,3677.258390
1444.259305,7772.162391,-4589.276840,3370.820191
1444.259634,6957.935855,-2590.720797,2145.067394
1444.259964,6957.935855,-2220.617826,1455.581446
1444.260293,8216.285956,-3849.070898,2145.067394
1444.260622,8512.368333,-4811.338623,3140.991542
1444.260951,8512.368333,-5403.503377,1838.629195
1444.261280,7772.162391,-5921.647536,842.705048
1444.261609,6365.771101,-8660.409521,229.828649
1444.261938,4959.379811,-11177.109724,383.047749
1444.262267,4737.318029,-10584.944971,383.047749
1444.262596,4737.318029,-10362.883188,536.266849
1444.262925,4737.318029,-9696.697840,1608.800546
1444.263254,4959.379811,-7254.018232,919.314598
1444.263583,5625.565159,-6661.853478,1685.410096
1444.263913,7476.080014,-5551.544565,2911.162892
1444.264242,8956.491898,-3108.864956,3217.601092
1444.264571,8734.430116,-2812.782580,2911.162892
1444.264900,8216.285956,-3627.009116,1915.238745
1444.265229,8512.368333,-3923.091493,1685.410096
1444.265558,9252.574275,-3627.009116,383.047749
1444.265887,9252.574275,-4219.173869,153.219100
1444.266216,7994.224174,-5403.503377,229.828649
1444.266545,6513.812290,-7994.224174,-766.095498
1444.266874,5255.462188,-10288.862594,-459.657299
1444.267203,4663.297435,-11769.274478,536.266849
1444.267532,4737.318029,-12509.480420,1149.143247
1444.267862,4737.318029,-10955.047942,1608.800546
1444.268191,4811.338623,-7031.956449,1302.362347
1444.268520,5699.585753,-6291.750507,1991.848295
1444.268849,7402.059420,-4737.318029,2681.334243
1444.269178,7772.162391,-2146.597232,1838.629195
1444.269507,8290.306550,-1998.556043,1532.190996
1444.269836,9030.512492,-2590.720797,1915.238745
1444.270165,9548.656652,-4071.132681,2068.457845
1444.270494,9844.739029,-4293.194464,2451.505594
1444.270823,9252.574275,-5773.606348,1302.362347
1444.271152,8142.265362,-7550.100608,229.828649
1444.271482,6513.812290,-7994.224174,0.000000
1444.271811,4737.318029,-9622.677246,-536.266849
1444.272140,3552.988522,-11917.315666,-766.095498
1444.272469,3404.947333,-11917.315666,0.000000
1444.272798,3849.070898,-10362.883188,0.000000
1444.273127,5033.400406,-9696.697840,1072.533697
1444.273456,6883.915261,-7105.977043,2451.505594
1444.273785,8808.450710,-4367.215058,2528.115143
1444.274114,8882.471304,-3182.885551,1915.238745
1444.274443,8808.450710,-1776.494261,2145.067394
1444.274772,8734.430116,-1850.514855,766.095498
1444.275101,9326.594869,-1776.494261,1072.533697
1444.275431,9696.697840,-2738.761985,1378.971896
1444.275760,9104.533087,-5329.482782,383.047749
1444.276089,7328.038826,-6587.832884,76.609550
1444.276418,5699.585753,-9252.574275,0.000000
1444.276747,4441.235652,-11917.315666,0.000000
1444.277076,3552.988522,-12805.562797,306.438199
1444.277405,2738.761985,-11399.171507,689.485948
1444.277734,3552.988522,-8586.388927,0.000000
1444.278063,5921.647536,-8290.306550,1838.629195
1444.278392,6809.894666,-5107.421000,2145.067394
1444.278721,7772.162391,-2886.803174,1685.410096
1444.279050,8290.306550,-2220.617826,1762.019645
1444.279380,8882.471304,-1332.370696,1455.581446
1444.279709,9104.533087,-3182.885551,1455.581446
1444.280038,9918.759623,-2220.617826,1532.190996
1444.280367,9622.677246,-3923.091493,459.657299
1444.280696,8586.388927,-5255.462188,0.000000
1444.281025,7772.162391,-6735.874072,0.000000
1444.281354,6587.832884,-10510.924376,383.047749
1444.281683,4589.276840,-12361.439231,0.000000
1444.282012,2960.823768,-12213.398043,-383.047749
1444.282341,3701.029710,-11251.130318,229.828649
1444.282670,5181.441594,-9992.780217,1532.190996
1444.282999,6513.812290,-7698.141797,1915.238745
1444.283329,7328.038826,-5329.482782,2451.505594
1444.283658,8660.409521,-4589.276840,2298.286494
1444.283987,9252.574275,-3108.864956,2221.676944
1444.284316,8364.327145,-2368.659014,1455.581446
1444.284645,8290.306550,-1776.494261,842.705048
1444.284974,9104.533087,-2590.720797,766.095498
1444.285303,8956.491898,-3701.029710,-153.219100
1444.285632,7920.203579,-5255.462188,842.705048
1444.285961,7179.997637,-8956.491898,1225.752797
1444.286290,5921.647536,-12065.356855,1072.533697
1444.286619,3923.091493,-13027.624579,612.876398
1444.286948,3404.947333,-11251.130318,-766.095498
1444.287278,4145.153275,-11621.233289,842.705048
1444.287607,5403.503377,-10510.924376,1991.848295
1444.287936,5995.668130,-5847.626942,995.924147
1444.288265,6809.894666,-3404.947333,842.705048
1444.288594,8364.327145,-2960.823768,1685.410096
1444.288923,8734.430116,-1924.535449,2374.896044
1444.289252,8734.430116,-2220.617826,2145.067394
1444.289581,9622.677246,-1850.514855,2145.067394
1444.289910,9992.780217,-2812.782580,2221.676944
1444.290239,8586.388927,-3330.926739,612.876398
1444.290568,7031.956449,-6365.771101,383.047749
1444.290897,6069.688724,-9770.718434,229.828649
1444.291227,4959.379811,-10881.027347,0.000000
1444.291556,4071.132681,-11547.212695,-459.657299
1444.291885,3775.050304,-11325.150913,1378.971896
1444.292214,5107.421000,-11473.192101,1302.362347
1444.292543,5107.421000,-8956.491898,1685.410096
1444.292872,5033.400406,-5625.565159,1149.143247
1444.293201,7105.977043,-4219.173869,1455.581446
1444.293530,8808.450710,-2368.659014,1838.629195
1444.293859,9104.533087,-2368.659014,1991.848295
1444.294188,9326.594869,-1110.308913,1225.752797
1444.294517,10362.883188,-1406.391290,766.095498
1444.294846,9918.759623,-3182.885551,612.876398
1444.295176,8586.388927,-5773.606348,842.705048
1444.295505,7105.977043,-9474.636058,1225.752797
1444.295834,6217.729913,-11029.068536,0.000000
1444.296163,4663.297435,-11621.233289,0.000000
1444.296492,4663.297435,-12657.521608,766.095498
1444.296821,5995.668130,-11843.295072,1532.190996
1444.297150,6291.750507,-9030.512492,1532.190996
1444.297479,5477.523971,-6217.729913,1149.143247
1444.297808,5329.482782,-3849.070898,536.266849
1444.298137,6587.832884,-4515.256246,1302.362347
1444.298466,7846.182985,-3330.926739,2068.457845
1444.298795,8512.368333,-1924.535449,1532.190996
1444.299125,9770.718434,-1776.494261,2068.457845
1444.299454,8956.491898,-2664.741391,306.438199
1444.299783,7994.224174,-3997.112087,0.000000
1444.300112,7476.080014,-7698.141797,766.095498
1444.300441,6735.874072,-11325.150913,766.095498
1444.300770,5403.503377,-11547.212695,1225.752797
1444.301099,4219.173869,-12065.356855,766.095498
1444.301428,4441.235652,-12213.398043,612.876398
1444.301757,5403.503377,-10066.800811,1915.238745
1444.302086,5477.523971,-6957.935855,1455.581446
1444.302415,6069.688724,-4441.235652,76.609550
1444.302744,6513.812290,-3701.029710,1149.143247
1444.303074,7402.059420,-3108.864956,1608.800546
1444.303403,8660.409521,-2294.638420,1685.410096
1444.303732,9474.636058,-1702.473667,2834.553343
1444.304061,9844.739029,-1406.391290,919.314598
1444.304390,8586.388927,-3627.009116,-383.047749
1444.304719,7105.977043,-5995.668130,1302.362347
1444.305048,7179.997637,-8734.430116,689.485948
1444.305377,5921.647536,-10510.924376,0.000000
1444.305706,4589.276840,-10658.965565,459.657299
1444.306035,4515.256246,-11843.295072,1302.362347
1444.306364,5773.606348,-11251.130318,1991.848295
1444.306694,5995.668130,-7772.162391,1838.629195
1444.307023,5773.606348,-5477.523971,1378.971896
1444.307352,7179.997637,-4515.256246,689.485948
1444.307681,7624.121203,-3552.988522,919.314598
1444.308010,7698.141797,-2664.741391,383.047749
1444.308339,9474.636058,-2072.576638,995.924147
1444.308668,10066.800811,-2664.741391,689.485948
1444.308997,9178.553681,-3627.009116,306.438199
1444.309326,7254.018232,-6291.750507,766.095498
1444.309655,7550.100608,-9252.574275,1991.848295
1444.309984,6883.915261,-11177.109724,306.438199
1444.310313,4737.318029,-11177.109724,76.609550
1444.310643,4885.359217,-10807.006753,689.485948
1444.310972,6809.894666,-10436.903782,1838.629195
1444.311301,6735.874072,-8808.450710,2528.115143
1444.311630,5995.668130,-6365.771101,2451.505594
1444.311959,6291.750507,-4663.297435,1838.629195
1444.312288,6587.832884,-2886.803174,842.705048
1444.312617,7179.997637,-2590.720797,1608.800546
1444.312946,8734.430116,-1702.473667,1455.581446
1444.313275,9474.636058,-2220.617826,536.266849
1444.313604,8882.471304,-4293.194464,229.828649
1444.313933,7846.182985,-5625.565159,689.485948
1444.314262,6957.935855,-7772.162391,-229.828649
1444.314592,4811.338623,-10955.047942,-383.047749
1444.314921,2886.803174,-11695.253884,0.000000
1444.315250,4071.132681,-11769.274478,229.828649
1444.315579,6439.791695,-10955.047942,2298.286494
1444.315908,7698.141797,-7846.182985,3370.820191
1444.316237,7920.203579,-5921.647536,2451.505594
1444.316566,7994.224174,-5033.400406,2451.505594
1444.316895,7328.038826,-3108.864956,1762.019645
1444.317224,7179.997637,-2664.741391,153.219100
1444.317553,7476.080014,-1480.411884,1302.362347
1444.317882,8142.265362,-888.247130,0.000000
1444.318211,8438.347739,-3182.885551,76.609550
1444.318541,7772.162391,-5107.421000,766.095498
1444.318870,7328.038826,-7698.141797,1608.800546
1444.319199,6883.915261,-10288.862594,766.095498
1444.319528,4737.318029,-11769.274478,459.657299
1444.319857,4145.153275,-10436.903782,0.000000
1444.320186,5033.400406,-10288.862594,76.609550
1444.320515,6291.750507,-9474.636058,2298.286494
1444.320844,7105.977043,-5773.606348,2221.676944
1444.321173,8068.244768,-4811.338623,2451.505594
1444.321502,9030.512492,-3552.988522,2451.505594
1444.321831,8364.327145,-4441.235652,1838.629195
1444.322160,8364.327145,-4293.194464,2374.896044
1444.322490,8956.491898,-3849.070898,842.705048
1444.322819,7994.224174,-3330.926739,-689.485948
1444.323148,6883.915261,-3552.988522,-1532.190996
1444.323477,6069.688724,-6291.750507,-383.047749
1444.323806,6291.750507,-9104.533087,-612.876398
1444.324135,5033.400406,-11843.295072,0.000000
1444.324464,4811.338623,-10881.027347,995.924147
1444.324793,6513.812290,-10140.821405,2068.457845
1444.325122,7920.203579,-10288.862594,2604.724693
1444.325451,7328.038826,-6735.874072,2987.772442
1444.325780,7402.059420,-5625.565159,1838.629195
1444.326109,8290.306550,-3627.009116,1455.581446
1444.326439,7994.224174,-2886.803174,1532.190996
1444.326768,8290.306550,-2220.617826,1149.143247
1444.327097,8734.430116,-1850.514855,306.438199
1444.327426,7772.162391,-3552.988522,-229.828649
1444.327755,6661.853478,-4663.297435,-153.219100
1444.328084,6587.832884,-6587.832884,-689.485948
1444.328413,6143.709319,-9178.553681,0.000000
1444.328742,5181.441594,-11473.192101,-153.219100
1444.329071,4441.235652,-12065.356855,0.000000
1444.329400,5107.421000,-10436.903782,383.047749
1444.329729,6513.812290,-10584.944971,1991.848295
1444.330058,6883.915261,-7254.018232,1838.629195
1444.330388,6143.709319,-4293.194464,1685.410096
1444.330717,7550.100608,-3627.009116,1455.581446
1444.331046,9104.533087,-3552.988522,1608.800546
1444.331375,8586.388927,-4737.318029,2451.505594
1444.331704,8734.430116,-3182.885551,1225.752797
1444.332033,8882.471304,-2812.782580,229.828649
1444.332362,8216.285956,-3330.926739,-1225.752797
1444.332691,6365.771101,-5699.585753,-995.924147
1444.333020,5773.606348,-8290.306550,0.000000
1444.333349,5255.462188,-9696.697840,-842.705048
1444.333678,4737.318029,-11325.150913,0.000000
1444.334007,5329.482782,-11029.068536,2145.067394
1444.334337,6957.935855,-11473.192101,1685.410096
1444.334666,7179.997637,-9844.739029,2681.334243
1444.334995,7179.997637,-6439.791695,3064.381992
1444.335324,7698.141797,-4959.379811,2221.676944
1444.335653,8290.306550,-2960.823768,2604.724693
1444.335982,7328.038826,-2812.782580,2374.896044
1444.336311,7624.121203,-2072.576638,842.705048
1444.336640,7476.080014,-3108.864956,0.000000
1444.336969,7624.121203,-5107.421000,306.438199
1444.337298,6513.812290,-6291.750507,0.000000
1444.337627,6439.791695,-8068.244768,612.876398
1444.337956,6291.750507,-9474.636058,766.095498
1444.338286,5033.400406,-11399.171507,0.000000
1444.338615,4515.256246,-10066.800811,459.657299
1444.338944,5773.606348,-9252.574275,1225.752797
1444.339273,7328.038826,-8364.327145,2451.505594
1444.339602,7772.162391,-4959.379811,2374.896044
1444.339931,8512.368333,-4589.276840,2145.067394
1444.340260,9030.512492,-4515.256246,3370.820191
1444.340589,9252.574275,-4071.132681,2911.162892
1444.340918,8512.368333,-3701.029710,2298.286494
1444.341248,7772.162391,-2516.700203,689.485948
1444.341578,7772.162391,-3627.009116,0.000000
1444.341907,5921.647536,-5847.626942,-842.705048
1444.342236,5329.482782,-7105.977043,-536.266849
1444.342565,5181.441594,-9178.553681,0.000000
1444.342894,5255.462188,-11103.089130,1302.362347
1444.343224,5107.421000,-10436.903782,1915.238745
1444.343553,6291.750507,-9178.553681,1532.190996
1444.343882,7254.018232,-8290.306550,2221.676944
1444.344211,7994.224174,-5551.544565,2681.334243
1444.344540,7994.224174,-4885.359217,3600.648841
1444.344869,8882.471304,-3775.050304,2298.286494
1444.345199,8734.430116,-3330.926739,842.705048
1444.345528,7994.224174,-3997.112087,1378.971896
1444.345857,7179.997637,-4885.359217,1302.362347
1444.346186,7402.059420,-5551.544565,0.000000
1444.346515,6957.935855,-6661.853478,0.000000
1444.346844,6143.709319,-8068.244768,-306.438199
1444.347174,6069.688724,-10066.800811,383.047749
1444.347503,5403.503377,-10732.986159,842.705048
1444.347832,4515.256246,-10510.924376,306.438199
1444.348161,5107.421000,-6957.935855,76.609550
1444.348490,7105.977043,-6883.915261,1532.190996
1444.348819,8438.347739,-5921.647536,2681.334243
1444.349149,8956.491898,-4737.318029,4136.915689
1444.349478,8734.430116,-4515.256246,2604.724693
1444.349807,8216.285956,-3552.988522,1532.190996
1444.350136,7328.038826,-4293.194464,1149.143247
1444.350465,7846.182985,-4811.338623,1302.362347
1444.350795,8216.285956,-6735.874072,766.095498
1444.351124,6809.894666,-6291.750507,-536.266849
1444.351453,4959.379811,-6143.709319,-1991.848295
1444.351782,4663.297435,-8586.388927,-1149.143247
1444.352111,4885.359217,-11029.068536,-612.876398
1444.352440,3849.070898,-10955.047942,0.000000
1444.352770,3775.050304,-9104.533087,153.219100
1444.353099,6143.709319,-7328.038826,1225.752797
1444.353428,8364.327145,-7105.977043,2911.162892
1444.353757,9474.636058,-5699.585753,3447.429741
1444.354086,8882.471304,-2960.823768,2528.115143
1444.354415,8290.306550,-1554.432478,1225.752797
1444.354745,8364.327145,-2960.823768,842.705048
1444.355074,8882.471304,-4071.132681,2221.676944
1444.355403,9104.533087,-5625.565159,1762.019645
1444.355732,8512.368333,-6587.832884,842.705048
1444.356061,6217.729913,-6957.935855,-229.828649
1444.356390,4737.318029,-9474.636058,-766.095498
1444.356720,3997.112087,-10881.027347,383.047749
1444.357049,3404.947333,-11769.274478,-612.876398
1444.357378,3256.906145,-10066.800811,-383.047749
1444.357707,4219.173869,-7624.121203,0.000000
1444.358036,6587.832884,-7179.997637,2145.067394
1444.358366,8882.471304,-5033.400406,3447.429741
1444.358695,9548.656652,-4145.153275,4060.306139
1444.359024,9696.697840,-2442.679609,2911.162892
1444.359353,8364.327145,-2812.782580,1685.410096
1444.359682,8808.450710,-5921.647536,2911.162892
1444.360011,10436.903782,-5847.626942,2374.896044
1444.360341,9474.636058,-5329.482782,842.705048
1444.360670,5847.626942,-5181.441594,-1532.190996
1444.360999,4219.173869,-7105.977043,-1532.190996
1444.361328,4663.297435,-10066.800811,-766.095498
1444.361657,4589.276840,-11991.336260,-612.876398
1444.361986,3552.988522,-11325.150913,612.876398
1444.362316,4515.256246,-8956.491898,995.924147
1444.362645,6587.832884,-8142.265362,2221.676944
1444.362974,7698.141797,-5773.606348,3140.991542
1444.363303,9104.533087,-3552.988522,3370.820191
1444.363632,10066.800811,-1924.535449,2298.286494
1444.363961,8956.491898,-518.144159,1225.752797
1444.364291,8512.368333,-2294.638420,1762.019645
1444.364620,9696.697840,-4293.194464,2451.505594
1444.364949,9696.697840,-4959.379811,1838.629195
1444.365278,7031.956449,-6809.894666,689.485948
1444.365607,5403.503377,-7105.977043,-766.095498
1444.365937,4811.338623,-10066.800811,76.609550
1444.366266,4441.235652,-11991.336260,459.657299
1444.366595,2590.720797,-12213.398043,-995.924147
1444.366924,2516.700203,-9992.780217,-612.876398
1444.367253,4959.379811,-8216.285956,536.266849
1444.367582,6809.894666,-6513.812290,1838.629195
1444.367912,8216.285956,-3997.112087,2911.162892
1444.368241,9622.677246,-3182.885551,3217.601092
1444.368570,10362.883188,-2072.576638,2221.676944
1444.368899,9474.636058,-2442.679609,1838.629195
1444.369228,10066.800811,-2442.679609,1991.848295
1444.369557,10288.862594,-3923.091493,1685.410096
1444.369887,8438.347739,-5921.647536,919.314598
1444.370216,6217.729913,-5847.626942,-919.314598
1444.370545,5181.441594,-8586.388927,-919.314598
1444.370874,4589.276840,-11621.233289,-383.047749
1444.371203,3256.906145,-13101.645173,-383.047749
1444.371533,2516.700203,-11473.192101,-306.438199
1444.371862,4663.297435,-10510.924376,459.657299
1444.372191,6365.771101,-8438.347739,1608.800546
1444.372520,7328.038826,-5329.482782,2604.724693
1444.372849,8660.409521,-4219.173869,2681.334243
1444.373178,9326.594869,-1184.329507,1608.800546
1444.373508,8290.306550,0.000000,1608.800546
1444.373837,9178.553681,-1850.514855,1072.533697
1444.374166,10140.821405,-2664.741391,2145.067394
1444.374495,10066.800811,-5181.441594,1302.362347
1444.374824,8364.327145,-7031.956449,-612.876398
1444.375153,5995.668130,-8586.388927,0.000000
1444.375483,5107.421000,-11843.295072,-383.047749
1444.375812,3182.885551,-13619.789333,-459.657299
1444.376141,1998.556043,-10955.047942,-1302.362347
1444.376470,2960.823768,-9178.553681,-1378.971896
1444.376799,5477.523971,-8882.471304,612.876398
1444.377128,7846.182985,-6809.894666,3140.991542
1444.377458,9474.636058,-4219.173869,3677.258390
1444.377787,10066.800811,-1998.556043,2834.553343
1444.378116,9622.677246,-444.123565,2145.067394
1444.378445,9548.656652,-1480.411884,1838.629195
1444.378774,10510.924376,-3034.844362,2451.505594
1444.379104,9252.574275,-3034.844362,1072.533697
1444.379433,6513.812290,-5181.441594,-995.924147
1444.379762,5551.544565,-7105.977043,-1378.971896
1444.380091,5921.647536,-10881.027347,0.000000
1444.380420,4737.318029,-13915.871710,383.047749
1444.380749,2812.782580,-13027.624579,612.876398
1444.381079,2738.761985,-11325.150913,0.000000
1444.381408,4811.338623,-9548.656652,0.000000
1444.381737,6661.853478,-6291.750507,1838.629195
1444.382066,8068.244768,-4811.338623,2451.505594
1444.382395,9474.636058,-2516.700203,2911.162892
1444.382724,9474.636058,-74.020594,2221.676944
1444.383054,9252.574275,-1258.350101,1762.019645
1444.383383,10362.883188,-1036.288319,2528.115143
1444.383712,10732.986159,-3034.844362,1225.752797
1444.384041,8956.491898,-5329.482782,919.314598
1444.384370,6883.915261,-6883.915261,383.047749
1444.384699,6439.791695,-9844.739029,0.000000
1444.385029,5625.565159,-11473.192101,76.609550
1444.385358,3627.009116,-12879.583391,153.219100
1444.385687,3108.864956,-10955.047942,-842.705048
1444.386016,3627.009116,-9770.718434,-612.876398
1444.386345,5033.400406,-8512.368333,1455.581446
1444.386675,7105.977043,-5847.626942,2451.505594
1444.387004,9400.615463,-3997.112087,3677.258390
1444.387333,8882.471304,-2294.638420,3294.210641
1444.387662,8142.265362,-1036.288319,2298.286494
1444.387991,9104.533087,-888.247130,1455.581446
1444.388320,9992.780217,-1480.411884,1838.629195
1444.388650,9918.759623,-4145.153275,1149.143247
1444.388979,8734.430116,-5773.606348,0.000000
1444.389308,6809.894666,-8068.244768,-229.828649
1444.389637,5403.503377,-12731.542202,0.000000
1444.389966,4515.256246,-13767.830521,612.876398
1444.390295,2960.823768,-12657.521608,-306.438199
1444.390625,3330.926739,-10362.883188,-612.876398
1444.390954,4959.379811,-9030.512492,229.828649
1444.391283,7105.977043,-7179.997637,1378.971896
1444.391612,7920.203579,-5477.523971,2911.162892
1444.391941,8660.409521,-2146.597232,2681.334243
1444.392270,9474.636058,-592.164754,2221.676944
1444.392600,9844.739029,-592.164754,1838.629195
1444.392929,10436.903782,-1480.411884,1762.019645
1444.393258,10510.924376,-4071.132681,2145.067394
1444.393587,9104.533087,-4219.173869,153.219100
1444.393916,6069.688724,-7254.018232,-995.924147
1444.394246,4959.379811,-11547.212695,0.000000
1444.394575,4367.215058,-13693.809927,842.705048
1444.394904,3034.844362,-14359.995275,0.000000
1444.395233,2664.741391,-12139.377449,459.657299
1444.395562,3627.009116,-10362.883188,689.485948
1444.395891,5181.441594,-7550.100608,1455.581446
1444.396221,5995.668130,-4293.194464,1991.848295
1444.396550,6957.935855,-2664.741391,2068.457845
1444.396879,8956.491898,-1628.453072,1838.629195
1444.397208,10288.862594,-518.144159,3370.820191
1444.397537,11547.212695,-592.164754,2451.505594
1444.397866,11399.171507,-1110.308913,1608.800546
1444.398196,8882.471304,-2960.823768,0.000000
1444.398525,7179.997637,-5847.626942,-995.924147
1444.398854,6365.771101,-9252.574275,76.609550
1444.399183,5773.606348,-13027.624579,612.876398
1444.399512,3849.070898,-14211.954086,536.266849
1444.399842,3849.070898,-11917.315666,689.485948
1444.400171,3701.029710,-11399.171507,689.485948
1444.400500,4737.318029,-7994.224174,1378.971896
1444.400829,5921.647536,-5477.523971,919.314598
1444.401158,7698.141797,-3849.070898,2451.505594
1444.401487,8586.388927,-1332.370696,1149.143247
1444.401817,8808.450710,-1480.411884,2221.676944
1444.402146,9992.780217,-592.164754,2298.286494
1444.402475,11251.130318,-814.226536,1378.971896
1444.402804,10288.862594,-3923.091493,1302.362347
1444.403133,8290.306550,-5699.585753,536.266849
1444.403462,7105.977043,-9622.677246,-306.438199
1444.403792,5699.585753,-12287.418637,0.000000
1444.404121,4367.215058,-13767.830521,0.000000
1444.404450,3478.967927,-14137.933492,0.000000
1444.404779,3849.070898,-11547.212695,229.828649
1444.405108,3997.112087,-10288.862594,766.095498
1444.405437,4071.132681,-7105.977043,919.314598
1444.405767,6217.729913,-4367.215058,1608.800546
1444.406096,8290.306550,-4219.173869,2757.943793
1444.406425,9252.574275,-2294.638420,2834.553343
1444.406754,9622.677246,-666.185348,3064.381992
1444.407083,10807.006753,0.000000,2068.457845
1444.407413,11103.089130,148.041188,1685.410096
1444.407742,9030.512492,-2220.617826,536.266849
1444.408071,7402.059420,-5699.585753,689.485948
1444.408400,5847.626942,-9622.677246,0.000000
1444.408729,3701.029710,-13693.809927,229.828649
1444.409058,3108.864956,-13323.706956,0.000000
1444.409388,4219.173869,-13027.624579,1072.533697
1444.409717,5699.585753,-12065.356855,2298.286494
1444.410046,4737.318029,-8956.491898,1149.143247
1444.410375,4959.379811,-5847.626942,919.314598
1444.410704,7179.997637,-3552.988522,995.924147
1444.411033,9252.574275,-2220.617826,1225.752797
1444.411363,8882.471304,-962.267725,2221.676944
1444.411692,9030.512492,-666.185348,1762.019645
1444.412021,10881.027347,-592.164754,1072.533697
1444.412350,10436.903782,-2664.741391,1149.143247
1444.412679,8956.491898,-5255.462188,766.095498
1444.413008,7476.080014,-8882.471304,842.705048
1444.413338,5329.482782,-11547.212695,-306.438199
1444.413667,2886.803174,-11843.295072,-995.924147
1444.413996,3849.070898,-12139.377449,153.219100
1444.414325,5921.647536,-11843.295072,1225.752797
1444.414654,6291.750507,-9400.615463,2145.067394
1444.414984,5921.647536,-6143.709319,1532.190996
1444.415313,6661.853478,-4367.215058,1838.629195
1444.415642,8216.285956,-4145.153275,2604.724693
1444.415971,8882.471304,-2368.659014,2374.896044
1444.416300,8586.388927,-1628.453072,1532.190996
1444.416629,9326.594869,-296.082377,229.828649
1444.416959,9030.512492,-2368.659014,229.828649
1444.417288,7920.203579,-4589.276840,0.000000
1444.417617,7105.977043,-7254.018232,0.000000
1444.417946,5773.606348,-11843.295072,0.000000
1444.418275,3997.112087,-12953.603985,153.219100
1444.418604,3997.112087,-12953.603985,536.266849
1444.418934,5773.606348,-11251.130318,536.266849
1444.419263,6513.812290,-9474.636058,1915.238745
1444.419592,7105.977043,-8068.244768,2068.457845
1444.419921,7550.100608,-4293.194464,1915.238745
1444.420250,7994.224174,-2516.700203,1608.800546
1444.420579,7624.121203,-1998.556043,1225.752797
1444.420909,8290.306550,-814.226536,1762.019645
1444.421238,8808.450710,-1554.432478,1072.533697
1444.421567,9696.697840,-2294.638420,536.266849
1444.421896,9030.512492,-4367.215058,919.314598
1444.422225,8364.327145,-6587.832884,1072.533697
1444.422555,7105.977043,-9622.677246,459.657299
1444.422884,4145.153275,-13101.645173,-306.438199
1444.423213,2516.700203,-11991.336260,-842.705048
1444.423542,3552.988522,-11399.171507,0.000000
1444.423871,5551.544565,-9992.780217,1302.362347
1444.424200,6439.791695,-7550.100608,2298.286494
1444.424530,7550.100608,-6735.874072,2834.553343
1444.424859,8512.368333,-3627.009116,2451.505594
1444.425188,7328.038826,-2738.761985,1378.971896
1444.425517,7031.956449,-2516.700203,1225.752797
1444.425846,8068.244768,-1184.329507,689.485948
1444.426175,9474.636058,-2368.659014,-229.828649
1444.426505,8808.450710,-3923.091493,229.828649
1444.426834,7624.121203,-6217.729913,153.219100
1444.427163,6957.935855,-9844.739029,306.438199
1444.427492,5551.544565,-11769.274478,0.000000
1444.427821,4145.153275,-12583.501014,383.047749
1444.428150,4737.318029,-11695.253884,306.438199
1444.428480,6291.750507,-10510.924376,1762.019645
1444.428809,6365.771101,-8438.347739,1991.848295
1444.429138,7698.141797,-5181.441594,2604.724693
1444.429467,7994.224174,-4219.173869,2681.334243
1444.429796,7920.203579,-2590.720797,2221.676944
1444.430126,6957.935855,-2960.823768,1762.019645
1444.430455,6957.935855,-2738.761985,1225.752797
1444.430784,8216.285956,-2146.597232,383.047749
1444.431113,8068.244768,-3849.070898,306.438199
1444.431442,7476.080014,-4811.338623,-689.485948
1444.431771,7031.956449,-8512.368333,0.000000
1444.432101,6143.709319,-11695.253884,919.314598
1444.432430,4515.256246,-12583.501014,383.047749
1444.432759,3997.112087,-11103.089130,842.705048
1444.433088,5773.606348,-9918.759623,1302.362347
1444.433417,6735.874072,-8882.471304,2145.067394
1444.433746,7328.038826,-5921.647536,2987.772442
1444.434076,8216.285956,-3404.947333,2451.505594
1444.434405,8586.388927,-2146.597232,1838.629195
1444.434734,7254.018232,-2812.782580,1762.019645
1444.435063,7254.018232,-3256.906145,1149.143247
1444.435392,8586.388927,-2960.823768,1455.581446
1444.435722,8660.409521,-3478.967927,306.438199
1444.436051,7772.162391,-4885.359217,0.000000
1444.436380,7328.038826,-7550.100608,612.876398
1444.436709,6735.874072,-9474.636058,612.876398
1444.437038,4219.173869,-11325.150913,-536.266849
1444.437367,2960.823768,-10732.986159,0.000000
1444.437697,5255.462188,-10140.821405,689.485948
1444.438026,7994.224174,-9622.677246,2221.676944
1444.438355,8290.306550,-7402.059420,3830.477490
1444.438684,7328.038826,-3997.112087,2145.067394
1444.439013,7698.141797,-2590.720797,1378.971896
1444.439342,7476.080014,-2368.659014,689.485948
1444.439672,7105.977043,-4145.153275,612.876398
1444.440001,9252.574275,-4811.338623,1225.752797
1444.440330,9548.656652,-4959.379811,1302.362347
1444.440659,7624.121203,-5255.462188,-229.828649
1444.440988,6513.812290,-7402.059420,0.000000
1444.441317,6513.812290,-9400.615463,229.828649
1444.441647,5033.400406,-9918.759623,-689.485948
1444.441976,2960.823768,-10436.903782,-995.924147
1444.442305,4515.256246,-8290.306550,0.000000
1444.442634,7476.080014,-8956.491898,1532.190996
1444.442963,8586.388927,-7624.121203,3830.477490
1444.443293,7698.141797,-5625.565159,3600.648841
1444.443622,7846.182985,-4441.235652,2757.943793
1444.443951,8142.265362,-2442.679609,1762.019645
1444.444280,7624.121203,-3627.009116,2374.896044
1444.444609,8734.430116,-4367.215058,536.266849
1444.444938,8882.471304,-4959.379811,919.314598
1444.445268,7105.977043,-5329.482782,-919.314598
1444.445597,5255.462188,-6957.935855,-1838.629195
1444.445926,4293.194464,-9252.574275,766.095498
1444.446255,4367.215058,-11325.150913,0.000000
1444.446584,4071.132681,-11177.109724,459.657299
1444.446914,4441.235652,-9326.594869,1072.533697
1444.447243,6587.832884,-8364.327145,1225.752797
1444.447572,8586.388927,-7105.977043,2528.115143
1444.447901,8660.409521,-4737.318029,2987.772442
1444.448230,8808.450710,-3478.967927,1455.581446
1444.448560,7920.203579,-3478.967927,1225.752797
1444.448889,7328.038826,-3627.009116,1378.971896
1444.449218,8142.265362,-4885.359217,919.314598
1444.449547,9326.594869,-5033.400406,1685.410096
1444.449876,8512.368333,-5551.544565,229.828649
1444.450205,6069.688724,-6809.894666,-459.657299
1444.450535,4811.338623,-8068.244768,-229.828649
1444.450864,4885.359217,-9400.615463,-1072.533697
1444.451193,4515.256246,-10436.903782,-306.438199
1444.451522,4367.215058,-8438.347739,229.828649
1444.451851,5921.647536,-7698.141797,919.314598
1444.452181,7698.141797,-7698.141797,2528.115143
1444.452510,7772.162391,-6291.750507,3600.648841
1444.452839,9400.615463,-5107.421000,3294.210641
1444.453168,9030.512492,-3552.988522,2604.724693
1444.453497,7624.121203,-3997.112087,1225.752797
1444.453827,7624.121203,-4367.215058,1149.143247
1444.454156,7772.162391,-4663.297435,383.047749
1444.454485,7920.203579,-5699.585753,76.609550
1444.454814,6069.688724,-6587.832884,0.000000
1444.455143,5403.503377,-8216.285956,0.000000
1444.455472,5181.441594,-9548.656652,-383.047749
1444.455802,4219.173869,-10436.903782,306.438199
1444.456131,4071.132681,-9992.780217,459.657299
1444.456460,5921.647536,-7179.997637,1302.362347
1444.456789,6957.935855,-6957.935855,2374.896044
1444.457118,8290.306550,-5773.606348,2681.334243
1444.457448,8956.491898,-4885.359217,3600.648841
1444.457777,9030.512492,-3627.009116,3140.991542
1444.458106,7994.224174,-2960.823768,1838.629195
1444.458435,7772.162391,-3775.050304,2451.505594
1444.458764,8586.388927,-3330.926739,1838.629195
1444.459094,8586.388927,-4737.318029,1302.362347
1444.459423,6957.935855,-6661.853478,0.000000
1444.459752,5255.462188,-7402.059420,0.000000
1444.460081,4293.194464,-9252.574275,-1149.143247
1444.460410,3478.967927,-10214.842000,-766.095498
1444.460740,3701.029710,-10584.944971,0.000000
1444.461069,5477.523971,-7846.182985,459.657299
1444.461398,6957.935855,-8216.285956,1072.533697
1444.461727,8364.327145,-7254.018232,3370.820191
1444.462056,9918.759623,-5625.565159,3677.258390
1444.462385,9844.739029,-4737.318029,3677.258390
1444.462715,8438.347739,-4145.153275,2374.896044
1444.463044,7179.997637,-4219.173869,1302.362347
1444.463373,7402.059420,-4145.153275,383.047749
1444.463702,8364.327145,-4515.256246,229.828649
1444.464031,7920.203579,-5995.668130,76.609550
1444.464361,5995.668130,-6809.894666,-1225.752797
1444.464690,4737.318029,-9622.677246,-306.438199
1444.465019,4663.297435,-10955.047942,459.657299
1444.465348,4219.173869,-10881.027347,153.219100
1444.465677,4441.235652,-8660.409521,306.438199
1444.466007,6143.709319,-7698.141797,995.924147
1444.466336,8216.285956,-6957.935855,1991.848295
1444.466665,9252.574275,-4515.256246,3140.991542
1444.466994,9400.615463,-4071.132681,3140.991542
1444.467323,9474.636058,-3256.906145,2681.334243
1444.467652,8068.244768,-3552.988522,1762.019645
1444.467982,7105.977043,-4811.338623,1532.190996
1444.468311,7846.182985,-4441.235652,612.876398
1444.468640,7105.977043,-6439.791695,-383.047749
1444.468969,5995.668130,-6439.791695,-1149.143247
1444.469298,4885.359217,-7994.224174,-1225.752797
1444.469628,4663.297435,-10214.842000,-689.485948
1444.469957,3923.091493,-10510.924376,-995.924147
1444.470286,4737.318029,-10214.842000,842.705048
1444.470615,6809.894666,-7031.956449,1302.362347
1444.470944,8142.265362,-6365.771101,1685.410096
1444.471274,8956.491898,-6513.812290,3830.477490
1444.471603,9104.533087,-2442.679609,2604.724693
1444.471932,9104.533087,-3182.885551,2068.457845
1444.472261,8364.327145,-3034.844362,2298.286494
1444.472590,7550.100608,-2886.803174,1302.362347
1444.472919,8808.450710,-4737.318029,995.924147
1444.473249,9104.533087,-5847.626942,1378.971896
1444.473578,6587.832884,-6883.915261,-612.876398
1444.473907,4811.338623,-7772.162391,-1991.848295
1444.474236,4219.173869,-10140.821405,-919.314598
1444.474565,4219.173869,-12213.398043,76.609550
1444.474895,4737.318029,-12139.377449,842.705048
1444.475224,5847.626942,-8438.347739,1302.362347
1444.475553,7105.977043,-5477.523971,1149.143247
1444.475882,7476.080014,-6217.729913,1838.629195
1444.476211,8586.388927,-3775.050304,3907.087040
1444.476541,9178.553681,-2516.700203,2604.724693
1444.476870,9326.594869,-2368.659014,1532.190996
1444.477199,8216.285956,-3108.864956,2145.067394
1444.477528,9030.512492,-5255.462188,2298.286494
1444.477857,9326.594869,-4811.338623,1532.190996
1444.478186,6735.874072,-6143.709319,-612.876398
1444.478516,4811.338623,-7105.977043,-1685.410096
1444.478845,4737.318029,-9918.759623,-1149.143247
1444.479174,4515.256246,-11621.233289,-919.314598
1444.479503,4145.153275,-11177.109724,383.047749
