#time,accel_x,accel_y,accel_z
1464.713932,7402.059420,-5921.647536,842.705048
1464.714262,7402.059420,-6365.771101,842.705048
1464.714592,7328.038826,-6513.812290,1072.533697
1464.714922,7031.956449,-6587.832884,1149.143247
1464.715252,7179.997637,-6661.853478,842.705048
1464.715582,7105.977043,-5995.668130,1225.752797
1464.715912,7105.977043,-6365.771101,1072.533697
1464.716242,7105.977043,-6143.709319,1302.362347
1464.716572,6883.915261,-6587.832884,1532.190996
1464.716902,7550.100608,-6513.812290,842.705048
1464.717233,7254.018232,-6069.688724,1225.752797
1464.717563,7031.956449,-6291.750507,689.485948
1464.717893,6735.874072,-6661.853478,766.095498
1464.718223,6513.812290,-6661.853478,766.095498
1464.718553,7105.977043,-6883.915261,306.438199
1464.718883,7031.956449,-6587.832884,919.314598
1464.719213,6809.894666,-6661.853478,1302.362347
1464.719543,6957.935855,-6809.894666,995.924147
1464.719873,7031.956449,-6735.874072,842.705048
1464.720203,6661.853478,-6587.832884,1225.752797
1464.720533,6883.915261,-6883.915261,766.095498
1464.720863,7105.977043,-6957.935855,919.314598
1464.721193,7105.977043,-6365.771101,1225.752797
1464.721523,7328.038826,-6957.935855,919.314598
1464.721853,7105.977043,-6513.812290,1225.752797
1464.722183,7031.956449,-6291.750507,536.266849
1464.722513,6735.874072,-6661.853478,612.876398
1464.722844,6809.894666,-6439.791695,995.924147
1464.723174,6735.874072,-5773.606348,1072.533697
1464.723504,7031.956449,-6513.812290,995.924147
1464.723834,7105.977043,-6439.791695,1455.581446
1464.724164,7105.977043,-6365.771101,1225.752797
1464.724494,7254.018232,-6291.750507,919.314598
1464.724824,6513.812290,-6513.812290,1225.752797
1464.725154,6587.832884,-6587.832884,995.924147
1464.725484,6661.853478,-6957.935855,766.095498
1464.725814,6587.832884,-7031.956449,995.924147
1464.726144,7031.956449,-6735.874072,1302.362347
1464.726474,6661.853478,-6883.915261,766.095498
1464.726804,6587.832884,-6587.832884,1149.143247
1464.727134,6513.812290,-6809.894666,842.705048
1464.727464,6439.791695,-6661.853478,1149.143247
1464.727794,6513.812290,-6587.832884,1149.143247
1464.728124,7031.956449,-6661.853478,842.705048
1464.728455,7105.977043,-6513.812290,1455.581446
1464.728785,7105.977043,-6439.791695,995.924147
1464.729115,7328.038826,-6513.812290,919.314598
1464.729445,7476.080014,-6661.853478,919.314598
1464.729775,7105.977043,-6661.853478,612.876398
1464.730105,7105.977043,-6439.791695,1072.533697
1464.730435,7105.977043,-6217.729913,1072.533697
1464.730765,7846.182985,-6365.771101,689.485948
1464.731095,7328.038826,-6143.709319,1072.533697
1464.731425,7105.977043,-6365.771101,1302.362347
1464.731755,7105.977043,-6291.750507,995.924147
1464.732085,6957.935855,-6069.688724,1302.362347
1464.732415,6883.915261,-6957.935855,612.876398
1464.732745,6735.874072,-6661.853478,766.095498
1464.733075,6957.935855,-6957.935855,1225.752797
1464.733405,6957.935855,-7105.977043,995.924147
1464.733736,7105.977043,-6439.791695,536.266849
1464.734066,6809.894666,-7031.956449,1149.143247
1464.734396,6735.874072,-6883.915261,919.314598
1464.734726,6883.915261,-7031.956449,919.314598
1464.735056,6735.874072,-6809.894666,1455.581446
1464.735386,6735.874072,-7031.956449,1149.143247
1464.735716,7179.997637,-6513.812290,995.924147
1464.736046,7179.997637,-6365.771101,1225.752797
1464.736376,6883.915261,-6587.832884,919.314598
1464.736706,7772.162391,-6217.729913,1149.143247
1464.737036,7105.977043,-6587.832884,919.314598
1464.737366,7105.977043,-6587.832884,842.705048
1464.737696,7105.977043,-6365.771101,1225.752797
1464.738026,7254.018232,-6513.812290,1225.752797
1464.738356,7254.018232,-6513.812290,1608.800546
1464.738686,6809.894666,-6365.771101,1225.752797
1464.739016,7031.956449,-6439.791695,1378.971896
1464.739347,6735.874072,-6587.832884,1072.533697
1464.739677,6365.771101,-5995.668130,1225.752797
1464.740007,6291.750507,-6587.832884,1302.362347
1464.740337,6809.894666,-6883.915261,1149.143247
1464.740667,6809.894666,-6735.874072,766.095498
1464.740997,6809.894666,-6883.915261,1225.752797
1464.741327,7105.977043,-6587.832884,919.314598
1464.741657,6957.935855,-6587.832884,1378.971896
1464.741987,6883.915261,-7105.977043,1302.362347
1464.742317,6735.874072,-6661.853478,995.924147
1464.742647,6809.894666,-6513.812290,1302.362347
1464.742977,7031.956449,-6883.915261,612.876398
1464.743307,7031.956449,-6661.853478,1302.362347
1464.743637,6809.894666,-6513.812290,842.705048
1464.743967,7031.956449,-6661.853478,1225.752797
1464.744297,6957.935855,-6587.832884,1455.581446
1464.744627,7105.977043,-6809.894666,842.705048
1464.744958,7105.977043,-6291.750507,995.924147
1464.745288,7105.977043,-6217.729913,995.924147
1464.745618,7402.059420,-6587.832884,689.485948
1464.745948,7105.977043,-6217.729913,1685.410096
1464.746278,6809.894666,-6143.709319,1225.752797
1464.746608,7179.997637,-6365.771101,1149.143247
1464.746938,6957.935855,-6513.812290,995.924147
1464.747268,7105.977043,-6513.812290,689.485948
1464.747598,7031.956449,-6661.853478,995.924147
1464.747928,6661.853478,-6883.915261,995.924147
1464.748258,6809.894666,-6513.812290,919.314598
1464.748588,6957.935855,-6439.791695,842.705048
1464.748918,6735.874072,-6291.750507,766.095498
1464.749248,6661.853478,-6587.832884,766.095498
1464.749578,6735.874072,-6883.915261,995.924147
1464.749908,6957.935855,-6513.812290,995.924147
1464.750239,6883.915261,-6439.791695,1225.752797
1464.750569,7328.038826,-6661.853478,1455.581446
1464.750899,7179.997637,-6439.791695,1225.752797
1464.751229,7402.059420,-6587.832884,1072.533697
1464.751559,7254.018232,-6365.771101,1302.362347
1464.751889,6957.935855,-6735.874072,1302.362347
1464.752219,7105.977043,-6513.812290,995.924147
1464.752549,7031.956449,-6365.771101,1225.752797
1464.752879,7179.997637,-6661.853478,995.924147
1464.753209,7105.977043,-5921.647536,1149.143247
1464.753539,6365.771101,-6439.791695,1225.752797
1464.753869,7031.956449,-6439.791695,1072.533697
1464.754199,6883.915261,-6587.832884,1149.143247
1464.754529,6735.874072,-6439.791695,1072.533697
1464.754859,6809.894666,-6587.832884,306.438199
1464.755189,6809.894666,-6809.894666,1225.752797
1464.755519,6661.853478,-7105.977043,1302.362347
1464.755850,6809.894666,-6513.812290,919.314598
1464.756180,6735.874072,-6883.915261,1072.533697
1464.756510,7031.956449,-6883.915261,1149.143247
1464.756840,6809.894666,-6957.935855,766.095498
1464.757170,6439.791695,-6883.915261,919.314598
1464.757500,6513.812290,-7179.997637,689.485948
1464.757830,6809.894666,-6587.832884,1302.362347
1464.758160,7105.977043,-6217.729913,1149.143247
1464.758490,7402.059420,-6735.874072,1302.362347
1464.758820,7402.059420,-6439.791695,1072.533697
1464.759150,7105.977043,-6661.853478,919.314598
1464.759480,7105.977043,-6365.771101,306.438199
1464.759810,7031.956449,-6291.750507,1149.143247
1464.760140,7105.977043,-6291.750507,1149.143247
1464.760470,7179.997637,-6365.771101,842.705048
1464.760800,7179.997637,-5921.647536,1532.190996
1464.761131,7328.038826,-6291.750507,1225.752797
1464.761461,7031.956449,-6217.729913,1149.143247
1464.761791,6809.894666,-6291.750507,689.485948
1464.762121,6735.874072,-6513.812290,919.314598
1464.762451,6661.853478,-6735.874072,2145.067394
1464.762781,7031.956449,-6513.812290,1455.581446
1464.763111,6883.915261,-6883.915261,1072.533697
1464.763441,6883.915261,-6365.771101,995.924147
1464.763771,6809.894666,-6513.812290,842.705048
1464.764101,6883.915261,-7105.977043,919.314598
1464.764431,6661.853478,-6735.874072,1225.752797
1464.764761,6957.935855,-6883.915261,1149.143247
1464.765091,7105.977043,-6883.915261,919.314598
1464.765421,7105.977043,-6883.915261,1915.238745
1464.765751,6883.915261,-6291.750507,919.314598
1464.766081,6883.915261,-6439.791695,1149.143247
1464.766411,6957.935855,-5995.668130,1149.143247
1464.766742,6957.935855,-6513.812290,919.314598
1464.767072,7105.977043,-6069.688724,689.485948
1464.767402,7105.977043,-5995.668130,919.314598
1464.767732,7328.038826,-6513.812290,919.314598
1464.768062,7179.997637,-6365.771101,1149.143247
1464.768392,7105.977043,-6513.812290,689.485948
1464.768722,7105.977043,-6439.791695,1302.362347
1464.769052,6513.812290,-6587.832884,1225.752797
1464.769382,6735.874072,-6513.812290,766.095498
1464.769712,6661.853478,-6439.791695,153.219100
1464.770042,7031.956449,-7105.977043,1149.143247
1464.770372,6809.894666,-6883.915261,995.924147
1464.770702,6957.935855,-7105.977043,919.314598
1464.771032,6809.894666,-6809.894666,1225.752797
1464.771362,6809.894666,-6735.874072,842.705048
1464.771692,7105.977043,-6957.935855,842.705048
1464.772022,6957.935855,-6883.915261,842.705048
1464.772353,7105.977043,-6883.915261,459.657299
1464.772683,7105.977043,-6883.915261,919.314598
1464.773013,7402.059420,-7105.977043,1685.410096
1464.773343,7550.100608,-6735.874072,919.314598
1464.773673,7328.038826,-6883.915261,1072.533697
1464.774003,7105.977043,-6587.832884,842.705048
1464.774333,7105.977043,-6661.853478,842.705048
1464.774663,7254.018232,-5625.565159,919.314598
1464.774993,6735.874072,-5995.668130,919.314598
1464.775323,7179.997637,-6217.729913,1225.752797
1464.775653,7031.956449,-6439.791695,1225.752797
1464.775983,6957.935855,-6439.791695,1608.800546
1464.776313,7254.018232,-6513.812290,1302.362347
1464.776643,7031.956449,-6439.791695,1072.533697
1464.776973,6809.894666,-6439.791695,919.314598
1464.777303,6883.915261,-6883.915261,1149.143247
1464.777632,7105.977043,-6439.791695,995.924147
1464.777962,6809.894666,-6513.812290,766.095498
1464.778291,6735.874072,-6883.915261,1225.752797
1464.778621,6957.935855,-6735.874072,1378.971896
1464.778950,7031.956449,-6513.812290,919.314598
1464.779280,6661.853478,-6883.915261,1455.581446
1464.779609,6587.832884,-6735.874072,842.705048
1464.779939,7031.956449,-6661.853478,1149.143247
1464.780268,7031.956449,-6587.832884,1072.533697
1464.780597,7402.059420,-6957.935855,689.485948
1464.780927,7254.018232,-6365.771101,995.924147
1464.781256,7105.977043,-6735.874072,1149.143247
1464.781586,7031.956449,-6809.894666,919.314598
1464.781915,7105.977043,-6365.771101,689.485948
1464.782245,7328.038826,-6439.791695,689.485948
1464.782574,7179.997637,-6513.812290,995.924147
1464.782904,7179.997637,-6439.791695,1149.143247
1464.783233,6957.935855,-6439.791695,1225.752797
1464.783563,7031.956449,-6735.874072,1302.362347
1464.783892,6513.812290,-6217.729913,1072.533697
1464.784222,6513.812290,-6809.894666,842.705048
1464.784551,6439.791695,-6735.874072,842.705048
1464.784880,6735.874072,-7031.956449,1072.533697
1464.785210,6957.935855,-7031.956449,1455.581446
1464.785539,6957.935855,-6957.935855,1149.143247
1464.785869,6661.853478,-6587.832884,1685.410096
1464.786198,6661.853478,-7105.977043,1149.143247
1464.786528,6809.894666,-6883.915261,919.314598
1464.786857,7254.018232,-6439.791695,1378.971896
1464.787187,6957.935855,-6809.894666,995.924147
1464.787516,7328.038826,-6291.750507,1149.143247
1464.787846,6809.894666,-6513.812290,1072.533697
1464.788175,7105.977043,-6439.791695,459.657299
1464.788505,7105.977043,-6143.709319,612.876398
1464.788834,7105.977043,-6439.791695,1072.533697
1464.789163,7031.956449,-6439.791695,1149.143247
1464.789493,7179.997637,-6661.853478,689.485948
1464.789822,7476.080014,-6069.688724,919.314598
1464.790152,7179.997637,-6439.791695,1225.752797
1464.790481,7105.977043,-6439.791695,1378.971896
1464.790811,7179.997637,-6143.709319,1072.533697
1464.791140,7105.977043,-6069.688724,306.438199
1464.791470,6809.894666,-6217.729913,1149.143247
1464.791799,6587.832884,-6217.729913,919.314598
1464.792129,6883.915261,-6809.894666,1072.533697
1464.792458,6883.915261,-6365.771101,1149.143247
1464.792787,7105.977043,-6735.874072,1149.143247
1464.793117,6661.853478,-6735.874072,1225.752797
1464.793446,6735.874072,-7031.956449,1072.533697
1464.793776,6957.935855,-7328.038826,995.924147
1464.794105,6661.853478,-6809.894666,689.485948
1464.794435,7105.977043,-6661.853478,919.314598
1464.794764,7179.997637,-6957.935855,1225.752797
1464.795094,7031.956449,-6217.729913,1378.971896
1464.795423,6957.935855,-6513.812290,766.095498
1464.795753,7328.038826,-6143.709319,1302.362347
1464.796082,6957.935855,-6587.832884,689.485948
1464.796412,6809.894666,-6439.791695,919.314598
1464.796741,6883.915261,-6217.729913,842.705048
1464.797070,7105.977043,-6365.771101,1072.533697
1464.797400,6661.853478,-5847.626942,1302.362347
1464.797729,7031.956449,-6661.853478,1838.629195
1464.798059,7179.997637,-6809.894666,995.924147
1464.798388,6957.935855,-6365.771101,1225.752797
1464.798718,6661.853478,-6661.853478,1455.581446
1464.799047,6587.832884,-6883.915261,612.876398
1464.799377,6365.771101,-6957.935855,842.705048
1464.799706,6513.812290,-6883.915261,1149.143247
1464.800036,6957.935855,-6587.832884,766.095498
1464.800365,7179.997637,-6439.791695,1149.143247
1464.800695,6661.853478,-6883.915261,1302.362347
1464.801024,6735.874072,-6957.935855,536.266849
1464.801353,6587.832884,-6809.894666,766.095498
1464.801683,6069.688724,-6661.853478,1072.533697
1464.802012,7105.977043,-6735.874072,842.705048
1464.802342,7402.059420,-6439.791695,919.314598
1464.802671,7402.059420,-6809.894666,1072.533697
1464.803001,7624.121203,-6291.750507,1072.533697
1464.803330,7179.997637,-6735.874072,689.485948
1464.803660,7105.977043,-6809.894666,919.314598
1464.803989,6809.894666,-6291.750507,919.314598
1464.804319,7105.977043,-6439.791695,995.924147
1464.804648,7254.018232,-6069.688724,689.485948
1464.804978,7550.100608,-5995.668130,689.485948
1464.805307,7105.977043,-6217.729913,1149.143247
1464.805636,7624.121203,-6439.791695,1455.581446
1464.805966,6883.915261,-6143.709319,1149.143247
1464.806295,6735.874072,-6217.729913,1149.143247
1464.806625,6809.894666,-6735.874072,1072.533697
1464.806954,7105.977043,-6735.874072,1149.143247
1464.807284,7031.956449,-6661.853478,919.314598
1464.807613,6957.935855,-6587.832884,842.705048
1464.807943,6883.915261,-6365.771101,1608.800546
1464.808272,6883.915261,-6809.894666,919.314598
1464.808602,6513.812290,-6809.894666,842.705048
1464.808931,6069.688724,-6365.771101,919.314598
1464.809260,6513.812290,-6809.894666,995.924147
1464.809590,7105.977043,-6291.750507,1225.752797
1464.809919,7402.059420,-6365.771101,842.705048
1464.810249,7254.018232,-6809.894666,1302.362347
1464.810578,7179.997637,-6291.750507,919.314598
1464.810908,7105.977043,-6735.874072,536.266849
1464.811237,6883.915261,-6587.832884,1072.533697
1464.811567,7105.977043,-6217.729913,1072.533697
1464.811896,7105.977043,-6587.832884,995.924147
1464.812226,7105.977043,-6809.894666,1302.362347
1464.812555,7179.997637,-6513.812290,1149.143247
1464.812885,7105.977043,-6143.709319,995.924147
1464.813214,6735.874072,-6661.853478,1378.971896
1464.813543,6513.812290,-6439.791695,842.705048
1464.813873,6143.709319,-6217.729913,1225.752797
1464.814202,6587.832884,-7105.977043,1072.533697
1464.814532,6809.894666,-6661.853478,1302.362347
1464.814861,6513.812290,-6957.935855,919.314598
1464.815191,6661.853478,-7105.977043,1149.143247
1464.815520,7031.956449,-6661.853478,689.485948
1464.815850,6513.812290,-7698.141797,919.314598
1464.816179,6439.791695,-6809.894666,766.095498
1464.816509,6513.812290,-6957.935855,689.485948
1464.816838,7105.977043,-6661.853478,1378.971896
1464.817168,7105.977043,-6365.771101,1608.800546
1464.817497,7254.018232,-6291.750507,842.705048
1464.817826,7328.038826,-6143.709319,0.000000
1464.818156,7105.977043,-6587.832884,1225.752797
1464.818485,7179.997637,-6069.688724,919.314598
1464.818815,7105.977043,-6143.709319,689.485948
1464.819144,7254.018232,-6513.812290,1072.533697
1464.819474,7105.977043,-6291.750507,919.314598
1464.819803,6513.812290,-6439.791695,1149.143247
1464.820133,7328.038826,-6513.812290,1149.143247
1464.820462,7105.977043,-6217.729913,1072.533697
1464.820792,6957.935855,-6143.709319,919.314598
1464.821121,6809.894666,-6291.750507,1072.533697
1464.821451,7105.977043,-6587.832884,842.705048
1464.821780,7031.956449,-6809.894666,1149.143247
1464.822109,7031.956449,-6365.771101,1072.533697
1464.822439,7031.956449,-6883.915261,1302.362347
1464.822768,6735.874072,-6661.853478,1149.143247
1464.823098,6883.915261,-6883.915261,536.266849
1464.823427,6735.874072,-6883.915261,842.705048
1464.823757,6587.832884,-7105.977043,1225.752797
1464.824086,6957.935855,-6883.915261,612.876398
1464.824416,6661.853478,-6143.709319,1378.971896
1464.824745,7254.018232,-6661.853478,689.485948
1464.825075,7179.997637,-6809.894666,1072.533697
1464.825404,7179.997637,-6069.688724,1149.143247
1464.825734,6883.915261,-6735.874072,1149.143247
1464.826063,6957.935855,-6069.688724,1378.971896
1464.826392,7254.018232,-6291.750507,1225.752797
1464.826722,7105.977043,-6513.812290,1149.143247
1464.827051,7105.977043,-5847.626942,1149.143247
1464.827381,7179.997637,-5625.565159,1149.143247
1464.827710,7624.121203,-5403.503377,1762.019645
1464.828040,7920.203579,-5181.441594,1149.143247
1464.828369,7920.203579,-5477.523971,1455.581446
1464.828699,7550.100608,-6217.729913,995.924147
1464.829028,6365.771101,-6661.853478,919.314598
1464.829358,5921.647536,-7624.121203,0.000000
1464.829687,5995.668130,-7031.956449,229.828649
1464.830016,7105.977043,-6883.915261,1072.533697
1464.830346,7772.162391,-6587.832884,1302.362347
1464.830675,7920.203579,-6143.709319,1455.581446
1464.831005,8290.306550,-4515.256246,1378.971896
1464.831334,7846.182985,-4737.318029,919.314598
1464.831664,7920.203579,-5107.421000,1378.971896
1464.831993,8512.368333,-4145.153275,1762.019645
1464.832323,8956.491898,-4219.173869,1378.971896
1464.832652,8956.491898,-4589.276840,1149.143247
1464.832982,8290.306550,-5107.421000,459.657299
1464.833311,8068.244768,-5625.565159,306.438199
1464.833641,8512.368333,-4515.256246,0.000000
1464.833970,8438.347739,-6439.791695,995.924147
1464.834299,8512.368333,-5773.606348,1149.143247
1464.834629,8512.368333,-5699.585753,842.705048
1464.834958,8290.306550,-6217.729913,1149.143247
1464.835288,8734.430116,-4959.379811,995.924147
1464.835617,8290.306550,-4663.297435,766.095498
1464.835947,8512.368333,-4293.194464,1072.533697
1464.836276,8882.471304,-4219.173869,919.314598
1464.836606,9030.512492,-3182.885551,1532.190996
1464.836935,9474.636058,-2960.823768,1378.971896
1464.837265,9548.656652,-3478.967927,1838.629195
1464.837594,10140.821405,-2294.638420,1685.410096
1464.837924,9844.739029,-3478.967927,1455.581446
1464.838253,9474.636058,-3034.844362,2221.676944
1464.838582,9622.677246,-3330.926739,1455.581446
1464.838912,9918.759623,-4959.379811,1455.581446
1464.839241,9474.636058,-4071.132681,1532.190996
1464.839571,9030.512492,-5477.523971,1532.190996
1464.839900,8882.471304,-4589.276840,1072.533697
1464.840230,7846.182985,-4959.379811,612.876398
1464.840559,7550.100608,-5921.647536,919.314598
1464.840889,7550.100608,-5255.462188,459.657299
1464.841218,7550.100608,-5625.565159,995.924147
1464.841548,7772.162391,-5477.523971,153.219100
1464.841877,7254.018232,-5625.565159,459.657299
1464.842207,8216.285956,-5255.462188,306.438199
1464.842536,9696.697840,-4367.215058,766.095498
1464.842865,10288.862594,-3552.988522,995.924147
1464.843195,10584.944971,-3627.009116,1378.971896
1464.843524,10066.800811,-3997.112087,1532.190996
1464.843854,10140.821405,-3701.029710,766.095498
1464.844183,9326.594869,-3923.091493,842.705048
1464.844513,8808.450710,-3923.091493,1608.800546
1464.844842,8586.388927,-4959.379811,1149.143247
1464.845172,8142.265362,-4811.338623,919.314598
1464.845501,8216.285956,-4811.338623,1225.752797
1464.845831,8808.450710,-4737.318029,1455.581446
1464.846160,8586.388927,-4737.318029,1838.629195
1464.846489,8660.409521,-4367.215058,1838.629195
1464.846819,8808.450710,-3627.009116,1378.971896
1464.847148,9178.553681,-3552.988522,1225.752797
1464.847478,9178.553681,-4885.359217,1838.629195
1464.847807,9326.594869,-4145.153275,842.705048
1464.848137,9104.533087,-4515.256246,306.438199
1464.848466,9030.512492,-4293.194464,229.828649
1464.848796,9326.594869,-4071.132681,842.705048
1464.849125,8956.491898,-5255.462188,612.876398
1464.849455,8660.409521,-5181.441594,612.876398
1464.849784,8512.368333,-5995.668130,0.000000
1464.850114,8512.368333,-5625.565159,1072.533697
1464.850443,7846.182985,-5255.462188,919.314598
1464.850772,8290.306550,-6217.729913,2298.286494
1464.851102,9178.553681,-4737.318029,2374.896044
1464.851431,9474.636058,-4145.153275,2298.286494
1464.851761,9918.759623,-2664.741391,3140.991542
1464.852090,9770.718434,-2220.617826,1455.581446
1464.852420,10288.862594,-2294.638420,1072.533697
1464.852749,9844.739029,-1702.473667,153.219100
1464.853079,9400.615463,-2294.638420,153.219100
1464.853408,9548.656652,-2368.659014,0.000000
1464.853738,9844.739029,-4589.276840,153.219100
1464.854067,9696.697840,-5773.606348,536.266849
1464.854397,9030.512492,-7031.956449,459.657299
1464.854726,8142.265362,-7698.141797,1302.362347
1464.855055,7328.038826,-8512.368333,1072.533697
1464.855385,6809.894666,-8512.368333,459.657299
1464.855714,6587.832884,-7105.977043,306.438199
1464.856044,6365.771101,-6217.729913,306.438199
1464.856373,8364.327145,-4145.153275,1072.533697
1464.856703,9548.656652,-3404.947333,1991.848295
1464.857032,10436.903782,-2368.659014,2298.286494
1464.857362,10732.986159,-888.247130,1838.629195
1464.857691,10288.862594,-370.102971,1225.752797
1464.858021,10436.903782,814.226536,1072.533697
1464.858350,11547.212695,-592.164754,459.657299
1464.858680,12139.377449,-1776.494261,1608.800546
1464.859009,12435.459826,-2664.741391,1608.800546
1464.859338,11621.233289,-3997.112087,1608.800546
1464.859668,9918.759623,-5255.462188,1762.019645
1464.859997,7698.141797,-8068.244768,1378.971896
1464.860327,6365.771101,-8956.491898,1225.752797
1464.860656,4441.235652,-9030.512492,0.000000
1464.860986,3552.988522,-9030.512492,-612.876398
1464.861315,4071.132681,-8142.265362,-612.876398
1464.861645,6143.709319,-7328.038826,0.000000
1464.861974,8290.306550,-6069.688724,919.314598
1464.862304,9992.780217,-3552.988522,1762.019645
1464.862633,10658.965565,-2072.576638,1991.848295
1464.862962,11251.130318,-1110.308913,1685.410096
1464.863292,11103.089130,-370.102971,1455.581446
1464.863621,11325.150913,370.102971,229.828649
1464.863951,11399.171507,-666.185348,766.095498
1464.864280,12213.398043,-2368.659014,1608.800546
1464.864610,13323.706956,-3997.112087,3140.991542
1464.864939,12287.418637,-3775.050304,2757.943793
1464.865269,9918.759623,-3552.988522,1762.019645
1464.865598,7328.038826,-4145.153275,842.705048
1464.865928,6291.750507,-7105.977043,459.657299
1464.866257,5403.503377,-8068.244768,689.485948
1464.866587,4367.215058,-7994.224174,153.219100
1464.866916,4811.338623,-6883.915261,-1762.019645
1464.867245,5699.585753,-5033.400406,-995.924147
1464.867575,8512.368333,-4885.359217,306.438199
1464.867904,10807.006753,-3478.967927,995.924147
1464.868234,11917.315666,-3552.988522,1532.190996
1464.868563,11991.336260,-2738.761985,1762.019645
1464.868893,11029.068536,-2368.659014,1532.190996
1464.869222,10066.800811,-4145.153275,766.095498
1464.869552,8586.388927,-5181.441594,1072.533697
1464.869881,7328.038826,-6661.853478,1302.362347
1464.870211,7772.162391,-8364.327145,1225.752797
1464.870540,7994.224174,-6661.853478,2298.286494
1464.870870,8734.430116,-5551.544565,1762.019645
1464.871199,8734.430116,-2886.803174,689.485948
1464.871528,7994.224174,-2960.823768,0.000000
1464.871858,8512.368333,-2590.720797,536.266849
1464.872187,9030.512492,-1924.535449,536.266849
1464.872517,9474.636058,-1036.288319,766.095498
1464.872846,10362.883188,-740.205942,1149.143247
1464.873176,11399.171507,-3478.967927,1225.752797
1464.873505,11843.295072,-4145.153275,1838.629195
1464.873835,11177.109724,-6069.688724,2528.115143
1464.874164,10362.883188,-5921.647536,2374.896044
1464.874494,8734.430116,-4515.256246,919.314598
1464.874823,6957.935855,-5107.421000,-306.438199
1464.875153,6291.750507,-7105.977043,0.000000
1464.875482,7031.956449,-8142.265362,766.095498
1464.875811,6957.935855,-8068.244768,842.705048
1464.876141,6439.791695,-5551.544565,0.000000
1464.876470,6735.874072,-4885.359217,0.000000
1464.876800,7698.141797,-5329.482782,383.047749
1464.877129,8734.430116,-5847.626942,1762.019645
1464.877459,9770.718434,-5033.400406,1378.971896
1464.877788,9770.718434,-1628.453072,1225.752797
1464.878118,10807.006753,370.102971,612.876398
1464.878447,11695.253884,-444.123565,1455.581446
1464.878777,11251.130318,-2664.741391,842.705048
1464.879106,10362.883188,-4219.173869,1608.800546
1464.879435,10066.800811,-3552.988522,1225.752797
1464.879765,10140.821405,-3701.029710,1915.238745
1464.880094,9696.697840,-4885.359217,1762.019645
1464.880424,9178.553681,-5107.421000,1532.190996
1464.880753,8142.265362,-4145.153275,612.876398
1464.881082,7772.162391,-3997.112087,0.000000
1464.881412,8808.450710,-4885.359217,1685.410096
1464.881741,9770.718434,-4737.318029,2298.286494
1464.882071,7846.182985,-5329.482782,459.657299
1464.882400,5625.565159,-5625.565159,-919.314598
1464.882729,5255.462188,-6809.894666,-995.924147
1464.883059,7550.100608,-7846.182985,76.609550
1464.883388,9696.697840,-5921.647536,1225.752797
1464.883718,9992.780217,-3256.906145,766.095498
1464.884047,9548.656652,-4515.256246,76.609550
1464.884376,9252.574275,-6291.750507,1455.581446
1464.884706,9474.636058,-6143.709319,1608.800546
1464.885035,9548.656652,-4441.235652,1149.143247
1464.885365,9474.636058,-2516.700203,919.314598
1464.885694,10214.842000,-2886.803174,2528.115143
1464.886023,11547.212695,-2960.823768,2911.162892
1464.886353,11103.089130,-2442.679609,2451.505594
1464.886682,11103.089130,-740.205942,1608.800546
1464.887012,10214.842000,-1554.432478,1608.800546
1464.887341,8956.491898,-2368.659014,1149.143247
1464.887670,7920.203579,-4219.173869,1378.971896
1464.888000,7994.224174,-4589.276840,1225.752797
1464.888329,8660.409521,-3701.029710,995.924147
1464.888658,9326.594869,-5329.482782,1455.581446
1464.888988,9474.636058,-6365.771101,1915.238745
1464.889317,8808.450710,-7698.141797,842.705048
1464.889647,6587.832884,-8216.285956,-995.924147
1464.889976,4663.297435,-7994.224174,-995.924147
1464.890305,5033.400406,-8512.368333,-995.924147
1464.890635,6661.853478,-6291.750507,0.000000
1464.890964,7328.038826,-5403.503377,306.438199
1464.891294,8734.430116,-4885.359217,1762.019645
1464.891623,9696.697840,-4589.276840,1838.629195
1464.891952,8734.430116,-5107.421000,1225.752797
1464.892282,7328.038826,-4663.297435,1149.143247
1464.892611,8512.368333,-4663.297435,1149.143247
1464.892941,9400.615463,-4737.318029,1149.143247
1464.893270,8808.450710,-5033.400406,1838.629195
1464.893599,8956.491898,-5551.544565,2374.896044
1464.893929,10140.821405,-3775.050304,1072.533697
1464.894258,8586.388927,-4367.215058,153.219100
1464.894588,6735.874072,-5255.462188,612.876398
1464.894917,6513.812290,-4885.359217,0.000000
1464.895246,7550.100608,-5033.400406,153.219100
1464.895576,8142.265362,-4959.379811,995.924147
1464.895905,8586.388927,-4441.235652,1685.410096
1464.896235,8438.347739,-5403.503377,1149.143247
1464.896564,7550.100608,-6143.709319,306.438199
1464.896893,6735.874072,-7105.977043,459.657299
1464.897223,7550.100608,-6439.791695,536.266849
1464.897552,7772.162391,-6809.894666,612.876398
1464.897882,7624.121203,-7698.141797,1302.362347
1464.898211,7105.977043,-7772.162391,1072.533697
1464.898540,6513.812290,-8660.409521,0.000000
1464.898870,5403.503377,-8734.430116,0.000000
1464.899199,4885.359217,-8438.347739,766.095498
1464.899529,5847.626942,-7994.224174,76.609550
1464.899858,6513.812290,-6883.915261,-306.438199
1464.900187,6143.709319,-6291.750507,76.609550
1464.900517,6513.812290,-5403.503377,842.705048
1464.900846,8142.265362,-5477.523971,919.314598
1464.901176,7994.224174,-5625.565159,2298.286494
1464.901505,7550.100608,-6735.874072,2604.724693
1464.901834,8216.285956,-4441.235652,2298.286494
1464.902164,8734.430116,-2738.761985,1991.848295
1464.902493,8734.430116,-3923.091493,2145.067394
1464.902822,9326.594869,-4071.132681,2757.943793
1464.903152,8660.409521,-5995.668130,1991.848295
1464.903481,7402.059420,-5033.400406,1455.581446
1464.903811,6143.709319,-5255.462188,1149.143247
1464.904140,6587.832884,-5995.668130,383.047749
1464.904469,6513.812290,-6809.894666,766.095498
1464.904799,6291.750507,-7105.977043,2068.457845
1464.905128,6661.853478,-7476.080014,842.705048
1464.905458,6217.729913,-6735.874072,536.266849
1464.905787,5477.523971,-7179.997637,383.047749
1464.906116,6439.791695,-7179.997637,612.876398
1464.906446,7846.182985,-7254.018232,1455.581446
1464.906775,7476.080014,-7920.203579,689.485948
1464.907105,6513.812290,-8290.306550,1532.190996
1464.907434,5995.668130,-7920.203579,995.924147
1464.907763,5773.606348,-7105.977043,0.000000
1464.908093,5773.606348,-6957.935855,1072.533697
1464.908422,6957.935855,-6883.915261,1302.362347
1464.908752,7846.182985,-6957.935855,919.314598
1464.909081,6143.709319,-7698.141797,1378.971896
1464.909410,5329.482782,-7179.997637,1838.629195
1464.909740,4959.379811,-6735.874072,0.000000
1464.910069,5107.421000,-6883.915261,0.000000
1464.910399,6513.812290,-6587.832884,1532.190996
1464.910728,8808.450710,-5625.565159,2298.286494
1464.911057,9104.533087,-5403.503377,2681.334243
1464.911387,8068.244768,-6217.729913,2987.772442
1464.911716,7328.038826,-5033.400406,612.876398
1464.912046,6217.729913,-5033.400406,229.828649
1464.912375,5847.626942,-6883.915261,919.314598
1464.912704,7328.038826,-7328.038826,1378.971896
1464.913034,7772.162391,-5625.565159,1149.143247
1464.913363,7254.018232,-6809.894666,1149.143247
1464.913693,6735.874072,-6439.791695,919.314598
1464.914022,5551.544565,-7031.956449,-76.609550
1464.914351,4589.276840,-8290.306550,-459.657299
1464.914681,4885.359217,-7994.224174,919.314598
1464.915010,7402.059420,-5921.647536,842.705048
1464.915339,8290.306550,-5921.647536,1762.019645
1464.915669,8364.327145,-6735.874072,2757.943793
1464.915998,8216.285956,-6069.688724,1378.971896
1464.916328,7105.977043,-5255.462188,612.876398
1464.916657,6883.915261,-4959.379811,1302.362347
1464.916986,8586.388927,-4663.297435,2145.067394
1464.917316,9252.574275,-4737.318029,1378.971896
1464.917645,7624.121203,-6217.729913,1838.629195
1464.917975,6217.729913,-6883.915261,1149.143247
1464.918304,5329.482782,-7031.956449,76.609550
1464.918633,4811.338623,-8142.265362,459.657299
1464.918963,4885.359217,-8808.450710,919.314598
1464.919292,6365.771101,-7920.203579,536.266849
1464.919622,6735.874072,-7031.956449,0.000000
1464.919951,6069.688724,-7254.018232,1149.143247
1464.920280,7105.977043,-6735.874072,1378.971896
1464.920610,7179.997637,-6365.771101,229.828649
1464.920939,7105.977043,-6587.832884,612.876398
1464.921269,7846.182985,-5699.585753,2068.457845
1464.921598,9474.636058,-7105.977043,1532.190996
1464.921927,9326.594869,-5699.585753,1838.629195
1464.922257,7920.203579,-4959.379811,1685.410096
1464.922586,6957.935855,-6291.750507,536.266849
1464.922916,6143.709319,-5995.668130,-689.485948
1464.923245,4737.318029,-7624.121203,1225.752797
1464.923574,5847.626942,-8734.430116,459.657299
1464.923904,7179.997637,-6513.812290,306.438199
1464.924233,6439.791695,-7105.977043,1455.581446
1464.924563,6439.791695,-7031.956449,995.924147
1464.924892,6587.832884,-7031.956449,766.095498
1464.925221,6217.729913,-6217.729913,1532.190996
1464.925551,7624.121203,-5699.585753,1608.800546
1464.925880,9252.574275,-4219.173869,2374.896044
1464.926210,9030.512492,-3997.112087,1378.971896
1464.926539,8142.265362,-5921.647536,1685.410096
1464.926868,7476.080014,-6217.729913,1762.019645
1464.927198,6809.894666,-7179.997637,612.876398
1464.927527,6883.915261,-6957.935855,1915.238745
1464.927856,7254.018232,-7624.121203,1532.190996
1464.928186,7105.977043,-7402.059420,536.266849
1464.928515,5847.626942,-6513.812290,1072.533697
1464.928845,4885.359217,-7550.100608,76.609550
1464.929174,6069.688724,-5403.503377,-689.485948
1464.929503,5625.565159,-5699.585753,153.219100
1464.929833,7328.038826,-6587.832884,1685.410096
1464.930162,9696.697840,-5403.503377,2068.457845
1464.930492,9622.677246,-5995.668130,2451.505594
1464.930821,8660.409521,-5625.565159,2145.067394
1464.931150,7698.141797,-5699.585753,1608.800546
1464.931480,7105.977043,-6217.729913,459.657299
1464.931809,5625.565159,-7846.182985,689.485948
1464.932139,5921.647536,-9252.574275,1685.410096
1464.932468,7105.977043,-7105.977043,995.924147
1464.932797,5625.565159,-8290.306550,1149.143247
1464.933127,4811.338623,-8734.430116,842.705048
1464.933456,4663.297435,-7402.059420,-536.266849
1464.933786,4145.153275,-7179.997637,229.828649
1464.934115,4811.338623,-7105.977043,919.314598
1464.934444,7105.977043,-5773.606348,612.876398
1464.934774,8734.430116,-5181.441594,1532.190996
1464.935103,9252.574275,-5921.647536,2068.457845
1464.935433,8956.491898,-5921.647536,2068.457845
1464.935762,8068.244768,-6439.791695,1302.362347
1464.936091,7698.141797,-6439.791695,1915.238745
1464.936421,8142.265362,-6291.750507,1838.629195
1464.936750,7698.141797,-5995.668130,1225.752797
1464.937080,6143.709319,-7254.018232,842.705048
1464.937409,5181.441594,-8364.327145,995.924147
1464.937738,5551.544565,-7105.977043,459.657299
1464.938068,5329.482782,-5699.585753,612.876398
1464.938397,6291.750507,-5403.503377,1149.143247
1464.938727,8216.285956,-4441.235652,689.485948
1464.939056,9030.512492,-4811.338623,1302.362347
1464.939385,7920.203579,-5773.606348,2068.457845
1464.939715,6957.935855,-5477.523971,1378.971896
1464.940044,6883.915261,-5329.482782,0.000000
1464.940373,5995.668130,-7179.997637,919.314598
1464.940703,7550.100608,-8068.244768,2528.115143
1464.941032,8956.491898,-8808.450710,2374.896044
1464.941362,8586.388927,-7105.977043,2451.505594
1464.941691,6809.894666,-6957.935855,1378.971896
1464.942020,5847.626942,-6661.853478,153.219100
1464.942350,5033.400406,-6217.729913,0.000000
1464.942679,5403.503377,-6957.935855,153.219100
1464.943009,5847.626942,-6735.874072,536.266849
1464.943338,7179.997637,-6661.853478,1072.533697
1464.943667,7179.997637,-6809.894666,1762.019645
1464.943997,6513.812290,-6513.812290,995.924147
1464.944326,5995.668130,-6439.791695,-153.219100
1464.944656,6513.812290,-7550.100608,995.924147
1464.944985,7476.080014,-8068.244768,919.314598
1464.945314,7698.141797,-7105.977043,1302.362347
1464.945644,8364.327145,-6217.729913,2221.676944
1464.945973,7772.162391,-7476.080014,1072.533697
1464.946303,6291.750507,-6143.709319,229.828649
1464.946632,5329.482782,-6661.853478,1072.533697
1464.946961,7772.162391,-6143.709319,1915.238745
1464.947291,8882.471304,-4663.297435,1225.752797
1464.947620,7179.997637,-5329.482782,1532.190996
1464.947950,5847.626942,-5181.441594,689.485948
1464.948279,5773.606348,-5921.647536,229.828649
1464.948608,5403.503377,-6587.832884,-459.657299
1464.948938,5995.668130,-8290.306550,1608.800546
1464.949267,7476.080014,-7254.018232,919.314598
1464.949597,8290.306550,-6291.750507,766.095498
1464.949926,7994.224174,-7254.018232,2451.505594
1464.950255,8956.491898,-6883.915261,1838.629195
1464.950585,8808.450710,-5551.544565,919.314598
1464.950914,5847.626942,-6217.729913,766.095498
1464.951244,6069.688724,-6513.812290,306.438199
1464.951573,6513.812290,-5625.565159,229.828649
1464.951902,7031.956449,-6513.812290,536.266849
1464.952232,7031.956449,-6291.750507,1685.410096
1464.952561,7476.080014,-6883.915261,1378.971896
1464.952891,6291.750507,-7698.141797,536.266849
1464.953220,5551.544565,-6957.935855,1302.362347
1464.953549,6217.729913,-7179.997637,459.657299
1464.953879,7105.977043,-7476.080014,919.314598
1464.954208,6957.935855,-7402.059420,1225.752797
1464.954537,7698.141797,-7328.038826,1149.143247
1464.954867,7920.203579,-6291.750507,842.705048
1464.955196,6291.750507,-6587.832884,1072.533697
1464.955526,7179.997637,-4737.318029,1378.971896
1464.955855,8882.471304,-5033.400406,842.705048
1464.956184,8956.491898,-5107.421000,1608.800546
1464.956514,7105.977043,-5107.421000,1838.629195
1464.956843,5847.626942,-6439.791695,612.876398
1464.957173,4663.297435,-6143.709319,0.000000
1464.957502,4811.338623,-6883.915261,76.609550
1464.957831,7105.977043,-7772.162391,919.314598
1464.958161,8438.347739,-7031.956449,1762.019645
1464.958490,8882.471304,-7105.977043,1838.629195
1464.958820,8364.327145,-6587.832884,1838.629195
1464.959149,7994.224174,-4293.194464,383.047749
1464.959478,5921.647536,-4737.318029,0.000000
1464.959808,6513.812290,-5699.585753,383.047749
1464.960137,7550.100608,-5995.668130,919.314598
1464.960467,8660.409521,-6365.771101,2298.286494
1464.960796,7994.224174,-5551.544565,2757.943793
1464.961125,6957.935855,-5107.421000,842.705048
1464.961455,4737.318029,-7624.121203,-383.047749
1464.961784,4663.297435,-9400.615463,995.924147
1464.962114,5995.668130,-8882.471304,842.705048
1464.962443,6587.832884,-8142.265362,1455.581446
1464.962772,6661.853478,-6809.894666,1225.752797
1464.963102,7179.997637,-6957.935855,919.314598
1464.963431,7179.997637,-7179.997637,229.828649
1464.963761,5921.647536,-6587.832884,1302.362347
1464.964090,6661.853478,-6809.894666,536.266849
1464.964419,8068.244768,-5181.441594,1378.971896
1464.964749,7920.203579,-5181.441594,766.095498
1464.965078,7846.182985,-5847.626942,1532.190996
1464.965408,7624.121203,-5033.400406,995.924147
1464.965737,6513.812290,-6439.791695,229.828649
1464.966066,5773.606348,-7772.162391,1608.800546
1464.966396,6809.894666,-7994.224174,1608.800546
1464.966725,7254.018232,-8068.244768,1149.143247
1464.967054,6883.915261,-6957.935855,766.095498
1464.967384,5847.626942,-8216.285956,1302.362347
1464.967713,6735.874072,-7698.141797,383.047749
1464.968043,6439.791695,-5699.585753,229.828649
1464.968372,6661.853478,-4293.194464,536.266849
1464.968701,9030.512492,-4071.132681,1302.362347
1464.969031,9696.697840,-2960.823768,1455.581446
1464.969360,8734.430116,-4737.318029,2145.067394
1464.969690,8364.327145,-5551.544565,2374.896044
1464.970019,7772.162391,-4367.215058,1072.533697
1464.970348,5329.482782,-6735.874072,153.219100
1464.970678,5255.462188,-8438.347739,1225.752797
1464.971007,6735.874072,-8882.471304,1378.971896
1464.971337,7476.080014,-8438.347739,306.438199
1464.971666,6587.832884,-9696.697840,2374.896044
1464.971995,5699.585753,-7698.141797,1378.971896
1464.972325,5329.482782,-6291.750507,-842.705048
1464.972654,4515.256246,-6143.709319,-229.828649
1464.972984,6513.812290,-6883.915261,612.876398
1464.973313,8882.471304,-5255.462188,689.485948
1464.973642,8956.491898,-5699.585753,2068.457845
1464.973972,7920.203579,-6217.729913,1608.800546
1464.974301,7402.059420,-4293.194464,-153.219100
1464.974631,6143.709319,-6957.935855,-536.266849
1464.974960,5551.544565,-9252.574275,1149.143247
1464.975289,6735.874072,-8438.347739,1225.752797
1464.975619,6513.812290,-8586.388927,766.095498
1464.975948,5477.523971,-8660.409521,1378.971896
1464.976278,5033.400406,-9104.533087,1072.533697
1464.976607,5033.400406,-8216.285956,306.438199
1464.976936,5107.421000,-6957.935855,0.000000
1464.977266,6883.915261,-5551.544565,1225.752797
1464.977595,9326.594869,-3034.844362,2145.067394
1464.977925,9474.636058,-4515.256246,3140.991542
1464.978254,8364.327145,-4367.215058,2757.943793
1464.978583,7550.100608,-3404.947333,919.314598
1464.978913,7254.018232,-3552.988522,536.266849
1464.979242,6735.874072,-4441.235652,536.266849
1464.979571,7920.203579,-6735.874072,1608.800546
1464.979901,8290.306550,-6809.894666,1838.629195
1464.980230,7476.080014,-8142.265362,1302.362347
1464.980560,5773.606348,-9548.656652,919.314598
1464.980889,4441.235652,-8808.450710,842.705048
1464.981218,4737.318029,-7772.162391,0.000000
1464.981548,6143.709319,-6291.750507,459.657299
1464.981877,7105.977043,-6143.709319,1225.752797
1464.982206,8290.306550,-5329.482782,1991.848295
1464.982535,9104.533087,-5255.462188,1762.019645
1464.982864,7550.100608,-6439.791695,842.705048
1464.983193,6587.832884,-4737.318029,689.485948
1464.983522,6365.771101,-7105.977043,1608.800546
1464.983851,7254.018232,-8586.388927,1532.190996
1464.984181,6661.853478,-7846.182985,1225.752797
1464.984510,5921.647536,-7550.100608,919.314598
1464.984839,5255.462188,-7624.121203,306.438199
1464.985168,4441.235652,-7402.059420,0.000000
1464.985497,5329.482782,-8216.285956,612.876398
1464.985826,7179.997637,-7624.121203,1838.629195
1464.986155,8364.327145,-6143.709319,689.485948
1464.986484,7772.162391,-4885.359217,842.705048
1464.986813,8216.285956,-5847.626942,2298.286494
1464.987143,8586.388927,-5477.523971,842.705048
1464.987472,6735.874072,-5477.523971,459.657299
1464.987801,5551.544565,-6661.853478,1072.533697
1464.988130,6735.874072,-6957.935855,459.657299
1464.988459,6661.853478,-6957.935855,153.219100
1464.988788,6735.874072,-8290.306550,1915.238745
1464.989117,7698.141797,-8364.327145,2145.067394
1464.989446,7476.080014,-6513.812290,1608.800546
1464.989775,5107.421000,-7550.100608,229.828649
1464.990105,5625.565159,-5477.523971,612.876398
1464.990434,7105.977043,-5551.544565,459.657299
1464.990763,7105.977043,-5181.441594,1072.533697
1464.991092,6735.874072,-5107.421000,1762.019645
1464.991421,8142.265362,-5329.482782,1762.019645
1464.991750,8660.409521,-4367.215058,1225.752797
1464.992079,7476.080014,-7254.018232,1991.848295
1464.992408,7994.224174,-5551.544565,2221.676944
1464.992738,8364.327145,-5699.585753,995.924147
1464.993067,7105.977043,-7105.977043,1225.752797
1464.993396,5699.585753,-6809.894666,612.876398
1464.993725,5329.482782,-6883.915261,-383.047749
1464.994054,5847.626942,-7105.977043,0.000000
1464.994383,5773.606348,-7624.121203,76.609550
1464.994712,7105.977043,-6883.915261,919.314598
1464.995041,8290.306550,-7402.059420,2374.896044
1464.995370,7846.182985,-6809.894666,1225.752797
1464.995700,6587.832884,-6883.915261,689.485948
1464.996029,5255.462188,-6365.771101,0.000000
1464.996358,6883.915261,-6735.874072,995.924147
1464.996687,8290.306550,-7105.977043,1225.752797
1464.997016,8068.244768,-7179.997637,1532.190996
1464.997345,8216.285956,-6513.812290,1608.800546
1464.997674,7698.141797,-7402.059420,1072.533697
1464.998003,6661.853478,-7105.977043,1225.752797
1464.998332,6587.832884,-6291.750507,995.924147
1464.998662,6735.874072,-6957.935855,1225.752797
1464.998991,5625.565159,-7105.977043,229.828649
1464.999320,5255.462188,-6291.750507,919.314598
1464.999649,6365.771101,-6661.853478,383.047749
1464.999978,6143.709319,-5995.668130,612.876398
1465.000307,5403.503377,-6661.853478,842.705048
1465.000636,6661.853478,-7328.038826,1455.581446
1465.000965,8586.388927,-5921.647536,1378.971896
1465.001295,8586.388927,-6439.791695,2145.067394
1465.001624,8216.285956,-5625.565159,2221.676944
1465.001953,8216.285956,-5773.606348,229.828649
1465.002282,7179.997637,-6439.791695,1302.362347
1465.002611,7179.997637,-5921.647536,1225.752797
1465.002940,8290.306550,-6143.709319,1378.971896
1465.003269,8512.368333,-4737.318029,1838.629195
1465.003598,7105.977043,-6069.688724,1225.752797
1465.003927,6365.771101,-4515.256246,459.657299
1465.004257,5551.544565,-5847.626942,153.219100
1465.004586,4959.379811,-6587.832884,229.828649
1465.004915,5773.606348,-7105.977043,1378.971896
1465.005244,6809.894666,-7846.182985,919.314598
1465.005573,7105.977043,-7624.121203,1455.581446
1465.005902,7772.162391,-8216.285956,2221.676944
1465.006231,7846.182985,-7105.977043,2374.896044
1465.006560,7105.977043,-7698.141797,1072.533697
1465.006889,6365.771101,-6069.688724,1455.581446
1465.007219,7328.038826,-5995.668130,842.705048
1465.007548,7476.080014,-7105.977043,612.876398
1465.007877,6735.874072,-6809.894666,153.219100
1465.008206,5995.668130,-7179.997637,766.095498
1465.008535,5477.523971,-7031.956449,229.828649
1465.008864,4737.318029,-7105.977043,229.828649
1465.009193,5255.462188,-7031.956449,383.047749
1465.009522,6735.874072,-7179.997637,842.705048
1465.009852,7179.997637,-8364.327145,1072.533697
1465.010181,7254.018232,-7031.956449,1455.581446
1465.010510,6883.915261,-6883.915261,842.705048
1465.010839,7105.977043,-5995.668130,612.876398
1465.011168,7846.182985,-6365.771101,1455.581446
1465.011497,8882.471304,-7031.956449,2374.896044
1465.011826,7920.203579,-5847.626942,1455.581446
1465.012155,6587.832884,-5921.647536,1225.752797
1465.012484,6513.812290,-4811.338623,919.314598
1465.012814,6365.771101,-5255.462188,76.609550
1465.013143,5995.668130,-6661.853478,1072.533697
1465.013472,6587.832884,-5403.503377,1225.752797
1465.013801,8142.265362,-5625.565159,2604.724693
1465.014130,9252.574275,-6365.771101,2221.676944
1465.014459,8512.368333,-5107.421000,2451.505594
1465.014788,7550.100608,-6069.688724,1225.752797
1465.015117,6217.729913,-5773.606348,383.047749
1465.015447,5551.544565,-7550.100608,689.485948
1465.015776,6883.915261,-6069.688724,612.876398
1465.016105,8512.368333,-4959.379811,1302.362347
1465.016434,8882.471304,-6809.894666,1991.848295
1465.016763,8660.409521,-6587.832884,1838.629195
1465.017092,6957.935855,-6957.935855,612.876398
1465.017421,4515.256246,-7772.162391,0.000000
1465.017750,4885.359217,-7105.977043,153.219100
1465.018079,6291.750507,-7846.182985,153.219100
1465.018409,7624.121203,-7846.182985,919.314598
1465.018738,8142.265362,-7105.977043,2451.505594
1465.019067,8438.347739,-6957.935855,1455.581446
1465.019396,7031.956449,-5995.668130,536.266849
1465.019725,5403.503377,-6217.729913,306.438199
1465.020054,5847.626942,-6735.874072,612.876398
1465.020383,7179.997637,-6735.874072,842.705048
1465.020712,7550.100608,-7254.018232,2374.896044
1465.021041,7328.038826,-7105.977043,1225.752797
1465.021371,6809.894666,-4737.318029,229.828649
1465.021700,5625.565159,-7105.977043,1149.143247
1465.022029,7254.018232,-7624.121203,1072.533697
1465.022358,7846.182985,-6217.729913,1302.362347
1465.022687,6661.853478,-7254.018232,1608.800546
1465.023016,7105.977043,-6587.832884,995.924147
1465.023345,6809.894666,-6217.729913,689.485948
1465.023674,5995.668130,-6439.791695,383.047749
1465.024004,7105.977043,-5255.462188,229.828649
1465.024333,8438.347739,-5477.523971,1685.410096
1465.024662,8142.265362,-6587.832884,612.876398
1465.024991,7624.121203,-5847.626942,1225.752797
1465.025320,7550.100608,-5107.421000,1149.143247
1465.025649,7476.080014,-6365.771101,153.219100
1465.025978,6217.729913,-7179.997637,1225.752797
1465.026307,6291.750507,-7698.141797,1378.971896
1465.026636,8438.347739,-6587.832884,1608.800546
1465.026966,9030.512492,-6661.853478,1378.971896
1465.027295,7328.038826,-5625.565159,1991.848295
1465.027624,6809.894666,-6291.750507,995.924147
1465.027953,4811.338623,-7772.162391,306.438199
1465.028282,3478.967927,-7846.182985,459.657299
1465.028611,4885.359217,-7328.038826,842.705048
1465.028940,6439.791695,-7328.038826,1072.533697
1465.029269,6217.729913,-7476.080014,1378.971896
1465.029598,6735.874072,-7402.059420,1608.800546
1465.029928,7328.038826,-6587.832884,689.485948
1465.030257,6143.709319,-7920.203579,1072.533697
1465.030586,6143.709319,-7179.997637,536.266849
1465.030915,6661.853478,-7550.100608,1455.581446
1465.031244,8512.368333,-8068.244768,1302.362347
1465.031573,8734.430116,-5551.544565,2757.943793
1465.031902,8808.450710,-5699.585753,2145.067394
1465.032231,7105.977043,-4811.338623,229.828649
1465.032561,5995.668130,-3997.112087,229.828649
1465.032890,6069.688724,-5255.462188,612.876398
1465.033219,6957.935855,-5033.400406,1225.752797
1465.033548,7105.977043,-5403.503377,1991.848295
1465.033877,7031.956449,-5625.565159,2374.896044
1465.034206,7254.018232,-4737.318029,536.266849
1465.034535,6439.791695,-6735.874072,842.705048
1465.034864,6587.832884,-7031.956449,1685.410096
1465.035193,7624.121203,-7994.224174,1455.581446
1465.035523,7994.224174,-6957.935855,1302.362347
1465.035852,7254.018232,-6291.750507,1149.143247
1465.036181,6809.894666,-8068.244768,2221.676944
1465.036510,7328.038826,-6513.812290,383.047749
1465.036839,5403.503377,-6291.750507,0.000000
1465.037168,6143.709319,-5181.441594,1302.362347
1465.037497,7402.059420,-6217.729913,995.924147
1465.037826,7698.141797,-6291.750507,1608.800546
1465.038155,7105.977043,-6513.812290,2145.067394
1465.038485,6735.874072,-7402.059420,536.266849
1465.038814,5403.503377,-7402.059420,-76.609550
1465.039143,4663.297435,-8216.285956,536.266849
1465.039472,6069.688724,-8808.450710,1302.362347
1465.039801,7328.038826,-7772.162391,383.047749
1465.040130,7402.059420,-7105.977043,919.314598
1465.040459,7920.203579,-7254.018232,1302.362347
1465.040788,8216.285956,-6957.935855,1225.752797
1465.041118,6957.935855,-5033.400406,459.657299
1465.041447,7105.977043,-5255.462188,1225.752797
1465.041776,8142.265362,-4885.359217,612.876398
1465.042105,7624.121203,-5699.585753,1149.143247
1465.042434,6957.935855,-5403.503377,1302.362347
1465.042763,7402.059420,-6735.874072,1302.362347
1465.043092,7105.977043,-6661.853478,536.266849
1465.043421,6291.750507,-7402.059420,612.876398
1465.043750,7105.977043,-6587.832884,1608.800546
1465.044080,7624.121203,-7031.956449,0.000000
1465.044409,7105.977043,-7179.997637,1225.752797
1465.044738,6809.894666,-6217.729913,1225.752797
1465.045067,6809.894666,-6661.853478,536.266849
1465.045396,6513.812290,-5551.544565,766.095498
1465.045725,7328.038826,-5329.482782,1915.238745
1465.046054,8734.430116,-4441.235652,536.266849
1465.046383,8734.430116,-4737.318029,1685.410096
1465.046712,7994.224174,-4737.318029,1991.848295
1465.047042,8290.306550,-5477.523971,1378.971896
1465.047371,6217.729913,-5921.647536,0.000000
1465.047700,4589.276840,-8068.244768,0.000000
1465.048029,5107.421000,-8734.430116,995.924147
1465.048358,6439.791695,-9770.718434,766.095498
1465.048687,6809.894666,-8290.306550,1762.019645
1465.049016,7179.997637,-7772.162391,2451.505594
1465.049345,7105.977043,-7328.038826,1225.752797
1465.049675,5847.626942,-5403.503377,459.657299
1465.050004,6217.729913,-6143.709319,842.705048
1465.050333,8142.265362,-5403.503377,766.095498
1465.050662,8512.368333,-4071.132681,1378.971896
1465.050991,8438.347739,-5107.421000,1915.238745
1465.051320,8734.430116,-5181.441594,1915.238745
1465.051649,7476.080014,-6069.688724,612.876398
1465.051978,5181.441594,-7105.977043,0.000000
1465.052307,5551.544565,-8290.306550,1532.190996
1465.052637,6735.874072,-9992.780217,919.314598
1465.052966,5181.441594,-7254.018232,0.000000
1465.053295,5625.565159,-8438.347739,1225.752797
1465.053624,7254.018232,-7476.080014,842.705048
1465.053953,7698.141797,-5403.503377,612.876398
1465.054282,7031.956449,-5255.462188,1532.190996
1465.054611,8956.491898,-3849.070898,842.705048
1465.054940,9252.574275,-5329.482782,919.314598
1465.055270,8290.306550,-4145.153275,1455.581446
1465.055599,7105.977043,-5773.606348,1149.143247
1465.055928,7105.977043,-7328.038826,1378.971896
1465.056257,7031.956449,-6661.853478,1378.971896
1465.056586,6513.812290,-7476.080014,1838.629195
1465.056915,6735.874072,-7328.038826,919.314598
1465.057244,6587.832884,-8216.285956,919.314598
1465.057573,6217.729913,-8364.327145,1149.143247
1465.057902,5181.441594,-7179.997637,306.438199
1465.058232,4959.379811,-6735.874072,842.705048
1465.058561,5921.647536,-6291.750507,995.924147
1465.058890,7476.080014,-5255.462188,536.266849
1465.059219,7920.203579,-4367.215058,689.485948
1465.059548,8290.306550,-5329.482782,2221.676944
1465.059877,9030.512492,-5699.585753,1762.019645
1465.060206,7476.080014,-5033.400406,995.924147
1465.060535,5847.626942,-6439.791695,383.047749
1465.060864,6957.935855,-7550.100608,1225.752797
1465.061194,7772.162391,-8734.430116,842.705048
1465.061523,6809.894666,-7846.182985,1225.752797
1465.061852,6809.894666,-8142.265362,1685.410096
1465.062181,7105.977043,-7105.977043,536.266849
1465.062510,4737.318029,-5995.668130,-76.609550
1465.062839,5403.503377,-6439.791695,459.657299
1465.063168,7328.038826,-5625.565159,383.047749
1465.063497,7846.182985,-4959.379811,919.314598
1465.063827,7624.121203,-4737.318029,1685.410096
1465.064156,8586.388927,-4293.194464,1302.362347
1465.064485,8068.244768,-4885.359217,459.657299
1465.064814,6291.750507,-6883.915261,1072.533697
1465.065143,6365.771101,-7476.080014,1685.410096
1465.065472,7846.182985,-7179.997637,536.266849
1465.065801,7179.997637,-7624.121203,1685.410096
1465.066130,7031.956449,-8956.491898,2604.724693
1465.066459,6957.935855,-7550.100608,383.047749
1465.066789,4293.194464,-6217.729913,-383.047749
1465.067118,4959.379811,-6587.832884,0.000000
1465.067447,7624.121203,-6069.688724,612.876398
1465.067776,8512.368333,-4885.359217,1149.143247
1465.068105,8290.306550,-5995.668130,1838.629195
1465.068434,8438.347739,-5699.585753,1455.581446
1465.068763,7402.059420,-6069.688724,383.047749
1465.069092,5921.647536,-6735.874072,612.876398
1465.069421,6069.688724,-8216.285956,842.705048
1465.069751,8068.244768,-7031.956449,1455.581446
1465.070080,7328.038826,-8216.285956,1225.752797
1465.070409,7105.977043,-8882.471304,1991.848295
1465.070738,7254.018232,-6957.935855,1455.581446
1465.071067,5847.626942,-7994.224174,229.828649
1465.071396,5773.606348,-5773.606348,612.876398
1465.071725,6513.812290,-4811.338623,689.485948
1465.072054,7846.182985,-5551.544565,383.047749
1465.072384,7328.038826,-5995.668130,1455.581446
1465.072713,7179.997637,-6439.791695,1762.019645
1465.073042,7328.038826,-5477.523971,612.876398
1465.073371,6587.832884,-5477.523971,766.095498
1465.073700,6365.771101,-6809.894666,1072.533697
1465.074029,7698.141797,-7031.956449,1608.800546
1465.074358,8068.244768,-7254.018232,1532.190996
1465.074687,7105.977043,-7328.038826,1302.362347
1465.075016,5773.606348,-7476.080014,1532.190996
1465.075346,5921.647536,-7179.997637,306.438199
1465.075675,6069.688724,-6883.915261,919.314598
1465.076004,7031.956449,-6735.874072,1608.800546
1465.076333,8882.471304,-5107.421000,1762.019645
1465.076662,8882.471304,-3627.009116,1838.629195
1465.076991,8142.265362,-4441.235652,1838.629195
1465.077320,7328.038826,-4589.276840,689.485948
1465.077649,5773.606348,-5551.544565,306.438199
1465.077978,5033.400406,-7772.162391,842.705048
1465.078308,5329.482782,-8586.388927,842.705048
1465.078637,6217.729913,-8364.327145,1532.190996
1465.078966,6513.812290,-8586.388927,1762.019645
1465.079295,6809.894666,-8290.306550,1455.581446
1465.079624,6439.791695,-7105.977043,1378.971896
1465.079953,6513.812290,-6513.812290,995.924147
1465.080282,7698.141797,-6143.709319,1838.629195
1465.080611,8364.327145,-4885.359217,1225.752797
1465.080940,7105.977043,-5255.462188,1072.533697
1465.081269,7031.956449,-7105.977043,1838.629195
1465.081598,7105.977043,-6883.915261,459.657299
1465.081927,5477.523971,-6661.853478,459.657299
1465.082256,4663.297435,-7402.059420,1378.971896
1465.082585,6661.853478,-7994.224174,1225.752797
1465.082915,7105.977043,-7994.224174,612.876398
1465.083244,5403.503377,-7550.100608,842.705048
1465.083573,5773.606348,-8068.244768,536.266849
1465.083902,6439.791695,-6957.935855,-766.095498
1465.084231,5995.668130,-6957.935855,689.485948
1465.084560,8142.265362,-6069.688724,1455.581446
1465.084889,10140.821405,-5181.441594,2068.457845
1465.085218,9326.594869,-5255.462188,1685.410096
1465.085547,8216.285956,-4737.318029,2221.676944
1465.085876,8882.471304,-4219.173869,1685.410096
1465.086205,7550.100608,-4441.235652,995.924147
1465.086534,5033.400406,-5403.503377,766.095498
1465.086863,5699.585753,-7402.059420,1455.581446
1465.087192,6957.935855,-7698.141797,536.266849
1465.087521,6587.832884,-7698.141797,1915.238745
1465.087850,5921.647536,-7550.100608,2451.505594
1465.088179,6513.812290,-6217.729913,153.219100
1465.088508,5625.565159,-6809.894666,-229.828649
1465.088837,5625.565159,-7476.080014,689.485948
1465.089166,7402.059420,-5773.606348,689.485948
1465.089495,8290.306550,-6069.688724,1072.533697
1465.089824,8142.265362,-6439.791695,2528.115143
1465.090153,8512.368333,-5625.565159,1302.362347
1465.090482,7920.203579,-5699.585753,383.047749
1465.090811,6365.771101,-6439.791695,1149.143247
1465.091140,6587.832884,-7846.182985,995.924147
1465.091469,6809.894666,-6513.812290,0.000000
1465.091799,6069.688724,-7179.997637,536.266849
1465.092128,6587.832884,-9178.553681,2145.067394
1465.092457,6735.874072,-7328.038826,0.000000
1465.092786,5995.668130,-6217.729913,0.000000
1465.093115,7105.977043,-6365.771101,1455.581446
1465.093444,9178.553681,-5921.647536,1149.143247
1465.093773,8512.368333,-5033.400406,1225.752797
1465.094102,6883.915261,-5255.462188,995.924147
1465.094431,6809.894666,-6439.791695,536.266849
1465.094760,6365.771101,-6217.729913,-919.314598
1465.095089,5625.565159,-6957.935855,1685.410096
1465.095418,7624.121203,-9400.615463,2298.286494
1465.095747,8512.368333,-7105.977043,1149.143247
1465.096076,6587.832884,-6069.688724,1072.533697
1465.096405,6661.853478,-7105.977043,1302.362347
1465.096734,7328.038826,-6587.832884,689.485948
1465.097063,5773.606348,-6069.688724,459.657299
1465.097392,6069.688724,-6217.729913,536.266849
1465.097721,7624.121203,-5477.523971,383.047749
1465.098050,7846.182985,-5699.585753,689.485948
1465.098379,7328.038826,-6883.915261,995.924147
1465.098708,7254.018232,-6365.771101,1762.019645
1465.099037,7254.018232,-5477.523971,536.266849
1465.099366,6291.750507,-6661.853478,1072.533697
1465.099695,7105.977043,-6883.915261,1685.410096
1465.100024,7994.224174,-7105.977043,842.705048
1465.100353,7105.977043,-7254.018232,1149.143247
1465.100683,6291.750507,-8364.327145,1838.629195
1465.101012,5995.668130,-6883.915261,459.657299
1465.101341,5847.626942,-6587.832884,1072.533697
1465.101670,7328.038826,-6513.812290,1378.971896
1465.101999,8216.285956,-4367.215058,842.705048
1465.102328,7772.162391,-5551.544565,689.485948
1465.102657,7772.162391,-4515.256246,1762.019645
1465.102986,8660.409521,-5107.421000,995.924147
1465.103315,7031.956449,-5921.647536,229.828649
1465.103644,5551.544565,-5921.647536,536.266849
1465.103973,6291.750507,-7994.224174,1378.971896
1465.104302,7772.162391,-7624.121203,1302.362347
1465.104631,7179.997637,-7328.038826,1149.143247
1465.104960,7105.977043,-7846.182985,1991.848295
1465.105289,6439.791695,-6809.894666,306.438199
1465.105618,4663.297435,-8438.347739,306.438199
1465.105947,5181.441594,-7402.059420,1225.752797
1465.106276,7550.100608,-5921.647536,1072.533697
1465.106605,8290.306550,-6291.750507,1072.533697
1465.106934,7550.100608,-5551.544565,1915.238745
1465.107263,7179.997637,-6143.709319,1302.362347
1465.107592,6735.874072,-6217.729913,0.000000
1465.107921,4885.359217,-5477.523971,0.000000
1465.108250,6513.812290,-6587.832884,919.314598
1465.108579,7624.121203,-6291.750507,842.705048
1465.108908,7920.203579,-7550.100608,1991.848295
1465.109237,7846.182985,-7031.956449,2681.334243
1465.109567,7105.977043,-7698.141797,1302.362347
1465.109896,4737.318029,-5477.523971,0.000000
1465.110225,4663.297435,-7031.956449,766.095498
1465.110554,6735.874072,-8364.327145,1378.971896
1465.110883,7698.141797,-6587.832884,1762.019645
1465.111212,7031.956449,-5699.585753,1302.362347
1465.111541,6439.791695,-6587.832884,919.314598
1465.111870,6735.874072,-5921.647536,0.000000
1465.112199,6809.894666,-5921.647536,1302.362347
1465.112528,8216.285956,-6661.853478,1838.629195
1465.112857,9252.574275,-7105.977043,1072.533697
1465.113186,7772.162391,-6883.915261,1455.581446
1465.113515,7179.997637,-6365.771101,1302.362347
1465.113844,6809.894666,-6143.709319,0.000000
1465.114173,6365.771101,-6735.874072,383.047749
1465.114502,6957.935855,-7105.977043,1915.238745
1465.114831,8512.368333,-5847.626942,1455.581446
1465.115160,8290.306550,-7105.977043,1838.629195
1465.115489,6439.791695,-6883.915261,1225.752797
1465.115818,5773.606348,-5773.606348,-306.438199
1465.116147,4737.318029,-7254.018232,-383.047749
1465.116476,5107.421000,-8438.347739,229.828649
1465.116805,6809.894666,-7994.224174,1608.800546
1465.117134,8068.244768,-7105.977043,1838.629195
1465.117463,7328.038826,-7624.121203,2145.067394
1465.117792,6957.935855,-6735.874072,1532.190996
1465.118121,5625.565159,-5699.585753,842.705048
1465.118451,5477.523971,-5921.647536,612.876398
1465.118780,6957.935855,-5403.503377,1149.143247
1465.119109,8290.306550,-5033.400406,1378.971896
1465.119438,8438.347739,-5477.523971,1838.629195
1465.119767,8364.327145,-5699.585753,1838.629195
1465.120096,7550.100608,-5477.523971,766.095498
1465.120425,5995.668130,-6143.709319,229.828649
1465.120754,5403.503377,-7698.141797,153.219100
1465.121083,6587.832884,-6661.853478,995.924147
1465.121412,7550.100608,-7179.997637,919.314598
1465.121741,7624.121203,-7254.018232,1608.800546
1465.122070,7550.100608,-5625.565159,2298.286494
1465.122399,7698.141797,-5921.647536,1072.533697
1465.122728,6587.832884,-5477.523971,229.828649
1465.123057,6365.771101,-5477.523971,1455.581446
1465.123386,8142.265362,-5699.585753,842.705048
1465.123715,8364.327145,-5699.585753,1302.362347
1465.124044,8068.244768,-6291.750507,2451.505594
1465.124373,8290.306550,-5477.523971,2068.457845
1465.124702,6735.874072,-6513.812290,229.828649
1465.125031,4811.338623,-7846.182985,229.828649
1465.125360,5625.565159,-7772.162391,383.047749
1465.125689,6883.915261,-8808.450710,995.924147
1465.126018,7031.956449,-8808.450710,1685.410096
1465.126347,7105.977043,-6957.935855,1915.238745
1465.126676,6883.915261,-7550.100608,919.314598
1465.127005,5847.626942,-6587.832884,689.485948
1465.127335,5033.400406,-5921.647536,689.485948
1465.127664,7254.018232,-5625.565159,689.485948
1465.127993,7920.203579,-5625.565159,842.705048
1465.128322,7550.100608,-6217.729913,2145.067394
1465.128651,7698.141797,-5107.421000,1149.143247
1465.128980,6661.853478,-6513.812290,766.095498
1465.129309,6069.688724,-6735.874072,1225.752797
1465.129638,6735.874072,-7698.141797,1762.019645
1465.129967,7254.018232,-7254.018232,1915.238745
1465.130296,6217.729913,-6587.832884,689.485948
1465.130625,5477.523971,-7254.018232,1225.752797
1465.130954,5699.585753,-6365.771101,612.876398
1465.131283,5699.585753,-6735.874072,306.438199
1465.131612,6809.894666,-5625.565159,1991.848295
1465.131941,8068.244768,-5107.421000,2834.553343
1465.132270,9696.697840,-5181.441594,2068.457845
1465.132599,9178.553681,-4515.256246,2145.067394
1465.132928,7920.203579,-5329.482782,1915.238745
1465.133257,6883.915261,-5551.544565,536.266849
1465.133586,4885.359217,-6735.874072,-536.266849
1465.133915,4959.379811,-9326.594869,919.314598
1465.134244,7254.018232,-8512.368333,383.047749
1465.134573,6809.894666,-9400.615463,766.095498
1465.134902,7105.977043,-8586.388927,1991.848295
1465.135231,7550.100608,-8068.244768,1225.752797
1465.135560,7031.956449,-5921.647536,-153.219100
1465.135889,5551.544565,-4959.379811,-306.438199
1465.136219,6217.729913,-6143.709319,536.266849
1465.136548,7920.203579,-6069.688724,153.219100
1465.136877,8216.285956,-6069.688724,2221.676944
1465.137206,8734.430116,-5625.565159,2298.286494
1465.137535,8216.285956,-4515.256246,536.266849
1465.137864,5921.647536,-6143.709319,459.657299
1465.138193,5625.565159,-8290.306550,1302.362347
1465.138522,8290.306550,-6735.874072,842.705048
1465.138851,7920.203579,-7105.977043,919.314598
1465.139180,6587.832884,-7328.038826,919.314598
1465.139509,6365.771101,-7254.018232,766.095498
1465.139838,5847.626942,-7698.141797,76.609550
1465.140167,5033.400406,-6069.688724,842.705048
1465.140496,5995.668130,-6587.832884,536.266849
1465.140825,7550.100608,-5773.606348,995.924147
1465.141154,7698.141797,-5625.565159,1608.800546
1465.141483,8216.285956,-4959.379811,1378.971896
1465.141812,7772.162391,-3997.112087,76.609550
1465.142141,6883.915261,-6069.688724,1225.752797
1465.142470,7920.203579,-6587.832884,1225.752797
1465.142799,8808.450710,-5847.626942,689.485948
1465.143128,7920.203579,-7328.038826,1455.581446
1465.143457,7550.100608,-7550.100608,1455.581446
1465.143786,7550.100608,-7920.203579,919.314598
1465.144115,6365.771101,-7550.100608,153.219100
1465.144444,6069.688724,-5921.647536,1149.143247
1465.144774,7920.203579,-5181.441594,383.047749
1465.145103,7105.977043,-4589.276840,612.876398
1465.145432,5773.606348,-6069.688724,1455.581446
1465.145761,7105.977043,-5403.503377,1072.533697
1465.146090,6735.874072,-6143.709319,76.609550
1465.146419,5477.523971,-6291.750507,689.485948
1465.146748,7179.997637,-7254.018232,1608.800546
1465.147077,8512.368333,-7920.203579,1225.752797
1465.147406,7179.997637,-6957.935855,1378.971896
1465.147735,7402.059420,-7550.100608,2221.676944
1465.148064,7920.203579,-7698.141797,536.266849
1465.148393,6439.791695,-7402.059420,689.485948
1465.148722,4293.194464,-8438.347739,612.876398
1465.149051,5477.523971,-7550.100608,153.219100
1465.149380,6143.709319,-7328.038826,306.438199
1465.149709,6143.709319,-8438.347739,1302.362347
1465.150038,7476.080014,-7105.977043,1838.629195
1465.150367,7105.977043,-6365.771101,842.705048
1465.150696,4959.379811,-6217.729913,306.438199
1465.151025,4663.297435,-6735.874072,383.047749
1465.151354,6439.791695,-6809.894666,1302.362347
1465.151683,7105.977043,-6365.771101,1378.971896
1465.152012,7328.038826,-7328.038826,2451.505594
1465.152341,8290.306550,-6365.771101,2681.334243
1465.152670,7105.977043,-6661.853478,1302.362347
1465.152999,5921.647536,-6439.791695,1378.971896
1465.153328,6217.729913,-5107.421000,1608.800546
1465.153658,7105.977043,-5625.565159,536.266849
1465.153987,6809.894666,-6661.853478,1685.410096
1465.154316,5921.647536,-8216.285956,2681.334243
1465.154645,5403.503377,-8660.409521,995.924147
1465.154974,3552.988522,-8734.430116,-612.876398
1465.155303,1406.391290,-10362.883188,-459.657299
1465.155632,3627.009116,-11177.109724,0.000000
1465.155961,4811.338623,-11251.130318,689.485948
1465.156290,4737.318029,-10807.006753,1685.410096
1465.156619,5403.503377,-9326.594869,1608.800546
1465.156948,6143.709319,-7105.977043,842.705048
1465.157277,5625.565159,-6069.688724,1915.238745
1465.157606,6513.812290,-5625.565159,2604.724693
1465.157935,7550.100608,-4811.338623,2298.286494
1465.158264,7328.038826,-3627.009116,1608.800546
1465.158593,6735.874072,-5551.544565,1915.238745
1465.158922,6883.915261,-7624.121203,919.314598
1465.159251,5107.421000,-9622.677246,536.266849
1465.159580,2368.659014,-11399.171507,689.485948
1465.159909,2294.638420,-11251.130318,229.828649
1465.160238,3552.988522,-11473.192101,-459.657299
1465.160567,4737.318029,-10732.986159,766.095498
1465.160896,4663.297435,-10436.903782,919.314598
1465.161225,5773.606348,-9770.718434,995.924147
1465.161554,4663.297435,-8512.368333,995.924147
1465.161883,4071.132681,-8586.388927,1455.581446
1465.162212,4589.276840,-6883.915261,1838.629195
1465.162542,5847.626942,-5625.565159,1302.362347
1465.162871,6143.709319,-6587.832884,2145.067394
1465.163200,6661.853478,-6587.832884,2298.286494
1465.163529,7031.956449,-7476.080014,1838.629195
1465.163858,5699.585753,-7550.100608,612.876398
1465.164187,3108.864956,-10288.862594,0.000000
1465.164516,2516.700203,-10510.924376,-306.438199
1465.164845,3182.885551,-12213.398043,0.000000
1465.165174,4367.215058,-11843.295072,1072.533697
1465.165503,5255.462188,-9178.553681,1762.019645
1465.165832,5921.647536,-7550.100608,1608.800546
1465.166161,5181.441594,-5477.523971,995.924147
1465.166490,4737.318029,-6365.771101,1072.533697
1465.166819,6217.729913,-4737.318029,1149.143247
1465.167148,6883.915261,-5181.441594,1225.752797
1465.167477,7105.977043,-6439.791695,1378.971896
1465.167806,6439.791695,-6439.791695,1225.752797
1465.168135,6439.791695,-7402.059420,1149.143247
1465.168464,5625.565159,-9252.574275,536.266849
1465.168793,4737.318029,-11103.089130,919.314598
1465.169122,4367.215058,-13175.665768,1455.581446
1465.169451,3330.926739,-12657.521608,-229.828649
1465.169780,1702.473667,-12953.603985,-612.876398
1465.170109,1628.453072,-12583.501014,-306.438199
1465.170438,3256.906145,-11843.295072,1225.752797
1465.170767,4071.132681,-8586.388927,766.095498
1465.171096,4959.379811,-5255.462188,1455.581446
1465.171426,7105.977043,-3997.112087,2221.676944
1465.171755,8216.285956,-5181.441594,3140.991542
1465.172084,7105.977043,-5403.503377,2528.115143
1465.172413,5699.585753,-3775.050304,459.657299
1465.172742,5551.544565,-4441.235652,0.000000
1465.173071,5773.606348,-8956.491898,1532.190996
1465.173400,5699.585753,-11695.253884,3064.381992
1465.173729,5921.647536,-11399.171507,1838.629195
1465.174058,5255.462188,-10807.006753,995.924147
1465.174387,4441.235652,-10807.006753,459.657299
1465.174716,3997.112087,-11695.253884,919.314598
1465.175045,3701.029710,-11251.130318,383.047749
1465.175374,1850.514855,-9474.636058,-306.438199
1465.175703,1258.350101,-9252.574275,-383.047749
1465.176032,2072.576638,-10066.800811,1608.800546
1465.176361,3256.906145,-8512.368333,1838.629195
1465.176690,4441.235652,-7105.977043,1302.362347
1465.177019,5625.565159,-4737.318029,1149.143247
1465.177348,7994.224174,-3923.091493,1685.410096
1465.177677,8438.347739,-6291.750507,2528.115143
1465.178006,7550.100608,-7698.141797,2834.553343
1465.178335,4811.338623,-8882.471304,689.485948
1465.178664,3478.967927,-9696.697840,-229.828649
1465.178993,3034.844362,-12583.501014,383.047749
1465.179322,3701.029710,-14582.057057,1991.848295
1465.179651,4737.318029,-11325.150913,1532.190996
1465.179980,4959.379811,-7105.977043,0.000000
1465.180310,5033.400406,-6809.894666,0.000000
1465.180639,4959.379811,-7402.059420,1225.752797
1465.180968,5181.441594,-8438.347739,1915.238745
1465.181297,4589.276840,-7624.121203,536.266849
1465.181626,3256.906145,-6143.709319,536.266849
1465.181955,3552.988522,-8216.285956,459.657299
1465.182284,5403.503377,-9918.759623,2221.676944
1465.182613,7328.038826,-9622.677246,2757.943793
1465.182942,7476.080014,-8660.409521,2374.896044
1465.183271,6291.750507,-7920.203579,1838.629195
1465.183600,4959.379811,-7624.121203,1455.581446
1465.183929,5477.523971,-8364.327145,383.047749
1465.184258,5995.668130,-6809.894666,612.876398
1465.184587,5847.626942,-7624.121203,842.705048
1465.184916,5847.626942,-8364.327145,2757.943793
1465.185245,5033.400406,-8364.327145,2068.457845
1465.185574,4367.215058,-7920.203579,0.000000
1465.185903,2442.679609,-8216.285956,-1455.581446
1465.186232,1776.494261,-11399.171507,-842.705048
1465.186561,2590.720797,-11917.315666,689.485948
1465.186890,4145.153275,-11399.171507,766.095498
1465.187219,5255.462188,-9104.533087,1149.143247
1465.187549,6587.832884,-7624.121203,1149.143247
1465.187878,6365.771101,-8586.388927,1685.410096
1465.188207,6365.771101,-8364.327145,2145.067394
1465.188536,7328.038826,-6735.874072,2068.457845
1465.188865,7846.182985,-4737.318029,1762.019645
1465.189194,7254.018232,-4515.256246,2451.505594
1465.189523,5847.626942,-7105.977043,2374.896044
1465.189852,4959.379811,-8216.285956,2298.286494
1465.190181,3108.864956,-9770.718434,229.828649
1465.190510,1924.535449,-9992.780217,-306.438199
1465.190839,1628.453072,-10955.047942,-689.485948
1465.191168,2072.576638,-12657.521608,-459.657299
1465.191497,2664.741391,-13989.892304,76.609550
1465.191826,3182.885551,-12139.377449,995.924147
1465.192155,3997.112087,-9696.697840,1532.190996
1465.192484,5477.523971,-7846.182985,1608.800546
1465.192813,6735.874072,-7254.018232,1915.238745
1465.193142,7328.038826,-6587.832884,1838.629195
1465.193471,7031.956449,-5477.523971,1532.190996
1465.193800,6957.935855,-5477.523971,1608.800546
1465.194129,6365.771101,-6513.812290,1378.971896
1465.194459,6217.729913,-7254.018232,1685.410096
1465.194788,4515.256246,-8512.368333,1149.143247
1465.195117,2516.700203,-10732.986159,229.828649
1465.195446,2072.576638,-11843.295072,0.000000
1465.195775,2812.782580,-11695.253884,-689.485948
1465.196104,3997.112087,-10955.047942,-306.438199
1465.196433,4737.318029,-9770.718434,459.657299
1465.196762,5699.585753,-9696.697840,919.314598
1465.197091,5403.503377,-8956.491898,1455.581446
1465.197420,4959.379811,-7698.141797,1838.629195
1465.197749,5773.606348,-6069.688724,2221.676944
1465.198078,6809.894666,-4959.379811,2451.505594
1465.198407,6883.915261,-5181.441594,2298.286494
1465.198736,6661.853478,-5847.626942,1149.143247
1465.199065,5625.565159,-6735.874072,612.876398
1465.199394,5255.462188,-8808.450710,383.047749
1465.199723,4811.338623,-10140.821405,0.000000
1465.200052,3923.091493,-11029.068536,842.705048
1465.200381,3923.091493,-11621.233289,536.266849
1465.200710,3997.112087,-11177.109724,995.924147
1465.201039,4885.359217,-9992.780217,1532.190996
1465.201369,6365.771101,-9104.533087,1915.238745
1465.201698,6365.771101,-7402.059420,1838.629195
1465.202027,5847.626942,-6513.812290,1378.971896
1465.202356,5403.503377,-6661.853478,842.705048
1465.202685,5255.462188,-5995.668130,1378.971896
1465.203014,5551.544565,-6883.915261,919.314598
1465.203343,5181.441594,-6957.935855,536.266849
1465.203672,4293.194464,-7105.977043,536.266849
1465.204001,4293.194464,-9178.553681,459.657299
1465.204330,4219.173869,-10510.924376,1378.971896
1465.204659,4737.318029,-11843.295072,1762.019645
1465.204988,4885.359217,-11473.192101,1685.410096
1465.205317,4959.379811,-10436.903782,1991.848295
1465.205646,5329.482782,-9548.656652,2374.896044
1465.205975,5773.606348,-8734.430116,2298.286494
1465.206304,5255.462188,-7476.080014,1915.238745
1465.206633,4515.256246,-7105.977043,1149.143247
1465.206962,3775.050304,-6809.894666,76.609550
1465.207291,2960.823768,-6661.853478,919.314598
1465.207620,3552.988522,-7402.059420,-459.657299
1465.207949,3849.070898,-8364.327145,-536.266849
1465.208279,4441.235652,-9326.594869,76.609550
1465.208608,4737.318029,-10658.965565,536.266849
1465.208937,4589.276840,-10288.862594,766.095498
1465.209266,4959.379811,-11473.192101,1149.143247
1465.209595,5255.462188,-11473.192101,1991.848295
1465.209924,4959.379811,-10436.903782,2834.553343
1465.210253,5625.565159,-8956.491898,3294.210641
1465.210582,5625.565159,-6587.832884,3140.991542
1465.210911,5921.647536,-5921.647536,3140.991542
1465.211240,6217.729913,-4589.276840,3140.991542
1465.211569,6217.729913,-5551.544565,2987.772442
1465.211898,6143.709319,-5329.482782,3064.381992
1465.212227,5255.462188,-6291.750507,1378.971896
1465.212556,4589.276840,-8216.285956,689.485948
1465.212885,4441.235652,-9326.594869,919.314598
1465.213214,3997.112087,-11473.192101,536.266849
1465.213543,4071.132681,-11621.233289,1072.533697
1465.213872,4293.194464,-12583.501014,1302.362347
1465.214201,4663.297435,-12287.418637,2145.067394
1465.214530,4959.379811,-10066.800811,2757.943793
1465.214859,6217.729913,-8660.409521,2987.772442
1465.215189,7179.997637,-6217.729913,4290.134789
1465.215518,7254.018232,-4589.276840,4519.963438
1465.215847,7846.182985,-3404.947333,4213.525239
1465.216176,7920.203579,-2590.720797,3370.820191
1465.216505,7920.203579,-3552.988522,3294.210641
1465.216834,7105.977043,-5329.482782,2451.505594
1465.217163,6587.832884,-7105.977043,2604.724693
1465.217492,6513.812290,-8142.265362,2298.286494
1465.217821,6513.812290,-9030.512492,2528.115143
1465.218150,6365.771101,-9918.759623,3830.477490
1465.218479,6291.750507,-9326.594869,3370.820191
1465.218808,5773.606348,-8882.471304,3524.039291
1465.219137,5477.523971,-8068.244768,3294.210641
1465.219466,6143.709319,-7179.997637,3447.429741
1465.219795,5921.647536,-5699.585753,4366.744339
1465.220124,6735.874072,-5033.400406,4673.182538
1465.220453,7920.203579,-3701.029710,4749.792088
1465.220782,8808.450710,-3849.070898,4903.011187
1465.221111,8882.471304,-3701.029710,5439.278036
1465.221440,8660.409521,-4219.173869,4903.011187
1465.221769,8142.265362,-5551.544565,4290.134789
1465.222099,7624.121203,-6143.709319,3753.867940
1465.222428,6439.791695,-8660.409521,3907.087040
1465.222757,5921.647536,-9844.739029,3753.867940
1465.223086,4293.194464,-10658.965565,3370.820191
1465.223415,4293.194464,-11473.192101,3294.210641
1465.223744,3701.029710,-10584.944971,3370.820191
1465.224073,3182.885551,-9770.718434,3294.210641
1465.224402,3552.988522,-8808.450710,3753.867940
1465.224731,4589.276840,-7254.018232,3907.087040
1465.225060,6439.791695,-5699.585753,4596.572988
1465.225389,8142.265362,-4145.153275,5362.668486
1465.225718,9178.553681,-3849.070898,6894.859482
1465.226047,9770.718434,-3330.926739,6281.983084
1465.226376,10288.862594,-3552.988522,6128.763984
1465.226705,10140.821405,-2664.741391,5669.106685
1465.227034,9400.615463,-3478.967927,5132.839837
1465.227363,8734.430116,-5181.441594,5362.668486
1465.227692,8142.265362,-5403.503377,4826.401637
1465.228021,7105.977043,-7105.977043,4136.915689
1465.228350,5699.585753,-8512.368333,3983.696590
1465.228679,4737.318029,-9178.553681,3830.477490
1465.229009,3701.029710,-10658.965565,3294.210641
1465.229338,2590.720797,-10140.821405,2987.772442
1465.229667,2368.659014,-10066.800811,3140.991542
1465.229996,3330.926739,-9400.615463,3447.429741
1465.230325,4737.318029,-8364.327145,3983.696590
1465.230654,7031.956449,-7031.956449,4826.401637
1465.230983,8586.388927,-5329.482782,5592.497135
1465.231312,9844.739029,-3627.009116,6052.154434
1465.231641,10658.965565,-2368.659014,6358.592633
1465.231970,11103.089130,-1702.473667,5439.278036
1465.232299,9696.697840,-2146.597232,4673.182538
1465.232628,8512.368333,-4219.173869,4366.744339
1465.232957,7105.977043,-5995.668130,3140.991542
1465.233286,5995.668130,-7254.018232,2911.162892
1465.233615,4959.379811,-8956.491898,2451.505594
1465.233944,4811.338623,-9844.739029,3370.820191
1465.234273,5181.441594,-9992.780217,3370.820191
1465.234602,5847.626942,-8956.491898,3370.820191
1465.234931,6069.688724,-7328.038826,4290.134789
1465.235260,7254.018232,-5847.626942,4060.306139
1465.235589,8216.285956,-4589.276840,4213.525239
1465.235919,8734.430116,-4515.256246,5209.449386
1465.236248,9178.553681,-4441.235652,3907.087040
1465.236577,8216.285956,-4737.318029,3294.210641
1465.236906,7179.997637,-5625.565159,2911.162892
1465.237235,6513.812290,-7105.977043,2681.334243
1465.237564,6439.791695,-7031.956449,3064.381992
1465.237893,5403.503377,-7920.203579,3217.601092
1465.238222,5921.647536,-8142.265362,3370.820191
1465.238551,6883.915261,-7920.203579,4213.525239
1465.238880,7402.059420,-7031.956449,4366.744339
1465.239209,7624.121203,-6661.853478,4443.353888
1465.239538,7550.100608,-5625.565159,3830.477490
1465.239867,7624.121203,-5107.421000,2987.772442
1465.240196,8216.285956,-4145.153275,3753.867940
1465.240525,8660.409521,-2886.803174,3983.696590
1465.240854,8512.368333,-2368.659014,4060.306139
1465.241183,8290.306550,-4293.194464,3600.648841
1465.241512,7476.080014,-5995.668130,3830.477490
1465.241841,5625.565159,-7920.203579,2987.772442
1465.242170,5403.503377,-9474.636058,2911.162892
1465.242499,4515.256246,-11473.192101,2834.553343
1465.242829,4367.215058,-11547.212695,2681.334243
1465.243158,4071.132681,-9696.697840,2757.943793
1465.243487,4293.194464,-7846.182985,2451.505594
1465.243816,5699.585753,-6957.935855,3294.210641
1465.244145,7179.997637,-5329.482782,4136.915689
1465.244474,8068.244768,-5329.482782,4673.182538
1465.244803,8734.430116,-4663.297435,5745.716235
1465.245132,9622.677246,-3256.906145,6281.983084
1465.245461,10584.944971,-2516.700203,4979.620737
1465.245790,10288.862594,-2812.782580,4903.011187
1465.246119,9104.533087,-3478.967927,4136.915689
1465.246448,7846.182985,-5403.503377,2834.553343
1465.246777,6069.688724,-8216.285956,2911.162892
1465.247106,4737.318029,-9474.636058,2911.162892
1465.247435,4441.235652,-11917.315666,3524.039291
1465.247764,4293.194464,-11843.295072,4213.525239
1465.248093,3849.070898,-10807.006753,4519.963438
1465.248422,4441.235652,-8586.388927,3294.210641
1465.248751,5403.503377,-6217.729913,3753.867940
1465.249080,7179.997637,-4737.318029,4979.620737
1465.249409,8808.450710,-3034.844362,5209.449386
1465.249739,9474.636058,-1776.494261,5132.839837
1465.250068,9622.677246,-2146.597232,4903.011187
1465.250397,9252.574275,-2590.720797,5745.716235
1465.250726,8290.306550,-4885.359217,4749.792088
1465.251055,7105.977043,-7031.956449,4903.011187
1465.251384,7328.038826,-8882.471304,4979.620737
1465.251713,7550.100608,-9696.697840,3907.087040
1465.252042,6069.688724,-9622.677246,3294.210641
1465.252371,4589.276840,-8882.471304,2987.772442
1465.252700,4811.338623,-7920.203579,2298.286494
1465.253029,4737.318029,-7254.018232,3217.601092
1465.253358,5921.647536,-6809.894666,4903.011187
1465.253687,7994.224174,-5995.668130,5592.497135
1465.254016,7994.224174,-4737.318029,5286.058936
1465.254345,7031.956449,-4293.194464,5056.230287
1465.254674,7105.977043,-4515.256246,4903.011187
1465.255003,8142.265362,-4737.318029,5132.839837
1465.255332,7846.182985,-4367.215058,4903.011187
1465.255661,8290.306550,-4589.276840,4596.572988
1465.255990,7698.141797,-5625.565159,4519.963438
1465.256319,6883.915261,-8586.388927,4519.963438
1465.256649,7031.956449,-9992.780217,4903.011187
1465.256978,6883.915261,-9474.636058,4979.620737
1465.257307,6513.812290,-8734.430116,3294.210641
1465.257636,4737.318029,-7772.162391,2911.162892
1465.257965,4071.132681,-8068.244768,2911.162892
1465.258294,4737.318029,-7624.121203,3217.601092
1465.258623,6587.832884,-3256.906145,4060.306139
1465.258952,6809.894666,-2368.659014,3983.696590
1465.259281,7994.224174,-2664.741391,4213.525239
1465.259610,8882.471304,-5107.421000,5362.668486
1465.259939,9474.636058,-6587.832884,5592.497135
1465.260268,9326.594869,-6291.750507,5439.278036
1465.260597,8512.368333,-6291.750507,4519.963438
1465.260926,7254.018232,-8216.285956,3753.867940
1465.261255,5847.626942,-9400.615463,3064.381992
1465.261584,5329.482782,-8734.430116,3294.210641
1465.261913,6143.709319,-6883.915261,3140.991542
1465.262242,6587.832884,-7254.018232,3294.210641
1465.262571,6735.874072,-7105.977043,4213.525239
1465.262900,6069.688724,-6883.915261,4443.353888
1465.263229,6439.791695,-5403.503377,3294.210641
1465.263558,5995.668130,-5773.606348,3600.648841
1465.263888,6587.832884,-5847.626942,3600.648841
1465.264217,7994.224174,-4441.235652,3447.429741
1465.264546,8660.409521,-3404.947333,3600.648841
1465.264875,8068.244768,-5921.647536,3447.429741
1465.265204,6735.874072,-7105.977043,3064.381992
1465.265533,6365.771101,-9252.574275,3064.381992
1465.265862,6809.894666,-9326.594869,4519.963438
1465.266191,7105.977043,-9770.718434,4443.353888
1465.266520,5995.668130,-10955.047942,5132.839837
1465.266849,5625.565159,-7920.203579,4136.915689
1465.267178,7254.018232,-4885.359217,3983.696590
1465.267507,8512.368333,-2812.782580,3600.648841
1465.267836,7624.121203,-2072.576638,3447.429741
1465.268165,6661.853478,-3478.967927,3524.039291
1465.268494,6513.812290,-3627.009116,2834.553343
1465.268823,6735.874072,-4515.256246,3370.820191
1465.269152,8364.327145,-4663.297435,3447.429741
1465.269481,9474.636058,-6883.915261,4903.011187
1465.269810,9104.533087,-9178.553681,4979.620737
1465.270139,7624.121203,-8586.388927,3753.867940
1465.270468,6365.771101,-8364.327145,2681.334243
1465.270798,5033.400406,-7550.100608,2068.457845
1465.271127,3627.009116,-9548.656652,1991.848295
1465.271456,2886.803174,-10510.924376,2681.334243
1465.271785,4441.235652,-8142.265362,3294.210641
1465.272114,6513.812290,-5255.462188,3830.477490
1465.272443,8290.306550,-5329.482782,5286.058936
1465.272772,8660.409521,-5329.482782,5975.544884
1465.273101,8734.430116,-2664.741391,3294.210641
1465.273430,7476.080014,-1110.308913,1378.971896
1465.273759,7328.038826,-2812.782580,2145.067394
1465.274088,9696.697840,-3923.091493,2145.067394
1465.274417,9696.697840,-5921.647536,3064.381992
1465.274746,8956.491898,-7698.141797,2528.115143
1465.275075,6957.935855,-9030.512492,1532.190996
1465.275404,5477.523971,-11251.130318,1225.752797
1465.275733,4737.318029,-13249.686362,2374.896044
1465.276062,4737.318029,-11843.295072,2451.505594
1465.276391,4885.359217,-8586.388927,1378.971896
1465.276720,5181.441594,-5995.668130,1532.190996
1465.277049,6069.688724,-6291.750507,2681.334243
1465.277378,7920.203579,-5107.421000,4673.182538
1465.277708,8882.471304,-2812.782580,3830.477490
1465.278037,7624.121203,-2368.659014,3830.477490
1465.278366,7476.080014,-1850.514855,2374.896044
1465.278695,7402.059420,-2442.679609,536.266849
1465.279024,8512.368333,-3478.967927,1762.019645
1465.279353,9548.656652,-5699.585753,1532.190996
1465.279682,8438.347739,-7476.080014,306.438199
1465.280011,6513.812290,-9030.512492,1838.629195
1465.280340,4885.359217,-12287.418637,919.314598
1465.280669,3775.050304,-12435.459826,689.485948
1465.280998,2590.720797,-10510.924376,-153.219100
1465.281327,3849.070898,-8734.430116,229.828649
1465.281656,7105.977043,-6809.894666,2145.067394
1465.281985,8808.450710,-5033.400406,2451.505594
1465.282314,8290.306550,-4441.235652,2145.067394
1465.282643,8216.285956,-2738.761985,2221.676944
1465.282972,8808.450710,-2664.741391,1532.190996
1465.283301,8734.430116,-2516.700203,1149.143247
1465.283630,9178.553681,-4293.194464,2528.115143
1465.283959,9622.677246,-4959.379811,1225.752797
1465.284289,8734.430116,-5181.441594,0.000000
1465.284618,6365.771101,-7105.977043,153.219100
1465.284947,5255.462188,-10436.903782,-306.438199
1465.285276,4737.318029,-11029.068536,-766.095498
1465.285605,3775.050304,-11695.253884,229.828649
1465.285934,4589.276840,-10436.903782,995.924147
1465.286263,5773.606348,-8882.471304,1532.190996
1465.286592,6143.709319,-7772.162391,1838.629195
1465.286921,7179.997637,-3923.091493,1915.238745
1465.287250,9400.615463,-2590.720797,1915.238745
1465.287579,9474.636058,-1850.514855,1762.019645
1465.287908,8364.327145,-1258.350101,995.924147
1465.288237,8068.244768,-2812.782580,383.047749
1465.288566,8216.285956,-5625.565159,-306.438199
1465.288895,6587.832884,-7772.162391,1302.362347
1465.289224,6809.894666,-8734.430116,995.924147
1465.289553,6069.688724,-11029.068536,306.438199
1465.289882,4811.338623,-9918.759623,766.095498
1465.290211,4737.318029,-9770.718434,306.438199
1465.290541,5773.606348,-8734.430116,383.047749
1465.290870,5773.606348,-7105.977043,689.485948
1465.291199,6291.750507,-5255.462188,1072.533697
1465.291528,7994.224174,-4071.132681,1915.238745
1465.291857,9844.739029,-3108.864956,2681.334243
1465.292186,10140.821405,-1924.535449,2911.162892
1465.292515,8956.491898,-3478.967927,1838.629195
1465.292844,7846.182985,-4663.297435,536.266849
1465.293173,6513.812290,-5107.421000,-536.266849
1465.293502,6661.853478,-6735.874072,1149.143247
1465.293831,7624.121203,-9400.615463,766.095498
1465.294160,5921.647536,-10658.965565,919.314598
1465.294489,4293.194464,-9474.636058,306.438199
1465.294818,4071.132681,-9622.677246,0.000000
1465.295147,4441.235652,-9030.512492,842.705048
1465.295476,5107.421000,-8216.285956,919.314598
1465.295805,7402.059420,-6735.874072,1685.410096
1465.296134,9474.636058,-4367.215058,1762.019645
1465.296463,9992.780217,-2664.741391,2911.162892
1465.296793,9474.636058,-2664.741391,2528.115143
1465.297122,8956.491898,-3330.926739,919.314598
1465.297451,6365.771101,-2960.823768,-536.266849
1465.297780,5255.462188,-5773.606348,-229.828649
1465.298109,7105.977043,-8438.347739,306.438199
1465.298438,7476.080014,-9992.780217,1302.362347
1465.298767,7402.059420,-9844.739029,1838.629195
1465.299096,6809.894666,-9474.636058,1762.019645
1465.299425,5847.626942,-9548.656652,1072.533697
1465.299754,4219.173869,-8956.491898,459.657299
1465.300083,4663.297435,-8068.244768,919.314598
1465.300412,6661.853478,-6217.729913,0.000000
1465.300741,7476.080014,-4367.215058,1225.752797
1465.301070,9252.574275,-2886.803174,2757.943793
1465.301399,9918.759623,-3478.967927,1532.190996
1465.301728,8364.327145,-5107.421000,1991.848295
1465.302057,6513.812290,-5329.482782,1608.800546
1465.302386,6957.935855,-6809.894666,229.828649
1465.302715,7105.977043,-6513.812290,-306.438199
1465.303045,5921.647536,-8734.430116,995.924147
1465.303374,6809.894666,-9178.553681,689.485948
1465.303703,6365.771101,-7846.182985,153.219100
1465.304032,4959.379811,-8142.265362,1149.143247
1465.304361,5995.668130,-7402.059420,1072.533697
1465.304690,7550.100608,-7179.997637,1302.362347
1465.305019,7402.059420,-5625.565159,1608.800546
1465.305348,7698.141797,-4071.132681,1838.629195
1465.305677,8512.368333,-3627.009116,1455.581446
1465.306006,7402.059420,-2812.782580,229.828649
1465.306335,5921.647536,-4737.318029,1685.410096
1465.306664,7328.038826,-5255.462188,1532.190996
1465.306993,7105.977043,-5847.626942,842.705048
1465.307322,6365.771101,-7105.977043,2145.067394
1465.307651,6957.935855,-8734.430116,1762.019645
1465.307980,6587.832884,-9178.553681,842.705048
1465.308309,4959.379811,-7698.141797,612.876398
1465.308638,5625.565159,-9474.636058,995.924147
1465.308967,7920.203579,-7550.100608,383.047749
1465.309297,7920.203579,-5403.503377,919.314598
1465.309626,7476.080014,-6661.853478,1455.581446
1465.309955,8068.244768,-4885.359217,842.705048
1465.310284,6883.915261,-5403.503377,0.000000
1465.310613,5477.523971,-6069.688724,842.705048
1465.310942,6809.894666,-6217.729913,842.705048
1465.311271,7698.141797,-7698.141797,1225.752797
1465.311600,7698.141797,-7476.080014,2604.724693
1465.311929,8290.306550,-6883.915261,2834.553343
1465.312258,8068.244768,-6661.853478,919.314598
1465.312587,5847.626942,-6809.894666,612.876398
1465.312916,5551.544565,-6439.791695,153.219100
1465.313245,7031.956449,-6735.874072,459.657299
1465.313574,7698.141797,-6439.791695,995.924147
1465.313903,8068.244768,-5995.668130,1685.410096
1465.314232,7920.203579,-6513.812290,1072.533697
1465.314561,6069.688724,-4811.338623,0.000000
1465.314890,4663.297435,-6957.935855,689.485948
1465.315219,6291.750507,-8660.409521,689.485948
1465.315549,6809.894666,-6883.915261,919.314598
1465.315878,6365.771101,-5625.565159,919.314598
1465.316207,7254.018232,-7328.038826,612.876398
1465.316536,7476.080014,-6291.750507,995.924147
1465.316865,6217.729913,-5551.544565,536.266849
1465.317194,6365.771101,-6439.791695,1225.752797
1465.317523,8364.327145,-6439.791695,2068.457845
1465.317852,8882.471304,-5995.668130,1225.752797
1465.318181,7402.059420,-5625.565159,1915.238745
1465.318510,7105.977043,-5551.544565,842.705048
1465.318839,6217.729913,-5477.523971,-1072.533697
1465.319168,4885.359217,-5995.668130,-1302.362347
1465.319497,5773.606348,-7105.977043,459.657299
1465.319826,8216.285956,-7624.121203,995.924147
1465.320155,7920.203579,-7772.162391,1991.848295
1465.320484,7550.100608,-7550.100608,2604.724693
1465.320813,7698.141797,-7328.038826,1302.362347
1465.321142,6735.874072,-6587.832884,1455.581446
1465.321471,6143.709319,-5847.626942,1378.971896
1465.321800,7105.977043,-5699.585753,536.266849
1465.322130,7846.182985,-4885.359217,1378.971896
1465.322459,8586.388927,-5921.647536,1991.848295
1465.322788,7550.100608,-5995.668130,995.924147
1465.323117,6069.688724,-4219.173869,-153.219100
1465.323446,4515.256246,-6661.853478,0.000000
1465.323775,6439.791695,-7772.162391,612.876398
1465.324104,6809.894666,-8586.388927,919.314598
1465.324433,7105.977043,-9474.636058,1762.019645
1465.324762,7772.162391,-8586.388927,1762.019645
1465.325091,7402.059420,-7476.080014,995.924147
1465.325420,5847.626942,-6883.915261,459.657299
1465.325749,5847.626942,-6661.853478,1072.533697
1465.326078,7624.121203,-5847.626942,689.485948
1465.326407,8364.327145,-5551.544565,1915.238745
1465.326736,8882.471304,-6217.729913,2834.553343
1465.327065,8216.285956,-5255.462188,2451.505594
1465.327394,5699.585753,-3849.070898,0.000000
1465.327723,3923.091493,-4663.297435,-229.828649
1465.328052,6069.688724,-5551.544565,689.485948
1465.328382,8142.265362,-7328.038826,1149.143247
1465.328711,7402.059420,-6587.832884,1838.629195
1465.329040,7698.141797,-7105.977043,2298.286494
1465.329369,8438.347739,-8438.347739,1685.410096
1465.329698,6439.791695,-7772.162391,842.705048
1465.330027,5181.441594,-7994.224174,1302.362347
1465.330356,7179.997637,-6143.709319,0.000000
1465.330685,7476.080014,-5329.482782,-383.047749
1465.331014,7179.997637,-5921.647536,1302.362347
1465.331343,8882.471304,-6735.874072,1302.362347
1465.331672,7550.100608,-6217.729913,0.000000
1465.332001,4737.318029,-4885.359217,-459.657299
1465.332330,4885.359217,-6513.812290,0.000000
1465.332659,7772.162391,-6587.832884,842.705048
1465.332988,9252.574275,-6291.750507,2068.457845
1465.333317,9474.636058,-6809.894666,2451.505594
1465.333646,8956.491898,-6365.771101,1225.752797
1465.333975,6809.894666,-6735.874072,459.657299
1465.334304,5773.606348,-6883.915261,689.485948
1465.334634,6809.894666,-7031.956449,76.609550
1465.334963,7920.203579,-6883.915261,383.047749
1465.335292,7550.100608,-6069.688724,1072.533697
1465.335621,7105.977043,-6069.688724,1149.143247
1465.335950,6587.832884,-5551.544565,306.438199
1465.336279,4885.359217,-5921.647536,-612.876398
1465.336608,4959.379811,-6513.812290,459.657299
1465.336937,6587.832884,-7031.956449,1378.971896
1465.337266,7328.038826,-7476.080014,2374.896044
1465.337595,8438.347739,-5699.585753,2451.505594
1465.337924,9104.533087,-5255.462188,1685.410096
1465.338253,7698.141797,-6217.729913,766.095498
1465.338582,5847.626942,-6513.812290,995.924147
1465.338911,6365.771101,-7402.059420,-536.266849
1465.339240,6513.812290,-6439.791695,-766.095498
1465.339569,6217.729913,-5699.585753,229.828649
1465.339898,6883.915261,-7254.018232,-306.438199
1465.340227,6365.771101,-7105.977043,-536.266849
1465.340556,5773.606348,-7550.100608,306.438199
1465.340886,6513.812290,-8660.409521,842.705048
1465.341215,7920.203579,-7698.141797,1838.629195
1465.341544,7846.182985,-6735.874072,1455.581446
1465.341873,7994.224174,-7105.977043,2374.896044
1465.342202,8660.409521,-4959.379811,2221.676944
1465.342531,7105.977043,-4219.173869,689.485948
1465.342860,5921.647536,-5181.441594,995.924147
1465.343189,7772.162391,-4811.338623,1455.581446
1465.343518,8586.388927,-6513.812290,1302.362347
1465.343847,7920.203579,-7105.977043,1991.848295
1465.344176,7254.018232,-7920.203579,1991.848295
1465.344505,7105.977043,-8290.306550,0.000000
1465.344834,4737.318029,-7254.018232,-1149.143247
1465.345163,4071.132681,-7254.018232,76.609550
1465.345492,5847.626942,-8660.409521,0.000000
1465.345821,6661.853478,-8068.244768,1225.752797
1465.346150,6143.709319,-7698.141797,2068.457845
1465.346479,7772.162391,-7031.956449,2987.772442
1465.346808,8808.450710,-5403.503377,2298.286494
1465.347138,7179.997637,-5033.400406,2374.896044
1465.347467,6661.853478,-5773.606348,1608.800546
1465.347796,7328.038826,-4589.276840,1149.143247
1465.348125,7105.977043,-3478.967927,842.705048
1465.348454,7328.038826,-5477.523971,1608.800546
1465.348783,7031.956449,-6365.771101,766.095498
1465.349112,5107.421000,-7031.956449,-459.657299
1465.349441,5033.400406,-8734.430116,459.657299
1465.349770,6735.874072,-9474.636058,2298.286494
1465.350099,7846.182985,-8216.285956,1608.800546
1465.350428,7920.203579,-7550.100608,2987.772442
1465.350757,7994.224174,-7105.977043,3217.601092
1465.351086,7402.059420,-5329.482782,1608.800546
1465.351415,5329.482782,-3849.070898,153.219100
1465.351744,5551.544565,-4071.132681,842.705048
1465.352073,7772.162391,-3923.091493,229.828649
1465.352402,7994.224174,-4219.173869,2068.457845
1465.352731,7772.162391,-7031.956449,2451.505594
1465.353060,7105.977043,-7772.162391,1149.143247
1465.353390,6069.688724,-7105.977043,536.266849
1465.353719,5477.523971,-8142.265362,689.485948
1465.354048,7402.059420,-9104.533087,1149.143247
1465.354377,7550.100608,-8290.306550,1532.190996
1465.354706,7550.100608,-7920.203579,1915.238745
1465.355035,7624.121203,-6587.832884,1608.800546
1465.355364,7105.977043,-4145.153275,842.705048
1465.355693,6217.729913,-5403.503377,1225.752797
1465.356022,7328.038826,-6439.791695,2068.457845
1465.356351,8290.306550,-4959.379811,1685.410096
1465.356680,7624.121203,-5033.400406,995.924147
1465.357009,7402.059420,-5033.400406,689.485948
1465.357338,6735.874072,-5847.626942,0.000000
1465.357667,5773.606348,-7402.059420,-76.609550
1465.357996,5477.523971,-7846.182985,1149.143247
1465.358325,6809.894666,-9178.553681,1072.533697
1465.358654,7698.141797,-8808.450710,1455.581446
1465.358983,7550.100608,-8660.409521,2757.943793
1465.359312,8068.244768,-7920.203579,2604.724693
1465.359641,7031.956449,-6217.729913,689.485948
1465.359971,5033.400406,-3478.967927,459.657299
1465.360300,5699.585753,-4885.359217,0.000000
1465.360629,7179.997637,-5403.503377,689.485948
1465.360958,7179.997637,-4811.338623,766.095498
1465.361287,7328.038826,-7846.182985,1149.143247
1465.361616,7772.162391,-7254.018232,1149.143247
1465.361945,6069.688724,-7179.997637,0.000000
1465.362274,4959.379811,-8438.347739,-229.828649
1465.362603,5921.647536,-7476.080014,229.828649
1465.362932,7920.203579,-7846.182985,459.657299
1465.363261,8142.265362,-7254.018232,1608.800546
1465.363590,8142.265362,-7031.956449,2451.505594
1465.363919,7920.203579,-6513.812290,2068.457845
1465.364248,6735.874072,-4293.194464,766.095498
1465.364577,5847.626942,-4737.318029,612.876398
1465.364906,7254.018232,-5921.647536,1455.581446
1465.365235,7328.038826,-5181.441594,842.705048
1465.365564,6735.874072,-5625.565159,689.485948
1465.365893,5995.668130,-7031.956449,-306.438199
1465.366223,5329.482782,-7031.956449,-995.924147
1465.366552,4071.132681,-8142.265362,-612.876398
1465.366881,4959.379811,-9770.718434,153.219100
1465.367210,7031.956449,-8512.368333,1532.190996
1465.367539,8438.347739,-6883.915261,2145.067394
1465.367868,8660.409521,-6661.853478,1762.019645
1465.368197,7772.162391,-5625.565159,2834.553343
1465.368526,7105.977043,-5551.544565,1302.362347
1465.368855,6513.812290,-4441.235652,612.876398
1465.369184,7254.018232,-2960.823768,1302.362347
1465.369513,7846.182985,-3701.029710,76.609550
1465.369842,8364.327145,-5699.585753,1302.362347
1465.370171,7105.977043,-6883.915261,0.000000
1465.370500,5921.647536,-7254.018232,-229.828649
1465.370829,5477.523971,-8956.491898,383.047749
1465.371158,7105.977043,-10066.800811,1455.581446
1465.371487,7179.997637,-9622.677246,1762.019645
1465.371816,7105.977043,-7846.182985,2068.457845
1465.372145,8438.347739,-6587.832884,1991.848295
1465.372475,7920.203579,-5329.482782,1762.019645
1465.372804,7031.956449,-3330.926739,1072.533697
1465.373133,7402.059420,-3552.988522,1302.362347
1465.373462,8512.368333,-3775.050304,1225.752797
1465.373791,7772.162391,-3108.864956,1225.752797
1465.374120,7105.977043,-5847.626942,1378.971896
1465.374449,7624.121203,-6291.750507,842.705048
1465.374778,5921.647536,-6661.853478,-995.924147
1465.375107,5699.585753,-8956.491898,-306.438199
1465.375436,6809.894666,-11473.192101,919.314598
1465.375765,7328.038826,-11917.315666,1455.581446
1465.376094,6143.709319,-9992.780217,995.924147
1465.376423,5995.668130,-7772.162391,1378.971896
1465.376752,6439.791695,-5921.647536,459.657299
1465.377081,5255.462188,-5107.421000,306.438199
1465.377410,6069.688724,-4071.132681,1838.629195
1465.377739,8438.347739,-3256.906145,1532.190996
1465.378068,8808.450710,-2812.782580,2451.505594
1465.378397,8364.327145,-3627.009116,2374.896044
1465.378727,8734.430116,-5847.626942,1685.410096
1465.379056,7476.080014,-5255.462188,-153.219100
1465.379385,5107.421000,-7031.956449,-383.047749
1465.379714,5329.482782,-8364.327145,612.876398
1465.380043,7476.080014,-9030.512492,919.314598
1465.380372,7105.977043,-9400.615463,1302.362347
1465.380701,6513.812290,-9474.636058,2221.676944
1465.381030,6957.935855,-9252.574275,2834.553343
1465.381359,5921.647536,-5773.606348,1072.533697
1465.381688,5551.544565,-5107.421000,1149.143247
1465.382017,6809.894666,-3701.029710,1149.143247
1465.382346,8068.244768,-2072.576638,306.438199
1465.382675,7624.121203,-3478.967927,689.485948
1465.383003,6957.935855,-4219.173869,459.657299
1465.383332,6661.853478,-5033.400406,-766.095498
1465.383661,6143.709319,-7402.059420,-306.438199
1465.383990,6809.894666,-9622.677246,1225.752797
1465.384319,8808.450710,-11917.315666,1685.410096
1465.384648,8660.409521,-9918.759623,1915.238745
1465.384978,7179.997637,-8364.327145,306.438199
1465.385307,6217.729913,-7920.203579,153.219100
1465.385636,6217.729913,-4811.338623,153.219100
1465.385965,7105.977043,-5477.523971,536.266849
1465.386294,7402.059420,-4145.153275,689.485948
1465.386624,7402.059420,-4367.215058,1685.410096
1465.386953,8438.347739,-4589.276840,1915.238745
1465.387282,8808.450710,-3701.029710,1072.533697
1465.387611,5847.626942,-5033.400406,0.000000
1465.387940,5329.482782,-6883.915261,-766.095498
1465.388269,6513.812290,-8290.306550,919.314598
1465.388599,7105.977043,-8586.388927,612.876398
1465.388928,7402.059420,-9474.636058,1685.410096
1465.389257,7476.080014,-7624.121203,2145.067394
1465.389586,6661.853478,-7402.059420,459.657299
1465.389915,4959.379811,-6587.832884,1149.143247
1465.390244,5921.647536,-6069.688724,1838.629195
1465.390574,8734.430116,-6513.812290,1991.848295
1465.390903,9474.636058,-4515.256246,2681.334243
1465.391232,7550.100608,-3256.906145,1991.848295
1465.391561,7550.100608,-5107.421000,0.000000
1465.391890,6291.750507,-4219.173869,-842.705048
1465.392219,4589.276840,-5699.585753,-766.095498
1465.392549,6365.771101,-8882.471304,459.657299
1465.392878,7846.182985,-8438.347739,1149.143247
1465.393207,7105.977043,-8142.265362,1225.752797
1465.393536,7920.203579,-9030.512492,2145.067394
1465.393865,8734.430116,-8438.347739,2145.067394
1465.394195,7254.018232,-6513.812290,1915.238745
1465.394524,6069.688724,-4811.338623,919.314598
1465.394853,6735.874072,-3701.029710,1149.143247
1465.395182,8142.265362,-3552.988522,612.876398
1465.395511,6957.935855,-4811.338623,1378.971896
1465.395840,7105.977043,-5699.585753,995.924147
1465.396170,6809.894666,-5625.565159,-459.657299
1465.396499,4663.297435,-7698.141797,-612.876398
1465.396828,6069.688724,-9548.656652,1455.581446
1465.397157,7698.141797,-10881.027347,1302.362347
1465.397486,7402.059420,-8956.491898,1838.629195
1465.397815,6143.709319,-7994.224174,1915.238745
1465.398145,6587.832884,-6735.874072,459.657299
1465.398474,6143.709319,-4663.297435,229.828649
1465.398803,5699.585753,-6513.812290,1149.143247
1465.399132,8142.265362,-6217.729913,2298.286494
1465.399461,9474.636058,-4737.318029,1838.629195
1465.399791,9104.533087,-5033.400406,2681.334243
1465.400120,7624.121203,-4515.256246,1608.800546
1465.400449,5921.647536,-5033.400406,-766.095498
1465.400778,3849.070898,-6513.812290,-995.924147
1465.401107,4441.235652,-8660.409521,0.000000
1465.401436,7624.121203,-10066.800811,1378.971896
1465.401766,8808.450710,-8956.491898,1838.629195
1465.402095,7328.038826,-8068.244768,1915.238745
1465.402424,6735.874072,-7328.038826,2298.286494
1465.402753,6143.709319,-7031.956449,1072.533697
1465.403082,5921.647536,-4367.215058,1302.362347
1465.403411,7031.956449,-5255.462188,2145.067394
1465.403741,8512.368333,-4293.194464,2834.553343
1465.404070,7920.203579,-3552.988522,2298.286494
1465.404399,7031.956449,-6439.791695,1915.238745
1465.404728,5847.626942,-4293.194464,-689.485948
1465.405057,5033.400406,-5477.523971,-1149.143247
1465.405387,5921.647536,-9178.553681,1532.190996
1465.405716,6661.853478,-8512.368333,459.657299
1465.406045,7105.977043,-9918.759623,1378.971896
1465.406374,7476.080014,-9844.739029,1915.238745
1465.406703,7698.141797,-7994.224174,1838.629195
1465.407032,5995.668130,-7254.018232,1455.581446
1465.407362,5773.606348,-5773.606348,1532.190996
1465.407691,7402.059420,-5181.441594,1991.848295
1465.408020,8956.491898,-4589.276840,2374.896044
1465.408349,8660.409521,-4071.132681,2911.162892
1465.408678,8068.244768,-3701.029710,2068.457845
1465.409007,7105.977043,-3182.885551,0.000000
1465.409337,4737.318029,-4589.276840,-766.095498
1465.409666,5255.462188,-7105.977043,153.219100
1465.409995,7624.121203,-8882.471304,842.705048
1465.410324,7328.038826,-9622.677246,1608.800546
1465.410653,7624.121203,-10066.800811,2145.067394
1465.410982,7920.203579,-9326.594869,1915.238745
1465.411312,6587.832884,-7476.080014,766.095498
1465.411641,5181.441594,-6439.791695,229.828649
1465.411970,6365.771101,-6069.688724,383.047749
1465.412299,8438.347739,-4441.235652,1225.752797
1465.412628,8290.306550,-3849.070898,1685.410096
1465.412958,8734.430116,-4663.297435,2298.286494
1465.413287,7772.162391,-3849.070898,459.657299
1465.413616,5773.606348,-5033.400406,-842.705048
1465.413945,5773.606348,-7550.100608,153.219100
1465.414274,7846.182985,-8660.409521,919.314598
1465.414603,8364.327145,-8586.388927,1532.190996
1465.414933,7031.956449,-8660.409521,1378.971896
1465.415262,7031.956449,-7920.203579,612.876398
1465.415591,6365.771101,-5699.585753,76.609550
1465.415920,5551.544565,-5847.626942,229.828649
1465.416249,6957.935855,-5921.647536,1225.752797
1465.416578,8438.347739,-4589.276840,1532.190996
1465.416908,8364.327145,-4885.359217,1378.971896
1465.417237,7402.059420,-5551.544565,1762.019645
1465.417566,6365.771101,-5847.626942,919.314598
1465.417895,4737.318029,-4959.379811,-842.705048
1465.418224,4367.215058,-7031.956449,0.000000
1465.418554,7105.977043,-8734.430116,1532.190996
1465.418883,8512.368333,-8512.368333,1532.190996
1465.419212,7550.100608,-8068.244768,1532.190996
1465.419541,6809.894666,-9252.574275,2145.067394
1465.419870,6365.771101,-6291.750507,383.047749
1465.420199,4959.379811,-5847.626942,-1072.533697
1465.420529,5921.647536,-6513.812290,1149.143247
1465.420858,8142.265362,-5551.544565,1455.581446
1465.421187,8734.430116,-5329.482782,1378.971896
1465.421516,7402.059420,-3997.112087,1302.362347
1465.421845,6143.709319,-4811.338623,0.000000
1465.422174,6735.874072,-6587.832884,-229.828649
1465.422504,5699.585753,-7402.059420,995.924147
1465.422833,5921.647536,-7994.224174,842.705048
1465.423162,7920.203579,-8068.244768,1685.410096
1465.423491,8808.450710,-7328.038826,3064.381992
1465.423820,8216.285956,-8142.265362,2298.286494
1465.424150,7179.997637,-6809.894666,1762.019645
1465.424479,5625.565159,-6069.688724,612.876398
1465.424808,6143.709319,-6365.771101,612.876398
1465.425137,6883.915261,-4737.318029,2068.457845
1465.425466,7698.141797,-5107.421000,919.314598
1465.425795,8290.306550,-5033.400406,1302.362347
1465.426125,7031.956449,-5033.400406,612.876398
1465.426454,5551.544565,-4959.379811,-1072.533697
1465.426783,5625.565159,-7920.203579,536.266849
1465.427112,7179.997637,-8586.388927,1072.533697
1465.427441,7402.059420,-9252.574275,612.876398
1465.427770,8068.244768,-8586.388927,2451.505594
1465.428100,8808.450710,-7994.224174,2987.772442
1465.428429,7994.224174,-6587.832884,919.314598
1465.428758,6217.729913,-5625.565159,842.705048
1465.429087,6735.874072,-5403.503377,229.828649
1465.429416,7772.162391,-4959.379811,383.047749
1465.429745,7624.121203,-5033.400406,1532.190996
1465.430075,7920.203579,-5181.441594,1838.629195
1465.430404,8142.265362,-4737.318029,842.705048
1465.430733,5773.606348,-4737.318029,0.000000
1465.431062,4885.359217,-6661.853478,306.438199
1465.431391,6809.894666,-8068.244768,919.314598
1465.431721,7105.977043,-8142.265362,1302.362347
1465.432050,6587.832884,-7772.162391,1455.581446
1465.432379,6957.935855,-8068.244768,1915.238745
1465.432708,6587.832884,-7031.956449,1608.800546
1465.433037,5255.462188,-7328.038826,919.314598
1465.433366,5773.606348,-6439.791695,1838.629195
1465.433696,7254.018232,-5921.647536,1455.581446
1465.434025,7772.162391,-5477.523971,2145.067394
1465.434354,7698.141797,-5255.462188,2145.067394
1465.434683,7105.977043,-5995.668130,995.924147
1465.435012,5255.462188,-4515.256246,-995.924147
1465.435341,4219.173869,-5181.441594,-1072.533697
1465.435671,6291.750507,-8660.409521,0.000000
1465.436000,7624.121203,-7698.141797,1225.752797
1465.436329,7920.203579,-9030.512492,2068.457845
1465.436658,8438.347739,-8438.347739,3064.381992
1465.436987,8068.244768,-7254.018232,995.924147
1465.437317,6439.791695,-6883.915261,1762.019645
1465.437646,7402.059420,-6735.874072,2374.896044
1465.437975,8734.430116,-6513.812290,1685.410096
1465.438304,8290.306550,-4441.235652,1225.752797
1465.438633,6439.791695,-5255.462188,919.314598
1465.438962,6143.709319,-4589.276840,-383.047749
1465.439292,5625.565159,-4071.132681,-995.924147
1465.439621,5329.482782,-6439.791695,-306.438199
1465.439950,6883.915261,-7772.162391,1378.971896
1465.440279,8216.285956,-8586.388927,3217.601092
1465.440608,8808.450710,-8808.450710,3600.648841
1465.440937,8512.368333,-7402.059420,2298.286494
1465.441267,6957.935855,-6217.729913,459.657299
1465.441596,5181.441594,-6365.771101,-306.438199
1465.441925,5847.626942,-7105.977043,229.828649
1465.442254,7624.121203,-6735.874072,612.876398
1465.442583,8586.388927,-5107.421000,1685.410096
1465.442912,8364.327145,-6217.729913,1378.971896
1465.443242,7772.162391,-6069.688724,1225.752797
1465.443571,4959.379811,-5699.585753,-383.047749
1465.443900,4737.318029,-7105.977043,536.266849
1465.444229,5847.626942,-6957.935855,459.657299
1465.444558,6587.832884,-7179.997637,766.095498
1465.444888,7476.080014,-7698.141797,2068.457845
1465.445217,8290.306550,-7476.080014,2374.896044
1465.445546,7402.059420,-5921.647536,919.314598
1465.445875,5255.462188,-5477.523971,612.876398
1465.446204,6069.688724,-6291.750507,1149.143247
1465.446533,8216.285956,-5995.668130,995.924147
1465.446863,8586.388927,-6735.874072,2068.457845
1465.447192,7994.224174,-7031.956449,2145.067394
1465.447521,7254.018232,-5921.647536,459.657299
1465.447850,5107.421000,-4959.379811,-1455.581446
1465.448179,4219.173869,-5699.585753,-766.095498
1465.448508,5995.668130,-7698.141797,76.609550
1465.448838,6809.894666,-8660.409521,919.314598
1465.449167,6883.915261,-8216.285956,2145.067394
1465.449496,7624.121203,-7179.997637,2221.676944
1465.449825,7994.224174,-6217.729913,1149.143247
1465.450154,6069.688724,-5625.565159,995.924147
1465.450484,6217.729913,-6513.812290,1302.362347
1465.450813,8364.327145,-5699.585753,1149.143247
1465.451142,8216.285956,-5107.421000,612.876398
1465.451471,8142.265362,-5995.668130,1991.848295
1465.451800,7105.977043,-5551.544565,1532.190996
1465.452129,5403.503377,-5477.523971,-1838.629195
1465.452459,3701.029710,-6513.812290,0.000000
1465.452788,5921.647536,-7772.162391,1225.752797
1465.453117,8364.327145,-7698.141797,1225.752797
1465.453446,8734.430116,-8586.388927,2911.162892
1465.453775,7994.224174,-8142.265362,2604.724693
1465.454104,7624.121203,-6291.750507,919.314598
1465.454434,4885.359217,-6735.874072,459.657299
1465.454763,4737.318029,-7254.018232,1455.581446
1465.455092,7624.121203,-6809.894666,1915.238745
1465.455421,8216.285956,-4589.276840,1685.410096
1465.455750,6661.853478,-4811.338623,459.657299
1465.456080,6439.791695,-6291.750507,1685.410096
1465.456409,6143.709319,-4663.297435,-459.657299
1465.456738,5181.441594,-6143.709319,-919.314598
1465.457067,5847.626942,-7624.121203,2374.896044
1465.457396,7846.182985,-7846.182985,2374.896044
1465.457725,9030.512492,-7994.224174,2068.457845
1465.458055,7994.224174,-7105.977043,2451.505594
1465.458384,7476.080014,-6217.729913,1455.581446
1465.458713,7179.997637,-5773.606348,0.000000
1465.459042,6735.874072,-6513.812290,1072.533697
1465.459371,8142.265362,-7031.956449,1072.533697
1465.459700,8808.450710,-6513.812290,1532.190996
1465.460030,7772.162391,-6069.688724,2145.067394
1465.460359,6661.853478,-6883.915261,842.705048
1465.460688,6143.709319,-5921.647536,153.219100
1465.461017,5107.421000,-5847.626942,0.000000
1465.461346,6069.688724,-7105.977043,766.095498
1465.461675,7624.121203,-6809.894666,1225.752797
1465.462005,7698.141797,-6735.874072,1455.581446
1465.462334,8068.244768,-7550.100608,2068.457845
1465.462663,8216.285956,-6513.812290,2068.457845
1465.462992,5995.668130,-4737.318029,306.438199
1465.463321,5403.503377,-5181.441594,0.000000
1465.463651,6735.874072,-7402.059420,842.705048
1465.463980,8882.471304,-7476.080014,1991.848295
1465.464309,8290.306550,-7031.956449,1455.581446
1465.464638,7031.956449,-7328.038826,1455.581446
1465.464967,5477.523971,-5921.647536,-1378.971896
1465.465296,4071.132681,-5995.668130,-1762.019645
1465.465626,4737.318029,-7846.182985,-229.828649
1465.465955,7772.162391,-7920.203579,1608.800546
1465.466284,9474.636058,-8068.244768,2987.772442
1465.466613,8882.471304,-7179.997637,3677.258390
1465.466942,7105.977043,-5107.421000,2298.286494
1465.467271,5181.441594,-3552.988522,-153.219100
1465.467601,4663.297435,-4071.132681,459.657299
1465.467930,7031.956449,-5773.606348,919.314598
1465.468259,8882.471304,-5107.421000,1455.581446
1465.468588,8882.471304,-4441.235652,2068.457845
1465.468917,8142.265362,-6291.750507,1685.410096
1465.469247,6217.729913,-7402.059420,-459.657299
1465.469576,4441.235652,-7994.224174,-612.876398
1465.469905,4737.318029,-9030.512492,-612.876398
1465.470234,6735.874072,-8586.388927,306.438199
1465.470563,7994.224174,-8290.306550,2451.505594
1465.470892,9178.553681,-7994.224174,2298.286494
1465.471222,9030.512492,-7254.018232,2528.115143
1465.471551,7105.977043,-5403.503377,1608.800546
1465.471880,5921.647536,-4441.235652,76.609550
1465.472209,6809.894666,-4515.256246,919.314598
1465.472538,8068.244768,-3923.091493,842.705048
1465.472867,8438.347739,-4663.297435,1072.533697
1465.473197,8216.285956,-5625.565159,919.314598
1465.473526,6957.935855,-6291.750507,-306.438199
1465.473855,5403.503377,-7550.100608,-306.438199
1465.474184,5995.668130,-9252.574275,766.095498
1465.474513,6735.874072,-9844.739029,919.314598
1465.474842,7179.997637,-9474.636058,1378.971896
1465.475172,8364.327145,-8438.347739,2145.067394
1465.475501,7920.203579,-6217.729913,1838.629195
1465.475830,6365.771101,-3997.112087,842.705048
1465.476159,5329.482782,-4663.297435,842.705048
1465.476488,7179.997637,-3997.112087,1072.533697
1465.476818,8512.368333,-5107.421000,1378.971896
1465.477147,7402.059420,-6143.709319,2834.553343
1465.477476,7698.141797,-5107.421000,2068.457845
1465.477805,6883.915261,-5551.544565,-1302.362347
1465.478134,4145.153275,-7328.038826,0.000000
1465.478463,5033.400406,-8438.347739,0.000000
1465.478793,6883.915261,-9326.594869,76.609550
1465.479122,6513.812290,-8808.450710,383.047749
1465.479451,7846.182985,-8068.244768,1838.629195
1465.479780,9252.574275,-7328.038826,2145.067394
1465.480109,7846.182985,-4367.215058,689.485948
1465.480438,5403.503377,-4441.235652,229.828649
1465.480768,7254.018232,-4663.297435,1149.143247
1465.481097,9104.533087,-3478.967927,1072.533697
1465.481426,8290.306550,-5181.441594,1455.581446
1465.481755,7476.080014,-4959.379811,1302.362347
1465.482084,6661.853478,-6587.832884,-1225.752797
1465.482414,5181.441594,-7105.977043,-1762.019645
1465.482743,5403.503377,-8882.471304,1685.410096
1465.483072,7698.141797,-9770.718434,1378.971896
1465.483401,8808.450710,-8142.265362,2068.457845
1465.483730,6957.935855,-7624.121203,2221.676944
1465.484060,6365.771101,-6365.771101,1608.800546
1465.484389,6587.832884,-4441.235652,306.438199
1465.484718,5625.565159,-4441.235652,383.047749
1465.485047,6217.729913,-4219.173869,459.657299
1465.485377,8364.327145,-4811.338623,766.095498
1465.485706,8660.409521,-5699.585753,1762.019645
1465.486035,7476.080014,-7328.038826,1072.533697
1465.486364,6735.874072,-7105.977043,-383.047749
1465.486693,5699.585753,-7179.997637,-612.876398
1465.487023,4959.379811,-9474.636058,-383.047749
1465.487352,6957.935855,-9992.780217,1532.190996
1465.487681,8364.327145,-9696.697840,2451.505594
1465.488010,8734.430116,-7402.059420,1455.581446
1465.488339,7698.141797,-7254.018232,2681.334243
1465.488669,6735.874072,-3701.029710,995.924147
1465.488998,5921.647536,-3775.050304,689.485948
1465.489327,6957.935855,-3997.112087,1072.533697
1465.489656,8068.244768,-2368.659014,1225.752797
1465.489985,8438.347739,-4885.359217,1225.752797
1465.490315,7550.100608,-4885.359217,1532.190996
1465.490644,6661.853478,-6587.832884,0.000000
1465.490973,5921.647536,-7624.121203,-1149.143247
1465.491302,5403.503377,-10362.883188,919.314598
1465.491631,5773.606348,-11325.150913,766.095498
1465.491961,6661.853478,-9474.636058,1378.971896
1465.492290,6883.915261,-8364.327145,2145.067394
1465.492619,7476.080014,-7254.018232,2374.896044
1465.492948,6735.874072,-4589.276840,1302.362347
1465.493278,5551.544565,-4219.173869,1838.629195
1465.493607,7031.956449,-3923.091493,2145.067394
1465.493936,8364.327145,-3701.029710,1302.362347
1465.494265,8364.327145,-3701.029710,2451.505594
1465.494594,7550.100608,-5625.565159,1685.410096
1465.494924,7254.018232,-5773.606348,612.876398
1465.495253,5181.441594,-5995.668130,-1685.410096
1465.495582,4441.235652,-9104.533087,383.047749
1465.495911,6735.874072,-9252.574275,536.266849
1465.496240,7624.121203,-10955.047942,1225.752797
1465.496570,6809.894666,-9548.656652,2757.943793
1465.496899,7254.018232,-7476.080014,2451.505594
1465.497228,7179.997637,-7031.956449,1685.410096
1465.497557,5995.668130,-4515.256246,2451.505594
1465.497886,6735.874072,-2812.782580,1455.581446
1465.498216,8364.327145,-2886.803174,612.876398
1465.498545,7994.224174,-2886.803174,1762.019645
1465.498874,7328.038826,-4219.173869,2451.505594
1465.499203,7772.162391,-6513.812290,995.924147
1465.499533,6143.709319,-6291.750507,0.000000
1465.499862,4737.318029,-7920.203579,-306.438199
1465.500191,5921.647536,-10881.027347,306.438199
1465.500520,6661.853478,-10362.883188,995.924147
1465.500849,6513.812290,-9844.739029,1149.143247
1465.501179,7550.100608,-8290.306550,2374.896044
1465.501508,7402.059420,-6661.853478,1991.848295
1465.501837,5921.647536,-6069.688724,1991.848295
1465.502166,5699.585753,-5033.400406,2221.676944
1465.502495,7624.121203,-2738.761985,306.438199
1465.502825,8364.327145,-2664.741391,766.095498
1465.503154,7772.162391,-4367.215058,1991.848295
1465.503483,7772.162391,-4663.297435,536.266849
1465.503812,7105.977043,-6217.729913,-689.485948
1465.504141,6735.874072,-7772.162391,0.000000
1465.504471,6883.915261,-9104.533087,0.000000
1465.504800,8142.265362,-11547.212695,1225.752797
1465.505129,7402.059420,-9770.718434,1915.238745
1465.505458,7402.059420,-7254.018232,689.485948
1465.505787,5403.503377,-6735.874072,-1072.533697
1465.506117,4515.256246,-6217.729913,229.828649
1465.506446,6883.915261,-5773.606348,995.924147
1465.506775,8882.471304,-4145.153275,1991.848295
1465.507104,8290.306550,-3552.988522,1838.629195
1465.507434,8216.285956,-4515.256246,1991.848295
1465.507763,7698.141797,-4663.297435,1455.581446
1465.508092,5921.647536,-5181.441594,-1455.581446
1465.508421,4959.379811,-6883.915261,-1838.629195
1465.508750,6069.688724,-7920.203579,-153.219100
1465.509080,7328.038826,-8364.327145,-766.095498
1465.509409,7624.121203,-10807.006753,1455.581446
1465.509738,8290.306550,-9696.697840,3753.867940
1465.510067,8142.265362,-7920.203579,1149.143247
1465.510396,4589.276840,-6883.915261,536.266849
1465.510726,4885.359217,-4811.338623,1608.800546
1465.511055,7920.203579,-4737.318029,1608.800546
1465.511384,8438.347739,-4219.173869,1608.800546
1465.511713,7179.997637,-2516.700203,2298.286494
1465.512042,7476.080014,-4441.235652,383.047749
1465.512372,7031.956449,-4737.318029,-919.314598
1465.512701,4589.276840,-5773.606348,-536.266849
1465.513030,6069.688724,-9104.533087,995.924147
1465.513359,8586.388927,-9918.759623,1455.581446
1465.513689,7994.224174,-10955.047942,2451.505594
1465.514018,6809.894666,-10881.027347,2681.334243
1465.514347,7328.038826,-6809.894666,689.485948
1465.514676,5107.421000,-7179.997637,-229.828649
1465.515005,4145.153275,-6291.750507,76.609550
1465.515335,6809.894666,-4737.318029,766.095498
1465.515664,8586.388927,-3923.091493,919.314598
1465.515993,7698.141797,-2442.679609,2374.896044
1465.516322,7772.162391,-4293.194464,1838.629195
1465.516651,7254.018232,-4959.379811,0.000000
1465.516981,5033.400406,-5625.565159,383.047749
1465.517310,5403.503377,-7994.224174,842.705048
1465.517639,7846.182985,-7846.182985,842.705048
1465.517968,8882.471304,-8586.388927,2145.067394
1465.518297,8512.368333,-9918.759623,2604.724693
1465.518627,7476.080014,-8512.368333,2221.676944
1465.518956,5329.482782,-6513.812290,1378.971896
1465.519285,4441.235652,-6069.688724,536.266849
1465.519614,5847.626942,-4737.318029,919.314598
1465.519944,7698.141797,-3849.070898,1915.238745
1465.520273,8290.306550,-4441.235652,3217.601092
1465.520602,8290.306550,-5033.400406,2374.896044
1465.520931,7254.018232,-4219.173869,842.705048
1465.521260,6217.729913,-5551.544565,-306.438199
1465.521590,6513.812290,-9696.697840,1685.410096
1465.521919,7179.997637,-9844.739029,2145.067394
1465.522248,7031.956449,-9178.553681,995.924147
1465.522577,7179.997637,-8364.327145,1225.752797
1465.522906,7105.977043,-8216.285956,2221.676944
1465.523236,6661.853478,-7550.100608,1149.143247
1465.523565,6143.709319,-6735.874072,612.876398
1465.523894,6883.915261,-5403.503377,919.314598
1465.524223,8586.388927,-4885.359217,1608.800546
1465.524552,8882.471304,-3849.070898,1455.581446
1465.524882,7550.100608,-4219.173869,536.266849
1465.525211,6439.791695,-3849.070898,-766.095498
1465.525540,5403.503377,-4885.359217,-919.314598
1465.525869,5773.606348,-8068.244768,842.705048
1465.526198,7698.141797,-8068.244768,1532.190996
