#time,accel_x,accel_y,accel_z
1340.493742,6513.812290,-6513.812290,766.095498
1340.494072,6735.874072,-6513.812290,919.314598
1340.494403,7105.977043,-6661.853478,1455.581446
1340.494734,7031.956449,-6587.832884,1455.581446
1340.495064,7105.977043,-6513.812290,919.314598
1340.495395,6735.874072,-6365.771101,995.924147
1340.495725,6883.915261,-6661.853478,612.876398
1340.496056,6735.874072,-6957.935855,842.705048
1340.496386,6661.853478,-6439.791695,1072.533697
1340.496717,7105.977043,-6587.832884,1072.533697
1340.497047,7105.977043,-6439.791695,1302.362347
1340.497378,7328.038826,-6291.750507,919.314598
1340.497709,7328.038826,-6365.771101,689.485948
1340.498039,7105.977043,-6439.791695,1225.752797
1340.498370,6957.935855,-6587.832884,689.485948
1340.498700,7031.956449,-5995.668130,919.314598
1340.499031,7031.956449,-6217.729913,1225.752797
1340.499361,7328.038826,-6439.791695,995.924147
1340.499692,7105.977043,-5921.647536,1455.581446
1340.500023,7328.038826,-6217.729913,1225.752797
1340.500353,6809.894666,-6365.771101,766.095498
1340.500684,6735.874072,-6957.935855,842.705048
1340.501014,6587.832884,-6291.750507,842.705048
1340.501345,6735.874072,-6735.874072,689.485948
1340.501675,6735.874072,-6957.935855,1149.143247
1340.502006,6661.853478,-7031.956449,1302.362347
1340.502337,6365.771101,-6661.853478,1685.410096
1340.502667,6735.874072,-7031.956449,1455.581446
1340.502998,6587.832884,-6883.915261,1149.143247
1340.503328,6513.812290,-6883.915261,1072.533697
1340.503659,6661.853478,-7031.956449,1225.752797
1340.503989,7031.956449,-6735.874072,1225.752797
1340.504320,7179.997637,-6513.812290,1149.143247
1340.504650,7105.977043,-6587.832884,1302.362347
1340.504981,7105.977043,-6809.894666,1072.533697
1340.505312,7402.059420,-6661.853478,1685.410096
1340.505642,7402.059420,-6809.894666,1149.143247
1340.505973,6957.935855,-6513.812290,842.705048
1340.506303,7105.977043,-6217.729913,919.314598
1340.506634,7105.977043,-6217.729913,1225.752797
1340.506964,7254.018232,-5625.565159,1455.581446
1340.507295,7105.977043,-6069.688724,995.924147
1340.507626,7031.956449,-5995.668130,995.924147
1340.507956,6957.935855,-6291.750507,1225.752797
1340.508287,6661.853478,-6217.729913,919.314598
1340.508617,6809.894666,-6439.791695,1149.143247
1340.508948,6883.915261,-6883.915261,1072.533697
1340.509278,6957.935855,-6809.894666,1072.533697
1340.509609,7105.977043,-6735.874072,919.314598
1340.509940,7105.977043,-6735.874072,1072.533697
1340.510270,6439.791695,-6809.894666,995.924147
1340.510601,6661.853478,-6883.915261,612.876398
1340.510931,6809.894666,-6809.894666,919.314598
1340.511262,6809.894666,-7031.956449,842.705048
1340.511592,7105.977043,-6291.750507,1225.752797
1340.511923,7179.997637,-6069.688724,1072.533697
1340.512254,7105.977043,-6661.853478,919.314598
1340.512584,7105.977043,-6513.812290,1072.533697
1340.512915,7179.997637,-6809.894666,1378.971896
1340.513245,7328.038826,-6513.812290,919.314598
1340.513576,7105.977043,-6439.791695,1455.581446
1340.513906,7402.059420,-6735.874072,1072.533697
1340.514237,7105.977043,-6661.853478,612.876398
1340.514567,7031.956449,-6291.750507,1302.362347
1340.514898,6883.915261,-6291.750507,919.314598
1340.515229,7105.977043,-6735.874072,995.924147
1340.515559,6735.874072,-6513.812290,1302.362347
1340.515890,6513.812290,-6365.771101,995.924147
1340.516220,6439.791695,-6587.832884,919.314598
1340.516551,6439.791695,-7031.956449,1455.581446
1340.516881,6809.894666,-7031.956449,1225.752797
1340.517212,6809.894666,-6661.853478,1225.752797
1340.517543,7031.956449,-7105.977043,1532.190996
1340.517873,6957.935855,-7179.997637,766.095498
1340.518204,6365.771101,-6957.935855,842.705048
1340.518534,6439.791695,-6883.915261,995.924147
1340.518865,7031.956449,-6809.894666,612.876398
1340.519195,7105.977043,-6143.709319,1455.581446
1340.519526,7179.997637,-6661.853478,842.705048
1340.519857,7328.038826,-6069.688724,1072.533697
1340.520187,7328.038826,-6587.832884,995.924147
1340.520518,7105.977043,-6439.791695,766.095498
1340.520848,7031.956449,-6439.791695,1149.143247
1340.521179,7105.977043,-6217.729913,842.705048
1340.521509,7254.018232,-6439.791695,1149.143247
1340.521840,7179.997637,-6587.832884,1378.971896
1340.522170,7105.977043,-6587.832884,1608.800546
1340.522501,7105.977043,-6217.729913,1225.752797
1340.522832,6883.915261,-6365.771101,1072.533697
1340.523162,6809.894666,-6587.832884,995.924147
1340.523493,6735.874072,-6735.874072,1072.533697
1340.523823,6883.915261,-6439.791695,1378.971896
1340.524154,6735.874072,-6587.832884,1072.533697
1340.524484,6883.915261,-6217.729913,919.314598
1340.524815,6513.812290,-6883.915261,919.314598
1340.525146,6735.874072,-7031.956449,919.314598
1340.525476,6735.874072,-6883.915261,919.314598
1340.525807,6661.853478,-6883.915261,1225.752797
1340.526137,7031.956449,-6883.915261,766.095498
1340.526468,7179.997637,-6291.750507,1072.533697
1340.526798,7179.997637,-6513.812290,919.314598
1340.527129,7179.997637,-6513.812290,1225.752797
1340.527460,7105.977043,-6143.709319,1072.533697
1340.527790,7328.038826,-6513.812290,1149.143247
1340.528121,6661.853478,-5995.668130,1532.190996
1340.528451,7179.997637,-6291.750507,536.266849
1340.528782,7105.977043,-6439.791695,1072.533697
1340.529112,6883.915261,-6439.791695,1302.362347
1340.529443,6883.915261,-6365.771101,1455.581446
1340.529774,6809.894666,-6217.729913,1378.971896
1340.530104,6735.874072,-6587.832884,1149.143247
1340.530435,6365.771101,-6513.812290,306.438199
1340.530765,6661.853478,-6661.853478,1072.533697
1340.531096,6661.853478,-7105.977043,1378.971896
1340.531426,6587.832884,-6365.771101,995.924147
1340.531757,6883.915261,-6883.915261,1149.143247
1340.532087,6809.894666,-6957.935855,1149.143247
1340.532418,6809.894666,-6883.915261,842.705048
1340.532749,6809.894666,-7402.059420,689.485948
1340.533079,6513.812290,-7105.977043,1149.143247
1340.533410,6661.853478,-7031.956449,919.314598
1340.533740,7105.977043,-6809.894666,1455.581446
1340.534071,7402.059420,-6439.791695,995.924147
1340.534401,7846.182985,-6809.894666,383.047749
1340.534732,7254.018232,-6291.750507,919.314598
1340.535063,7105.977043,-6439.791695,919.314598
1340.535393,6957.935855,-6143.709319,919.314598
1340.535724,6809.894666,-5921.647536,1302.362347
1340.536054,7402.059420,-6143.709319,995.924147
1340.536385,7179.997637,-6291.750507,1532.190996
1340.536715,7031.956449,-6439.791695,1149.143247
1340.537046,7105.977043,-6365.771101,842.705048
1340.537377,7031.956449,-6883.915261,1149.143247
1340.537707,6809.894666,-6513.812290,1225.752797
1340.538038,6661.853478,-6217.729913,919.314598
1340.538368,6809.894666,-6439.791695,1072.533697
1340.538699,6809.894666,-6587.832884,1302.362347
1340.539029,7179.997637,-6365.771101,459.657299
1340.539360,6957.935855,-6365.771101,1225.752797
1340.539690,6587.832884,-6735.874072,919.314598
1340.540021,7105.977043,-6957.935855,766.095498
1340.540352,6883.915261,-6957.935855,842.705048
1340.540682,6735.874072,-7105.977043,842.705048
1340.541013,7031.956449,-6661.853478,995.924147
1340.541343,7105.977043,-6439.791695,1149.143247
1340.541674,7105.977043,-6661.853478,995.924147
1340.542004,7846.182985,-6883.915261,1072.533697
1340.542335,7105.977043,-6661.853478,1149.143247
1340.542666,6957.935855,-6217.729913,842.705048
1340.542996,6957.935855,-6069.688724,1225.752797
1340.543327,7105.977043,-6143.709319,1149.143247
1340.543657,7476.080014,-6661.853478,1302.362347
1340.543988,7105.977043,-6291.750507,1455.581446
1340.544318,6809.894666,-6217.729913,919.314598
1340.544649,6513.812290,-6513.812290,1149.143247
1340.544980,6439.791695,-6513.812290,1455.581446
1340.545310,6513.812290,-6661.853478,995.924147
1340.545641,6587.832884,-7031.956449,1149.143247
1340.545971,6439.791695,-6809.894666,995.924147
1340.546302,6809.894666,-6735.874072,1378.971896
1340.546632,6365.771101,-6217.729913,1225.752797
1340.546963,6883.915261,-6735.874072,995.924147
1340.547294,6587.832884,-7105.977043,612.876398
1340.547624,6587.832884,-6661.853478,919.314598
1340.547955,7031.956449,-6957.935855,383.047749
1340.548285,7105.977043,-6513.812290,842.705048
1340.548616,7105.977043,-6291.750507,1149.143247
1340.548946,7328.038826,-6587.832884,1072.533697
1340.549277,7328.038826,-6587.832884,1225.752797
1340.549607,7550.100608,-6587.832884,1072.533697
1340.549938,7328.038826,-6291.750507,383.047749
1340.550269,6809.894666,-6587.832884,919.314598
1340.550599,7179.997637,-6365.771101,842.705048
1340.550930,7328.038826,-6439.791695,1302.362347
1340.551260,6957.935855,-6217.729913,1455.581446
1340.551591,7254.018232,-6217.729913,842.705048
1340.551921,7254.018232,-6291.750507,1149.143247
1340.552252,6809.894666,-6291.750507,1149.143247
1340.552583,6513.812290,-6069.688724,1072.533697
1340.552913,6661.853478,-6883.915261,1072.533697
1340.553244,7105.977043,-7031.956449,1149.143247
1340.553574,7402.059420,-6439.791695,1149.143247
1340.553905,7328.038826,-7031.956449,1225.752797
1340.554235,7031.956449,-6809.894666,1532.190996
1340.554566,6809.894666,-7105.977043,766.095498
1340.554897,6587.832884,-7105.977043,919.314598
1340.555227,6661.853478,-7105.977043,1149.143247
1340.555558,7105.977043,-6365.771101,459.657299
1340.555888,7105.977043,-5995.668130,1378.971896
1340.556219,7179.997637,-6217.729913,919.314598
1340.556549,7179.997637,-6217.729913,842.705048
1340.556880,7105.977043,-6513.812290,995.924147
1340.557210,7031.956449,-6439.791695,306.438199
1340.557541,7031.956449,-6291.750507,995.924147
1340.557872,7105.977043,-6513.812290,1149.143247
1340.558201,6883.915261,-6587.832884,1225.752797
1340.558531,7179.997637,-6439.791695,1762.019645
1340.558860,6883.915261,-6217.729913,1072.533697
1340.559190,6883.915261,-6513.812290,995.924147
1340.559519,6513.812290,-6069.688724,1072.533697
1340.559849,6587.832884,-6809.894666,919.314598
1340.560178,6809.894666,-6809.894666,1378.971896
1340.560508,6809.894666,-6439.791695,1378.971896
1340.560837,7105.977043,-6587.832884,1302.362347
1340.561167,6809.894666,-6587.832884,995.924147
1340.561496,6587.832884,-6735.874072,1455.581446
1340.561825,6587.832884,-7031.956449,842.705048
1340.562155,6365.771101,-6957.935855,766.095498
1340.562484,6513.812290,-7105.977043,689.485948
1340.562814,6809.894666,-6957.935855,612.876398
1340.563143,7105.977043,-6365.771101,1455.581446
1340.563473,7105.977043,-6883.915261,1225.752797
1340.563802,7105.977043,-6439.791695,842.705048
1340.564132,7402.059420,-6365.771101,995.924147
1340.564461,7179.997637,-6291.750507,995.924147
1340.564791,6809.894666,-6217.729913,1378.971896
1340.565120,7105.977043,-6069.688724,995.924147
1340.565450,7179.997637,-6069.688724,919.314598
1340.565779,7179.997637,-6291.750507,1225.752797
1340.566109,7105.977043,-6143.709319,689.485948
1340.566438,6883.915261,-6587.832884,995.924147
1340.566768,6735.874072,-6587.832884,1149.143247
1340.567097,6513.812290,-6291.750507,766.095498
1340.567427,6661.853478,-6587.832884,689.485948
1340.567756,6957.935855,-7105.977043,1455.581446
1340.568086,7105.977043,-6661.853478,842.705048
1340.568415,7105.977043,-6513.812290,995.924147
1340.568745,6883.915261,-6217.729913,1149.143247
1340.569074,6883.915261,-6809.894666,919.314598
1340.569404,6883.915261,-7031.956449,766.095498
1340.569733,6587.832884,-6957.935855,689.485948
1340.570063,7105.977043,-7031.956449,1072.533697
1340.570392,7105.977043,-6365.771101,1149.143247
1340.570722,7254.018232,-6439.791695,1991.848295
1340.571051,7179.997637,-6513.812290,919.314598
1340.571381,7105.977043,-6439.791695,1225.752797
1340.571710,7179.997637,-6365.771101,766.095498
1340.572040,7105.977043,-6365.771101,1225.752797
1340.572369,7402.059420,-6143.709319,1072.533697
1340.572699,7105.977043,-6439.791695,1149.143247
1340.573028,7105.977043,-5921.647536,1225.752797
1340.573358,7105.977043,-6513.812290,1225.752797
1340.573687,7179.997637,-5921.647536,689.485948
1340.574017,6439.791695,-7031.956449,1225.752797
1340.574346,6291.750507,-6735.874072,1072.533697
1340.574676,6587.832884,-6883.915261,919.314598
1340.575005,6661.853478,-6957.935855,1149.143247
1340.575335,6883.915261,-6957.935855,1608.800546
1340.575664,6439.791695,-6513.812290,842.705048
1340.575994,6735.874072,-6587.832884,919.314598
1340.576323,6735.874072,-7179.997637,1302.362347
1340.576653,6809.894666,-6735.874072,0.000000
1340.576982,6513.812290,-6809.894666,1072.533697
1340.577311,6735.874072,-6957.935855,919.314598
1340.577641,6957.935855,-6661.853478,1149.143247
1340.577970,7105.977043,-6439.791695,612.876398
1340.578300,7105.977043,-6809.894666,919.314598
1340.578629,7105.977043,-6291.750507,842.705048
1340.578959,7105.977043,-6661.853478,842.705048
1340.579288,7105.977043,-6587.832884,1149.143247
1340.579618,7105.977043,-5699.585753,1455.581446
1340.579947,7476.080014,-6217.729913,612.876398
1340.580277,7105.977043,-6291.750507,919.314598
1340.580606,7105.977043,-6143.709319,995.924147
1340.580936,7105.977043,-6513.812290,842.705048
1340.581265,7179.997637,-6809.894666,1225.752797
1340.581595,6809.894666,-6291.750507,995.924147
1340.581924,6883.915261,-6587.832884,766.095498
1340.582254,6809.894666,-6809.894666,995.924147
1340.582583,6809.894666,-6883.915261,1072.533697
1340.582913,7105.977043,-6735.874072,1149.143247
1340.583242,6883.915261,-6661.853478,919.314598
1340.583572,6957.935855,-6513.812290,1072.533697
1340.583901,7031.956449,-6957.935855,1149.143247
1340.584231,6513.812290,-6217.729913,536.266849
1340.584560,7031.956449,-7031.956449,536.266849
1340.584890,7328.038826,-6735.874072,919.314598
1340.585219,7254.018232,-6291.750507,919.314598
1340.585549,7254.018232,-6661.853478,842.705048
1340.585878,7328.038826,-6809.894666,1685.410096
1340.586208,7254.018232,-6661.853478,1149.143247
1340.586537,7031.956449,-6439.791695,919.314598
1340.586867,7105.977043,-6291.750507,1225.752797
1340.587196,7254.018232,-6439.791695,919.314598
1340.587526,7328.038826,-6217.729913,1455.581446
1340.587855,7031.956449,-6291.750507,1302.362347
1340.588185,7105.977043,-5995.668130,1225.752797
1340.588514,6957.935855,-6365.771101,1225.752797
1340.588844,7254.018232,-6513.812290,1685.410096
1340.589173,6587.832884,-7031.956449,1072.533697
1340.589503,6587.832884,-6587.832884,995.924147
1340.589832,6661.853478,-7031.956449,1225.752797
1340.590162,6957.935855,-6809.894666,1532.190996
1340.590491,6587.832884,-6735.874072,842.705048
1340.590821,6587.832884,-7105.977043,1149.143247
1340.591150,6735.874072,-6883.915261,766.095498
1340.591480,6735.874072,-7031.956449,1149.143247
1340.591809,6587.832884,-6513.812290,1225.752797
1340.592139,6661.853478,-6365.771101,842.705048
1340.592468,7105.977043,-6217.729913,842.705048
1340.592798,7254.018232,-6735.874072,1072.533697
1340.593127,7179.997637,-6513.812290,1302.362347
1340.593456,6957.935855,-6365.771101,612.876398
1340.593786,6957.935855,-6587.832884,536.266849
1340.594115,6883.915261,-6439.791695,919.314598
1340.594445,7105.977043,-6661.853478,995.924147
1340.594774,7328.038826,-6513.812290,1225.752797
1340.595104,7105.977043,-6217.729913,2068.457845
1340.595433,7031.956449,-6365.771101,1149.143247
1340.595763,6957.935855,-6365.771101,1072.533697
1340.596092,6661.853478,-5921.647536,842.705048
1340.596422,7031.956449,-6143.709319,689.485948
1340.596751,6957.935855,-6735.874072,919.314598
1340.597081,6957.935855,-6661.853478,919.314598
1340.597410,7105.977043,-6957.935855,995.924147
1340.597740,6957.935855,-6735.874072,919.314598
1340.598069,6883.915261,-6587.832884,1302.362347
1340.598399,6883.915261,-7031.956449,919.314598
1340.598728,6661.853478,-6661.853478,766.095498
1340.599058,6735.874072,-6661.853478,995.924147
1340.599387,6957.935855,-7105.977043,842.705048
1340.599717,7328.038826,-6365.771101,1455.581446
1340.600046,7105.977043,-6439.791695,995.924147
1340.600376,7550.100608,-5995.668130,1072.533697
1340.600705,7328.038826,-6217.729913,766.095498
1340.601035,7328.038826,-6365.771101,842.705048
1340.601364,7254.018232,-6217.729913,1149.143247
1340.601694,7179.997637,-6143.709319,1072.533697
1340.602023,7254.018232,-6587.832884,919.314598
1340.602353,7254.018232,-6661.853478,1302.362347
1340.602682,7105.977043,-6513.812290,1149.143247
1340.603012,7031.956449,-6439.791695,919.314598
1340.603341,6809.894666,-6439.791695,1072.533697
1340.603671,7031.956449,-6069.688724,1072.533697
1340.604000,6661.853478,-6809.894666,1685.410096
1340.604330,6661.853478,-6735.874072,1149.143247
1340.604659,6735.874072,-6735.874072,1225.752797
1340.604989,6809.894666,-6365.771101,1072.533697
1340.605318,6661.853478,-6735.874072,1225.752797
1340.605648,6439.791695,-6883.915261,1378.971896
1340.605977,5995.668130,-7402.059420,995.924147
1340.606307,6661.853478,-7105.977043,1072.533697
1340.606636,6735.874072,-6957.935855,766.095498
1340.606966,6957.935855,-6883.915261,766.095498
1340.607295,7698.141797,-5699.585753,1378.971896
1340.607625,7920.203579,-5477.523971,995.924147
1340.607954,8438.347739,-5329.482782,1532.190996
1340.608284,8216.285956,-5551.544565,919.314598
1340.608613,7772.162391,-5921.647536,766.095498
1340.608942,7105.977043,-6439.791695,536.266849
1340.609272,6291.750507,-6957.935855,0.000000
1340.609601,6069.688724,-6439.791695,383.047749
1340.609931,7031.956449,-6883.915261,919.314598
1340.610260,8142.265362,-6365.771101,1608.800546
1340.610590,8438.347739,-5551.544565,1762.019645
1340.610919,8216.285956,-4737.318029,1378.971896
1340.611249,7772.162391,-4293.194464,919.314598
1340.611578,7920.203579,-5181.441594,1915.238745
1340.611908,8068.244768,-4737.318029,1302.362347
1340.612237,8808.450710,-4885.359217,1532.190996
1340.612567,8586.388927,-4737.318029,1149.143247
1340.612896,8142.265362,-4367.215058,306.438199
1340.613226,7846.182985,-5551.544565,842.705048
1340.613555,8216.285956,-4737.318029,536.266849
1340.613885,8660.409521,-6291.750507,689.485948
1340.614214,8882.471304,-5773.606348,995.924147
1340.614544,8734.430116,-5403.503377,1072.533697
1340.614873,8216.285956,-6143.709319,459.657299
1340.615203,8290.306550,-5033.400406,1225.752797
1340.615532,8512.368333,-5403.503377,612.876398
1340.615862,8734.430116,-4589.276840,1302.362347
1340.616191,8660.409521,-3923.091493,1991.848295
1340.616521,9400.615463,-3923.091493,1225.752797
1340.616850,9474.636058,-3034.844362,1762.019645
1340.617180,9696.697840,-3701.029710,1685.410096
1340.617509,10066.800811,-2516.700203,1532.190996
1340.617839,10214.842000,-2590.720797,1685.410096
1340.618168,9622.677246,-2886.803174,1608.800546
1340.618498,9548.656652,-3182.885551,842.705048
1340.618827,9326.594869,-4811.338623,1455.581446
1340.619157,9326.594869,-4959.379811,919.314598
1340.619486,8512.368333,-5551.544565,1378.971896
1340.619816,8438.347739,-4811.338623,919.314598
1340.620145,8068.244768,-5699.585753,919.314598
1340.620475,7994.224174,-5699.585753,995.924147
1340.620804,7920.203579,-5255.462188,1072.533697
1340.621134,7476.080014,-5699.585753,766.095498
1340.621463,7772.162391,-5107.421000,689.485948
1340.621793,7994.224174,-5181.441594,536.266849
1340.622122,8512.368333,-4663.297435,383.047749
1340.622452,8882.471304,-4737.318029,689.485948
1340.622781,9548.656652,-4071.132681,459.657299
1340.623111,10140.821405,-4145.153275,536.266849
1340.623440,10362.883188,-4441.235652,919.314598
1340.623770,9992.780217,-4293.194464,1455.581446
1340.624099,9770.718434,-4219.173869,766.095498
1340.624428,8882.471304,-4515.256246,766.095498
1340.624758,8586.388927,-4293.194464,842.705048
1340.625087,9178.553681,-5255.462188,1685.410096
1340.625417,9622.677246,-4145.153275,2298.286494
1340.625746,9030.512492,-3775.050304,2221.676944
1340.626076,8290.306550,-3849.070898,1991.848295
1340.626405,8438.347739,-3849.070898,2374.896044
1340.626735,9104.533087,-3478.967927,1455.581446
1340.627064,9326.594869,-3478.967927,1532.190996
1340.627394,8808.450710,-3849.070898,1302.362347
1340.627723,8586.388927,-4219.173869,76.609550
1340.628053,8512.368333,-4737.318029,306.438199
1340.628382,8956.491898,-5551.544565,0.000000
1340.628712,9104.533087,-5625.565159,76.609550
1340.629041,9104.533087,-5403.503377,0.000000
1340.629371,8956.491898,-5477.523971,0.000000
1340.629700,8956.491898,-5773.606348,766.095498
1340.630030,8216.285956,-6735.874072,995.924147
1340.630359,8216.285956,-5847.626942,1072.533697
1340.630689,8290.306550,-5255.462188,1685.410096
1340.631018,8956.491898,-4885.359217,2221.676944
1340.631348,9326.594869,-3701.029710,2834.553343
1340.631677,9548.656652,-3552.988522,2221.676944
1340.632007,9474.636058,-1850.514855,1302.362347
1340.632336,10362.883188,-962.267725,306.438199
1340.632666,10510.924376,-148.041188,995.924147
1340.632995,10510.924376,-1184.329507,76.609550
1340.633325,10436.903782,-2220.617826,0.000000
1340.633654,10214.842000,-3849.070898,536.266849
1340.633984,9548.656652,-6217.729913,459.657299
1340.634313,8438.347739,-6587.832884,842.705048
1340.634643,7476.080014,-7994.224174,536.266849
1340.634972,6735.874072,-9474.636058,229.828649
1340.635302,6291.750507,-9178.553681,459.657299
1340.635631,6069.688724,-8364.327145,229.828649
1340.635961,6143.709319,-6735.874072,0.000000
1340.636290,7328.038826,-5107.421000,1072.533697
1340.636620,8956.491898,-3997.112087,1225.752797
1340.636949,9696.697840,-2812.782580,1762.019645
1340.637279,10436.903782,-1184.329507,1072.533697
1340.637608,10510.924376,-592.164754,1302.362347
1340.637938,10807.006753,-592.164754,1225.752797
1340.638267,11621.233289,0.000000,1149.143247
1340.638597,12509.480420,-740.205942,1072.533697
1340.638926,13101.645173,-1998.556043,1608.800546
1340.639256,11843.295072,-2442.679609,1915.238745
1340.639585,10066.800811,-5329.482782,1532.190996
1340.639914,8290.306550,-7846.182985,1685.410096
1340.640244,5995.668130,-8956.491898,1225.752797
1340.640573,3923.091493,-9622.677246,-306.438199
1340.640903,2738.761985,-9918.759623,-536.266849
1340.641232,3923.091493,-9474.636058,-459.657299
1340.641562,6069.688724,-8068.244768,153.219100
1340.641891,7550.100608,-6809.894666,1302.362347
1340.642221,9030.512492,-5107.421000,1302.362347
1340.642550,9622.677246,-3404.947333,689.485948
1340.642880,9918.759623,-2220.617826,919.314598
1340.643209,9844.739029,-1554.432478,1225.752797
1340.643539,11103.089130,-1332.370696,1149.143247
1340.643868,11547.212695,-1406.391290,1149.143247
1340.644198,12361.439231,-1776.494261,2145.067394
1340.644527,12953.603985,-3182.885551,3140.991542
1340.644857,12435.459826,-4219.173869,2987.772442
1340.645186,9844.739029,-5033.400406,1991.848295
1340.645516,6661.853478,-5699.585753,842.705048
1340.645845,5033.400406,-6809.894666,-536.266849
1340.646175,3330.926739,-8734.430116,-536.266849
1340.646504,2886.803174,-9252.574275,-229.828649
1340.646834,4367.215058,-9178.553681,0.000000
1340.647163,5551.544565,-7476.080014,0.000000
1340.647493,6661.853478,-5551.544565,-306.438199
1340.647822,7772.162391,-5403.503377,689.485948
1340.648152,8882.471304,-4885.359217,919.314598
1340.648481,9400.615463,-4737.318029,612.876398
1340.648811,8660.409521,-4441.235652,919.314598
1340.649140,8956.491898,-4589.276840,1532.190996
1340.649470,9992.780217,-5847.626942,1532.190996
1340.649799,9178.553681,-7105.977043,1991.848295
1340.650129,7031.956449,-8734.430116,1685.410096
1340.650458,5403.503377,-9474.636058,842.705048
1340.650788,4589.276840,-9178.553681,536.266849
1340.651117,4737.318029,-9474.636058,0.000000
1340.651447,4737.318029,-7328.038826,306.438199
1340.651776,5181.441594,-5403.503377,-459.657299
1340.652106,6365.771101,-4737.318029,0.000000
1340.652435,7920.203579,-3256.906145,0.000000
1340.652765,9326.594869,-3034.844362,1302.362347
1340.653094,10436.903782,-2590.720797,1762.019645
1340.653424,10436.903782,-3849.070898,2221.676944
1340.653753,9918.759623,-5255.462188,2068.457845
1340.654083,9400.615463,-5255.462188,1838.629195
1340.654412,8438.347739,-7328.038826,2068.457845
1340.654742,7624.121203,-7772.162391,1685.410096
1340.655071,6439.791695,-8956.491898,1225.752797
1340.655401,4737.318029,-8956.491898,1072.533697
1340.655730,4219.173869,-8142.265362,-536.266849
1340.656059,4071.132681,-7772.162391,229.828649
1340.656389,4737.318029,-8068.244768,1532.190996
1340.656718,6735.874072,-6069.688724,1915.238745
1340.657048,6883.915261,-5107.421000,1838.629195
1340.657377,6735.874072,-3923.091493,1378.971896
1340.657707,6957.935855,-4515.256246,766.095498
1340.658036,7031.956449,-5477.523971,766.095498
1340.658366,7105.977043,-6809.894666,1072.533697
1340.658695,7105.977043,-7179.997637,919.314598
1340.659025,6587.832884,-7624.121203,995.924147
1340.659354,7105.977043,-8660.409521,1608.800546
1340.659684,6735.874072,-8660.409521,1762.019645
1340.660013,7254.018232,-6587.832884,1455.581446
1340.660343,7254.018232,-7105.977043,1149.143247
1340.660672,7105.977043,-5699.585753,1762.019645
1340.661002,6513.812290,-5625.565159,1378.971896
1340.661331,5699.585753,-5329.482782,536.266849
1340.661661,6143.709319,-4515.256246,0.000000
1340.661990,6365.771101,-5773.606348,0.000000
1340.662320,6513.812290,-7105.977043,1072.533697
1340.662649,7179.997637,-7402.059420,1532.190996
1340.662979,7994.224174,-6143.709319,1685.410096
1340.663308,7920.203579,-5033.400406,1302.362347
1340.663637,7846.182985,-5551.544565,1149.143247
1340.663967,8882.471304,-5403.503377,1532.190996
1340.664296,9326.594869,-6957.935855,1455.581446
1340.664626,8216.285956,-7254.018232,2068.457845
1340.664955,7105.977043,-7624.121203,1455.581446
1340.665285,5699.585753,-7698.141797,459.657299
1340.665614,5255.462188,-7105.977043,229.828649
1340.665944,5033.400406,-8956.491898,-383.047749
1340.666273,5255.462188,-8956.491898,229.828649
1340.666603,5255.462188,-7994.224174,842.705048
1340.666932,5477.523971,-6439.791695,76.609550
1340.667262,5773.606348,-5107.421000,-229.828649
1340.667591,6809.894666,-5551.544565,76.609550
1340.667921,8512.368333,-5403.503377,459.657299
1340.668250,9622.677246,-6143.709319,1532.190996
1340.668579,9844.739029,-5921.647536,2221.676944
1340.668909,9474.636058,-5551.544565,2221.676944
1340.669238,8734.430116,-5403.503377,1302.362347
1340.669568,7402.059420,-5995.668130,689.485948
1340.669897,7105.977043,-7402.059420,1302.362347
1340.670227,6661.853478,-7105.977043,1838.629195
1340.670556,6069.688724,-6661.853478,766.095498
1340.670886,5181.441594,-5773.606348,306.438199
1340.671215,4737.318029,-5625.565159,-153.219100
1340.671545,6143.709319,-6661.853478,229.828649
1340.671874,7328.038826,-5699.585753,459.657299
1340.672204,7994.224174,-5551.544565,1455.581446
1340.672533,8438.347739,-6217.729913,1838.629195
1340.672863,8586.388927,-5699.585753,1991.848295
1340.673192,8068.244768,-6957.935855,919.314598
1340.673522,7105.977043,-7994.224174,995.924147
1340.673851,6439.791695,-9030.512492,689.485948
1340.674180,6661.853478,-9474.636058,1378.971896
1340.674510,6513.812290,-8660.409521,1915.238745
1340.674839,6513.812290,-6957.935855,995.924147
1340.675169,5995.668130,-5551.544565,1072.533697
1340.675498,6069.688724,-5477.523971,1072.533697
1340.675828,6587.832884,-5033.400406,1149.143247
1340.676157,7402.059420,-5107.421000,1685.410096
1340.676487,6735.874072,-4737.318029,1149.143247
1340.676816,6291.750507,-4589.276840,306.438199
1340.677146,6291.750507,-5551.544565,536.266849
1340.677475,7402.059420,-6439.791695,919.314598
1340.677805,8438.347739,-7698.141797,1838.629195
1340.678134,7920.203579,-7698.141797,2221.676944
1340.678464,6883.915261,-8290.306550,1991.848295
1340.678793,5699.585753,-8216.285956,842.705048
1340.679122,5255.462188,-7846.182985,306.438199
1340.679452,5255.462188,-7402.059420,153.219100
1340.679781,6735.874072,-7105.977043,459.657299
1340.680111,7179.997637,-6365.771101,1608.800546
1340.680440,7402.059420,-5477.523971,1991.848295
1340.680770,7328.038826,-5625.565159,1302.362347
1340.681099,7328.038826,-5625.565159,919.314598
1340.681429,6661.853478,-6883.915261,-76.609550
1340.681758,6217.729913,-7698.141797,612.876398
1340.682088,5995.668130,-7402.059420,842.705048
1340.682417,6809.894666,-7031.956449,766.095498
1340.682747,7105.977043,-6735.874072,1991.848295
1340.683076,8142.265362,-6439.791695,1225.752797
1340.683406,8734.430116,-6513.812290,1072.533697
1340.683735,8808.450710,-5773.606348,1762.019645
1340.684064,8512.368333,-5847.626942,995.924147
1340.684394,7328.038826,-5847.626942,1149.143247
1340.684723,6587.832884,-5773.606348,1072.533697
1340.685053,6143.709319,-6365.771101,766.095498
1340.685382,6809.894666,-6217.729913,459.657299
1340.685712,7328.038826,-7105.977043,1455.581446
1340.686041,7105.977043,-7772.162391,1455.581446
1340.686371,6291.750507,-6883.915261,766.095498
1340.686700,5847.626942,-6217.729913,0.000000
1340.687030,6143.709319,-6217.729913,-459.657299
1340.687359,7179.997637,-5921.647536,229.828649
1340.687689,8660.409521,-5921.647536,995.924147
1340.688018,9326.594869,-5921.647536,1991.848295
1340.688348,8956.491898,-5477.523971,1838.629195
1340.688677,7994.224174,-5625.565159,1838.629195
1340.689006,7402.059420,-5995.668130,1149.143247
1340.689336,6513.812290,-6661.853478,459.657299
1340.689665,5995.668130,-7624.121203,612.876398
1340.689995,5625.565159,-7550.100608,842.705048
1340.690324,5625.565159,-7698.141797,1149.143247
1340.690654,5773.606348,-7402.059420,383.047749
1340.690983,5847.626942,-6883.915261,536.266849
1340.691313,6735.874072,-5551.544565,612.876398
1340.691642,7772.162391,-5181.441594,766.095498
1340.691972,8364.327145,-5921.647536,1378.971896
1340.692301,8216.285956,-5921.647536,1838.629195
1340.692631,7476.080014,-6217.729913,766.095498
1340.692960,6809.894666,-6217.729913,612.876398
1340.693290,6735.874072,-6883.915261,536.266849
1340.693619,6957.935855,-8068.244768,1302.362347
1340.693948,6587.832884,-8216.285956,1685.410096
1340.694278,5921.647536,-8068.244768,1225.752797
1340.694607,5699.585753,-6957.935855,536.266849
1340.694937,5699.585753,-6069.688724,0.000000
1340.695266,6365.771101,-7031.956449,229.828649
1340.695596,7179.997637,-6217.729913,1455.581446
1340.695925,8068.244768,-6365.771101,1455.581446
1340.696255,8290.306550,-5551.544565,1915.238745
1340.696584,7550.100608,-4959.379811,1225.752797
1340.696914,7476.080014,-6143.709319,919.314598
1340.697243,6957.935855,-6809.894666,919.314598
1340.697573,6365.771101,-8290.306550,1302.362347
1340.697902,6217.729913,-8068.244768,1455.581446
1340.698232,6069.688724,-7550.100608,1378.971896
1340.698561,6217.729913,-6661.853478,1149.143247
1340.698890,6439.791695,-5995.668130,1302.362347
1340.699220,6809.894666,-6217.729913,1225.752797
1340.699549,7846.182985,-5551.544565,2451.505594
1340.699879,8660.409521,-5329.482782,1991.848295
1340.700208,8142.265362,-5181.441594,2374.896044
1340.700538,7254.018232,-5255.462188,995.924147
1340.700867,6513.812290,-6439.791695,459.657299
1340.701197,6143.709319,-6809.894666,229.828649
1340.701526,6439.791695,-7476.080014,383.047749
1340.701856,6735.874072,-8290.306550,1685.410096
1340.702185,7254.018232,-7328.038826,1532.190996
1340.702515,6957.935855,-6809.894666,153.219100
1340.702844,6661.853478,-6217.729913,459.657299
1340.703174,7105.977043,-5699.585753,766.095498
1340.703503,7920.203579,-5921.647536,919.314598
1340.703832,7254.018232,-5699.585753,2221.676944
1340.704162,7698.141797,-6143.709319,1532.190996
1340.704491,7105.977043,-5551.544565,842.705048
1340.704821,6809.894666,-6143.709319,766.095498
1340.705150,6735.874072,-7550.100608,995.924147
1340.705480,6439.791695,-8216.285956,1685.410096
1340.705809,6217.729913,-7624.121203,995.924147
1340.706139,5625.565159,-7031.956449,919.314598
1340.706468,5995.668130,-6365.771101,383.047749
1340.706798,6883.915261,-6587.832884,536.266849
1340.707127,7254.018232,-6365.771101,612.876398
1340.707457,7846.182985,-5995.668130,1302.362347
1340.707786,7846.182985,-5403.503377,1762.019645
1340.708116,7994.224174,-5255.462188,1378.971896
1340.708445,6513.812290,-5921.647536,919.314598
1340.708774,5995.668130,-6587.832884,459.657299
1340.709104,6513.812290,-7402.059420,383.047749
1340.709433,7254.018232,-7624.121203,1532.190996
1340.709763,7179.997637,-7772.162391,1685.410096
1340.710092,6735.874072,-6661.853478,1302.362347
1340.710422,6365.771101,-5773.606348,76.609550
1340.710751,6735.874072,-6513.812290,-229.828649
1340.711081,7550.100608,-6291.750507,689.485948
1340.711410,8438.347739,-6217.729913,1608.800546
1340.711740,8290.306550,-4959.379811,1225.752797
1340.712069,8068.244768,-4811.338623,1072.533697
1340.712399,7920.203579,-5921.647536,1608.800546
1340.712728,6957.935855,-6587.832884,919.314598
1340.713058,6439.791695,-6957.935855,919.314598
1340.713387,5477.523971,-7846.182985,919.314598
1340.713716,5329.482782,-7624.121203,842.705048
1340.714046,5477.523971,-7772.162391,2068.457845
1340.714375,6365.771101,-7105.977043,995.924147
1340.714705,7179.997637,-6069.688724,612.876398
1340.715034,7254.018232,-6513.812290,995.924147
1340.715364,7994.224174,-6439.791695,1225.752797
1340.715693,7994.224174,-6143.709319,1149.143247
1340.716023,6735.874072,-5921.647536,766.095498
1340.716352,5995.668130,-6513.812290,0.000000
1340.716682,6513.812290,-6291.750507,842.705048
1340.717011,7550.100608,-7105.977043,1378.971896
1340.717341,7698.141797,-7772.162391,2068.457845
1340.717670,7254.018232,-7254.018232,1762.019645
1340.718000,5403.503377,-7105.977043,306.438199
1340.718329,5033.400406,-5995.668130,-459.657299
1340.718658,6217.729913,-5921.647536,76.609550
1340.718988,8216.285956,-6143.709319,1532.190996
1340.719317,9252.574275,-5847.626942,2987.772442
1340.719647,9178.553681,-5403.503377,2987.772442
1340.719976,8364.327145,-4589.276840,1991.848295
1340.720306,7105.977043,-5181.441594,842.705048
1340.720635,6513.812290,-6809.894666,153.219100
1340.720965,5255.462188,-8068.244768,229.828649
1340.721294,5181.441594,-8808.450710,995.924147
1340.721624,5329.482782,-8438.347739,1532.190996
1340.721953,5403.503377,-7698.141797,766.095498
1340.722283,6587.832884,-6661.853478,153.219100
1340.722612,6809.894666,-6217.729913,842.705048
1340.722942,7624.121203,-6513.812290,919.314598
1340.723271,7994.224174,-5477.523971,1915.238745
1340.723600,8216.285956,-5477.523971,1072.533697
1340.723930,7698.141797,-5033.400406,842.705048
1340.724259,7328.038826,-5551.544565,1149.143247
1340.724589,7254.018232,-7031.956449,1225.752797
1340.724918,8068.244768,-6513.812290,1532.190996
1340.725248,7846.182985,-7994.224174,2451.505594
1340.725577,6513.812290,-7772.162391,1072.533697
1340.725907,5033.400406,-6661.853478,76.609550
1340.726236,5033.400406,-6217.729913,-612.876398
1340.726566,6809.894666,-6883.915261,0.000000
1340.726895,7550.100608,-7031.956449,1532.190996
1340.727225,8438.347739,-6365.771101,2068.457845
1340.727554,8068.244768,-5403.503377,1915.238745
1340.727884,7328.038826,-5625.565159,1072.533697
1340.728213,6957.935855,-6661.853478,919.314598
1340.728542,6513.812290,-7550.100608,766.095498
1340.728872,6513.812290,-8290.306550,1225.752797
1340.729201,6439.791695,-8068.244768,1455.581446
1340.729531,6365.771101,-6883.915261,1378.971896
1340.729860,6291.750507,-6291.750507,689.485948
1340.730190,6587.832884,-6513.812290,383.047749
1340.730519,7328.038826,-6291.750507,766.095498
1340.730849,8290.306550,-5773.606348,995.924147
1340.731178,8068.244768,-5107.421000,1762.019645
1340.731508,7476.080014,-4737.318029,1378.971896
1340.731837,7105.977043,-5699.585753,306.438199
1340.732167,7328.038826,-6291.750507,229.828649
1340.732496,6883.915261,-7328.038826,919.314598
1340.732826,7179.997637,-7105.977043,1762.019645
1340.733155,6809.894666,-7328.038826,1302.362347
1340.733485,6365.771101,-7624.121203,919.314598
1340.733814,5921.647536,-6439.791695,383.047749
1340.734143,6513.812290,-5995.668130,689.485948
1340.734473,7698.141797,-6513.812290,1072.533697
1340.734802,8586.388927,-6069.688724,1991.848295
1340.735132,8364.327145,-5773.606348,1762.019645
1340.735461,7105.977043,-5625.565159,919.314598
1340.735791,6439.791695,-6365.771101,1149.143247
1340.736120,5699.585753,-7402.059420,842.705048
1340.736450,5625.565159,-8068.244768,689.485948
1340.736779,5551.544565,-8808.450710,1072.533697
1340.737109,5551.544565,-7920.203579,919.314598
1340.737438,5329.482782,-8290.306550,689.485948
1340.737768,5255.462188,-6957.935855,842.705048
1340.738097,5773.606348,-5995.668130,0.000000
1340.738427,7402.059420,-5625.565159,1072.533697
1340.738756,9326.594869,-4811.338623,1149.143247
1340.739085,9992.780217,-4663.297435,2451.505594
1340.739415,9918.759623,-4071.132681,2374.896044
1340.739744,8438.347739,-5255.462188,1685.410096
1340.740074,7402.059420,-5625.565159,842.705048
1340.740403,6883.915261,-6439.791695,919.314598
1340.740733,6143.709319,-8068.244768,1072.533697
1340.741062,5699.585753,-7994.224174,1455.581446
1340.741392,4811.338623,-7994.224174,1225.752797
1340.741721,5255.462188,-6883.915261,1072.533697
1340.742051,6587.832884,-6217.729913,689.485948
1340.742380,7624.121203,-5847.626942,1225.752797
1340.742710,8142.265362,-5625.565159,2068.457845
1340.743039,8438.347739,-5329.482782,1685.410096
1340.743369,8142.265362,-4737.318029,1532.190996
1340.743698,7476.080014,-5699.585753,536.266849
1340.744027,7402.059420,-6291.750507,1149.143247
1340.744357,7328.038826,-7254.018232,1378.971896
1340.744686,6735.874072,-8660.409521,1762.019645
1340.745016,6069.688724,-8808.450710,1455.581446
1340.745345,4885.359217,-8068.244768,766.095498
1340.745675,4737.318029,-7476.080014,-306.438199
1340.746004,5033.400406,-6439.791695,76.609550
1340.746334,6217.729913,-6217.729913,0.000000
1340.746663,7698.141797,-6291.750507,1302.362347
1340.746993,7920.203579,-5329.482782,1838.629195
1340.747322,7624.121203,-5033.400406,919.314598
1340.747652,7550.100608,-4959.379811,766.095498
1340.747981,7772.162391,-5107.421000,842.705048
1340.748311,7846.182985,-6513.812290,995.924147
1340.748640,7994.224174,-7105.977043,2068.457845
1340.748969,7402.059420,-7031.956449,1915.238745
1340.749299,7476.080014,-6143.709319,842.705048
1340.749628,6735.874072,-6217.729913,919.314598
1340.749958,6883.915261,-5995.668130,766.095498
1340.750287,7328.038826,-6365.771101,919.314598
1340.750617,7328.038826,-6439.791695,1149.143247
1340.750946,7328.038826,-6291.750507,1608.800546
1340.751276,6439.791695,-6291.750507,919.314598
1340.751605,5625.565159,-6513.812290,306.438199
1340.751935,5551.544565,-7772.162391,0.000000
1340.752264,5699.585753,-8364.327145,689.485948
1340.752594,6217.729913,-9030.512492,995.924147
1340.752923,6217.729913,-8364.327145,1149.143247
1340.753253,5847.626942,-7179.997637,919.314598
1340.753582,6217.729913,-7031.956449,459.657299
1340.753911,7402.059420,-6735.874072,842.705048
1340.754241,8438.347739,-6143.709319,1302.362347
1340.754570,9252.574275,-5773.606348,1685.410096
1340.754900,8808.450710,-5403.503377,1762.019645
1340.755229,7328.038826,-5551.544565,842.705048
1340.755559,6217.729913,-5107.421000,995.924147
1340.755888,6365.771101,-6587.832884,612.876398
1340.756218,6957.935855,-7105.977043,1225.752797
1340.756547,7179.997637,-7476.080014,1149.143247
1340.756877,7105.977043,-7254.018232,1762.019645
1340.757206,6291.750507,-6291.750507,306.438199
1340.757536,5921.647536,-6513.812290,383.047749
1340.757865,6513.812290,-6143.709319,689.485948
1340.758195,8216.285956,-6291.750507,766.095498
1340.758524,7994.224174,-6069.688724,1991.848295
1340.758853,7994.224174,-5773.606348,2068.457845
1340.759183,7328.038826,-5773.606348,1072.533697
1340.759512,7105.977043,-5995.668130,919.314598
1340.759841,6513.812290,-6513.812290,1608.800546
1340.760170,6809.894666,-8290.306550,1225.752797
1340.760499,5921.647536,-7698.141797,1608.800546
1340.760828,5625.565159,-6957.935855,1072.533697
1340.761157,5773.606348,-7179.997637,459.657299
1340.761486,6143.709319,-5995.668130,1455.581446
1340.761815,7105.977043,-5995.668130,919.314598
1340.762144,7994.224174,-5699.585753,1225.752797
1340.762473,8068.244768,-5107.421000,1762.019645
1340.762802,8290.306550,-5403.503377,1455.581446
1340.763131,8068.244768,-5033.400406,1378.971896
1340.763460,7624.121203,-5773.606348,1149.143247
1340.763789,7402.059420,-6365.771101,689.485948
1340.764119,7105.977043,-7328.038826,1302.362347
1340.764448,6661.853478,-7994.224174,1455.581446
1340.764777,6365.771101,-7920.203579,842.705048
1340.765106,5847.626942,-7624.121203,306.438199
1340.765435,5551.544565,-6513.812290,306.438199
1340.765764,6217.729913,-7105.977043,689.485948
1340.766093,7179.997637,-5921.647536,1149.143247
1340.766422,7698.141797,-5847.626942,1302.362347
1340.766751,7179.997637,-6069.688724,689.485948
1340.767080,6439.791695,-5551.544565,229.828649
1340.767409,6365.771101,-6661.853478,612.876398
1340.767738,7328.038826,-7328.038826,459.657299
1340.768067,7698.141797,-7846.182985,1762.019645
1340.768396,7105.977043,-8216.285956,1302.362347
1340.768726,6439.791695,-7698.141797,1685.410096
1340.769055,5847.626942,-6957.935855,612.876398
1340.769384,6143.709319,-6217.729913,76.609550
1340.769713,6513.812290,-5921.647536,383.047749
1340.770042,7550.100608,-5847.626942,766.095498
1340.770371,7920.203579,-4959.379811,1225.752797
1340.770700,8290.306550,-5699.585753,1685.410096
1340.771029,8438.347739,-5107.421000,1302.362347
1340.771358,7328.038826,-5477.523971,1149.143247
1340.771687,6809.894666,-5921.647536,995.924147
1340.772016,6217.729913,-6883.915261,1685.410096
1340.772345,6587.832884,-7328.038826,1302.362347
1340.772674,6809.894666,-7772.162391,1608.800546
1340.773003,6439.791695,-7254.018232,919.314598
1340.773332,6513.812290,-6217.729913,229.828649
1340.773662,7105.977043,-5625.565159,1149.143247
1340.773991,7846.182985,-6439.791695,1378.971896
1340.774320,7624.121203,-5995.668130,1762.019645
1340.774649,6587.832884,-6291.750507,1149.143247
1340.774978,5773.606348,-6143.709319,306.438199
1340.775307,5699.585753,-6217.729913,689.485948
1340.775636,6291.750507,-7328.038826,689.485948
1340.775965,6957.935855,-8142.265362,1685.410096
1340.776294,6735.874072,-8216.285956,1149.143247
1340.776623,6143.709319,-7920.203579,766.095498
1340.776952,5551.544565,-6809.894666,536.266849
1340.777281,6809.894666,-5921.647536,0.000000
1340.777610,7624.121203,-6291.750507,612.876398
1340.777939,8216.285956,-6587.832884,1455.581446
1340.778268,9474.636058,-5403.503377,1762.019645
1340.778598,8512.368333,-5181.441594,1762.019645
1340.778927,7550.100608,-5329.482782,1608.800546
1340.779256,7105.977043,-5995.668130,612.876398
1340.779585,6513.812290,-6439.791695,689.485948
1340.779914,5403.503377,-7624.121203,995.924147
1340.780243,5847.626942,-8216.285956,1225.752797
1340.780572,6291.750507,-7402.059420,1072.533697
1340.780901,6291.750507,-6661.853478,1149.143247
1340.781230,6735.874072,-5551.544565,1072.533697
1340.781559,7550.100608,-5995.668130,1302.362347
1340.781888,8512.368333,-5551.544565,1685.410096
1340.782217,8956.491898,-5477.523971,1762.019645
1340.782546,8512.368333,-4811.338623,1455.581446
1340.782875,8216.285956,-5477.523971,1149.143247
1340.783204,7698.141797,-6957.935855,1455.581446
1340.783534,6735.874072,-6957.935855,459.657299
1340.783863,5181.441594,-7772.162391,383.047749
1340.784192,4811.338623,-7920.203579,842.705048
1340.784521,4885.359217,-8290.306550,383.047749
1340.784850,4811.338623,-7846.182985,229.828649
1340.785179,5403.503377,-6661.853478,306.438199
1340.785508,6513.812290,-6439.791695,689.485948
1340.785837,8216.285956,-5699.585753,1455.581446
1340.786166,8586.388927,-5625.565159,1685.410096
1340.786495,8216.285956,-5255.462188,1455.581446
1340.786824,7476.080014,-5181.441594,919.314598
1340.787153,7550.100608,-5995.668130,1378.971896
1340.787482,7846.182985,-6439.791695,1225.752797
1340.787811,7994.224174,-7328.038826,2145.067394
1340.788141,7920.203579,-7031.956449,2145.067394
1340.788470,6513.812290,-7105.977043,1455.581446
1340.788799,5477.523971,-5995.668130,229.828649
1340.789128,5329.482782,-6069.688724,0.000000
1340.789457,6069.688724,-6365.771101,229.828649
1340.789786,6883.915261,-6513.812290,919.314598
1340.790115,7105.977043,-6217.729913,1608.800546
1340.790444,7402.059420,-6365.771101,1762.019645
1340.790773,7105.977043,-7105.977043,1225.752797
1340.791102,6661.853478,-7402.059420,459.657299
1340.791431,5921.647536,-7920.203579,459.657299
1340.791760,5921.647536,-8142.265362,1532.190996
1340.792089,6143.709319,-8882.471304,1072.533697
1340.792418,5921.647536,-7846.182985,1072.533697
1340.792747,6143.709319,-6661.853478,383.047749
1340.793077,7105.977043,-5921.647536,612.876398
1340.793406,7846.182985,-5773.606348,1302.362347
1340.793735,8142.265362,-5477.523971,1762.019645
1340.794064,7772.162391,-4737.318029,1302.362347
1340.794393,7328.038826,-5181.441594,1149.143247
1340.794722,6513.812290,-4737.318029,766.095498
1340.795051,6513.812290,-5921.647536,306.438199
1340.795380,7031.956449,-6587.832884,1302.362347
1340.795709,7624.121203,-7402.059420,1762.019645
1340.796038,7772.162391,-7476.080014,1838.629195
1340.796367,7254.018232,-6217.729913,995.924147
1340.796696,6291.750507,-5921.647536,229.828649
1340.797025,6957.935855,-5699.585753,383.047749
1340.797354,7402.059420,-5847.626942,1149.143247
1340.797683,8512.368333,-5773.606348,1991.848295
1340.798013,8438.347739,-5329.482782,1685.410096
1340.798342,7402.059420,-6365.771101,1149.143247
1340.798671,6439.791695,-6439.791695,306.438199
1340.799000,5847.626942,-7105.977043,306.438199
1340.799329,5773.606348,-8142.265362,459.657299
1340.799658,5995.668130,-8216.285956,1149.143247
1340.799987,6587.832884,-8438.347739,1455.581446
1340.800316,6809.894666,-7179.997637,1072.533697
1340.800645,6439.791695,-6069.688724,842.705048
1340.800974,6217.729913,-6217.729913,536.266849
1340.801303,6809.894666,-5551.544565,383.047749
1340.801632,7254.018232,-5847.626942,919.314598
1340.801961,7624.121203,-5995.668130,1762.019645
1340.802290,8142.265362,-6069.688724,1302.362347
1340.802619,7772.162391,-6439.791695,1225.752797
1340.802949,7254.018232,-6069.688724,766.095498
1340.803278,6809.894666,-7105.977043,536.266849
1340.803607,6217.729913,-7254.018232,1302.362347
1340.803936,6365.771101,-7698.141797,1608.800546
1340.804265,6883.915261,-6809.894666,919.314598
1340.804594,6809.894666,-5477.523971,766.095498
1340.804923,7402.059420,-6143.709319,766.095498
1340.805252,8216.285956,-6291.750507,1455.581446
1340.805581,7698.141797,-5625.565159,1532.190996
1340.805910,7476.080014,-5181.441594,1225.752797
1340.806239,7328.038826,-5181.441594,1302.362347
1340.806568,6661.853478,-6587.832884,612.876398
1340.806897,6143.709319,-7179.997637,1149.143247
1340.807226,5699.585753,-8660.409521,995.924147
1340.807556,5847.626942,-8142.265362,995.924147
1340.807885,5625.565159,-7920.203579,995.924147
1340.808214,4959.379811,-7105.977043,459.657299
1340.808543,5847.626942,-7105.977043,612.876398
1340.808872,7105.977043,-6439.791695,766.095498
1340.809201,7994.224174,-6143.709319,1685.410096
1340.809530,7920.203579,-5107.421000,1915.238745
1340.809859,7772.162391,-4589.276840,1455.581446
1340.810188,7402.059420,-5477.523971,1302.362347
1340.810517,7179.997637,-5699.585753,689.485948
1340.810846,7179.997637,-6217.729913,1225.752797
1340.811175,7179.997637,-7179.997637,919.314598
1340.811504,7624.121203,-7698.141797,842.705048
1340.811833,7105.977043,-7476.080014,1532.190996
1340.812162,7254.018232,-6957.935855,766.095498
1340.812492,6587.832884,-6661.853478,459.657299
1340.812821,7031.956449,-6513.812290,1302.362347
1340.813150,7105.977043,-6513.812290,689.485948
1340.813479,7698.141797,-5773.606348,1225.752797
1340.813808,8068.244768,-6069.688724,1532.190996
1340.814137,7402.059420,-6957.935855,1302.362347
1340.814466,6513.812290,-6661.853478,1838.629195
1340.814795,6587.832884,-7105.977043,612.876398
1340.815124,6365.771101,-7920.203579,995.924147
1340.815453,5995.668130,-8068.244768,1302.362347
1340.815782,5921.647536,-7846.182985,995.924147
1340.816111,5699.585753,-6735.874072,612.876398
1340.816440,5699.585753,-7105.977043,842.705048
1340.816769,6661.853478,-6069.688724,459.657299
1340.817098,7328.038826,-5033.400406,766.095498
1340.817428,7920.203579,-5699.585753,1608.800546
1340.817757,7402.059420,-5551.544565,1532.190996
1340.818086,6661.853478,-5551.544565,1225.752797
1340.818415,6439.791695,-5921.647536,919.314598
1340.818744,6735.874072,-5921.647536,536.266849
1340.819073,7328.038826,-6957.935855,1455.581446
1340.819402,7031.956449,-7624.121203,1455.581446
1340.819731,7179.997637,-7476.080014,1838.629195
1340.820060,6735.874072,-6735.874072,1149.143247
1340.820389,6513.812290,-5995.668130,383.047749
1340.820718,7179.997637,-5699.585753,766.095498
1340.821047,8290.306550,-5033.400406,1225.752797
1340.821376,8808.450710,-5403.503377,2068.457845
1340.821705,8734.430116,-5181.441594,2374.896044
1340.822034,8364.327145,-4737.318029,1532.190996
1340.822364,7328.038826,-5181.441594,612.876398
1340.822693,5995.668130,-6809.894666,459.657299
1340.823022,5181.441594,-9400.615463,0.000000
1340.823351,5551.544565,-8216.285956,229.828649
1340.823680,4959.379811,-9992.780217,1685.410096
1340.824009,5551.544565,-8142.265362,612.876398
1340.824338,6587.832884,-5255.462188,689.485948
1340.824667,7698.141797,-7105.977043,842.705048
1340.824996,8882.471304,-5329.482782,995.924147
1340.825325,7994.224174,-5699.585753,1072.533697
1340.825654,7328.038826,-5329.482782,1455.581446
1340.825983,7105.977043,-4737.318029,153.219100
1340.826312,7105.977043,-5773.606348,995.924147
1340.826641,7328.038826,-6439.791695,1072.533697
1340.826971,7476.080014,-6809.894666,1378.971896
1340.827300,8068.244768,-6587.832884,1915.238745
1340.827629,7254.018232,-6735.874072,766.095498
1340.827958,6513.812290,-6513.812290,1225.752797
1340.828287,6291.750507,-6143.709319,306.438199
1340.828616,6809.894666,-7105.977043,459.657299
1340.828945,7402.059420,-6661.853478,1608.800546
1340.829274,8216.285956,-5477.523971,1685.410096
1340.829603,7920.203579,-6217.729913,1378.971896
1340.829932,7254.018232,-5625.565159,1455.581446
1340.830261,6365.771101,-6957.935855,383.047749
1340.830590,5773.606348,-7179.997637,76.609550
1340.830919,5625.565159,-8216.285956,1149.143247
1340.831248,6809.894666,-7994.224174,1072.533697
1340.831577,6365.771101,-8068.244768,1225.752797
1340.831907,6143.709319,-7846.182985,1149.143247
1340.832236,5625.565159,-7105.977043,0.000000
1340.832565,5921.647536,-6809.894666,383.047749
1340.832894,6365.771101,-7476.080014,766.095498
1340.833223,7105.977043,-7254.018232,1072.533697
1340.833552,6957.935855,-6809.894666,1225.752797
1340.833881,6735.874072,-6587.832884,1149.143247
1340.834210,6735.874072,-6143.709319,306.438199
1340.834539,6883.915261,-6291.750507,689.485948
1340.834868,7031.956449,-6587.832884,919.314598
1340.835197,7179.997637,-6661.853478,1302.362347
1340.835526,7105.977043,-6217.729913,1532.190996
1340.835855,7031.956449,-5329.482782,842.705048
1340.836184,6957.935855,-5477.523971,919.314598
1340.836513,8438.347739,-4737.318029,1302.362347
1340.836843,9030.512492,-5477.523971,1838.629195
1340.837172,9400.615463,-5033.400406,2604.724693
1340.837501,8068.244768,-4959.379811,1685.410096
1340.837830,6809.894666,-5995.668130,766.095498
1340.838159,6217.729913,-7254.018232,612.876398
1340.838488,6661.853478,-7698.141797,383.047749
1340.838817,6513.812290,-8068.244768,1225.752797
1340.839146,6217.729913,-7846.182985,1532.190996
1340.839475,5921.647536,-7254.018232,842.705048
1340.839804,5995.668130,-5847.626942,153.219100
1340.840133,6365.771101,-5773.606348,0.000000
1340.840462,7476.080014,-5847.626942,459.657299
1340.840791,8142.265362,-5773.606348,995.924147
1340.841120,7920.203579,-5699.585753,1302.362347
1340.841450,7698.141797,-5477.523971,689.485948
1340.841779,7994.224174,-6291.750507,1302.362347
1340.842108,7105.977043,-7402.059420,689.485948
1340.842437,6661.853478,-7772.162391,919.314598
1340.842766,6439.791695,-7624.121203,842.705048
1340.843095,6883.915261,-7402.059420,995.924147
1340.843424,6217.729913,-7031.956449,919.314598
1340.843753,6513.812290,-6069.688724,612.876398
1340.844082,7624.121203,-5033.400406,153.219100
1340.844411,7846.182985,-5773.606348,1072.533697
1340.844740,8216.285956,-5329.482782,2221.676944
1340.845069,8364.327145,-5403.503377,1991.848295
1340.845398,7550.100608,-5551.544565,1378.971896
1340.845727,6513.812290,-6365.771101,766.095498
1340.846056,6365.771101,-7476.080014,306.438199
1340.846386,6217.729913,-8364.327145,1149.143247
1340.846715,6069.688724,-9400.615463,1608.800546
1340.847044,5847.626942,-8364.327145,919.314598
1340.847373,5477.523971,-8142.265362,689.485948
1340.847702,5255.462188,-7476.080014,0.000000
1340.848031,5995.668130,-7254.018232,229.828649
1340.848360,7105.977043,-6587.832884,1149.143247
1340.848689,8142.265362,-5551.544565,1302.362347
1340.849018,7920.203579,-4737.318029,1302.362347
1340.849347,7624.121203,-5625.565159,1378.971896
1340.849676,7328.038826,-6143.709319,153.219100
1340.850005,7179.997637,-6217.729913,842.705048
1340.850334,6809.894666,-7402.059420,689.485948
1340.850663,7179.997637,-7179.997637,2298.286494
1340.850992,7254.018232,-7550.100608,1915.238745
1340.851322,6513.812290,-7179.997637,1302.362347
1340.851651,5921.647536,-6217.729913,689.485948
1340.851980,5921.647536,-5255.462188,383.047749
1340.852309,6439.791695,-5699.585753,1072.533697
1340.852638,7254.018232,-5551.544565,1685.410096
1340.852967,7550.100608,-4959.379811,2068.457845
1340.853296,7698.141797,-5329.482782,1225.752797
1340.853625,6883.915261,-6217.729913,1532.190996
1340.853954,7031.956449,-6661.853478,1685.410096
1340.854283,7179.997637,-7402.059420,766.095498
1340.854612,6513.812290,-8512.368333,1532.190996
1340.854941,6291.750507,-8290.306550,842.705048
1340.855270,6513.812290,-7846.182985,842.705048
1340.855599,5995.668130,-7402.059420,689.485948
1340.855928,6365.771101,-6513.812290,0.000000
1340.856258,7328.038826,-5995.668130,689.485948
1340.856587,7698.141797,-6217.729913,1302.362347
1340.856916,7328.038826,-6883.915261,612.876398
1340.857245,6735.874072,-6513.812290,1072.533697
1340.857574,6291.750507,-6217.729913,0.000000
1340.857903,6291.750507,-6439.791695,459.657299
1340.858232,7031.956449,-6439.791695,1378.971896
1340.858561,7920.203579,-6809.894666,1762.019645
1340.858890,8142.265362,-6365.771101,1302.362347
1340.859219,7476.080014,-5699.585753,1072.533697
1340.859548,7476.080014,-5403.503377,536.266849
1340.859877,8142.265362,-5255.462188,842.705048
1340.860206,7920.203579,-5995.668130,1378.971896
1340.860535,8142.265362,-5773.606348,1838.629195
1340.860865,8142.265362,-4959.379811,1608.800546
1340.861194,7476.080014,-5107.421000,1072.533697
1340.861523,6809.894666,-5847.626942,612.876398
1340.861852,6365.771101,-6883.915261,995.924147
1340.862181,6069.688724,-7772.162391,1225.752797
1340.862510,5921.647536,-7846.182985,1072.533697
1340.862839,5847.626942,-7402.059420,459.657299
1340.863168,5995.668130,-6957.935855,0.000000
1340.863497,6587.832884,-6587.832884,536.266849
1340.863826,7994.224174,-5477.523971,536.266849
1340.864156,8586.388927,-5625.565159,1608.800546
1340.864485,8808.450710,-5699.585753,1685.410096
1340.864814,7550.100608,-5921.647536,612.876398
1340.865143,6217.729913,-6439.791695,383.047749
1340.865472,5773.606348,-6883.915261,229.828649
1340.865801,5625.565159,-8216.285956,689.485948
1340.866130,6439.791695,-8142.265362,1149.143247
1340.866459,6365.771101,-8364.327145,1455.581446
1340.866788,6143.709319,-7254.018232,995.924147
1340.867117,6069.688724,-6291.750507,536.266849
1340.867447,6587.832884,-6587.832884,306.438199
1340.867776,7550.100608,-5995.668130,1072.533697
1340.868105,7550.100608,-5921.647536,1608.800546
1340.868434,8216.285956,-5625.565159,1685.410096
1340.868763,7402.059420,-5477.523971,1915.238745
1340.869092,7254.018232,-6217.729913,1225.752797
1340.869421,6513.812290,-7402.059420,995.924147
1340.869750,6439.791695,-7846.182985,612.876398
1340.870079,6217.729913,-8290.306550,1302.362347
1340.870409,6217.729913,-8438.347739,1072.533697
1340.870738,5477.523971,-8438.347739,995.924147
1340.871067,5403.503377,-7550.100608,689.485948
1340.871396,5921.647536,-6069.688724,153.219100
1340.871725,7328.038826,-6069.688724,1072.533697
1340.872054,8290.306550,-5551.544565,1838.629195
1340.872383,8660.409521,-4515.256246,2374.896044
1340.872712,8438.347739,-4145.153275,1762.019645
1340.873041,7624.121203,-4589.276840,1532.190996
1340.873370,8290.306550,-5773.606348,1302.362347
1340.873700,7550.100608,-6809.894666,1762.019645
1340.874029,6439.791695,-7698.141797,1532.190996
1340.874358,5995.668130,-8364.327145,995.924147
1340.874687,5551.544565,-8586.388927,536.266849
1340.875016,5329.482782,-8364.327145,153.219100
1340.875345,5995.668130,-8068.244768,612.876398
1340.875674,6365.771101,-7179.997637,766.095498
1340.876003,6587.832884,-7402.059420,842.705048
1340.876332,6883.915261,-5033.400406,1378.971896
1340.876661,5847.626942,-5329.482782,689.485948
1340.876991,6661.853478,-6217.729913,612.876398
1340.877320,7254.018232,-5625.565159,1608.800546
1340.877649,8586.388927,-6143.709319,2145.067394
1340.877978,8512.368333,-5847.626942,2834.553343
1340.878307,7550.100608,-6439.791695,1762.019645
1340.878636,6735.874072,-7105.977043,689.485948
1340.878965,6587.832884,-6291.750507,536.266849
1340.879294,7254.018232,-6957.935855,766.095498
1340.879623,7994.224174,-5625.565159,1455.581446
1340.879953,8290.306550,-5625.565159,1149.143247
1340.880282,7624.121203,-5403.503377,1915.238745
1340.880611,7105.977043,-5107.421000,1072.533697
1340.880940,6439.791695,-6217.729913,459.657299
1340.881269,6217.729913,-5551.544565,229.828649
1340.881598,5847.626942,-6735.874072,383.047749
1340.881927,6661.853478,-7772.162391,1302.362347
1340.882256,7476.080014,-7179.997637,1838.629195
1340.882585,7624.121203,-7550.100608,1685.410096
1340.882914,7105.977043,-6735.874072,1225.752797
1340.883244,6587.832884,-6439.791695,459.657299
1340.883573,7179.997637,-6291.750507,383.047749
1340.883902,7476.080014,-6365.771101,612.876398
1340.884231,7476.080014,-6513.812290,766.095498
1340.884560,7105.977043,-6513.812290,842.705048
1340.884889,6365.771101,-6217.729913,766.095498
1340.885218,6587.832884,-6587.832884,536.266849
1340.885547,6809.894666,-6957.935855,919.314598
1340.885876,5995.668130,-7698.141797,1302.362347
1340.886206,6217.729913,-8142.265362,1072.533697
1340.886535,6143.709319,-6809.894666,995.924147
1340.886864,7105.977043,-5773.606348,1072.533697
1340.887193,7402.059420,-6291.750507,1149.143247
1340.887522,7550.100608,-6069.688724,1302.362347
1340.887851,7624.121203,-6217.729913,1225.752797
1340.888180,8142.265362,-5921.647536,1532.190996
1340.888509,8364.327145,-6291.750507,1455.581446
1340.888838,6883.915261,-6587.832884,995.924147
1340.889167,6513.812290,-7031.956449,536.266849
1340.889497,5995.668130,-7105.977043,1149.143247
1340.889826,5847.626942,-7624.121203,536.266849
1340.890155,5995.668130,-7624.121203,919.314598
1340.890484,6217.729913,-7105.977043,1072.533697
1340.890813,6439.791695,-6735.874072,536.266849
1340.891142,6513.812290,-6439.791695,612.876398
1340.891471,7105.977043,-5477.523971,842.705048
1340.891800,7920.203579,-5847.626942,1072.533697
1340.892129,8216.285956,-5403.503377,1532.190996
1340.892458,8216.285956,-5995.668130,1302.362347
1340.892788,7772.162391,-6513.812290,1608.800546
1340.893117,6957.935855,-6587.832884,1302.362347
1340.893446,6217.729913,-7772.162391,612.876398
1340.893775,5847.626942,-8216.285956,919.314598
1340.894104,5107.421000,-7846.182985,383.047749
1340.894433,5921.647536,-7624.121203,383.047749
1340.894762,6217.729913,-6957.935855,995.924147
1340.895091,7105.977043,-5847.626942,842.705048
1340.895420,7920.203579,-5551.544565,1149.143247
1340.895750,8290.306550,-5033.400406,1455.581446
1340.896079,8216.285956,-5181.441594,1149.143247
1340.896408,7402.059420,-5921.647536,1149.143247
1340.896737,6957.935855,-6143.709319,1149.143247
1340.897066,6809.894666,-6365.771101,919.314598
1340.897395,7031.956449,-7105.977043,995.924147
1340.897724,7402.059420,-7402.059420,1838.629195
1340.898053,6513.812290,-8216.285956,612.876398
1340.898382,5773.606348,-7328.038826,612.876398
1340.898711,5107.421000,-6957.935855,0.000000
1340.899041,6513.812290,-7105.977043,76.609550
1340.899370,7105.977043,-5995.668130,689.485948
1340.899699,7772.162391,-5773.606348,1455.581446
1340.900028,8290.306550,-5255.462188,1762.019645
1340.900357,7994.224174,-5255.462188,1455.581446
1340.900686,7476.080014,-5699.585753,842.705048
1340.901015,7179.997637,-6143.709319,1072.533697
1340.901344,6809.894666,-7031.956449,919.314598
1340.901673,6587.832884,-7550.100608,995.924147
1340.902002,6809.894666,-8068.244768,1455.581446
1340.902332,6883.915261,-7105.977043,919.314598
1340.902661,6809.894666,-6069.688724,842.705048
1340.902990,6957.935855,-5995.668130,612.876398
1340.903319,7402.059420,-5477.523971,766.095498
1340.903648,7698.141797,-5921.647536,995.924147
1340.903977,7772.162391,-5773.606348,1685.410096
1340.904306,7624.121203,-5921.647536,1608.800546
1340.904635,6957.935855,-6069.688724,842.705048
1340.904964,6069.688724,-6143.709319,459.657299
1340.905294,5847.626942,-7402.059420,612.876398
1340.905623,6217.729913,-8068.244768,1149.143247
1340.905952,6069.688724,-7920.203579,995.924147
1340.906281,5921.647536,-7179.997637,689.485948
1340.906610,6291.750507,-6069.688724,536.266849
1340.906939,6957.935855,-6513.812290,306.438199
1340.907268,7994.224174,-6143.709319,1455.581446
1340.907597,8882.471304,-5625.565159,2068.457845
1340.907926,8512.368333,-5773.606348,1685.410096
1340.908255,7772.162391,-5625.565159,1302.362347
1340.908585,7179.997637,-6513.812290,766.095498
1340.908914,6439.791695,-7179.997637,536.266849
1340.909243,5995.668130,-8142.265362,1225.752797
1340.909572,5477.523971,-9030.512492,995.924147
1340.909901,6143.709319,-7179.997637,612.876398
1340.910230,6513.812290,-7105.977043,842.705048
1340.910559,6439.791695,-6217.729913,536.266849
1340.910888,6809.894666,-5255.462188,383.047749
1340.911217,7994.224174,-5995.668130,995.924147
1340.911546,8290.306550,-5551.544565,1532.190996
1340.911876,8216.285956,-5625.565159,1838.629195
1340.912205,7476.080014,-6365.771101,1455.581446
1340.912534,7105.977043,-5551.544565,766.095498
1340.912863,6957.935855,-7031.956449,689.485948
1340.913192,6661.853478,-7105.977043,1302.362347
1340.913521,7031.956449,-7476.080014,1685.410096
1340.913850,6587.832884,-7402.059420,1455.581446
1340.914179,5995.668130,-6439.791695,919.314598
1340.914508,5625.565159,-6587.832884,76.609550
1340.914838,6513.812290,-6365.771101,306.438199
1340.915167,6809.894666,-6513.812290,1302.362347
1340.915496,7698.141797,-6661.853478,1838.629195
1340.915825,8290.306550,-5625.565159,1302.362347
1340.916154,7402.059420,-5699.585753,766.095498
1340.916483,6809.894666,-6661.853478,689.485948
1340.916812,6439.791695,-7476.080014,1072.533697
1340.917141,5921.647536,-7402.059420,1302.362347
1340.917470,6513.812290,-7402.059420,1072.533697
1340.917799,6661.853478,-6513.812290,1608.800546
1340.918129,7031.956449,-6587.832884,1532.190996
1340.918458,7105.977043,-6217.729913,1378.971896
1340.918787,6809.894666,-5625.565159,1225.752797
1340.919116,6957.935855,-5033.400406,995.924147
1340.919445,6957.935855,-5033.400406,2068.457845
1340.919774,7105.977043,-5181.441594,1378.971896
1340.920103,6735.874072,-6513.812290,766.095498
1340.920432,6809.894666,-6735.874072,689.485948
1340.920761,6587.832884,-7105.977043,842.705048
1340.921091,7105.977043,-7624.121203,1455.581446
1340.921420,7476.080014,-7031.956449,1915.238745
1340.921749,7328.038826,-7031.956449,995.924147
1340.922078,7254.018232,-6661.853478,919.314598
1340.922407,6809.894666,-6217.729913,229.828649
1340.922736,7031.956449,-6143.709319,76.609550
1340.923065,7624.121203,-5995.668130,1225.752797
1340.923394,7476.080014,-5921.647536,2221.676944
1340.923723,7402.059420,-6587.832884,1455.581446
1340.924052,6809.894666,-6883.915261,383.047749
1340.924382,6069.688724,-7105.977043,76.609550
1340.924711,5255.462188,-8734.430116,383.047749
1340.925040,4959.379811,-9548.656652,306.438199
1340.925369,5403.503377,-7476.080014,383.047749
1340.925698,5551.544565,-8882.471304,842.705048
1340.926027,5995.668130,-7624.121203,689.485948
1340.926356,7031.956449,-5255.462188,1225.752797
1340.926685,8734.430116,-5551.544565,1762.019645
1340.927014,8808.450710,-4885.359217,1532.190996
1340.927343,8364.327145,-5107.421000,1685.410096
1340.927673,7476.080014,-4811.338623,1072.533697
1340.928002,6957.935855,-5699.585753,689.485948
1340.928331,7031.956449,-6217.729913,459.657299
1340.928660,7624.121203,-6069.688724,1149.143247
1340.928989,7698.141797,-7254.018232,1378.971896
1340.929318,8068.244768,-7105.977043,1838.629195
1340.929647,6883.915261,-6883.915261,1149.143247
1340.929976,6291.750507,-6883.915261,0.000000
1340.930305,6143.709319,-6143.709319,0.000000
1340.930635,6513.812290,-6735.874072,0.000000
1340.930964,7772.162391,-6587.832884,995.924147
1340.931293,7772.162391,-5773.606348,1915.238745
1340.931622,7920.203579,-5847.626942,1762.019645
1340.931951,7920.203579,-5921.647536,1149.143247
1340.932280,6735.874072,-6735.874072,766.095498
1340.932609,5921.647536,-6883.915261,842.705048
1340.932938,5181.441594,-7402.059420,612.876398
1340.933267,5403.503377,-7328.038826,919.314598
1340.933596,6291.750507,-7550.100608,1072.533697
1340.933926,7105.977043,-6883.915261,1149.143247
1340.934255,7846.182985,-5625.565159,1685.410096
1340.934584,8512.368333,-6217.729913,1302.362347
1340.934913,8068.244768,-5329.482782,1608.800546
1340.935242,7031.956449,-5551.544565,1225.752797
1340.935571,6735.874072,-6069.688724,383.047749
1340.935900,5847.626942,-6069.688724,459.657299
1340.936229,5995.668130,-7402.059420,306.438199
1340.936558,6661.853478,-7402.059420,842.705048
1340.936887,7254.018232,-6957.935855,2221.676944
1340.937217,7328.038826,-7698.141797,1915.238745
1340.937546,7105.977043,-7031.956449,1455.581446
1340.937875,6069.688724,-5921.647536,76.609550
1340.938204,6143.709319,-6291.750507,-383.047749
1340.938533,6883.915261,-5699.585753,995.924147
1340.938862,8216.285956,-6439.791695,1915.238745
1340.939191,8364.327145,-5921.647536,2298.286494
1340.939520,7550.100608,-5847.626942,1608.800546
1340.939849,6883.915261,-6587.832884,306.438199
1340.940179,6217.729913,-6957.935855,153.219100
1340.940508,5477.523971,-7402.059420,383.047749
1340.940837,5699.585753,-8068.244768,1225.752797
1340.941166,6143.709319,-7920.203579,1225.752797
1340.941495,6513.812290,-6809.894666,1455.581446
1340.941824,6587.832884,-6513.812290,1225.752797
1340.942153,7105.977043,-6365.771101,919.314598
1340.942482,7031.956449,-5625.565159,995.924147
1340.942811,8068.244768,-5403.503377,919.314598
1340.943140,9104.533087,-5255.462188,1762.019645
1340.943470,8290.306550,-4885.359217,1378.971896
1340.943799,7846.182985,-5995.668130,1225.752797
1340.944128,7254.018232,-6069.688724,1149.143247
1340.944457,7105.977043,-6217.729913,919.314598
1340.944786,7105.977043,-7031.956449,1225.752797
1340.945115,7031.956449,-7328.038826,1455.581446
1340.945444,6809.894666,-7550.100608,995.924147
1340.945773,6883.915261,-6291.750507,459.657299
1340.946102,6957.935855,-6069.688724,689.485948
1340.946431,7624.121203,-5995.668130,766.095498
1340.946761,7920.203579,-6069.688724,1532.190996
1340.947090,7254.018232,-6365.771101,1608.800546
1340.947419,7031.956449,-6439.791695,995.924147
1340.947748,5773.606348,-6957.935855,536.266849
1340.948077,5551.544565,-8068.244768,153.219100
1340.948406,5329.482782,-8586.388927,612.876398
1340.948735,5847.626942,-7846.182985,1378.971896
1340.949064,6143.709319,-8290.306550,766.095498
1340.949393,6217.729913,-7179.997637,536.266849
1340.949723,6439.791695,-6439.791695,612.876398
1340.950052,7550.100608,-6217.729913,229.828649
1340.950381,7994.224174,-5329.482782,919.314598
1340.950710,7994.224174,-5107.421000,1225.752797
1340.951039,8068.244768,-6069.688724,1072.533697
1340.951368,7920.203579,-5699.585753,1302.362347
1340.951697,7105.977043,-6365.771101,1455.581446
1340.952026,7179.997637,-7402.059420,1378.971896
1340.952355,7105.977043,-6217.729913,1302.362347
1340.952684,7031.956449,-7105.977043,1225.752797
1340.953014,6587.832884,-6883.915261,842.705048
1340.953343,5921.647536,-6957.935855,842.705048
1340.953672,6217.729913,-6217.729913,1072.533697
1340.954001,7031.956449,-5995.668130,153.219100
1340.954330,7402.059420,-6291.750507,1225.752797
1340.954659,7846.182985,-6513.812290,1532.190996
1340.954988,7920.203579,-5699.585753,1455.581446
1340.955317,7772.162391,-6439.791695,1532.190996
1340.955646,7105.977043,-6661.853478,766.095498
1340.955976,6957.935855,-7031.956449,919.314598
1340.956305,6587.832884,-7550.100608,1532.190996
1340.956634,5403.503377,-8512.368333,536.266849
1340.956963,4811.338623,-7994.224174,153.219100
1340.957292,4737.318029,-6957.935855,0.000000
1340.957621,5477.523971,-7031.956449,153.219100
1340.957950,7031.956449,-6291.750507,1302.362347
1340.958279,8808.450710,-4811.338623,1378.971896
1340.958608,9474.636058,-5477.523971,2451.505594
1340.958937,8808.450710,-4811.338623,1762.019645
1340.959267,7328.038826,-4811.338623,919.314598
1340.959596,7105.977043,-5551.544565,459.657299
1340.959925,7031.956449,-6143.709319,536.266849
1340.960254,7254.018232,-7402.059420,1685.410096
1340.960583,7624.121203,-7624.121203,2221.676944
1340.960912,7179.997637,-7105.977043,1455.581446
1340.961241,6809.894666,-6217.729913,995.924147
1340.961570,6439.791695,-5699.585753,383.047749
1340.961899,6809.894666,-5699.585753,153.219100
1340.962227,6957.935855,-6439.791695,1225.752797
1340.962556,7105.977043,-5921.647536,1302.362347
1340.962885,7179.997637,-6587.832884,1302.362347
1340.963214,7476.080014,-6809.894666,1608.800546
1340.963543,6809.894666,-7624.121203,1532.190996
1340.963872,6143.709319,-8364.327145,842.705048
1340.964201,5625.565159,-7846.182985,689.485948
1340.964530,5255.462188,-8068.244768,459.657299
1340.964859,5107.421000,-8216.285956,459.657299
1340.965188,6069.688724,-7105.977043,689.485948
1340.965517,6809.894666,-6957.935855,919.314598
1340.965846,7624.121203,-5921.647536,612.876398
1340.966175,7994.224174,-5255.462188,1072.533697
1340.966504,8512.368333,-5477.523971,1532.190996
1340.966833,8364.327145,-5107.421000,1378.971896
1340.967162,7698.141797,-5995.668130,1225.752797
1340.967491,7402.059420,-6291.750507,842.705048
1340.967820,7179.997637,-6365.771101,1072.533697
1340.968149,7254.018232,-7476.080014,1378.971896
1340.968478,7179.997637,-7550.100608,1378.971896
1340.968807,6735.874072,-6513.812290,1378.971896
1340.969136,5921.647536,-6883.915261,459.657299
1340.969465,6291.750507,-5995.668130,306.438199
1340.969794,7105.977043,-6069.688724,766.095498
1340.970123,7624.121203,-5995.668130,1762.019645
1340.970452,8142.265362,-6069.688724,1915.238745
1340.970781,7328.038826,-5995.668130,1455.581446
1340.971110,6661.853478,-6439.791695,229.828649
1340.971439,6143.709319,-6587.832884,612.876398
1340.971768,6661.853478,-7328.038826,689.485948
1340.972097,6735.874072,-8364.327145,1072.533697
1340.972426,6291.750507,-8142.265362,1455.581446
1340.972755,5921.647536,-7624.121203,842.705048
1340.973084,5847.626942,-6661.853478,0.000000
1340.973413,6143.709319,-6587.832884,383.047749
1340.973742,6661.853478,-5921.647536,383.047749
1340.974071,7624.121203,-5403.503377,842.705048
1340.974400,8142.265362,-5107.421000,1225.752797
1340.974729,7920.203579,-4959.379811,1225.752797
1340.975058,7994.224174,-5255.462188,1225.752797
1340.975387,7994.224174,-5403.503377,1072.533697
1340.975716,8364.327145,-6217.729913,1838.629195
1340.976045,8216.285956,-6217.729913,2681.334243
1340.976374,7698.141797,-5995.668130,1991.848295
1340.976703,7105.977043,-6809.894666,1302.362347
1340.977032,6365.771101,-6143.709319,689.485948
1340.977361,5699.585753,-6069.688724,76.609550
1340.977690,5921.647536,-7031.956449,612.876398
1340.978019,6439.791695,-6587.832884,689.485948
1340.978348,6809.894666,-7328.038826,1225.752797
1340.978677,6883.915261,-7179.997637,1302.362347
1340.979005,5995.668130,-7624.121203,536.266849
1340.979334,5921.647536,-7550.100608,153.219100
1340.979663,5625.565159,-7994.224174,306.438199
1340.979992,5625.565159,-8882.471304,842.705048
1340.980321,6143.709319,-8586.388927,1072.533697
1340.980650,6439.791695,-7772.162391,689.485948
1340.980979,6661.853478,-6513.812290,536.266849
1340.981308,6661.853478,-6291.750507,536.266849
1340.981637,7994.224174,-5403.503377,536.266849
1340.981966,8512.368333,-5033.400406,1532.190996
1340.982295,8734.430116,-4441.235652,1532.190996
1340.982624,8438.347739,-4589.276840,1225.752797
1340.982953,7772.162391,-4885.359217,919.314598
1340.983282,7031.956449,-6069.688724,919.314598
1340.983611,6809.894666,-7105.977043,1225.752797
1340.983940,6957.935855,-7031.956449,1685.410096
1340.984269,6883.915261,-7476.080014,1225.752797
1340.984598,6587.832884,-7179.997637,1225.752797
1340.984927,6735.874072,-6365.771101,1072.533697
1340.985256,7994.224174,-5847.626942,995.924147
1340.985585,8068.244768,-5477.523971,919.314598
1340.985914,8068.244768,-5181.441594,1532.190996
1340.986243,7772.162391,-5181.441594,1455.581446
1340.986572,7328.038826,-6513.812290,1225.752797
1340.986901,6513.812290,-7105.977043,1532.190996
1340.987230,5921.647536,-6957.935855,306.438199
1340.987559,5699.585753,-7550.100608,0.000000
1340.987888,5477.523971,-8882.471304,1225.752797
1340.988217,5403.503377,-8882.471304,536.266849
1340.988546,5403.503377,-8586.388927,919.314598
1340.988875,5625.565159,-6661.853478,0.000000
1340.989204,6365.771101,-6661.853478,76.609550
1340.989533,7772.162391,-6217.729913,1302.362347
1340.989862,9030.512492,-5329.482782,1302.362347
1340.990191,9474.636058,-4737.318029,1532.190996
1340.990520,8882.471304,-4663.297435,1685.410096
1340.990849,7698.141797,-5107.421000,1072.533697
1340.991178,7179.997637,-5699.585753,612.876398
1340.991507,6883.915261,-5921.647536,1532.190996
1340.991836,6957.935855,-7254.018232,1532.190996
1340.992165,7031.956449,-7179.997637,1225.752797
1340.992494,5995.668130,-7031.956449,1302.362347
1340.992823,5625.565159,-6217.729913,0.000000
1340.993152,6143.709319,-6217.729913,76.609550
1340.993481,7105.977043,-6217.729913,689.485948
1340.993810,8142.265362,-6809.894666,1455.581446
1340.994139,8438.347739,-6661.853478,2451.505594
1340.994468,7772.162391,-6587.832884,2068.457845
1340.994797,7105.977043,-6661.853478,612.876398
1340.995126,6291.750507,-7402.059420,229.828649
1340.995455,5995.668130,-8290.306550,153.219100
1340.995783,5921.647536,-8734.430116,1149.143247
1340.996112,5847.626942,-7772.162391,689.485948
1340.996441,5921.647536,-7105.977043,306.438199
1340.996770,5773.606348,-6143.709319,76.609550
1340.997099,6291.750507,-5995.668130,306.438199
1340.997428,7254.018232,-4959.379811,383.047749
1340.997757,8216.285956,-5773.606348,1378.971896
1340.998086,8512.368333,-5551.544565,2068.457845
1340.998415,7994.224174,-5847.626942,1455.581446
1340.998744,7402.059420,-5921.647536,1302.362347
1340.999073,7254.018232,-6291.750507,1302.362347
1340.999402,7105.977043,-6809.894666,919.314598
1340.999731,7105.977043,-6883.915261,1838.629195
1341.000060,7254.018232,-6735.874072,1608.800546
1341.000389,7179.997637,-6957.935855,1532.190996
1341.000718,6217.729913,-5921.647536,76.609550
1341.001047,6143.709319,-6735.874072,536.266849
1341.001376,6809.894666,-6143.709319,1149.143247
1341.001705,8290.306550,-5699.585753,2145.067394
1341.002034,8438.347739,-5033.400406,2145.067394
1341.002363,7328.038826,-5773.606348,1378.971896
1341.002692,6809.894666,-6809.894666,689.485948
1341.003021,6365.771101,-7772.162391,229.828649
1341.003350,5921.647536,-8808.450710,1072.533697
1341.003679,6143.709319,-7624.121203,842.705048
1341.004008,5847.626942,-8068.244768,842.705048
1341.004337,5773.606348,-7994.224174,919.314598
1341.004666,5921.647536,-6809.894666,306.438199
1341.004995,7328.038826,-6291.750507,919.314598
1341.005324,8216.285956,-5699.585753,1532.190996
1341.005653,8364.327145,-4811.338623,1915.238745
1341.005982,8216.285956,-5403.503377,1915.238745
1341.006311,6957.935855,-5255.462188,612.876398
1341.006640,6661.853478,-5477.523971,229.828649
1341.006969,6661.853478,-6809.894666,1149.143247
1341.007298,7624.121203,-7254.018232,1838.629195
1341.007627,7476.080014,-6883.915261,1915.238745
1341.007956,6513.812290,-6883.915261,1532.190996
1341.008285,6365.771101,-6957.935855,459.657299
1341.008614,6291.750507,-6439.791695,76.609550
1341.008943,6809.894666,-5921.647536,842.705048
1341.009272,7920.203579,-5699.585753,766.095498
1341.009601,8438.347739,-5551.544565,1608.800546
1341.009930,8290.306550,-6217.729913,2298.286494
1341.010259,7328.038826,-7105.977043,1225.752797
1341.010588,6883.915261,-6069.688724,383.047749
1341.010917,6143.709319,-7179.997637,536.266849
1341.011246,5921.647536,-9030.512492,76.609550
1341.011575,5625.565159,-8512.368333,1149.143247
1341.011904,5773.606348,-8734.430116,995.924147
1341.012233,5699.585753,-7624.121203,153.219100
1341.012562,6217.729913,-6291.750507,459.657299
1341.012890,7328.038826,-6143.709319,459.657299
1341.013219,8068.244768,-5551.544565,1378.971896
1341.013548,8364.327145,-5551.544565,2068.457845
1341.013877,7698.141797,-4811.338623,1225.752797
1341.014206,7328.038826,-5403.503377,1072.533697
1341.014535,7031.956449,-5181.441594,689.485948
1341.014864,7105.977043,-6291.750507,919.314598
1341.015193,6957.935855,-7254.018232,1072.533697
1341.015522,7105.977043,-7402.059420,2145.067394
1341.015851,7254.018232,-7476.080014,1685.410096
1341.016180,6957.935855,-6439.791695,1608.800546
1341.016509,6735.874072,-5699.585753,689.485948
1341.016838,6661.853478,-5921.647536,229.828649
1341.017167,7550.100608,-5699.585753,1072.533697
1341.017496,8068.244768,-6069.688724,1838.629195
1341.017825,8142.265362,-5329.482782,2221.676944
1341.018154,7550.100608,-5699.585753,536.266849
1341.018483,6883.915261,-6439.791695,383.047749
1341.018812,6143.709319,-7624.121203,612.876398
1341.019141,6587.832884,-8734.430116,1532.190996
1341.019470,6513.812290,-7624.121203,1225.752797
1341.019799,5699.585753,-7846.182985,766.095498
1341.020128,5551.544565,-7105.977043,-383.047749
1341.020457,5921.647536,-7402.059420,229.828649
1341.020786,7105.977043,-7328.038826,1072.533697
1341.021115,7920.203579,-5995.668130,1225.752797
1341.021444,7624.121203,-5773.606348,1532.190996
1341.021773,7772.162391,-5329.482782,995.924147
1341.022102,7105.977043,-6143.709319,689.485948
1341.022431,6735.874072,-6513.812290,306.438199
1341.022760,6513.812290,-6661.853478,689.485948
1341.023089,7254.018232,-6587.832884,995.924147
1341.023418,7105.977043,-6957.935855,1608.800546
1341.023747,7105.977043,-7105.977043,1532.190996
1341.024076,6883.915261,-6957.935855,919.314598
1341.024405,7031.956449,-6365.771101,306.438199
1341.024734,7254.018232,-5847.626942,229.828649
1341.025063,8586.388927,-5403.503377,1685.410096
1341.025392,8586.388927,-5255.462188,1838.629195
1341.025721,7550.100608,-6217.729913,1302.362347
1341.026050,6513.812290,-6143.709319,536.266849
1341.026379,6069.688724,-6883.915261,153.219100
1341.026708,6217.729913,-7772.162391,612.876398
1341.027037,6069.688724,-7994.224174,1225.752797
1341.027366,5477.523971,-8734.430116,842.705048
1341.027695,5921.647536,-8438.347739,459.657299
1341.028024,5403.503377,-7476.080014,766.095498
1341.028353,6143.709319,-7105.977043,459.657299
1341.028682,7402.059420,-6143.709319,766.095498
1341.029011,8290.306550,-6069.688724,2068.457845
1341.029340,7994.224174,-5699.585753,1762.019645
1341.029668,7476.080014,-5181.441594,1072.533697
1341.029997,6957.935855,-5773.606348,1072.533697
1341.030326,6661.853478,-6217.729913,153.219100
1341.030655,6439.791695,-6735.874072,1225.752797
1341.030984,7105.977043,-7254.018232,1532.190996
1341.031313,6957.935855,-7254.018232,1608.800546
1341.031642,6735.874072,-6883.915261,1302.362347
1341.031971,6217.729913,-5477.523971,459.657299
1341.032300,7031.956449,-5699.585753,76.609550
1341.032629,7624.121203,-5921.647536,1378.971896
1341.032958,8586.388927,-5551.544565,1838.629195
1341.033287,8586.388927,-5625.565159,2298.286494
1341.033616,7920.203579,-5847.626942,1378.971896
1341.033945,7105.977043,-6365.771101,1225.752797
1341.034274,5847.626942,-7105.977043,766.095498
1341.034603,5847.626942,-6957.935855,1072.533697
1341.034932,6143.709319,-7698.141797,1378.971896
1341.035261,6143.709319,-7402.059420,1762.019645
1341.035590,6069.688724,-6809.894666,1225.752797
1341.035919,6217.729913,-6661.853478,766.095498
1341.036248,6883.915261,-6069.688724,1225.752797
1341.036577,7105.977043,-5625.565159,919.314598
1341.036906,7254.018232,-5107.421000,1608.800546
1341.037235,7179.997637,-5477.523971,1608.800546
1341.037564,6661.853478,-7179.997637,919.314598
1341.037893,6143.709319,-7476.080014,612.876398
1341.038222,6291.750507,-7328.038826,0.000000
1341.038551,6661.853478,-7476.080014,842.705048
1341.038880,7105.977043,-7476.080014,1378.971896
1341.039209,7105.977043,-7698.141797,1608.800546
1341.039538,6957.935855,-6809.894666,842.705048
1341.039867,7031.956449,-5625.565159,0.000000
1341.040196,7179.997637,-5477.523971,689.485948
1341.040525,8068.244768,-5329.482782,1378.971896
1341.040854,8808.450710,-5699.585753,2068.457845
1341.041183,8438.347739,-5329.482782,2068.457845
1341.041512,7920.203579,-5921.647536,1762.019645
1341.041841,7105.977043,-6143.709319,689.485948
1341.042170,5995.668130,-7179.997637,306.438199
1341.042499,5773.606348,-8438.347739,536.266849
1341.042828,5773.606348,-8586.388927,1455.581446
1341.043157,5625.565159,-9030.512492,1149.143247
1341.043486,6143.709319,-7920.203579,919.314598
1341.043815,6513.812290,-6957.935855,766.095498
1341.044144,6809.894666,-6735.874072,689.485948
1341.044473,7476.080014,-5921.647536,1072.533697
1341.044802,7698.141797,-5477.523971,1532.190996
1341.045131,7994.224174,-5255.462188,1378.971896
1341.045460,7772.162391,-5477.523971,1302.362347
1341.045789,7698.141797,-5921.647536,1149.143247
1341.046118,7105.977043,-6217.729913,842.705048
1341.046446,7031.956449,-7328.038826,919.314598
1341.046775,6809.894666,-7328.038826,1072.533697
1341.047104,6365.771101,-7550.100608,995.924147
1341.047433,6365.771101,-6291.750507,459.657299
1341.047762,6291.750507,-6661.853478,612.876398
1341.048091,7105.977043,-6735.874072,919.314598
1341.048420,7550.100608,-5995.668130,1455.581446
1341.048749,7920.203579,-5699.585753,2068.457845
1341.049078,7624.121203,-4959.379811,1838.629195
1341.049407,7105.977043,-6143.709319,1762.019645
1341.049736,6365.771101,-6069.688724,1149.143247
1341.050065,6513.812290,-7105.977043,1378.971896
1341.050394,5995.668130,-7179.997637,1225.752797
1341.050723,6217.729913,-6883.915261,1302.362347
1341.051052,6883.915261,-7105.977043,1608.800546
1341.051381,6661.853478,-6735.874072,919.314598
1341.051710,6143.709319,-6661.853478,306.438199
1341.052039,7105.977043,-5699.585753,536.266849
1341.052368,7624.121203,-5921.647536,536.266849
1341.052697,8216.285956,-6217.729913,1762.019645
1341.053026,7772.162391,-5995.668130,1762.019645
1341.053355,7179.997637,-6143.709319,1072.533697
1341.053684,7328.038826,-5773.606348,995.924147
1341.054013,7031.956449,-6883.915261,459.657299
1341.054342,7179.997637,-6883.915261,1532.190996
1341.054671,6587.832884,-7105.977043,1455.581446
1341.055000,6513.812290,-7402.059420,766.095498
1341.055329,5995.668130,-6069.688724,153.219100
1341.055658,6069.688724,-6513.812290,153.219100
1341.055987,7179.997637,-6809.894666,689.485948
1341.056316,8068.244768,-5995.668130,1838.629195
1341.056645,8364.327145,-6217.729913,1685.410096
1341.056974,7624.121203,-5995.668130,1225.752797
1341.057303,7328.038826,-5995.668130,1378.971896
1341.057632,6735.874072,-6439.791695,766.095498
1341.057961,6513.812290,-7105.977043,1378.971896
1341.058290,6069.688724,-7698.141797,1302.362347
1341.058619,5773.606348,-8068.244768,689.485948
1341.058948,5625.565159,-7550.100608,919.314598
1341.059277,5403.503377,-6883.915261,383.047749
1341.059606,6513.812290,-6513.812290,383.047749
1341.059935,7179.997637,-6143.709319,919.314598
1341.060264,7920.203579,-5921.647536,1225.752797
1341.060593,8290.306550,-5699.585753,1608.800546
1341.060922,8142.265362,-5699.585753,1225.752797
1341.061251,7179.997637,-5847.626942,536.266849
1341.061580,7105.977043,-6365.771101,536.266849
1341.061909,7254.018232,-6883.915261,1302.362347
1341.062238,7402.059420,-7254.018232,1532.190996
1341.062567,7402.059420,-6735.874072,1378.971896
1341.062896,6957.935855,-7105.977043,1302.362347
1341.063225,6587.832884,-6291.750507,766.095498
1341.063555,6365.771101,-5625.565159,383.047749
1341.063884,6587.832884,-5329.482782,612.876398
1341.064213,7179.997637,-5255.462188,1455.581446
1341.064542,8290.306550,-5255.462188,2068.457845
1341.064871,8068.244768,-5773.606348,1455.581446
1341.065200,7624.121203,-6661.853478,1225.752797
1341.065530,7624.121203,-6883.915261,842.705048
1341.065859,6587.832884,-7105.977043,766.095498
1341.066188,6365.771101,-7698.141797,842.705048
1341.066517,5699.585753,-7624.121203,1149.143247
1341.066846,5477.523971,-8734.430116,689.485948
1341.067175,5773.606348,-7476.080014,536.266849
1341.067505,5921.647536,-6439.791695,76.609550
1341.067834,7476.080014,-6291.750507,689.485948
1341.068163,7920.203579,-5699.585753,1378.971896
1341.068492,7698.141797,-5995.668130,1685.410096
1341.068821,7105.977043,-5773.606348,919.314598
1341.069151,6587.832884,-6365.771101,383.047749
1341.069480,6439.791695,-6883.915261,0.000000
1341.069809,6883.915261,-7550.100608,919.314598
1341.070138,7254.018232,-8512.368333,1685.410096
1341.070467,7402.059420,-7920.203579,1838.629195
1341.070796,6513.812290,-7476.080014,1225.752797
1341.071126,6069.688724,-6143.709319,383.047749
1341.071455,6365.771101,-5699.585753,689.485948
1341.071784,7402.059420,-5477.523971,1072.533697
1341.072113,7920.203579,-5107.421000,1532.190996
1341.072442,7698.141797,-5477.523971,1685.410096
1341.072771,7772.162391,-4959.379811,2068.457845
1341.073101,7476.080014,-5699.585753,1685.410096
1341.073430,7550.100608,-6365.771101,1149.143247
1341.073759,6661.853478,-7031.956449,842.705048
1341.074088,6735.874072,-7179.997637,612.876398
1341.074417,5995.668130,-8364.327145,1149.143247
1341.074746,6217.729913,-7402.059420,1302.362347
1341.075076,6735.874072,-6439.791695,383.047749
1341.075405,7105.977043,-6587.832884,612.876398
1341.075734,7624.121203,-6365.771101,995.924147
1341.076063,7920.203579,-6291.750507,995.924147
1341.076392,7402.059420,-5551.544565,1455.581446
1341.076721,6735.874072,-5329.482782,766.095498
1341.077051,6661.853478,-5699.585753,536.266849
1341.077380,6735.874072,-6513.812290,383.047749
1341.077709,7550.100608,-7179.997637,1685.410096
1341.078038,7550.100608,-7476.080014,2451.505594
1341.078367,6957.935855,-7772.162391,1608.800546
1341.078696,6217.729913,-6735.874072,842.705048
1341.079026,5403.503377,-6143.709319,-383.047749
1341.079355,6439.791695,-6143.709319,153.219100
1341.079684,7105.977043,-5551.544565,153.219100
1341.080013,7550.100608,-6291.750507,1532.190996
1341.080342,8216.285956,-5551.544565,1991.848295
1341.080672,8216.285956,-6291.750507,1838.629195
1341.081001,6957.935855,-6587.832884,842.705048
1341.081330,6217.729913,-7328.038826,766.095498
1341.081659,6291.750507,-7994.224174,842.705048
1341.081988,6291.750507,-7476.080014,1455.581446
1341.082317,5995.668130,-7994.224174,766.095498
1341.082647,6883.915261,-6587.832884,1225.752797
1341.082976,6809.894666,-6291.750507,76.609550
1341.083305,6217.729913,-6735.874072,383.047749
1341.083634,7550.100608,-5403.503377,842.705048
1341.083963,8512.368333,-5181.441594,1225.752797
1341.084292,8290.306550,-5107.421000,1455.581446
1341.084622,7550.100608,-5477.523971,1225.752797
1341.084951,7254.018232,-6143.709319,1072.533697
1341.085280,7772.162391,-6809.894666,612.876398
1341.085609,6735.874072,-7624.121203,1378.971896
1341.085938,6291.750507,-7105.977043,1225.752797
1341.086267,5995.668130,-7624.121203,995.924147
1341.086597,5625.565159,-7624.121203,1149.143247
1341.086926,5699.585753,-7031.956449,76.609550
1341.087255,6809.894666,-6661.853478,612.876398
1341.087584,7624.121203,-5847.626942,1225.752797
1341.087913,7698.141797,-5921.647536,1991.848295
1341.088242,7550.100608,-4885.359217,2068.457845
1341.088572,7846.182985,-6291.750507,1378.971896
1341.088901,7328.038826,-5921.647536,612.876398
1341.089230,6809.894666,-6439.791695,842.705048
1341.089559,6365.771101,-7328.038826,306.438199
1341.089888,6661.853478,-7476.080014,1532.190996
1341.090217,6439.791695,-8364.327145,1225.752797
1341.090547,5773.606348,-7402.059420,612.876398
1341.090876,5773.606348,-6513.812290,612.876398
1341.091205,7031.956449,-6587.832884,612.876398
1341.091534,7402.059420,-5625.565159,612.876398
1341.091863,8068.244768,-5699.585753,1991.848295
1341.092192,8364.327145,-5181.441594,1762.019645
1341.092522,7994.224174,-5403.503377,1378.971896
1341.092851,7476.080014,-4811.338623,1149.143247
1341.093180,7624.121203,-5551.544565,766.095498
1341.093509,7698.141797,-6735.874072,1915.238745
1341.093838,7624.121203,-7254.018232,2451.505594
1341.094168,6661.853478,-7328.038826,1762.019645
1341.094497,5847.626942,-6809.894666,459.657299
1341.094826,5181.441594,-6957.935855,0.000000
1341.095155,5181.441594,-7105.977043,76.609550
1341.095484,6217.729913,-6883.915261,919.314598
1341.095813,7328.038826,-6365.771101,1532.190996
1341.096143,7550.100608,-6513.812290,1838.629195
1341.096472,7772.162391,-5921.647536,1915.238745
1341.096801,7402.059420,-6809.894666,689.485948
1341.097130,6661.853478,-6957.935855,919.314598
1341.097459,7179.997637,-7994.224174,1072.533697
1341.097788,7105.977043,-7698.141797,1072.533697
1341.098118,6661.853478,-7254.018232,1225.752797
1341.098447,7031.956449,-6661.853478,1225.752797
1341.098776,7698.141797,-5921.647536,995.924147
1341.099105,7476.080014,-5551.544565,612.876398
1341.099434,7550.100608,-5329.482782,1072.533697
1341.099763,7328.038826,-6069.688724,1532.190996
1341.100093,6883.915261,-5699.585753,0.000000
1341.100422,5403.503377,-5773.606348,995.924147
1341.100751,5329.482782,-7994.224174,153.219100
1341.101080,6735.874072,-7550.100608,689.485948
1341.101409,7920.203579,-7254.018232,1991.848295
1341.101738,7920.203579,-7772.162391,2374.896044
1341.102068,7846.182985,-5921.647536,1685.410096
1341.102397,6587.832884,-6069.688724,919.314598
1341.102726,6143.709319,-6661.853478,0.000000
1341.103055,6883.915261,-5847.626942,612.876398
1341.103384,7920.203579,-5995.668130,1838.629195
1341.103713,8290.306550,-5477.523971,2145.067394
1341.104043,8290.306550,-5477.523971,1991.848295
1341.104372,7328.038826,-6069.688724,689.485948
1341.104701,7105.977043,-5921.647536,995.924147
1341.105030,6291.750507,-7698.141797,0.000000
1341.105359,5699.585753,-7698.141797,229.828649
1341.105688,5551.544565,-8142.265362,612.876398
1341.106018,5773.606348,-7920.203579,306.438199
1341.106347,5995.668130,-7031.956449,1149.143247
1341.106676,7179.997637,-7402.059420,1149.143247
1341.107005,9030.512492,-5403.503377,842.705048
1341.107334,9178.553681,-5107.421000,1685.410096
1341.107664,8660.409521,-4515.256246,2068.457845
1341.107993,7698.141797,-4811.338623,459.657299
1341.108322,6217.729913,-5773.606348,76.609550
1341.108651,6069.688724,-6365.771101,229.828649
1341.108980,6735.874072,-7994.224174,1149.143247
1341.109309,7179.997637,-7328.038826,1685.410096
1341.109639,6587.832884,-7994.224174,1685.410096
1341.109968,5403.503377,-7846.182985,689.485948
1341.110297,5477.523971,-6883.915261,-612.876398
1341.110626,5625.565159,-7105.977043,0.000000
1341.110955,7179.997637,-6661.853478,1378.971896
1341.111284,7772.162391,-6513.812290,1225.752797
1341.111614,8068.244768,-6439.791695,1608.800546
1341.111943,7624.121203,-6291.750507,1991.848295
1341.112272,7550.100608,-5921.647536,689.485948
1341.112601,7105.977043,-6883.915261,612.876398
1341.112930,6439.791695,-7624.121203,1225.752797
1341.113259,6661.853478,-7031.956449,842.705048
1341.113589,6291.750507,-7624.121203,1302.362347
1341.113918,6143.709319,-6957.935855,1685.410096
1341.114247,6587.832884,-6291.750507,919.314598
1341.114576,6957.935855,-6217.729913,1072.533697
1341.114905,7328.038826,-4885.359217,995.924147
1341.115234,8216.285956,-5625.565159,1685.410096
1341.115564,8438.347739,-5847.626942,2528.115143
1341.115893,7179.997637,-5847.626942,2145.067394
1341.116222,6291.750507,-5995.668130,612.876398
1341.116551,5995.668130,-5921.647536,689.485948
1341.116880,6587.832884,-6661.853478,459.657299
1341.117209,7105.977043,-7402.059420,1685.410096
1341.117539,6957.935855,-8068.244768,2068.457845
1341.117868,6365.771101,-7105.977043,1302.362347
1341.118197,5847.626942,-6513.812290,0.000000
1341.118526,5773.606348,-5477.523971,-229.828649
1341.118855,7179.997637,-6439.791695,536.266849
1341.119185,8290.306550,-6069.688724,1915.238745
1341.119514,8142.265362,-6439.791695,2068.457845
1341.119843,7328.038826,-6069.688724,1302.362347
1341.120172,7031.956449,-5921.647536,459.657299
1341.120501,6365.771101,-6587.832884,229.828649
1341.120830,6069.688724,-7624.121203,766.095498
1341.121160,6513.812290,-7624.121203,1455.581446
1341.121489,7031.956449,-6957.935855,1915.238745
1341.121818,7105.977043,-6661.853478,995.924147
1341.122147,7031.956449,-6217.729913,1072.533697
1341.122476,7254.018232,-5551.544565,612.876398
1341.122805,7476.080014,-5773.606348,536.266849
1341.123135,7402.059420,-5551.544565,1991.848295
1341.123464,8216.285956,-6143.709319,1532.190996
1341.123793,7846.182985,-6365.771101,1608.800546
1341.124122,6661.853478,-6513.812290,919.314598
1341.124451,6143.709319,-7550.100608,383.047749
1341.124780,6365.771101,-7550.100608,229.828649
1341.125110,6439.791695,-8364.327145,1225.752797
1341.125439,6735.874072,-8142.265362,1608.800546
1341.125768,6587.832884,-6809.894666,689.485948
1341.126097,6365.771101,-7031.956449,229.828649
1341.126426,6661.853478,-6513.812290,229.828649
1341.126755,7476.080014,-5921.647536,995.924147
1341.127085,7994.224174,-5329.482782,919.314598
1341.127414,8290.306550,-5477.523971,1072.533697
1341.127743,8216.285956,-5699.585753,766.095498
1341.128072,7624.121203,-6883.915261,536.266849
1341.128401,6439.791695,-8068.244768,919.314598
1341.128730,5773.606348,-7920.203579,689.485948
1341.129060,5773.606348,-7846.182985,383.047749
1341.129389,6069.688724,-7179.997637,1149.143247
1341.129718,6735.874072,-6587.832884,1225.752797
1341.130047,7105.977043,-6587.832884,1072.533697
1341.130376,7550.100608,-5847.626942,1378.971896
1341.130705,7179.997637,-4737.318029,689.485948
1341.131035,7550.100608,-4885.359217,1149.143247
1341.131364,7698.141797,-4589.276840,1302.362347
1341.131693,7105.977043,-5625.565159,1072.533697
1341.132022,7328.038826,-5995.668130,1225.752797
1341.132351,7179.997637,-6809.894666,689.485948
1341.132681,7624.121203,-7550.100608,1455.581446
1341.133010,7105.977043,-7476.080014,1838.629195
1341.133339,6143.709319,-8068.244768,842.705048
1341.133668,5699.585753,-7105.977043,76.609550
1341.133997,5773.606348,-7179.997637,0.000000
1341.134326,6439.791695,-6661.853478,459.657299
1341.134656,7624.121203,-6439.791695,995.924147
1341.134985,7846.182985,-5181.441594,1455.581446
1341.135314,7698.141797,-5329.482782,1225.752797
1341.135643,7328.038826,-5773.606348,1455.581446
1341.135972,6587.832884,-6291.750507,842.705048
1341.136301,6291.750507,-6883.915261,536.266849
1341.136631,6513.812290,-6883.915261,1072.533697
1341.136960,6217.729913,-7254.018232,1149.143247
1341.137289,6661.853478,-8142.265362,1608.800546
1341.137618,6883.915261,-7328.038826,1991.848295
1341.137947,7254.018232,-6365.771101,1378.971896
1341.138276,7846.182985,-5847.626942,1149.143247
1341.138606,7624.121203,-5181.441594,1762.019645
1341.138935,7624.121203,-5329.482782,1149.143247
1341.139264,7105.977043,-6069.688724,1455.581446
1341.139593,6957.935855,-5329.482782,536.266849
1341.139922,6365.771101,-6809.894666,536.266849
1341.140251,6513.812290,-6957.935855,766.095498
1341.140581,6513.812290,-7994.224174,1302.362347
1341.140910,7105.977043,-7994.224174,1302.362347
1341.141239,7402.059420,-7402.059420,1302.362347
1341.141568,6439.791695,-7031.956449,536.266849
1341.141897,6587.832884,-6661.853478,383.047749
1341.142226,7179.997637,-6735.874072,995.924147
1341.142556,7624.121203,-6217.729913,1532.190996
1341.142885,7624.121203,-6069.688724,2068.457845
1341.143214,7846.182985,-6365.771101,1762.019645
1341.143543,7698.141797,-5995.668130,1685.410096
1341.143872,6217.729913,-6809.894666,766.095498
1341.144202,5403.503377,-7031.956449,612.876398
1341.144531,5403.503377,-7624.121203,229.828649
1341.144860,5329.482782,-8142.265362,766.095498
1341.145189,5847.626942,-7846.182985,1532.190996
1341.145518,6587.832884,-6439.791695,1378.971896
1341.145847,7179.997637,-5107.421000,1378.971896
1341.146177,7920.203579,-5847.626942,1149.143247
1341.146506,7920.203579,-5033.400406,1302.362347
1341.146835,7402.059420,-4737.318029,1532.190996
1341.147164,7550.100608,-5255.462188,1149.143247
1341.147493,7105.977043,-6217.729913,1302.362347
1341.147822,7105.977043,-6365.771101,995.924147
1341.148152,7328.038826,-6439.791695,459.657299
1341.148481,7476.080014,-7402.059420,1608.800546
1341.148810,7179.997637,-7772.162391,1608.800546
1341.149139,6439.791695,-7402.059420,612.876398
1341.149468,5477.523971,-6661.853478,383.047749
1341.149797,6217.729913,-6883.915261,-306.438199
1341.150127,6661.853478,-6217.729913,0.000000
1341.150456,7476.080014,-6439.791695,1149.143247
1341.150785,7920.203579,-6069.688724,1455.581446
1341.151114,7772.162391,-5699.585753,1302.362347
1341.151443,7105.977043,-5847.626942,919.314598
1341.151772,6587.832884,-6365.771101,842.705048
1341.152102,6069.688724,-7994.224174,919.314598
1341.152431,6143.709319,-8586.388927,1455.581446
1341.152760,5995.668130,-8364.327145,919.314598
1341.153089,6069.688724,-7328.038826,919.314598
1341.153418,6883.915261,-6513.812290,766.095498
1341.153747,7105.977043,-6735.874072,536.266849
1341.154077,7402.059420,-5921.647536,995.924147
1341.154406,8290.306550,-5329.482782,1072.533697
1341.154735,8734.430116,-4885.359217,1838.629195
1341.155064,8142.265362,-4811.338623,1532.190996
1341.155393,7698.141797,-5995.668130,1378.971896
1341.155722,7031.956449,-5847.626942,536.266849
1341.156052,7031.956449,-6883.915261,229.828649
1341.156381,6957.935855,-6217.729913,766.095498
1341.156710,7402.059420,-7402.059420,1608.800546
1341.157039,7772.162391,-7254.018232,1225.752797
1341.157368,6957.935855,-5847.626942,536.266849
1341.157698,6883.915261,-6365.771101,0.000000
1341.158027,7550.100608,-6069.688724,536.266849
1341.158356,7994.224174,-5847.626942,1378.971896
1341.158685,7476.080014,-5773.606348,1685.410096
1341.159014,6809.894666,-5699.585753,766.095498
1341.159343,6513.812290,-6735.874072,536.266849
1341.159673,5625.565159,-7476.080014,459.657299
1341.160002,5773.606348,-7920.203579,536.266849
1341.160331,5921.647536,-8512.368333,1225.752797
1341.160660,5477.523971,-7994.224174,1225.752797
1341.160989,5255.462188,-8438.347739,842.705048
1341.161318,5921.647536,-6735.874072,842.705048
1341.161648,7105.977043,-6809.894666,459.657299
1341.161977,7772.162391,-5699.585753,919.314598
1341.162306,7476.080014,-4737.318029,1532.190996
1341.162635,7994.224174,-5551.544565,1302.362347
1341.162964,7920.203579,-5625.565159,1455.581446
1341.163293,7624.121203,-6217.729913,1378.971896
1341.163623,7031.956449,-6291.750507,766.095498
1341.163952,7105.977043,-6513.812290,1072.533697
1341.164281,7105.977043,-7179.997637,1225.752797
1341.164610,6883.915261,-7254.018232,1532.190996
1341.164939,6587.832884,-7031.956449,1072.533697
1341.165268,5995.668130,-6587.832884,1072.533697
1341.165598,7031.956449,-6217.729913,0.000000
1341.165927,7624.121203,-6291.750507,1225.752797
1341.166256,8216.285956,-5699.585753,1991.848295
1341.166585,7772.162391,-5551.544565,1378.971896
1341.166914,7031.956449,-5699.585753,1072.533697
1341.167243,6439.791695,-6513.812290,536.266849
1341.167572,6291.750507,-7328.038826,612.876398
1341.167902,6365.771101,-7550.100608,1302.362347
1341.168231,6217.729913,-8216.285956,1991.848295
1341.168560,6143.709319,-7920.203579,995.924147
1341.168889,5625.565159,-7031.956449,612.876398
1341.169218,5699.585753,-7550.100608,153.219100
1341.169547,6365.771101,-6735.874072,536.266849
1341.169877,7698.141797,-6217.729913,689.485948
1341.170206,7772.162391,-5699.585753,1302.362347
1341.170535,8364.327145,-4589.276840,1149.143247
1341.170864,8290.306550,-5477.523971,1149.143247
1341.171193,7920.203579,-5921.647536,1302.362347
1341.171522,7254.018232,-6587.832884,689.485948
1341.171852,7031.956449,-6587.832884,689.485948
1341.172181,6587.832884,-7031.956449,1762.019645
1341.172510,7105.977043,-7698.141797,1685.410096
1341.172839,7254.018232,-6513.812290,1762.019645
1341.173168,6957.935855,-5329.482782,689.485948
1341.173497,7179.997637,-5551.544565,383.047749
1341.173827,7846.182985,-5403.503377,1072.533697
1341.174156,7624.121203,-6217.729913,1532.190996
1341.174485,7328.038826,-6291.750507,1991.848295
1341.174814,7031.956449,-6883.915261,1149.143247
1341.175143,6217.729913,-6661.853478,842.705048
1341.175472,5995.668130,-7328.038826,459.657299
1341.175802,5625.565159,-8142.265362,306.438199
1341.176131,5773.606348,-8216.285956,536.266849
1341.176460,5773.606348,-8290.306550,919.314598
1341.176789,5773.606348,-7994.224174,612.876398
1341.177118,6143.709319,-7031.956449,306.438199
1341.177447,6661.853478,-5847.626942,612.876398
1341.177777,8068.244768,-5847.626942,919.314598
1341.178106,8956.491898,-5181.441594,1685.410096
1341.178435,8808.450710,-5255.462188,2145.067394
1341.178764,8512.368333,-4885.359217,1532.190996
1341.179093,8068.244768,-5033.400406,1149.143247
1341.179422,6957.935855,-6661.853478,1072.533697
1341.179752,6883.915261,-6957.935855,1225.752797
1341.180081,6809.894666,-7328.038826,1838.629195
1341.180410,6365.771101,-7254.018232,2068.457845
1341.180739,5995.668130,-6587.832884,689.485948
1341.181068,6661.853478,-5921.647536,766.095498
1341.181397,7179.997637,-6069.688724,1149.143247
1341.181727,7772.162391,-5699.585753,1378.971896
1341.182056,7994.224174,-5107.421000,1608.800546
1341.182385,7254.018232,-5033.400406,1762.019645
1341.182714,7402.059420,-6291.750507,919.314598
1341.183043,7105.977043,-7328.038826,842.705048
1341.183372,6735.874072,-7920.203579,1149.143247
1341.183702,6365.771101,-8512.368333,995.924147
1341.184031,5921.647536,-7772.162391,1149.143247
1341.184360,5847.626942,-7920.203579,1225.752797
1341.184689,5699.585753,-7846.182985,306.438199
1341.185018,5995.668130,-6883.915261,766.095498
1341.185347,5921.647536,-6439.791695,0.000000
1341.185677,6809.894666,-5921.647536,919.314598
1341.186006,7846.182985,-5477.523971,1762.019645
1341.186335,8290.306550,-5181.441594,1225.752797
1341.186664,8216.285956,-5551.544565,1378.971896
1341.186993,7476.080014,-5921.647536,1302.362347
1341.187322,7179.997637,-6513.812290,842.705048
1341.187651,6661.853478,-6883.915261,1225.752797
1341.187981,6587.832884,-6883.915261,1532.190996
1341.188310,7105.977043,-6809.894666,1072.533697
1341.188639,6809.894666,-7105.977043,1225.752797
1341.188968,6735.874072,-6513.812290,1302.362347
1341.189297,7624.121203,-6069.688724,1915.238745
1341.189626,8364.327145,-5329.482782,1532.190996
1341.189956,7846.182985,-5551.544565,1991.848295
1341.190285,6661.853478,-6439.791695,1532.190996
1341.190614,5847.626942,-6587.832884,766.095498
1341.190943,5181.441594,-6809.894666,229.828649
1341.191272,5403.503377,-8068.244768,153.219100
1341.191601,6143.709319,-8438.347739,1225.752797
1341.191931,6291.750507,-8364.327145,1149.143247
1341.192260,6143.709319,-7772.162391,919.314598
1341.192589,5995.668130,-6513.812290,383.047749
1341.192918,7105.977043,-6217.729913,459.657299
1341.193247,7846.182985,-5551.544565,995.924147
1341.193576,8438.347739,-5477.523971,1532.190996
1341.193906,8808.450710,-5477.523971,1991.848295
1341.194235,8290.306550,-5181.441594,1532.190996
1341.194564,7476.080014,-5773.606348,1378.971896
1341.194893,7254.018232,-5847.626942,842.705048
1341.195222,7031.956449,-6587.832884,1149.143247
1341.195551,5847.626942,-7772.162391,1455.581446
1341.195881,5255.462188,-8512.368333,842.705048
1341.196210,4885.359217,-8216.285956,459.657299
1341.196539,5033.400406,-8068.244768,0.000000
1341.196868,5699.585753,-8734.430116,612.876398
1341.197197,6587.832884,-7328.038826,1072.533697
1341.197526,6957.935855,-7846.182985,1302.362347
1341.197856,7254.018232,-7105.977043,1455.581446
1341.198185,7105.977043,-5477.523971,995.924147
1341.198514,7105.977043,-6957.935855,995.924147
1341.198843,7179.997637,-6735.874072,1532.190996
1341.199172,6513.812290,-7846.182985,612.876398
1341.199501,5329.482782,-8216.285956,766.095498
1341.199831,4737.318029,-8808.450710,995.924147
1341.200160,4663.297435,-9474.636058,689.485948
1341.200489,4145.153275,-8882.471304,612.876398
1341.200818,4441.235652,-7772.162391,0.000000
1341.201147,5551.544565,-7254.018232,76.609550
1341.201476,6735.874072,-6809.894666,459.657299
1341.201806,7402.059420,-7105.977043,1532.190996
1341.202135,7846.182985,-6809.894666,1378.971896
1341.202464,7031.956449,-6439.791695,1072.533697
1341.202793,6143.709319,-7179.997637,1072.533697
1341.203122,6069.688724,-7476.080014,1915.238745
1341.203451,5847.626942,-8142.265362,1991.848295
1341.203781,5699.585753,-7994.224174,1608.800546
1341.204110,5699.585753,-7698.141797,1455.581446
1341.204439,5403.503377,-7920.203579,2374.896044
1341.204768,4811.338623,-8142.265362,2451.505594
1341.205097,4737.318029,-7031.956449,1608.800546
1341.205426,4293.194464,-6291.750507,1302.362347
1341.205756,5033.400406,-6883.915261,766.095498
1341.206085,5699.585753,-7476.080014,1455.581446
1341.206414,5181.441594,-9104.533087,1608.800546
1341.206743,4737.318029,-9474.636058,1149.143247
1341.207072,4441.235652,-9918.759623,1072.533697
1341.207401,3701.029710,-10732.986159,612.876398
1341.207730,2886.803174,-10732.986159,0.000000
1341.208060,3034.844362,-11325.150913,153.219100
1341.208389,2886.803174,-11547.212695,0.000000
1341.208718,3182.885551,-11769.274478,766.095498
1341.209047,3923.091493,-11103.089130,2681.334243
1341.209376,5181.441594,-8956.491898,2528.115143
1341.209705,5033.400406,-6809.894666,2298.286494
1341.210035,4959.379811,-5995.668130,1685.410096
1341.210364,5625.565159,-5033.400406,1149.143247
1341.210693,6513.812290,-4885.359217,2145.067394
1341.211022,7105.977043,-5699.585753,1915.238745
1341.211351,6365.771101,-7328.038826,1302.362347
1341.211680,4589.276840,-9548.656652,1072.533697
1341.212010,3404.947333,-11695.253884,689.485948
1341.212339,2442.679609,-12879.583391,1149.143247
1341.212668,2368.659014,-12879.583391,0.000000
1341.212997,2294.638420,-12731.542202,-612.876398
1341.213326,2664.741391,-11695.253884,-229.828649
1341.213655,3701.029710,-11843.295072,0.000000
1341.213985,4589.276840,-10436.903782,612.876398
1341.214314,5477.523971,-7698.141797,1991.848295
1341.214643,6661.853478,-5625.565159,2221.676944
1341.214972,7624.121203,-4293.194464,2451.505594
1341.215301,7920.203579,-3330.926739,2987.772442
1341.215630,8142.265362,-3182.885551,2374.896044
1341.215960,7624.121203,-3478.967927,1302.362347
1341.216289,7031.956449,-4737.318029,919.314598
1341.216618,6439.791695,-6587.832884,766.095498
1341.216947,5773.606348,-9178.553681,689.485948
1341.217276,4811.338623,-11621.233289,306.438199
1341.217605,4293.194464,-12213.398043,536.266849
1341.217935,4441.235652,-12509.480420,612.876398
1341.218264,4441.235652,-10881.027347,919.314598
1341.218593,3627.009116,-11251.130318,919.314598
1341.218922,3330.926739,-10066.800811,689.485948
1341.219251,3256.906145,-9548.656652,76.609550
1341.219580,3330.926739,-9474.636058,612.876398
1341.219910,4885.359217,-7994.224174,1378.971896
1341.220239,5329.482782,-6587.832884,919.314598
1341.220568,6143.709319,-4959.379811,1302.362347
1341.220897,7105.977043,-3923.091493,1532.190996
1341.221226,8512.368333,-4219.173869,1302.362347
1341.221555,7402.059420,-6069.688724,1685.410096
1341.221885,5921.647536,-8068.244768,1302.362347
1341.222214,5181.441594,-9992.780217,612.876398
1341.222543,4145.153275,-11917.315666,1455.581446
1341.222872,4219.173869,-13101.645173,1915.238745
1341.223201,4367.215058,-12435.459826,2145.067394
1341.223530,4293.194464,-10436.903782,2298.286494
1341.223860,3997.112087,-8956.491898,1455.581446
1341.224189,3775.050304,-6365.771101,1532.190996
1341.224518,4367.215058,-5995.668130,766.095498
1341.224847,3923.091493,-6661.853478,383.047749
1341.225176,4145.153275,-6291.750507,229.828649
1341.225505,4515.256246,-6883.915261,153.219100
1341.225835,4959.379811,-8290.306550,689.485948
1341.226164,5255.462188,-9992.780217,919.314598
1341.226493,4885.359217,-11769.274478,842.705048
1341.226822,4367.215058,-12583.501014,842.705048
1341.227151,3775.050304,-12435.459826,1378.971896
1341.227480,3552.988522,-11843.295072,1378.971896
1341.227809,3849.070898,-10807.006753,2298.286494
1341.228139,4293.194464,-9178.553681,3140.991542
1341.228468,5477.523971,-7254.018232,3370.820191
1341.228797,6143.709319,-5477.523971,3447.429741
1341.229126,6513.812290,-4589.276840,3370.820191
1341.229455,6587.832884,-4145.153275,2374.896044
1341.229784,5847.626942,-5107.421000,1915.238745
1341.230114,5255.462188,-6291.750507,1685.410096
1341.230443,4885.359217,-7846.182985,689.485948
1341.230772,4663.297435,-9696.697840,766.095498
1341.231101,3997.112087,-10807.006753,919.314598
1341.231430,4293.194464,-12731.542202,1455.581446
1341.231759,4515.256246,-12139.377449,2451.505594
1341.232089,5255.462188,-11177.109724,2528.115143
1341.232418,6291.750507,-9252.574275,3677.258390
1341.232747,7105.977043,-6069.688724,4136.915689
1341.233076,7105.977043,-5625.565159,4519.963438
1341.233405,7476.080014,-3701.029710,4749.792088
1341.233734,7105.977043,-3478.967927,3370.820191
1341.234064,7550.100608,-3849.070898,3064.381992
1341.234393,7105.977043,-4515.256246,2298.286494
1341.234722,6217.729913,-6143.709319,2068.457845
1341.235051,6217.729913,-7402.059420,2451.505594
1341.235380,6291.750507,-8438.347739,2451.505594
1341.235709,6735.874072,-8734.430116,3294.210641
1341.236039,7254.018232,-8438.347739,3370.820191
1341.236368,6439.791695,-8512.368333,4060.306139
1341.236697,6291.750507,-8660.409521,3447.429741
1341.237026,6143.709319,-7550.100608,3830.477490
1341.237355,6809.894666,-5699.585753,3983.696590
1341.237684,7550.100608,-5033.400406,4596.572988
1341.238014,8808.450710,-3923.091493,5132.839837
1341.238343,8808.450710,-3330.926739,5209.449386
1341.238672,8956.491898,-3478.967927,4903.011187
1341.239001,8290.306550,-3182.885551,4213.525239
1341.239330,7698.141797,-5255.462188,4673.182538
1341.239659,7254.018232,-6883.915261,3524.039291
1341.239989,6587.832884,-8512.368333,4213.525239
1341.240318,5551.544565,-10214.842000,3907.087040
1341.240647,4737.318029,-11103.089130,3677.258390
1341.240976,3923.091493,-10658.965565,3294.210641
1341.241305,3701.029710,-10955.047942,3217.601092
1341.241634,3330.926739,-9844.739029,3677.258390
1341.241964,3775.050304,-9474.636058,3983.696590
1341.242293,4737.318029,-7994.224174,4136.915689
1341.242622,5403.503377,-5995.668130,4519.963438
1341.242951,7476.080014,-4663.297435,5209.449386
1341.243280,9104.533087,-3627.009116,5515.887586
1341.243609,9918.759623,-3256.906145,6358.592633
1341.243939,10732.986159,-2368.659014,6358.592633
1341.244268,10436.903782,-2590.720797,5362.668486
1341.244597,9548.656652,-3256.906145,5439.278036
1341.244926,8660.409521,-4811.338623,4749.792088
1341.245255,7994.224174,-6291.750507,4979.620737
1341.245584,7328.038826,-7254.018232,5515.887586
1341.245914,6439.791695,-8364.327145,4749.792088
1341.246243,5033.400406,-9030.512492,4213.525239
1341.246572,3849.070898,-9622.677246,3677.258390
1341.246901,3256.906145,-10807.006753,3294.210641
1341.247230,2368.659014,-9992.780217,3600.648841
1341.247559,2738.761985,-8808.450710,3447.429741
1341.247889,4145.153275,-7550.100608,3294.210641
1341.248218,6069.688724,-6661.853478,4366.744339
1341.248547,8512.368333,-5699.585753,4903.011187
1341.248876,9400.615463,-4293.194464,5975.544884
1341.249205,9844.739029,-2886.803174,5898.935335
1341.249534,10214.842000,-2294.638420,5286.058936
1341.249863,10066.800811,-2442.679609,4979.620737
1341.250193,8956.491898,-4145.153275,4366.744339
1341.250522,7698.141797,-6291.750507,3600.648841
1341.250851,6809.894666,-7402.059420,2987.772442
1341.251180,5403.503377,-8808.450710,2528.115143
1341.251509,5107.421000,-9770.718434,2757.943793
1341.251838,5255.462188,-9992.780217,3140.991542
1341.252168,5255.462188,-9622.677246,3140.991542
1341.252497,5181.441594,-7624.121203,2987.772442
1341.252826,6365.771101,-5847.626942,3600.648841
1341.253155,8734.430116,-4219.173869,3907.087040
1341.253484,9770.718434,-3775.050304,4749.792088
1341.253813,9696.697840,-4293.194464,4290.134789
1341.254143,8956.491898,-5329.482782,3677.258390
1341.254472,7476.080014,-6143.709319,2987.772442
1341.254801,6809.894666,-6513.812290,2451.505594
1341.255130,5625.565159,-7550.100608,2298.286494
1341.255459,5847.626942,-8290.306550,3217.601092
1341.255788,5699.585753,-8586.388927,3677.258390
1341.256118,6365.771101,-7476.080014,3677.258390
1341.256447,6809.894666,-6957.935855,4290.134789
1341.256776,7402.059420,-7031.956449,3677.258390
1341.257105,7179.997637,-6809.894666,3677.258390
1341.257434,7031.956449,-5255.462188,3753.867940
1341.257763,8142.265362,-4219.173869,3524.039291
1341.258093,8586.388927,-3034.844362,3677.258390
1341.258422,8882.471304,-3478.967927,3830.477490
1341.258751,8882.471304,-4367.215058,3983.696590
1341.259080,8364.327145,-5329.482782,3140.991542
1341.259409,6513.812290,-8216.285956,2757.943793
1341.259738,4885.359217,-10214.842000,2604.724693
1341.260068,4145.153275,-11251.130318,2221.676944
1341.260397,3849.070898,-10584.944971,2528.115143
1341.260726,4071.132681,-9030.512492,2451.505594
1341.261055,5033.400406,-6735.874072,2451.505594
1341.261384,5995.668130,-5477.523971,3294.210641
1341.261713,6735.874072,-4737.318029,3294.210641
1341.262043,7698.141797,-4737.318029,4596.572988
1341.262372,8364.327145,-3997.112087,3983.696590
1341.262705,8734.430116,-3404.947333,4213.525239
1341.263035,9326.594869,-2738.761985,3753.867940
1341.263364,10510.924376,-2960.823768,2987.772442
1341.263693,10288.862594,-3923.091493,3140.991542
1341.264022,9400.615463,-5773.606348,2451.505594
1341.264351,6661.853478,-7624.121203,1225.752797
1341.264680,4293.194464,-10066.800811,689.485948
1341.265010,3627.009116,-13101.645173,1378.971896
1341.265339,3552.988522,-13101.645173,2221.676944
1341.265668,3552.988522,-12139.377449,2451.505594
1341.265997,4145.153275,-9474.636058,2451.505594
1341.266326,4959.379811,-6291.750507,1225.752797
1341.266655,6365.771101,-4293.194464,1608.800546
1341.266985,7624.121203,-3849.070898,2987.772442
1341.267314,9104.533087,-2590.720797,3447.429741
1341.267643,10214.842000,-740.205942,3217.601092
1341.267972,11251.130318,-1406.391290,3677.258390
1341.268301,11473.192101,-2368.659014,4366.744339
1341.268631,9696.697840,-5255.462188,3907.087040
1341.268960,7846.182985,-7624.121203,2757.943793
1341.269289,6735.874072,-8882.471304,2068.457845
1341.269618,5329.482782,-9548.656652,919.314598
1341.269947,4885.359217,-10140.821405,536.266849
1341.270276,4441.235652,-10066.800811,536.266849
1341.270606,3849.070898,-9030.512492,0.000000
1341.270935,3552.988522,-7624.121203,-383.047749
1341.271264,5403.503377,-5625.565159,1378.971896
1341.271593,7994.224174,-4367.215058,2145.067394
1341.271922,9918.759623,-3997.112087,2757.943793
1341.272252,9696.697840,-3627.009116,2451.505594
1341.272581,8660.409521,-3849.070898,1762.019645
1341.272910,8142.265362,-5033.400406,1455.581446
1341.273239,7402.059420,-6809.894666,1149.143247
1341.273568,6957.935855,-8068.244768,1838.629195
1341.273897,6439.791695,-9252.574275,1072.533697
1341.274227,5847.626942,-9474.636058,842.705048
1341.274556,4737.318029,-8808.450710,229.828649
1341.274885,5255.462188,-7402.059420,76.609550
1341.275214,6513.812290,-6291.750507,919.314598
1341.275543,7179.997637,-5255.462188,1838.629195
1341.275873,8364.327145,-4737.318029,1532.190996
1341.276202,8142.265362,-4737.318029,1915.238745
1341.276531,7179.997637,-4811.338623,1762.019645
1341.276860,6365.771101,-5033.400406,-229.828649
1341.277189,5995.668130,-5847.626942,612.876398
1341.277518,6809.894666,-6587.832884,229.828649
1341.277848,7624.121203,-7846.182985,459.657299
1341.278177,8068.244768,-7624.121203,459.657299
1341.278506,7105.977043,-8438.347739,0.000000
1341.278835,6735.874072,-9474.636058,306.438199
1341.279164,5773.606348,-8956.491898,919.314598
1341.279493,6143.709319,-8142.265362,689.485948
1341.279823,7031.956449,-6661.853478,1072.533697
1341.280152,7624.121203,-5699.585753,1302.362347
1341.280481,7254.018232,-4885.359217,766.095498
1341.280810,7179.997637,-5181.441594,919.314598
1341.281139,6735.874072,-5181.441594,459.657299
1341.281469,6587.832884,-5995.668130,612.876398
1341.281798,7105.977043,-6587.832884,1302.362347
1341.282127,7402.059420,-7254.018232,919.314598
1341.282456,7402.059420,-7476.080014,1072.533697
1341.282785,7179.997637,-6661.853478,1072.533697
1341.283114,7105.977043,-5921.647536,612.876398
1341.283444,7624.121203,-5551.544565,459.657299
1341.283773,7920.203579,-6513.812290,842.705048
1341.284102,7179.997637,-7772.162391,1225.752797
1341.284431,6143.709319,-7994.224174,1149.143247
1341.284760,5255.462188,-7105.977043,1149.143247
1341.285090,5403.503377,-6587.832884,459.657299
1341.285419,6513.812290,-6217.729913,1455.581446
1341.285748,7550.100608,-6513.812290,2068.457845
1341.286077,7031.956449,-6069.688724,459.657299
1341.286406,5995.668130,-4737.318029,383.047749
1341.286735,6365.771101,-4885.359217,0.000000
1341.287065,7772.162391,-4589.276840,536.266849
1341.287394,8290.306550,-5181.441594,1608.800546
1341.287723,8216.285956,-6291.750507,1838.629195
1341.288052,8290.306550,-7105.977043,1455.581446
1341.288381,7476.080014,-7179.997637,1149.143247
1341.288711,6439.791695,-7698.141797,1302.362347
1341.289040,6291.750507,-8660.409521,1455.581446
1341.289369,6587.832884,-7624.121203,1378.971896
1341.289698,5773.606348,-7920.203579,919.314598
1341.290027,6069.688724,-7105.977043,766.095498
1341.290356,6439.791695,-5551.544565,1455.581446
1341.290686,7105.977043,-4737.318029,1072.533697
1341.291015,7624.121203,-3627.009116,2528.115143
1341.291344,8956.491898,-4441.235652,2068.457845
1341.291673,10066.800811,-5329.482782,2374.896044
1341.292002,9104.533087,-5847.626942,1378.971896
1341.292331,7624.121203,-7105.977043,1072.533697
1341.292661,5699.585753,-8660.409521,0.000000
1341.292990,5033.400406,-9326.594869,536.266849
1341.293319,5255.462188,-9622.677246,0.000000
1341.293648,6365.771101,-9548.656652,689.485948
1341.293977,7105.977043,-7994.224174,1149.143247
1341.294307,6809.894666,-7105.977043,383.047749
1341.294636,6217.729913,-6143.709319,995.924147
1341.294965,6513.812290,-5403.503377,1225.752797
1341.295294,7698.141797,-4885.359217,1685.410096
1341.295623,7920.203579,-3923.091493,1762.019645
1341.295952,7624.121203,-4737.318029,1762.019645
1341.296282,7772.162391,-5403.503377,1608.800546
1341.296611,7328.038826,-6439.791695,2145.067394
1341.296940,6513.812290,-7031.956449,1455.581446
1341.297269,5255.462188,-7624.121203,1225.752797
1341.297598,4737.318029,-8364.327145,383.047749
1341.297928,4441.235652,-8216.285956,995.924147
1341.298257,4737.318029,-8068.244768,689.485948
1341.298586,5625.565159,-6513.812290,766.095498
1341.298915,7031.956449,-5403.503377,1455.581446
1341.299244,8068.244768,-5033.400406,2221.676944
1341.299573,9030.512492,-5477.523971,2528.115143
1341.299903,8142.265362,-5033.400406,2451.505594
1341.300232,6661.853478,-5477.523971,229.828649
1341.300561,5255.462188,-6513.812290,-383.047749
1341.300890,6513.812290,-7179.997637,153.219100
1341.301219,7402.059420,-7105.977043,689.485948
1341.301549,7698.141797,-7550.100608,1225.752797
1341.301878,7920.203579,-7698.141797,1072.533697
1341.302207,7105.977043,-7254.018232,306.438199
1341.302536,7031.956449,-6735.874072,383.047749
1341.302865,7328.038826,-6513.812290,1149.143247
1341.303194,8438.347739,-5551.544565,1149.143247
1341.303524,8364.327145,-5329.482782,995.924147
1341.303853,8068.244768,-5847.626942,1149.143247
1341.304182,7550.100608,-5625.565159,459.657299
1341.304511,7031.956449,-6883.915261,229.828649
1341.304840,6217.729913,-7994.224174,1225.752797
1341.305169,6439.791695,-8734.430116,1378.971896
1341.305499,6735.874072,-8142.265362,1225.752797
1341.305828,6217.729913,-6365.771101,995.924147
1341.306157,6661.853478,-6513.812290,0.000000
1341.306486,5921.647536,-4737.318029,-153.219100
1341.306815,6809.894666,-4071.132681,0.000000
1341.307145,7920.203579,-5329.482782,919.314598
1341.307474,8882.471304,-5403.503377,1685.410096
1341.307803,8734.430116,-7402.059420,2068.457845
