#time,accel_x,accel_y,accel_z
1364.315941,7179.997637,-6143.709319,919.314598
1364.316271,7105.977043,-6661.853478,1302.362347
1364.316601,7179.997637,-5921.647536,766.095498
1364.316932,7105.977043,-5995.668130,1072.533697
1364.317262,6809.894666,-6217.729913,1302.362347
1364.317593,6809.894666,-6365.771101,919.314598
1364.317923,7105.977043,-6661.853478,995.924147
1364.318254,6957.935855,-6291.750507,1225.752797
1364.318584,6735.874072,-6513.812290,995.924147
1364.318914,6735.874072,-6587.832884,995.924147
1364.319245,6513.812290,-7031.956449,766.095498
1364.319575,6587.832884,-6883.915261,995.924147
1364.319906,6291.750507,-6439.791695,1072.533697
1364.320236,7105.977043,-6957.935855,1149.143247
1364.320567,7179.997637,-6661.853478,842.705048
1364.320897,7105.977043,-6291.750507,1072.533697
1364.321227,7105.977043,-6587.832884,842.705048
1364.321558,7179.997637,-5995.668130,1149.143247
1364.321888,7105.977043,-7031.956449,1302.362347
1364.322219,6735.874072,-6661.853478,919.314598
1364.322549,6883.915261,-6735.874072,1149.143247
1364.322880,7105.977043,-5995.668130,1072.533697
1364.323210,6957.935855,-6587.832884,1072.533697
1364.323540,6735.874072,-6439.791695,1072.533697
1364.323871,7031.956449,-6439.791695,1149.143247
1364.324201,7031.956449,-6587.832884,1302.362347
1364.324532,7031.956449,-6143.709319,1072.533697
1364.324862,6735.874072,-6957.935855,689.485948
1364.325193,6809.894666,-6587.832884,1072.533697
1364.325523,6587.832884,-6587.832884,842.705048
1364.325853,6513.812290,-6143.709319,612.876398
1364.326184,6661.853478,-6957.935855,1225.752797
1364.326514,6883.915261,-6883.915261,1225.752797
1364.326845,6809.894666,-7031.956449,536.266849
1364.327175,6883.915261,-6661.853478,766.095498
1364.327506,6587.832884,-6809.894666,919.314598
1364.327836,7179.997637,-6883.915261,1149.143247
1364.328166,7402.059420,-6587.832884,1532.190996
1364.328497,7328.038826,-6217.729913,1225.752797
1364.328827,7772.162391,-6365.771101,1378.971896
1364.329158,7105.977043,-6439.791695,1455.581446
1364.329488,7031.956449,-6365.771101,536.266849
1364.329819,7105.977043,-6513.812290,1072.533697
1364.330149,7402.059420,-5699.585753,459.657299
1364.330479,7402.059420,-6661.853478,766.095498
1364.330810,7105.977043,-6365.771101,1302.362347
1364.331140,7105.977043,-6291.750507,1149.143247
1364.331471,7179.997637,-6217.729913,612.876398
1364.331801,6883.915261,-6291.750507,1149.143247
1364.332132,6735.874072,-6513.812290,995.924147
1364.332462,6957.935855,-6809.894666,1302.362347
1364.332792,7105.977043,-6957.935855,1225.752797
1364.333123,6809.894666,-6587.832884,1072.533697
1364.333453,6513.812290,-6365.771101,1072.533697
1364.333784,6587.832884,-6809.894666,1149.143247
1364.334114,6587.832884,-7254.018232,842.705048
1364.334445,6735.874072,-6661.853478,919.314598
1364.334775,6957.935855,-6587.832884,995.924147
1364.335105,7031.956449,-6809.894666,459.657299
1364.335436,7105.977043,-6513.812290,919.314598
1364.335766,6883.915261,-6291.750507,995.924147
1364.336097,7105.977043,-6809.894666,229.828649
1364.336427,7698.141797,-6957.935855,1532.190996
1364.336758,7031.956449,-7031.956449,1072.533697
1364.337088,6883.915261,-6513.812290,1149.143247
1364.337418,7105.977043,-6513.812290,842.705048
1364.337749,7328.038826,-6439.791695,1225.752797
1364.338079,6809.894666,-6069.688724,459.657299
1364.338410,6957.935855,-6439.791695,1455.581446
1364.338740,6809.894666,-5995.668130,1072.533697
1364.339071,6809.894666,-6217.729913,919.314598
1364.339401,6883.915261,-6365.771101,1149.143247
1364.339731,6735.874072,-6513.812290,766.095498
1364.340062,7105.977043,-6809.894666,1225.752797
1364.340392,6883.915261,-6809.894666,1302.362347
1364.340723,6883.915261,-7105.977043,1072.533697
1364.341053,6957.935855,-7105.977043,1378.971896
1364.341384,6883.915261,-7105.977043,919.314598
1364.341714,6439.791695,-6957.935855,995.924147
1364.342044,6587.832884,-6365.771101,919.314598
1364.342375,7105.977043,-7179.997637,1072.533697
1364.342705,7105.977043,-6513.812290,1072.533697
1364.343036,7179.997637,-6069.688724,995.924147
1364.343366,7179.997637,-6439.791695,842.705048
1364.343697,7105.977043,-6587.832884,919.314598
1364.344027,7328.038826,-7105.977043,1532.190996
1364.344357,7179.997637,-6661.853478,766.095498
1364.344688,7476.080014,-6217.729913,1072.533697
1364.345018,7476.080014,-6217.729913,1072.533697
1364.345349,7105.977043,-6291.750507,1302.362347
1364.345679,7328.038826,-6587.832884,1225.752797
1364.346010,7179.997637,-6513.812290,919.314598
1364.346340,7402.059420,-6291.750507,919.314598
1364.346671,6735.874072,-6143.709319,1225.752797
1364.347001,6957.935855,-5773.606348,919.314598
1364.347331,6735.874072,-6661.853478,919.314598
1364.347662,6809.894666,-6069.688724,1072.533697
1364.347992,6661.853478,-6439.791695,919.314598
1364.348323,6883.915261,-6809.894666,1455.581446
1364.348653,6809.894666,-6439.791695,995.924147
1364.348984,6957.935855,-6809.894666,689.485948
1364.349314,6587.832884,-6809.894666,995.924147
1364.349644,7105.977043,-7105.977043,919.314598
1364.349975,7254.018232,-6661.853478,842.705048
1364.350305,7105.977043,-6587.832884,1149.143247
1364.350636,7105.977043,-6587.832884,919.314598
1364.350966,7031.956449,-6513.812290,995.924147
1364.351297,6809.894666,-6439.791695,919.314598
1364.351627,7105.977043,-6291.750507,1225.752797
1364.351957,7105.977043,-6439.791695,1072.533697
1364.352288,7254.018232,-5995.668130,1072.533697
1364.352618,7031.956449,-6217.729913,1225.752797
1364.352949,7031.956449,-6291.750507,995.924147
1364.353279,7179.997637,-6587.832884,689.485948
1364.353610,7031.956449,-6883.915261,766.095498
1364.353940,6883.915261,-6883.915261,842.705048
1364.354270,6809.894666,-7031.956449,1378.971896
1364.354601,6661.853478,-6365.771101,1225.752797
1364.354931,7031.956449,-6957.935855,1302.362347
1364.355262,6735.874072,-6809.894666,995.924147
1364.355592,6809.894666,-6957.935855,842.705048
1364.355923,6513.812290,-6661.853478,1455.581446
1364.356253,6513.812290,-7105.977043,689.485948
1364.356583,6513.812290,-6661.853478,766.095498
1364.356914,6809.894666,-7031.956449,995.924147
1364.357244,6957.935855,-6735.874072,919.314598
1364.357575,7179.997637,-6883.915261,842.705048
1364.357905,7031.956449,-6439.791695,842.705048
1364.358236,7254.018232,-6365.771101,689.485948
1364.358566,7179.997637,-6809.894666,1149.143247
1364.358896,7105.977043,-6883.915261,1149.143247
1364.359227,7328.038826,-6217.729913,536.266849
1364.359557,7624.121203,-5921.647536,842.705048
1364.359888,7402.059420,-6217.729913,919.314598
1364.360218,7031.956449,-5699.585753,1378.971896
1364.360549,6883.915261,-5773.606348,1378.971896
1364.360879,7105.977043,-6143.709319,919.314598
1364.361209,6957.935855,-6217.729913,842.705048
1364.361540,6735.874072,-6217.729913,995.924147
1364.361870,6883.915261,-6587.832884,842.705048
1364.362201,7105.977043,-6735.874072,1149.143247
1364.362531,7105.977043,-6587.832884,1149.143247
1364.362862,6809.894666,-6883.915261,1072.533697
1364.363192,6957.935855,-6587.832884,1455.581446
1364.363522,6809.894666,-6735.874072,995.924147
1364.363853,6513.812290,-6365.771101,995.924147
1364.364183,6587.832884,-6587.832884,689.485948
1364.364514,6809.894666,-6735.874072,612.876398
1364.364844,7105.977043,-6365.771101,1072.533697
1364.365175,7105.977043,-6217.729913,1225.752797
1364.365505,6735.874072,-6661.853478,1225.752797
1364.365835,7105.977043,-6513.812290,1149.143247
1364.366166,6217.729913,-6587.832884,536.266849
1364.366496,7105.977043,-6735.874072,995.924147
1364.366827,7550.100608,-6143.709319,1225.752797
1364.367157,7402.059420,-6291.750507,1072.533697
1364.367488,7105.977043,-6439.791695,1149.143247
1364.367818,7031.956449,-6217.729913,1608.800546
1364.368148,7550.100608,-6217.729913,1072.533697
1364.368479,6883.915261,-5995.668130,766.095498
1364.368809,6439.791695,-6587.832884,842.705048
1364.369140,6365.771101,-6587.832884,766.095498
1364.369470,6661.853478,-6957.935855,689.485948
1364.369801,6365.771101,-6069.688724,1455.581446
1364.370131,6809.894666,-6587.832884,306.438199
1364.370461,6587.832884,-6809.894666,1149.143247
1364.370792,6735.874072,-7031.956449,1149.143247
1364.371122,6883.915261,-7105.977043,919.314598
1364.371453,6587.832884,-6291.750507,1378.971896
1364.371783,7031.956449,-7105.977043,919.314598
1364.372114,7254.018232,-6735.874072,1302.362347
1364.372444,7105.977043,-6513.812290,1149.143247
1364.372774,7698.141797,-6439.791695,995.924147
1364.373105,7254.018232,-6587.832884,766.095498
1364.373435,7031.956449,-6587.832884,919.314598
1364.373766,7105.977043,-6439.791695,689.485948
1364.374096,7105.977043,-6069.688724,1302.362347
1364.374427,7179.997637,-6143.709319,995.924147
1364.374757,7105.977043,-6439.791695,1072.533697
1364.375087,7031.956449,-6809.894666,1378.971896
1364.375418,7105.977043,-6587.832884,842.705048
1364.375748,7105.977043,-6513.812290,1302.362347
1364.376079,7179.997637,-6661.853478,919.314598
1364.376409,6809.894666,-6439.791695,995.924147
1364.376740,6957.935855,-6291.750507,1149.143247
1364.377070,6957.935855,-6217.729913,1302.362347
1364.377400,6809.894666,-6069.688724,766.095498
1364.377731,6735.874072,-6587.832884,919.314598
1364.378061,6513.812290,-6809.894666,842.705048
1364.378392,6587.832884,-7031.956449,995.924147
1364.378722,6365.771101,-6735.874072,459.657299
1364.379053,7031.956449,-7179.997637,612.876398
1364.379383,7105.977043,-6883.915261,842.705048
1364.379713,7179.997637,-6587.832884,1302.362347
1364.380043,7105.977043,-6661.853478,842.705048
1364.380372,7624.121203,-5773.606348,612.876398
1364.380702,7031.956449,-6143.709319,1149.143247
1364.381031,7105.977043,-6365.771101,536.266849
1364.381361,7031.956449,-6291.750507,766.095498
1364.381690,7105.977043,-6143.709319,842.705048
1364.382020,7179.997637,-6217.729913,766.095498
1364.382349,7105.977043,-6217.729913,766.095498
1364.382679,6883.915261,-6661.853478,919.314598
1364.383008,6883.915261,-6735.874072,1072.533697
1364.383337,7031.956449,-6365.771101,1225.752797
1364.383667,6883.915261,-6735.874072,919.314598
1364.383996,6883.915261,-7031.956449,995.924147
1364.384326,7105.977043,-6587.832884,1072.533697
1364.384655,6809.894666,-6587.832884,1149.143247
1364.384985,6957.935855,-7105.977043,842.705048
1364.385314,6587.832884,-6661.853478,1302.362347
1364.385644,6661.853478,-6809.894666,919.314598
1364.385973,6291.750507,-6587.832884,919.314598
1364.386302,6883.915261,-6365.771101,919.314598
1364.386632,7031.956449,-6809.894666,1302.362347
1364.386961,7105.977043,-6809.894666,1149.143247
1364.387291,7105.977043,-6365.771101,1072.533697
1364.387620,7254.018232,-6809.894666,842.705048
1364.387950,7179.997637,-6291.750507,1225.752797
1364.388279,7105.977043,-6513.812290,995.924147
1364.388609,7105.977043,-6587.832884,919.314598
1364.388938,7550.100608,-6143.709319,1072.533697
1364.389268,7254.018232,-5995.668130,1072.533697
1364.389597,7105.977043,-6587.832884,1302.362347
1364.389926,6957.935855,-6291.750507,995.924147
1364.390256,7031.956449,-6365.771101,766.095498
1364.390585,6661.853478,-6291.750507,766.095498
1364.390915,6809.894666,-6439.791695,1149.143247
1364.391244,7105.977043,-6439.791695,1378.971896
1364.391574,6957.935855,-7031.956449,1072.533697
1364.391903,7105.977043,-6587.832884,1378.971896
1364.392233,6143.709319,-6735.874072,766.095498
1364.392562,7031.956449,-6439.791695,612.876398
1364.392892,6957.935855,-6883.915261,1149.143247
1364.393221,6661.853478,-7105.977043,995.924147
1364.393550,6661.853478,-6661.853478,1149.143247
1364.393880,7031.956449,-6365.771101,995.924147
1364.394209,7328.038826,-6809.894666,995.924147
1364.394539,7031.956449,-6365.771101,1149.143247
1364.394868,7105.977043,-6069.688724,842.705048
1364.395198,7105.977043,-6883.915261,1072.533697
1364.395527,7328.038826,-6217.729913,1532.190996
1364.395857,7031.956449,-6587.832884,842.705048
1364.396186,7031.956449,-6291.750507,612.876398
1364.396515,7179.997637,-6587.832884,1302.362347
1364.396845,7179.997637,-6513.812290,1149.143247
1364.397174,6809.894666,-6439.791695,1225.752797
1364.397504,6957.935855,-6439.791695,1149.143247
1364.397833,6809.894666,-6365.771101,842.705048
1364.398163,6883.915261,-6735.874072,995.924147
1364.398492,6735.874072,-6291.750507,1608.800546
1364.398822,6661.853478,-6661.853478,1225.752797
1364.399151,6809.894666,-6513.812290,1072.533697
1364.399481,6661.853478,-6809.894666,919.314598
1364.399810,6439.791695,-7105.977043,1225.752797
1364.400139,6661.853478,-7031.956449,2068.457845
1364.400469,6957.935855,-7105.977043,842.705048
1364.400798,6957.935855,-6587.832884,1302.362347
1364.401128,7105.977043,-6957.935855,842.705048
1364.401457,7698.141797,-6883.915261,1072.533697
1364.401787,7698.141797,-6143.709319,1072.533697
1364.402116,7105.977043,-6883.915261,1072.533697
1364.402446,7179.997637,-6069.688724,612.876398
1364.402775,6957.935855,-6587.832884,1149.143247
1364.403105,6735.874072,-6217.729913,536.266849
1364.403434,7105.977043,-6069.688724,1149.143247
1364.403763,7328.038826,-6513.812290,919.314598
1364.404093,7179.997637,-6735.874072,995.924147
1364.404422,7031.956449,-6365.771101,1225.752797
1364.404752,7105.977043,-6661.853478,919.314598
1364.405081,7105.977043,-6809.894666,1072.533697
1364.405411,7031.956449,-6069.688724,919.314598
1364.405740,6883.915261,-6439.791695,842.705048
1364.406070,7254.018232,-6513.812290,1149.143247
1364.406399,7031.956449,-6587.832884,1149.143247
1364.406728,6735.874072,-6587.832884,1225.752797
1364.407058,6513.812290,-6735.874072,1302.362347
1364.407387,6439.791695,-6587.832884,919.314598
1364.407717,6883.915261,-7328.038826,995.924147
1364.408046,6513.812290,-6883.915261,1072.533697
1364.408376,7031.956449,-7179.997637,1149.143247
1364.408705,7254.018232,-6883.915261,1072.533697
1364.409035,7105.977043,-6143.709319,612.876398
1364.409364,7105.977043,-6809.894666,842.705048
1364.409694,7105.977043,-6809.894666,689.485948
1364.410023,7179.997637,-6661.853478,1149.143247
1364.410352,7476.080014,-6513.812290,919.314598
1364.410682,6957.935855,-5625.565159,1378.971896
1364.411011,7402.059420,-6143.709319,1149.143247
1364.411341,7031.956449,-6217.729913,995.924147
1364.411670,6735.874072,-5995.668130,1685.410096
1364.412000,6735.874072,-6513.812290,1072.533697
1364.412329,7105.977043,-6587.832884,995.924147
1364.412659,6957.935855,-6587.832884,995.924147
1364.412988,6587.832884,-6809.894666,766.095498
1364.413318,6883.915261,-6809.894666,919.314598
1364.413647,6809.894666,-7031.956449,1302.362347
1364.413976,6735.874072,-7031.956449,995.924147
1364.414306,6809.894666,-6587.832884,1532.190996
1364.414635,6735.874072,-6809.894666,1225.752797
1364.414965,6957.935855,-6587.832884,612.876398
1364.415294,7105.977043,-6735.874072,919.314598
1364.415624,6735.874072,-6735.874072,919.314598
1364.415953,7031.956449,-6809.894666,612.876398
1364.416283,7105.977043,-6883.915261,1149.143247
1364.416612,6735.874072,-6291.750507,919.314598
1364.416941,6809.894666,-6217.729913,689.485948
1364.417271,7328.038826,-6365.771101,1072.533697
1364.417600,7031.956449,-6513.812290,689.485948
1364.417930,6957.935855,-6661.853478,1149.143247
1364.418259,7179.997637,-5477.523971,1378.971896
1364.418589,7179.997637,-6439.791695,995.924147
1364.418918,7105.977043,-6069.688724,842.705048
1364.419248,7105.977043,-6365.771101,1149.143247
1364.419577,7105.977043,-6439.791695,1072.533697
1364.419907,7254.018232,-6513.812290,766.095498
1364.420236,6587.832884,-6883.915261,1149.143247
1364.420565,6661.853478,-6513.812290,919.314598
1364.420895,6809.894666,-6513.812290,995.924147
1364.421224,6809.894666,-6217.729913,1072.533697
1364.421554,6809.894666,-6809.894666,766.095498
1364.421883,6735.874072,-6513.812290,1378.971896
1364.422213,6957.935855,-6809.894666,383.047749
1364.422542,6587.832884,-7105.977043,842.705048
1364.422872,6809.894666,-6661.853478,1532.190996
1364.423201,6957.935855,-7031.956449,842.705048
1364.423531,7105.977043,-6809.894666,1072.533697
1364.423860,7031.956449,-6291.750507,1149.143247
1364.424189,7476.080014,-6735.874072,919.314598
1364.424519,7105.977043,-6439.791695,1225.752797
1364.424848,7031.956449,-6735.874072,842.705048
1364.425178,7031.956449,-6513.812290,995.924147
1364.425507,6883.915261,-6069.688724,536.266849
1364.425837,6883.915261,-6217.729913,766.095498
1364.426166,6883.915261,-6513.812290,1225.752797
1364.426496,6809.894666,-6513.812290,1225.752797
1364.426825,7031.956449,-6217.729913,1072.533697
1364.427154,6735.874072,-6365.771101,1225.752797
1364.427484,6587.832884,-6587.832884,995.924147
1364.427813,6957.935855,-6587.832884,536.266849
1364.428143,6883.915261,-7031.956449,1302.362347
1364.428472,6957.935855,-6661.853478,919.314598
1364.428802,6439.791695,-6439.791695,1532.190996
1364.429131,6217.729913,-6957.935855,1149.143247
1364.429461,6587.832884,-6957.935855,995.924147
1364.429790,6661.853478,-6883.915261,612.876398
1364.430120,6735.874072,-6735.874072,766.095498
1364.430449,6883.915261,-6735.874072,1302.362347
1364.430778,7402.059420,-6513.812290,919.314598
1364.431108,7328.038826,-5403.503377,1225.752797
1364.431437,7624.121203,-5403.503377,612.876398
1364.431767,8734.430116,-5403.503377,1072.533697
1364.432096,8734.430116,-5699.585753,1302.362347
1364.432426,7994.224174,-5921.647536,919.314598
1364.432755,7179.997637,-6143.709319,536.266849
1364.433085,6439.791695,-7105.977043,0.000000
1364.433414,6587.832884,-6143.709319,153.219100
1364.433743,7105.977043,-6513.812290,536.266849
1364.434073,8142.265362,-6587.832884,1455.581446
1364.434402,8290.306550,-5773.606348,1685.410096
1364.434732,8660.409521,-4663.297435,2145.067394
1364.435061,8438.347739,-3775.050304,1455.581446
1364.435391,7994.224174,-4885.359217,1378.971896
1364.435720,7994.224174,-4367.215058,1302.362347
1364.436050,8290.306550,-4589.276840,1072.533697
1364.436379,8660.409521,-5033.400406,766.095498
1364.436709,8216.285956,-4737.318029,842.705048
1364.437038,7624.121203,-5995.668130,459.657299
1364.437367,7994.224174,-4737.318029,229.828649
1364.437697,8068.244768,-6069.688724,536.266849
1364.438026,8512.368333,-5773.606348,766.095498
1364.438356,7994.224174,-5329.482782,689.485948
1364.438685,7772.162391,-6069.688724,229.828649
1364.439015,7920.203579,-5033.400406,766.095498
1364.439344,8216.285956,-4885.359217,612.876398
1364.439674,8808.450710,-4515.256246,1302.362347
1364.440003,8882.471304,-4145.153275,1378.971896
1364.440333,9770.718434,-3330.926739,1608.800546
1364.440662,9918.759623,-3034.844362,1762.019645
1364.440991,9844.739029,-3701.029710,2451.505594
1364.441321,9992.780217,-2590.720797,1225.752797
1364.441650,9622.677246,-3182.885551,1685.410096
1364.441980,9474.636058,-3478.967927,1302.362347
1364.442309,9104.533087,-4219.173869,1378.971896
1364.442639,8882.471304,-4959.379811,1685.410096
1364.442968,8808.450710,-4959.379811,1149.143247
1364.443298,8438.347739,-5847.626942,1072.533697
1364.443627,7994.224174,-5107.421000,1149.143247
1364.443956,7698.141797,-5477.523971,842.705048
1364.444286,8068.244768,-5847.626942,1149.143247
1364.444615,7994.224174,-4959.379811,842.705048
1364.444945,8290.306550,-5033.400406,842.705048
1364.445274,8438.347739,-5033.400406,842.705048
1364.445604,8882.471304,-5181.441594,919.314598
1364.445933,8364.327145,-5107.421000,229.828649
1364.446263,8364.327145,-4811.338623,-383.047749
1364.446592,9178.553681,-4589.276840,306.438199
1364.446922,10066.800811,-3997.112087,842.705048
1364.447251,10288.862594,-4885.359217,919.314598
1364.447580,10066.800811,-3478.967927,689.485948
1364.447910,9992.780217,-3552.988522,459.657299
1364.448239,10140.821405,-3256.906145,2068.457845
1364.448569,9622.677246,-3552.988522,2221.676944
1364.448898,9844.739029,-4293.194464,1838.629195
1364.449228,9326.594869,-3478.967927,1302.362347
1364.449557,8512.368333,-3478.967927,1455.581446
1364.449887,9178.553681,-4441.235652,1838.629195
1364.450216,9548.656652,-3849.070898,2145.067394
1364.450546,9326.594869,-4219.173869,1378.971896
1364.450875,8438.347739,-3552.988522,1072.533697
1364.451204,8438.347739,-4515.256246,766.095498
1364.451534,9252.574275,-4219.173869,76.609550
1364.451863,8512.368333,-4811.338623,76.609550
1364.452193,8512.368333,-4737.318029,0.000000
1364.452522,8882.471304,-5033.400406,-459.657299
1364.452852,9104.533087,-5995.668130,0.000000
1364.453181,9030.512492,-5403.503377,766.095498
1364.453511,8956.491898,-5847.626942,766.095498
1364.453840,8660.409521,-5921.647536,1072.533697
1364.454169,9030.512492,-5403.503377,1378.971896
1364.454499,9030.512492,-5107.421000,1072.533697
1364.454828,8882.471304,-5033.400406,1915.238745
1364.455158,8882.471304,-5107.421000,2145.067394
1364.455487,9030.512492,-3849.070898,1915.238745
1364.455817,9178.553681,-2368.659014,1532.190996
1364.456146,10214.842000,-2368.659014,1149.143247
1364.456476,10362.883188,-1924.535449,919.314598
1364.456805,9992.780217,-2072.576638,306.438199
1364.457135,9844.739029,-2146.597232,0.000000
1364.457464,9918.759623,-3182.885551,76.609550
1364.457793,9622.677246,-5477.523971,536.266849
1364.458123,8808.450710,-6661.853478,612.876398
1364.458452,8438.347739,-7624.121203,995.924147
1364.458782,7402.059420,-8290.306550,995.924147
1364.459111,6735.874072,-8068.244768,1455.581446
1364.459441,6365.771101,-7698.141797,689.485948
1364.459770,6217.729913,-6883.915261,842.705048
1364.460100,7179.997637,-5699.585753,536.266849
1364.460429,8142.265362,-3923.091493,1225.752797
1364.460759,9030.512492,-2960.823768,1455.581446
1364.461088,9770.718434,-2442.679609,1608.800546
1364.461417,10288.862594,-962.267725,1225.752797
1364.461747,10955.047942,-74.020594,919.314598
1364.462076,12139.377449,-370.102971,612.876398
1364.462406,12287.418637,-592.164754,1149.143247
1364.462735,12805.562797,-1258.350101,1685.410096
1364.463065,12139.377449,-3108.864956,1608.800546
1364.463394,10807.006753,-4737.318029,1608.800546
1364.463724,8882.471304,-6809.894666,1838.629195
1364.464053,6809.894666,-8068.244768,919.314598
1364.464382,5181.441594,-8808.450710,153.219100
1364.464712,3923.091493,-8660.409521,-536.266849
1364.465041,4367.215058,-8068.244768,-383.047749
1364.465371,5847.626942,-7105.977043,0.000000
1364.465700,7772.162391,-6661.853478,1225.752797
1364.466030,9622.677246,-3701.029710,1762.019645
1364.466359,11103.089130,-1998.556043,1532.190996
1364.466689,11029.068536,-444.123565,1608.800546
1364.467018,10955.047942,0.000000,1225.752797
1364.467348,11473.192101,-296.082377,919.314598
1364.467677,11917.315666,0.000000,1302.362347
1364.468006,12509.480420,-1480.411884,1762.019645
1364.468336,14063.912898,-3182.885551,2604.724693
1364.468665,12213.398043,-4515.256246,2681.334243
1364.468995,9622.677246,-6809.894666,1838.629195
1364.469324,6661.853478,-7105.977043,919.314598
1364.469654,4589.276840,-8068.244768,-612.876398
1364.469983,2664.741391,-10362.883188,-1455.581446
1364.470313,2738.761985,-9104.533087,-1225.752797
1364.470642,4737.318029,-8142.265362,-842.705048
1364.470972,7476.080014,-4959.379811,-306.438199
1364.471301,9918.759623,-3923.091493,1072.533697
1364.471630,11177.109724,-2960.823768,1838.629195
1364.471960,11695.253884,-2294.638420,1991.848295
1364.472289,10066.800811,-2442.679609,1991.848295
1364.472619,9844.739029,-2072.576638,842.705048
1364.472948,8660.409521,-4959.379811,689.485948
1364.473278,9104.533087,-5699.585753,1532.190996
1364.473607,8882.471304,-6365.771101,1762.019645
1364.473937,8216.285956,-7772.162391,1225.752797
1364.474266,7328.038826,-7994.224174,1991.848295
1364.474595,6069.688724,-8734.430116,1455.581446
1364.474925,5329.482782,-6809.894666,306.438199
1364.475254,4737.318029,-5255.462188,-536.266849
1364.475584,5773.606348,-6143.709319,-459.657299
1364.475913,7772.162391,-5181.441594,383.047749
1364.476243,9030.512492,-4737.318029,1302.362347
1364.476572,9104.533087,-3256.906145,842.705048
1364.476902,8586.388927,-3034.844362,612.876398
1364.477231,9178.553681,-4737.318029,76.609550
1364.477561,9030.512492,-7179.997637,1532.190996
1364.477890,8586.388927,-8512.368333,2221.676944
1364.478219,7624.121203,-7402.059420,1302.362347
1364.478549,6735.874072,-6069.688724,459.657299
1364.478878,5255.462188,-6291.750507,612.876398
1364.479208,5921.647536,-7772.162391,766.095498
1364.479537,6957.935855,-8586.388927,1378.971896
1364.479867,6735.874072,-8142.265362,1915.238745
1364.480196,5921.647536,-6587.832884,689.485948
1364.480526,4737.318029,-5847.626942,229.828649
1364.480855,5255.462188,-5625.565159,0.000000
1364.481185,6291.750507,-7105.977043,0.000000
1364.481514,7550.100608,-6439.791695,1762.019645
1364.481843,8808.450710,-6365.771101,2528.115143
1364.482173,8882.471304,-3627.009116,1378.971896
1364.482502,8364.327145,-2590.720797,306.438199
1364.482832,8364.327145,-4885.359217,842.705048
1364.483161,9474.636058,-6587.832884,1455.581446
1364.483491,8290.306550,-7846.182985,3600.648841
1364.483820,7624.121203,-6143.709319,2068.457845
1364.484150,6661.853478,-4663.297435,536.266849
1364.484479,6069.688724,-6587.832884,0.000000
1364.484808,6143.709319,-8956.491898,1302.362347
1364.485138,5625.565159,-9252.574275,1838.629195
1364.485467,5329.482782,-5699.585753,459.657299
1364.485797,5847.626942,-4515.256246,76.609550
1364.486126,7179.997637,-4515.256246,306.438199
1364.486456,8290.306550,-6587.832884,1685.410096
1364.486785,8068.244768,-8586.388927,2757.943793
1364.487115,7254.018232,-7328.038826,2374.896044
1364.487444,6365.771101,-5403.503377,842.705048
1364.487774,5181.441594,-5995.668130,689.485948
1364.488103,6069.688724,-8290.306550,1302.362347
1364.488432,6291.750507,-10362.883188,1915.238745
1364.488762,5921.647536,-8956.491898,1608.800546
1364.489091,5773.606348,-5921.647536,1072.533697
1364.489421,7105.977043,-4219.173869,842.705048
1364.489750,7402.059420,-4515.256246,766.095498
1364.490080,6735.874072,-7105.977043,995.924147
1364.490409,6143.709319,-7105.977043,1532.190996
1364.490739,6217.729913,-5773.606348,766.095498
1364.491068,6809.894666,-4515.256246,0.000000
1364.491398,6809.894666,-5995.668130,229.828649
1364.491727,7402.059420,-7846.182985,995.924147
1364.492056,7624.121203,-9474.636058,1685.410096
1364.492386,7550.100608,-8142.265362,1762.019645
1364.492715,7772.162391,-5699.585753,1455.581446
1364.493045,8734.430116,-3997.112087,919.314598
1364.493374,8512.368333,-5107.421000,1149.143247
1364.493704,7105.977043,-7476.080014,1915.238745
1364.494033,6587.832884,-7328.038826,1532.190996
1364.494363,6365.771101,-4737.318029,229.828649
1364.494692,5921.647536,-4515.256246,0.000000
1364.495021,6661.853478,-6365.771101,995.924147
1364.495351,7105.977043,-7179.997637,1838.629195
1364.495680,6883.915261,-7846.182985,1225.752797
1364.496010,6513.812290,-5847.626942,536.266849
1364.496339,7402.059420,-4589.276840,612.876398
1364.496669,8290.306550,-6735.874072,0.000000
1364.496998,7624.121203,-7179.997637,919.314598
1364.497328,6069.688724,-9252.574275,1149.143247
1364.497657,5847.626942,-9474.636058,0.000000
1364.497987,5921.647536,-7254.018232,0.000000
1364.498316,6069.688724,-8290.306550,306.438199
1364.498645,6661.853478,-7550.100608,919.314598
1364.498975,7031.956449,-7328.038826,1225.752797
1364.499304,6143.709319,-6439.791695,919.314598
1364.499634,6513.812290,-3256.906145,306.438199
1364.499963,8956.491898,-2146.597232,1149.143247
1364.500293,9622.677246,-3404.947333,1685.410096
1364.500622,8660.409521,-5773.606348,2068.457845
1364.500952,7698.141797,-5921.647536,2374.896044
1364.501281,7179.997637,-5329.482782,383.047749
1364.501611,7105.977043,-6069.688724,842.705048
1364.501940,6809.894666,-7105.977043,1149.143247
1364.502269,6735.874072,-9696.697840,1378.971896
1364.502599,6143.709319,-9178.553681,1915.238745
1364.502928,5403.503377,-7105.977043,1378.971896
1364.503258,6587.832884,-4959.379811,306.438199
1364.503587,7254.018232,-4737.318029,612.876398
1364.503917,7105.977043,-7994.224174,1532.190996
1364.504246,6809.894666,-7698.141797,1685.410096
1364.504576,6069.688724,-5329.482782,306.438199
1364.504905,5995.668130,-4663.297435,-229.828649
1364.505234,6957.935855,-6217.729913,306.438199
1364.505564,7476.080014,-8290.306550,1302.362347
1364.505893,7179.997637,-8660.409521,1762.019645
1364.506223,6883.915261,-6809.894666,1225.752797
1364.506552,7105.977043,-4441.235652,76.609550
1364.506882,7698.141797,-4515.256246,0.000000
1364.507211,8216.285956,-7846.182985,2068.457845
1364.507541,7846.182985,-8882.471304,2528.115143
1364.507870,5847.626942,-8216.285956,2068.457845
1364.508200,4885.359217,-5625.565159,459.657299
1364.508529,5551.544565,-4589.276840,153.219100
1364.508858,7179.997637,-6809.894666,1685.410096
1364.509188,7179.997637,-7846.182985,2451.505594
1364.509517,6957.935855,-7179.997637,2451.505594
1364.509847,6513.812290,-4071.132681,842.705048
1364.510176,6661.853478,-2516.700203,-459.657299
1364.510506,7994.224174,-4515.256246,-383.047749
1364.510835,7994.224174,-7846.182985,1455.581446
1364.511165,7402.059420,-9992.780217,2145.067394
1364.511494,6661.853478,-7328.038826,919.314598
1364.511824,6439.791695,-5329.482782,0.000000
1364.512153,6291.750507,-7105.977043,536.266849
1364.512482,7031.956449,-9252.574275,1225.752797
1364.512812,6439.791695,-9992.780217,1378.971896
1364.513141,5329.482782,-7402.059420,612.876398
1364.513471,5847.626942,-4441.235652,-612.876398
1364.513800,7402.059420,-3404.947333,153.219100
1364.514130,8364.327145,-5625.565159,1149.143247
1364.514459,8438.347739,-7846.182985,2451.505594
1364.514789,6957.935855,-7179.997637,1455.581446
1364.515118,6365.771101,-4959.379811,0.000000
1364.515447,6809.894666,-5255.462188,0.000000
1364.515777,7550.100608,-7328.038826,919.314598
1364.516106,7254.018232,-9844.739029,1608.800546
1364.516436,6143.709319,-8660.409521,2374.896044
1364.516765,6513.812290,-5625.565159,536.266849
1364.517095,7846.182985,-3552.988522,459.657299
1364.517424,8586.388927,-4737.318029,1072.533697
1364.517754,7772.162391,-7846.182985,2145.067394
1364.518083,6957.935855,-8068.244768,1838.629195
1364.518413,5329.482782,-6809.894666,459.657299
1364.518742,5847.626942,-4663.297435,-842.705048
1364.519071,6957.935855,-5551.544565,383.047749
1364.519401,7772.162391,-8512.368333,1762.019645
1364.519730,8068.244768,-8364.327145,2298.286494
1364.520060,7105.977043,-6069.688724,1149.143247
1364.520389,7772.162391,-3775.050304,-459.657299
1364.520719,8364.327145,-3404.947333,153.219100
1364.521048,9400.615463,-5255.462188,2145.067394
1364.521378,7772.162391,-7920.203579,2374.896044
1364.521707,5995.668130,-8216.285956,1991.848295
1364.522037,5255.462188,-5699.585753,229.828649
1364.522366,5551.544565,-5255.462188,-229.828649
1364.522695,6513.812290,-8364.327145,1455.581446
1364.523025,7105.977043,-9474.636058,2451.505594
1364.523354,6513.812290,-8068.244768,2068.457845
1364.523684,6291.750507,-4589.276840,536.266849
1364.524013,6661.853478,-2664.741391,-383.047749
1364.524343,8142.265362,-4737.318029,612.876398
1364.524672,7920.203579,-7476.080014,1991.848295
1364.525002,7179.997637,-8290.306550,2068.457845
1364.525331,6365.771101,-6513.812290,842.705048
1364.525661,5995.668130,-4959.379811,-383.047749
1364.525990,6587.832884,-6661.853478,612.876398
1364.526319,7476.080014,-8660.409521,1532.190996
1364.526649,6957.935855,-8956.491898,1915.238745
1364.526978,6143.709319,-6513.812290,842.705048
1364.527308,7476.080014,-4515.256246,383.047749
1364.527637,8216.285956,-3849.070898,995.924147
1364.527967,8660.409521,-6809.894666,1915.238745
1364.528296,7402.059420,-8068.244768,2374.896044
1364.528626,6143.709319,-7328.038826,1608.800546
1364.528955,5033.400406,-5625.565159,-383.047749
1364.529284,5921.647536,-5995.668130,229.828649
1364.529614,7254.018232,-7772.162391,1225.752797
1364.529943,7105.977043,-8882.471304,1532.190996
1364.530273,6365.771101,-8586.388927,1838.629195
1364.530602,5995.668130,-5995.668130,536.266849
1364.530932,7624.121203,-4293.194464,229.828649
1364.531261,8808.450710,-5773.606348,1378.971896
1364.531591,7624.121203,-8438.347739,1991.848295
1364.531920,6439.791695,-8364.327145,1991.848295
1364.532250,6069.688724,-6883.915261,766.095498
1364.532579,6883.915261,-5181.441594,229.828649
1364.532908,6809.894666,-5921.647536,919.314598
1364.533238,7179.997637,-7994.224174,1149.143247
1364.533567,6735.874072,-8142.265362,1378.971896
1364.533897,6513.812290,-5921.647536,1302.362347
1364.534226,7105.977043,-4367.215058,0.000000
1364.534556,8290.306550,-3478.967927,766.095498
1364.534885,7698.141797,-5995.668130,1532.190996
1364.535215,7476.080014,-7698.141797,1762.019645
1364.535544,6587.832884,-7031.956449,1149.143247
1364.535874,6291.750507,-6069.688724,76.609550
1364.536203,6957.935855,-6069.688724,689.485948
1364.536532,7031.956449,-7550.100608,1608.800546
1364.536862,6735.874072,-8808.450710,1532.190996
1364.537191,5625.565159,-8142.265362,1532.190996
1364.537521,5551.544565,-4737.318029,536.266849
1364.537850,7254.018232,-3701.029710,229.828649
1364.538180,8512.368333,-4589.276840,1225.752797
1364.538509,8512.368333,-6661.853478,2374.896044
1364.538839,7846.182985,-7179.997637,2068.457845
1364.539168,7031.956449,-5921.647536,1302.362347
1364.539497,6217.729913,-5625.565159,153.219100
1364.539827,6809.894666,-7254.018232,0.000000
1364.540156,6587.832884,-8882.471304,1149.143247
1364.540486,6143.709319,-9326.594869,1149.143247
1364.540815,5995.668130,-7031.956449,995.924147
1364.541145,6735.874072,-4737.318029,0.000000
1364.541474,8290.306550,-4441.235652,612.876398
1364.541804,8882.471304,-6883.915261,1915.238745
1364.542133,7402.059420,-7698.141797,2374.896044
1364.542463,5551.544565,-7402.059420,1149.143247
1364.542792,5033.400406,-5921.647536,0.000000
1364.543121,6365.771101,-5847.626942,0.000000
1364.543451,7402.059420,-7920.203579,1149.143247
1364.543780,7476.080014,-8956.491898,1991.848295
1364.544110,6661.853478,-7328.038826,1302.362347
1364.544439,6809.894666,-5107.421000,766.095498
1364.544769,7994.224174,-3849.070898,459.657299
1364.545098,8364.327145,-5181.441594,1149.143247
1364.545428,7476.080014,-7254.018232,1532.190996
1364.545757,5847.626942,-8068.244768,1302.362347
1364.546087,5477.523971,-6439.791695,536.266849
1364.546416,6439.791695,-5625.565159,383.047749
1364.546745,8068.244768,-6069.688724,2374.896044
1364.547075,8142.265362,-8512.368333,1608.800546
1364.547404,6365.771101,-8364.327145,1455.581446
1364.547734,4885.359217,-6439.791695,306.438199
1364.548063,6069.688724,-4589.276840,-536.266849
1364.548393,8290.306550,-4515.256246,76.609550
1364.548722,8586.388927,-7402.059420,2145.067394
1364.549052,7846.182985,-8882.471304,2528.115143
1364.549381,6291.750507,-7994.224174,1532.190996
1364.549710,5403.503377,-6217.729913,-153.219100
1364.550040,5847.626942,-6439.791695,-306.438199
1364.550369,5625.565159,-8438.347739,536.266849
1364.550699,5699.585753,-9030.512492,919.314598
1364.551028,5477.523971,-7994.224174,919.314598
1364.551358,6439.791695,-4737.318029,842.705048
1364.551687,9030.512492,-2960.823768,689.485948
1364.552017,9696.697840,-3849.070898,1838.629195
1364.552346,8364.327145,-5921.647536,2374.896044
1364.552676,7698.141797,-6513.812290,2298.286494
1364.553005,7105.977043,-4737.318029,2145.067394
1364.553334,7105.977043,-4293.194464,536.266849
1364.553664,7031.956449,-6069.688724,1149.143247
1364.553993,7105.977043,-9030.512492,1915.238745
1364.554323,5921.647536,-9252.574275,1225.752797
1364.554652,5255.462188,-7031.956449,842.705048
1364.554982,5995.668130,-5329.482782,229.828649
1364.555311,8142.265362,-4811.338623,842.705048
1364.555641,7920.203579,-7550.100608,1838.629195
1364.555970,7105.977043,-7402.059420,2451.505594
1364.556300,6217.729913,-6513.812290,306.438199
1364.556629,5995.668130,-5773.606348,0.000000
1364.556958,6217.729913,-5995.668130,0.000000
1364.557288,7179.997637,-8512.368333,1608.800546
1364.557617,7328.038826,-8438.347739,1762.019645
1364.557947,6587.832884,-7550.100608,919.314598
1364.558276,6809.894666,-4737.318029,842.705048
1364.558606,8142.265362,-3923.091493,689.485948
1364.558935,9178.553681,-6069.688724,1838.629195
1364.559265,8290.306550,-8068.244768,2145.067394
1364.559594,6661.853478,-7772.162391,1762.019645
1364.559923,5625.565159,-5107.421000,0.000000
1364.560253,5477.523971,-5625.565159,-536.266849
1364.560582,6809.894666,-6513.812290,1532.190996
1364.560912,7402.059420,-7846.182985,1455.581446
1364.561241,7105.977043,-7846.182985,1991.848295
1364.561571,6513.812290,-5329.482782,536.266849
1364.561900,7105.977043,-4589.276840,-459.657299
1364.562230,7994.224174,-4737.318029,919.314598
1364.562559,8660.409521,-7846.182985,1762.019645
1364.562889,7772.162391,-8586.388927,1915.238745
1364.563218,6217.729913,-7328.038826,1455.581446
1364.563547,5625.565159,-6291.750507,0.000000
1364.563877,6513.812290,-6587.832884,306.438199
1364.564206,6809.894666,-9178.553681,1378.971896
1364.564536,6513.812290,-9844.739029,1991.848295
1364.564865,6069.688724,-6587.832884,1072.533697
1364.565195,6513.812290,-4071.132681,-536.266849
1364.565524,7328.038826,-2442.679609,-229.828649
1364.565854,8216.285956,-5181.441594,1225.752797
1364.566183,7402.059420,-7328.038826,1915.238745
1364.566513,7105.977043,-7105.977043,1149.143247
1364.566842,5921.647536,-5403.503377,536.266849
1364.567171,6365.771101,-5107.421000,76.609550
1364.567501,7328.038826,-7402.059420,1149.143247
1364.567830,7402.059420,-9252.574275,2145.067394
1364.568160,6587.832884,-8808.450710,1991.848295
1364.568489,6661.853478,-6365.771101,612.876398
1364.568819,7254.018232,-4219.173869,383.047749
1364.569148,8142.265362,-5255.462188,612.876398
1364.569478,7402.059420,-8142.265362,1991.848295
1364.569807,6513.812290,-8364.327145,1915.238745
1364.570137,5699.585753,-6957.935855,459.657299
1364.570466,5329.482782,-4737.318029,0.000000
1364.570795,6439.791695,-6069.688724,306.438199
1364.571125,7105.977043,-8068.244768,689.485948
1364.571454,5921.647536,-9548.656652,1225.752797
1364.571784,5403.503377,-7772.162391,459.657299
1364.572113,6587.832884,-5255.462188,0.000000
1364.572443,8216.285956,-4219.173869,536.266849
1364.572772,8956.491898,-6513.812290,1455.581446
1364.573102,8290.306550,-7698.141797,2451.505594
1364.573431,7402.059420,-7402.059420,2298.286494
1364.573760,7402.059420,-5625.565159,919.314598
1364.574090,6809.894666,-4441.235652,1685.410096
1364.574419,6069.688724,-6365.771101,536.266849
1364.574749,6291.750507,-7624.121203,1378.971896
1364.575078,6217.729913,-7698.141797,1991.848295
1364.575408,7328.038826,-4737.318029,1072.533697
1364.575737,7920.203579,-2664.741391,1072.533697
1364.576067,8808.450710,-4219.173869,1149.143247
1364.576396,8216.285956,-7105.977043,1608.800546
1364.576726,6291.750507,-8660.409521,1455.581446
1364.577055,5403.503377,-8438.347739,153.219100
1364.577384,5921.647536,-7105.977043,76.609550
1364.577714,6587.832884,-6661.853478,229.828649
1364.578043,7328.038826,-8512.368333,1455.581446
1364.578373,7105.977043,-10140.821405,2145.067394
1364.578702,6291.750507,-6735.874072,1225.752797
1364.579032,6661.853478,-4663.297435,229.828649
1364.579361,7179.997637,-3552.988522,76.609550
1364.579691,7920.203579,-4441.235652,612.876398
1364.580020,7105.977043,-7179.997637,1685.410096
1364.580350,7105.977043,-7550.100608,1149.143247
1364.580679,6957.935855,-5181.441594,919.314598
1364.581008,7476.080014,-4885.359217,306.438199
1364.581338,7254.018232,-6217.729913,1149.143247
1364.581667,6957.935855,-8438.347739,2145.067394
1364.581997,6439.791695,-9326.594869,1608.800546
1364.582326,6809.894666,-6513.812290,995.924147
1364.582656,7254.018232,-4811.338623,689.485948
1364.582985,8142.265362,-5033.400406,919.314598
1364.583315,7920.203579,-7179.997637,2681.334243
1364.583644,6957.935855,-8290.306550,2068.457845
1364.583973,5625.565159,-7179.997637,612.876398
1364.584303,5329.482782,-5477.523971,76.609550
1364.584632,5847.626942,-7550.100608,536.266849
1364.584962,6217.729913,-8512.368333,842.705048
1364.585291,5699.585753,-9474.636058,1225.752797
1364.585620,5181.441594,-7254.018232,612.876398
1364.585950,6291.750507,-4959.379811,76.609550
1364.586279,7624.121203,-4367.215058,689.485948
1364.586608,8438.347739,-5995.668130,842.705048
1364.586938,7772.162391,-8438.347739,1991.848295
1364.587267,7105.977043,-7179.997637,1608.800546
1364.587596,7105.977043,-6217.729913,1302.362347
1364.587926,7476.080014,-4663.297435,1225.752797
1364.588255,7994.224174,-5551.544565,1762.019645
1364.588585,7402.059420,-7402.059420,2528.115143
1364.588914,6143.709319,-6217.729913,1762.019645
1364.589243,5699.585753,-4663.297435,1225.752797
1364.589573,7105.977043,-3701.029710,689.485948
1364.589902,7994.224174,-4811.338623,842.705048
1364.590231,7624.121203,-7254.018232,1608.800546
1364.590561,6439.791695,-7550.100608,1991.848295
1364.590890,6217.729913,-6883.915261,689.485948
1364.591219,6069.688724,-5921.647536,-153.219100
1364.591549,6365.771101,-7105.977043,842.705048
1364.591878,6809.894666,-9326.594869,1149.143247
1364.592208,6365.771101,-9030.512492,1838.629195
1364.592537,5773.606348,-7846.182985,1149.143247
1364.592866,6143.709319,-5033.400406,0.000000
1364.593196,7402.059420,-3775.050304,536.266849
1364.593525,8512.368333,-5995.668130,1838.629195
1364.593854,9252.574275,-7105.977043,2068.457845
1364.594184,7772.162391,-6365.771101,2528.115143
1364.594513,7179.997637,-4737.318029,306.438199
1364.594842,7624.121203,-4441.235652,383.047749
1364.595172,7920.203579,-5477.523971,919.314598
1364.595501,7254.018232,-8290.306550,1915.238745
1364.595831,6365.771101,-8290.306550,1685.410096
1364.596160,6587.832884,-4737.318029,536.266849
1364.596489,7328.038826,-4589.276840,-153.219100
1364.596819,7846.182985,-5329.482782,2374.896044
1364.597148,7550.100608,-8364.327145,2145.067394
1364.597477,6957.935855,-8956.491898,1915.238745
1364.597807,5477.523971,-7179.997637,919.314598
1364.598136,5033.400406,-6217.729913,-306.438199
1364.598465,5625.565159,-7328.038826,76.609550
1364.598795,6069.688724,-9992.780217,1302.362347
1364.599124,5847.626942,-10140.821405,919.314598
1364.599454,5551.544565,-8068.244768,612.876398
1364.599783,5921.647536,-4959.379811,153.219100
1364.600112,7920.203579,-3701.029710,0.000000
1364.600442,8660.409521,-5403.503377,1302.362347
1364.600771,7994.224174,-7254.018232,1532.190996
1364.601100,6809.894666,-7105.977043,919.314598
1364.601430,6957.935855,-5329.482782,842.705048
1364.601759,7550.100608,-5181.441594,459.657299
1364.602089,8068.244768,-6439.791695,1532.190996
1364.602418,8068.244768,-8068.244768,2374.896044
1364.602747,7105.977043,-7254.018232,1991.848295
1364.603077,7031.956449,-4219.173869,919.314598
1364.603406,8068.244768,-2886.803174,536.266849
1364.603735,8290.306550,-3775.050304,919.314598
1364.604065,6957.935855,-7105.977043,1302.362347
1364.604394,5921.647536,-8512.368333,2068.457845
1364.604723,5033.400406,-7402.059420,229.828649
1364.605053,5625.565159,-6439.791695,0.000000
1364.605382,6439.791695,-6809.894666,842.705048
1364.605712,7402.059420,-9400.615463,1455.581446
1364.606041,7031.956449,-9252.574275,1225.752797
1364.606370,5773.606348,-7254.018232,1149.143247
1364.606700,6735.874072,-5033.400406,-306.438199
1364.607029,7994.224174,-4071.132681,306.438199
1364.607358,8586.388927,-5995.668130,1685.410096
1364.607688,8290.306550,-7550.100608,2451.505594
1364.608017,7105.977043,-6957.935855,1608.800546
1364.608346,6365.771101,-5181.441594,306.438199
1364.608676,6513.812290,-5255.462188,306.438199
1364.609005,7772.162391,-6365.771101,1685.410096
1364.609335,7402.059420,-7920.203579,1762.019645
1364.609664,5921.647536,-7031.956449,995.924147
1364.609993,5773.606348,-4811.338623,0.000000
1364.610323,7402.059420,-3997.112087,-536.266849
1364.610652,8142.265362,-5625.565159,919.314598
1364.610981,8068.244768,-7772.162391,2221.676944
1364.611311,7328.038826,-8364.327145,1762.019645
1364.611640,6143.709319,-7476.080014,995.924147
1364.611969,5847.626942,-5995.668130,383.047749
1364.612299,6587.832884,-6883.915261,383.047749
1364.612628,6735.874072,-8512.368333,1455.581446
1364.612958,5847.626942,-8734.430116,1455.581446
1364.613287,5625.565159,-6883.915261,459.657299
1364.613616,6365.771101,-4367.215058,-229.828649
1364.613946,7550.100608,-4663.297435,0.000000
1364.614275,8512.368333,-6365.771101,1455.581446
1364.614604,7772.162391,-7772.162391,2221.676944
1364.614934,6883.915261,-7105.977043,1072.533697
1364.615263,6291.750507,-5625.565159,306.438199
1364.615592,6513.812290,-5403.503377,0.000000
1364.615922,7476.080014,-8068.244768,1149.143247
1364.616251,7402.059420,-9030.512492,2451.505594
1364.616581,6809.894666,-7550.100608,1455.581446
1364.616910,6735.874072,-4737.318029,766.095498
1364.617239,7402.059420,-3404.947333,766.095498
1364.617569,8586.388927,-4663.297435,1072.533697
1364.617898,8512.368333,-6587.832884,2298.286494
1364.618227,7328.038826,-7550.100608,2221.676944
1364.618557,6217.729913,-5625.565159,612.876398
1364.618886,5551.544565,-4885.359217,-229.828649
1364.619215,6439.791695,-6735.874072,689.485948
1364.619545,6735.874072,-8956.491898,2145.067394
1364.619874,6661.853478,-9770.718434,2068.457845
1364.620204,6217.729913,-7550.100608,1225.752797
1364.620533,5995.668130,-4811.338623,-153.219100
1364.620862,7105.977043,-4441.235652,459.657299
1364.621192,7624.121203,-6735.874072,1072.533697
1364.621521,7105.977043,-8808.450710,2221.676944
1364.621850,5921.647536,-7254.018232,1225.752797
1364.622180,6143.709319,-4811.338623,229.828649
1364.622509,7550.100608,-4367.215058,0.000000
1364.622838,7920.203579,-6217.729913,1302.362347
1364.623168,8216.285956,-7698.141797,2068.457845
1364.623497,7846.182985,-6291.750507,2068.457845
1364.623827,7994.224174,-3849.070898,995.924147
1364.624156,8438.347739,-2590.720797,842.705048
1364.624485,8882.471304,-4367.215058,1149.143247
1364.624815,8068.244768,-7476.080014,2068.457845
1364.625144,6439.791695,-8142.265362,1838.629195
1364.625473,5995.668130,-7179.997637,306.438199
1364.625803,5329.482782,-5403.503377,153.219100
1364.626132,5921.647536,-7402.059420,459.657299
1364.626461,6069.688724,-9548.656652,2068.457845
1364.626791,5255.462188,-8956.491898,1838.629195
1364.627120,4959.379811,-6587.832884,459.657299
1364.627450,6513.812290,-5033.400406,536.266849
1364.627779,8142.265362,-4515.256246,306.438199
1364.628108,8808.450710,-6069.688724,1532.190996
1364.628438,8216.285956,-7772.162391,2298.286494
1364.628767,6957.935855,-7550.100608,1378.971896
1364.629096,6143.709319,-5181.441594,383.047749
1364.629426,6735.874072,-5477.523971,-229.828649
1364.629755,7328.038826,-7550.100608,612.876398
1364.630084,6883.915261,-8216.285956,1149.143247
1364.630414,6143.709319,-7846.182985,1072.533697
1364.630743,6513.812290,-5033.400406,0.000000
1364.631073,7994.224174,-3627.009116,459.657299
1364.631402,9030.512492,-5625.565159,1608.800546
1364.631731,7994.224174,-7254.018232,2451.505594
1364.632061,6883.915261,-7402.059420,1838.629195
1364.632390,6291.750507,-6365.771101,229.828649
1364.632719,6069.688724,-5625.565159,0.000000
1364.633049,6365.771101,-7328.038826,919.314598
1364.633378,6439.791695,-9104.533087,1532.190996
1364.633707,6143.709319,-9474.636058,2068.457845
1364.634037,6217.729913,-7105.977043,1225.752797
1364.634366,6661.853478,-4811.338623,76.609550
1364.634696,7031.956449,-4811.338623,612.876398
1364.635025,7624.121203,-6217.729913,306.438199
1364.635354,6439.791695,-7772.162391,1225.752797
1364.635684,5699.585753,-7105.977043,459.657299
1364.636013,6439.791695,-5995.668130,153.219100
1364.636342,7476.080014,-4737.318029,1149.143247
1364.636672,7994.224174,-6883.915261,1455.581446
1364.637001,7698.141797,-8142.265362,2221.676944
1364.637330,7105.977043,-7031.956449,1838.629195
1364.637660,7476.080014,-4811.338623,-153.219100
1364.637989,7624.121203,-3552.988522,766.095498
1364.638319,8290.306550,-4441.235652,1302.362347
1364.638648,7698.141797,-7105.977043,1608.800546
1364.638977,6439.791695,-7698.141797,1455.581446
1364.639307,6439.791695,-6661.853478,842.705048
1364.639636,6809.894666,-5625.565159,153.219100
1364.639965,6809.894666,-7254.018232,1302.362347
1364.640295,6439.791695,-8290.306550,1532.190996
1364.640624,6143.709319,-7698.141797,1149.143247
1364.640953,5625.565159,-5403.503377,0.000000
1364.641283,7254.018232,-3478.967927,229.828649
1364.641612,8956.491898,-4367.215058,1608.800546
1364.641942,8882.471304,-6513.812290,2145.067394
1364.642271,7402.059420,-7920.203579,1455.581446
1364.642600,5255.462188,-8956.491898,766.095498
1364.642930,5403.503377,-4367.215058,-383.047749
1364.643259,6883.915261,-6661.853478,612.876398
1364.643588,7550.100608,-7402.059420,1608.800546
1364.643918,7698.141797,-6735.874072,1302.362347
1364.644247,7105.977043,-7105.977043,1225.752797
1364.644576,7328.038826,-4737.318029,689.485948
1364.644906,7402.059420,-4441.235652,0.000000
1364.645235,8068.244768,-5921.647536,1455.581446
1364.645565,7402.059420,-7772.162391,1378.971896
1364.645894,6513.812290,-8438.347739,1225.752797
1364.646223,5995.668130,-6513.812290,919.314598
1364.646553,6513.812290,-5699.585753,76.609550
1364.646882,7105.977043,-6069.688724,612.876398
1364.647211,6587.832884,-9400.615463,1838.629195
1364.647541,5847.626942,-8956.491898,1685.410096
1364.647870,5255.462188,-6587.832884,153.219100
1364.648199,6143.709319,-5033.400406,-459.657299
1364.648529,7846.182985,-4959.379811,536.266849
1364.648858,7994.224174,-7920.203579,1991.848295
1364.649188,6809.894666,-9178.553681,2528.115143
1364.649517,5625.565159,-7402.059420,766.095498
1364.649846,5403.503377,-5033.400406,-306.438199
1364.650176,5995.668130,-5477.523971,153.219100
1364.650505,7254.018232,-7994.224174,1149.143247
1364.650834,7105.977043,-8364.327145,1915.238745
1364.651164,6291.750507,-7920.203579,1455.581446
1364.651493,7179.997637,-4737.318029,536.266849
1364.651822,8290.306550,-3330.926739,919.314598
1364.652152,8808.450710,-5625.565159,1378.971896
1364.652481,8438.347739,-7105.977043,2145.067394
1364.652811,7254.018232,-7105.977043,2451.505594
1364.653140,6217.729913,-5551.544565,766.095498
1364.653469,5699.585753,-5403.503377,383.047749
1364.653799,6439.791695,-7402.059420,1149.143247
1364.654128,5847.626942,-9622.677246,1378.971896
1364.654457,5847.626942,-9622.677246,1608.800546
1364.654787,6143.709319,-5403.503377,689.485948
1364.655116,7772.162391,-3552.988522,612.876398
1364.655445,8808.450710,-4441.235652,1762.019645
1364.655775,8512.368333,-6439.791695,1838.629195
1364.656104,6883.915261,-7031.956449,1685.410096
1364.656434,5847.626942,-6809.894666,689.485948
1364.656763,6143.709319,-5477.523971,306.438199
1364.657092,7179.997637,-6069.688724,919.314598
1364.657422,7994.224174,-7402.059420,1838.629195
1364.657751,7031.956449,-8364.327145,1991.848295
1364.658080,6439.791695,-6809.894666,766.095498
1364.658410,7105.977043,-3627.009116,459.657299
1364.658739,7994.224174,-3478.967927,383.047749
1364.659068,8586.388927,-5995.668130,1455.581446
1364.659398,7550.100608,-7920.203579,2145.067394
1364.659727,6143.709319,-8216.285956,1302.362347
1364.660057,5477.523971,-5921.647536,153.219100
1364.660386,6439.791695,-4959.379811,0.000000
1364.660715,7105.977043,-6809.894666,919.314598
1364.661045,7328.038826,-8216.285956,1762.019645
1364.661374,6587.832884,-7772.162391,1302.362347
1364.661703,7031.956449,-5107.421000,229.828649
1364.662033,7624.121203,-3256.906145,0.000000
1364.662362,8216.285956,-4737.318029,612.876398
1364.662691,7994.224174,-7476.080014,1762.019645
1364.663021,6809.894666,-7920.203579,1991.848295
1364.663350,5773.606348,-7328.038826,383.047749
1364.663680,5847.626942,-6883.915261,689.485948
1364.664009,6957.935855,-6069.688724,459.657299
1364.664338,6809.894666,-8586.388927,1532.190996
1364.664668,5477.523971,-9252.574275,1149.143247
1364.664997,4737.318029,-7772.162391,766.095498
1364.665326,5773.606348,-5329.482782,-383.047749
1364.665656,8068.244768,-4589.276840,1072.533697
1364.665985,9400.615463,-6587.832884,1762.019645
1364.666315,8586.388927,-7254.018232,1991.848295
1364.666644,6587.832884,-7105.977043,1149.143247
1364.666973,6587.832884,-5625.565159,459.657299
1364.667303,7179.997637,-5847.626942,229.828649
1364.667632,7476.080014,-7402.059420,1302.362347
1364.667961,6513.812290,-9030.512492,2681.334243
1364.668291,5699.585753,-8586.388927,612.876398
1364.668620,5329.482782,-6513.812290,383.047749
1364.668949,6365.771101,-5773.606348,766.095498
1364.669279,7476.080014,-5773.606348,612.876398
1364.669608,7994.224174,-6587.832884,1608.800546
1364.669938,6143.709319,-8660.409521,1608.800546
1364.670267,6143.709319,-6735.874072,842.705048
1364.670596,7402.059420,-4737.318029,536.266849
1364.670926,8216.285956,-5255.462188,1532.190996
1364.671255,8364.327145,-6587.832884,1532.190996
1364.671584,7328.038826,-7179.997637,1455.581446
1364.671914,6587.832884,-6143.709319,842.705048
1364.672243,7105.977043,-3923.091493,766.095498
1364.672572,9030.512492,-3701.029710,1378.971896
1364.672902,8956.491898,-6069.688724,1838.629195
1364.673231,7105.977043,-7105.977043,1991.848295
1364.673561,5329.482782,-7772.162391,1149.143247
1364.673890,5329.482782,-6513.812290,229.828649
1364.674219,5995.668130,-5995.668130,612.876398
1364.674549,6439.791695,-7772.162391,1072.533697
1364.674878,5995.668130,-8882.471304,1225.752797
1364.675207,5995.668130,-7994.224174,1302.362347
1364.675537,6661.853478,-5551.544565,1072.533697
1364.675866,7920.203579,-3478.967927,76.609550
1364.676195,9178.553681,-4441.235652,1378.971896
1364.676525,8512.368333,-6735.874072,2068.457845
1364.676854,6957.935855,-7179.997637,1762.019645
1364.677184,5921.647536,-6883.915261,306.438199
1364.677513,6439.791695,-5403.503377,536.266849
1364.677842,7105.977043,-6217.729913,919.314598
1364.678172,6513.812290,-8956.491898,1532.190996
1364.678501,5995.668130,-9474.636058,2374.896044
1364.678830,5255.462188,-7179.997637,1072.533697
1364.679160,5921.647536,-5329.482782,0.000000
1364.679489,7105.977043,-3701.029710,306.438199
1364.679818,8068.244768,-6365.771101,1378.971896
1364.680148,8290.306550,-7328.038826,1838.629195
1364.680477,7105.977043,-6809.894666,1378.971896
1364.680807,7179.997637,-4737.318029,766.095498
1364.681136,7624.121203,-4663.297435,76.609550
1364.681465,7476.080014,-7105.977043,1378.971896
1364.681795,7328.038826,-8364.327145,1762.019645
1364.682124,6735.874072,-7994.224174,1378.971896
1364.682453,6217.729913,-5773.606348,459.657299
1364.682783,7328.038826,-4219.173869,0.000000
1364.683112,7846.182985,-5995.668130,1225.752797
1364.683441,7328.038826,-8068.244768,1991.848295
1364.683770,5921.647536,-8882.471304,1378.971896
1364.684099,4959.379811,-6883.915261,612.876398
1364.684428,5847.626942,-5625.565159,0.000000
1364.684757,7179.997637,-6957.935855,995.924147
1364.685086,7105.977043,-8142.265362,1685.410096
1364.685415,6661.853478,-8438.347739,1838.629195
1364.685745,6661.853478,-6217.729913,766.095498
1364.686074,7105.977043,-3775.050304,536.266849
1364.686403,8364.327145,-4737.318029,612.876398
1364.686732,8216.285956,-6365.771101,1608.800546
1364.687061,7105.977043,-8216.285956,1685.410096
1364.687390,6143.709319,-8808.450710,1072.533697
1364.687719,5699.585753,-6069.688724,842.705048
1364.688048,6513.812290,-6661.853478,0.000000
1364.688377,6365.771101,-8142.265362,1225.752797
1364.688706,5995.668130,-8882.471304,1685.410096
1364.689035,5773.606348,-7846.182985,689.485948
1364.689364,5995.668130,-4441.235652,0.000000
1364.689694,7328.038826,-3627.009116,229.828649
1364.690023,8512.368333,-4441.235652,689.485948
1364.690352,8364.327145,-6365.771101,1685.410096
1364.690681,7994.224174,-7402.059420,1762.019645
1364.691010,7772.162391,-5551.544565,842.705048
1364.691339,8216.285956,-4515.256246,612.876398
1364.691668,8142.265362,-5773.606348,1302.362347
1364.691997,7476.080014,-8290.306550,1302.362347
1364.692326,6365.771101,-8142.265362,1072.533697
1364.692655,5329.482782,-6809.894666,383.047749
1364.692984,6587.832884,-4959.379811,459.657299
1364.693314,7920.203579,-4219.173869,1072.533697
1364.693643,7772.162391,-6513.812290,1608.800546
1364.693972,6883.915261,-7550.100608,1685.410096
1364.694301,5477.523971,-6735.874072,919.314598
1364.694630,5551.544565,-5921.647536,0.000000
1364.694959,6587.832884,-6143.709319,459.657299
1364.695288,7105.977043,-8438.347739,1532.190996
1364.695617,7105.977043,-9104.533087,1072.533697
1364.695946,6809.894666,-7550.100608,1302.362347
1364.696275,7254.018232,-5551.544565,383.047749
1364.696604,8660.409521,-4145.153275,459.657299
1364.696934,9696.697840,-4589.276840,1608.800546
1364.697263,8660.409521,-7254.018232,2068.457845
1364.697592,6883.915261,-7105.977043,1455.581446
1364.697921,5625.565159,-6809.894666,1225.752797
1364.698250,5847.626942,-6217.729913,-229.828649
1364.698579,6217.729913,-6661.853478,689.485948
1364.698908,6217.729913,-8364.327145,1685.410096
1364.699237,5995.668130,-7920.203579,1455.581446
1364.699566,6217.729913,-6735.874072,766.095498
1364.699895,8068.244768,-3627.009116,1302.362347
1364.700224,9326.594869,-4663.297435,842.705048
1364.700554,9326.594869,-5995.668130,2451.505594
1364.700883,7328.038826,-7994.224174,2221.676944
1364.701212,6143.709319,-7476.080014,306.438199
1364.701541,6217.729913,-5551.544565,153.219100
1364.701870,6513.812290,-6513.812290,0.000000
1364.702199,6809.894666,-8364.327145,1378.971896
1364.702528,6661.853478,-8956.491898,1915.238745
1364.702857,6069.688724,-7920.203579,1302.362347
1364.703186,5625.565159,-4885.359217,306.438199
1364.703515,6365.771101,-4737.318029,-306.438199
1364.703844,7105.977043,-5477.523971,306.438199
1364.704173,6735.874072,-7846.182985,1685.410096
1364.704503,6957.935855,-8512.368333,2528.115143
1364.704832,6957.935855,-5921.647536,995.924147
1364.705161,7105.977043,-5181.441594,842.705048
1364.705490,7994.224174,-6217.729913,689.485948
1364.705819,7476.080014,-7920.203579,1762.019645
1364.706148,6439.791695,-8068.244768,1302.362347
1364.706477,6143.709319,-6809.894666,536.266849
1364.706806,7105.977043,-4589.276840,459.657299
1364.707135,8364.327145,-4663.297435,1302.362347
1364.707464,8068.244768,-7179.997637,2374.896044
1364.707793,7105.977043,-8142.265362,2451.505594
1364.708123,5551.544565,-7179.997637,689.485948
1364.708452,4737.318029,-5847.626942,-766.095498
1364.708781,6365.771101,-5921.647536,0.000000
1364.709110,7031.956449,-8290.306550,919.314598
1364.709439,7105.977043,-9252.574275,2298.286494
1364.709768,7254.018232,-7772.162391,1838.629195
1364.710097,8068.244768,-4441.235652,612.876398
1364.710426,8364.327145,-3256.906145,536.266849
1364.710755,8882.471304,-4441.235652,1455.581446
1364.711084,7772.162391,-6883.915261,1225.752797
1364.711413,6365.771101,-7402.059420,1378.971896
1364.711743,6217.729913,-5847.626942,459.657299
1364.712072,7179.997637,-4515.256246,766.095498
1364.712401,7550.100608,-6883.915261,689.485948
1364.712730,7179.997637,-8808.450710,2145.067394
1364.713059,6439.791695,-8734.430116,1455.581446
1364.713388,5551.544565,-5995.668130,459.657299
1364.713717,6143.709319,-4219.173869,-383.047749
1364.714046,7846.182985,-4885.359217,229.828649
1364.714375,8364.327145,-7402.059420,2068.457845
1364.714704,6513.812290,-8660.409521,1838.629195
1364.715033,5255.462188,-7772.162391,1225.752797
1364.715363,5699.585753,-5921.647536,689.485948
1364.715692,6513.812290,-6365.771101,0.000000
1364.716021,6291.750507,-7846.182985,842.705048
1364.716350,5699.585753,-8734.430116,1378.971896
1364.716679,6143.709319,-7476.080014,383.047749
1364.717008,6661.853478,-4737.318029,689.485948
1364.717337,7994.224174,-3997.112087,383.047749
1364.717666,9400.615463,-5403.503377,1455.581446
1364.717995,8290.306550,-8364.327145,1838.629195
1364.718324,6809.894666,-8290.306550,1915.238745
1364.718653,6513.812290,-5847.626942,1072.533697
1364.718982,7031.956449,-4737.318029,0.000000
1364.719312,6809.894666,-5995.668130,536.266849
1364.719641,6883.915261,-8512.368333,1685.410096
1364.719970,6809.894666,-8734.430116,1532.190996
1364.720299,6365.771101,-6143.709319,766.095498
1364.720628,7254.018232,-3997.112087,689.485948
1364.720957,8290.306550,-3849.070898,1302.362347
1364.721286,8734.430116,-6957.935855,1455.581446
1364.721615,6735.874072,-8438.347739,2374.896044
1364.721944,5625.565159,-7402.059420,1072.533697
1364.722273,5921.647536,-6439.791695,612.876398
1364.722602,6883.915261,-5403.503377,1302.362347
1364.722932,6217.729913,-8364.327145,1149.143247
1364.723261,6069.688724,-8660.409521,1455.581446
1364.723590,5551.544565,-7994.224174,1072.533697
1364.723919,6735.874072,-5477.523971,153.219100
1364.724248,7698.141797,-4145.153275,536.266849
1364.724577,8438.347739,-5773.606348,1149.143247
1364.724906,8142.265362,-7328.038826,1991.848295
1364.725235,7031.956449,-7550.100608,1838.629195
1364.725564,6809.894666,-5329.482782,1072.533697
1364.725893,7105.977043,-4811.338623,383.047749
1364.726222,7772.162391,-6069.688724,995.924147
1364.726552,7476.080014,-8290.306550,1378.971896
1364.726881,6439.791695,-7920.203579,1915.238745
1364.727210,6439.791695,-5625.565159,1762.019645
1364.727539,7698.141797,-3923.091493,919.314598
1364.727868,8364.327145,-3849.070898,919.314598
1364.728197,7994.224174,-6809.894666,1838.629195
1364.728526,6661.853478,-7698.141797,1532.190996
1364.728855,5033.400406,-7920.203579,689.485948
1364.729184,5773.606348,-6587.832884,0.000000
1364.729513,6661.853478,-6661.853478,153.219100
1364.729842,7105.977043,-8438.347739,1762.019645
1364.730172,6587.832884,-8364.327145,1532.190996
1364.730501,5921.647536,-7698.141797,1072.533697
1364.730830,6513.812290,-4589.276840,0.000000
1364.731159,7772.162391,-3552.988522,229.828649
1364.731488,8734.430116,-5107.421000,1838.629195
1364.731817,8882.471304,-6809.894666,2451.505594
1364.732146,6883.915261,-6957.935855,1608.800546
1364.732475,6365.771101,-6069.688724,689.485948
1364.732804,7179.997637,-4885.359217,229.828649
1364.733133,7920.203579,-6809.894666,2068.457845
1364.733462,7105.977043,-8438.347739,1685.410096
1364.733791,6735.874072,-8808.450710,1149.143247
1364.734121,6365.771101,-6439.791695,306.438199
1364.734450,6883.915261,-5107.421000,-76.609550
1364.734779,7698.141797,-5773.606348,383.047749
1364.735108,7550.100608,-7698.141797,1378.971896
1364.735437,6291.750507,-8364.327145,1915.238745
1364.735766,5921.647536,-7254.018232,1149.143247
1364.736095,7254.018232,-5921.647536,995.924147
1364.736424,7772.162391,-6439.791695,1302.362347
1364.736753,6957.935855,-7105.977043,1302.362347
1364.737082,6513.812290,-7476.080014,1991.848295
1364.737411,6143.709319,-6883.915261,1072.533697
1364.737741,5921.647536,-5033.400406,306.438199
1364.738070,6587.832884,-4737.318029,766.095498
1364.738399,7624.121203,-6809.894666,995.924147
1364.738728,7105.977043,-8364.327145,1608.800546
1364.739057,5921.647536,-7772.162391,1915.238745
1364.739386,5847.626942,-5921.647536,536.266849
1364.739715,6809.894666,-5255.462188,0.000000
1364.740044,6957.935855,-6587.832884,1149.143247
1364.740373,7105.977043,-8068.244768,1685.410096
1364.740702,7179.997637,-7105.977043,1378.971896
1364.741031,7179.997637,-5181.441594,1072.533697
1364.741361,8364.327145,-4145.153275,1225.752797
1364.741690,9400.615463,-4219.173869,1762.019645
1364.742019,8438.347739,-7402.059420,2221.676944
1364.742348,7031.956449,-8142.265362,2145.067394
1364.742677,5255.462188,-7328.038826,383.047749
1364.743006,4737.318029,-6809.894666,-689.485948
1364.743335,5255.462188,-7476.080014,76.609550
1364.743664,6143.709319,-9474.636058,1225.752797
1364.743993,5847.626942,-9992.780217,1685.410096
1364.744322,5847.626942,-7179.997637,919.314598
1364.744651,6809.894666,-3775.050304,0.000000
1364.744981,8142.265362,-2886.803174,-229.828649
1364.745310,8882.471304,-4811.338623,2451.505594
1364.745639,8808.450710,-6291.750507,2451.505594
1364.745968,7179.997637,-6883.915261,1455.581446
1364.746297,6883.915261,-4293.194464,995.924147
1364.746626,7624.121203,-5033.400406,306.438199
1364.746955,8512.368333,-7105.977043,1225.752797
1364.747284,7105.977043,-8808.450710,1608.800546
1364.747613,5921.647536,-8882.471304,1149.143247
1364.747942,6143.709319,-6069.688724,306.438199
1364.748271,7179.997637,-4589.276840,612.876398
1364.748600,7920.203579,-5403.503377,1072.533697
1364.748930,7698.141797,-8216.285956,1991.848295
1364.749259,6587.832884,-8290.306550,1455.581446
1364.749588,5551.544565,-6735.874072,689.485948
1364.749917,5921.647536,-5477.523971,306.438199
1364.750246,6883.915261,-5773.606348,842.705048
1364.750575,6513.812290,-8364.327145,2068.457845
1364.750904,6735.874072,-8290.306550,1915.238745
1364.751233,6439.791695,-6661.853478,1378.971896
1364.751562,7994.224174,-4441.235652,459.657299
1364.751891,8734.430116,-3701.029710,612.876398
1364.752220,8586.388927,-6069.688724,1072.533697
1364.752550,7105.977043,-8290.306550,1532.190996
1364.752879,5625.565159,-7920.203579,612.876398
1364.753208,5847.626942,-6439.791695,0.000000
1364.753537,6143.709319,-5329.482782,383.047749
1364.753866,7254.018232,-6957.935855,842.705048
1364.754195,7402.059420,-8586.388927,2374.896044
1364.754524,6883.915261,-7105.977043,1685.410096
1364.754853,7105.977043,-5255.462188,612.876398
1364.755182,8142.265362,-3627.009116,229.828649
1364.755511,8660.409521,-4515.256246,1149.143247
1364.755840,8068.244768,-7105.977043,1762.019645
1364.756170,7328.038826,-8290.306550,1685.410096
1364.756499,6513.812290,-7402.059420,995.924147
1364.756828,6439.791695,-6735.874072,383.047749
1364.757157,6291.750507,-7031.956449,536.266849
1364.757486,5995.668130,-8734.430116,766.095498
1364.757815,4589.276840,-9770.718434,459.657299
1364.758144,4737.318029,-7402.059420,459.657299
1364.758473,6735.874072,-4441.235652,76.609550
1364.758802,8364.327145,-3627.009116,383.047749
1364.759131,9252.574275,-5329.482782,2374.896044
1364.759460,8586.388927,-6809.894666,2451.505594
1364.759790,7105.977043,-5995.668130,1302.362347
1364.760119,6661.853478,-4293.194464,612.876398
1364.760448,7846.182985,-4737.318029,536.266849
1364.760777,8068.244768,-6883.915261,1762.019645
1364.761106,7179.997637,-8364.327145,2221.676944
1364.761435,6587.832884,-8142.265362,1532.190996
1364.761764,6439.791695,-5551.544565,229.828649
1364.762093,7031.956449,-4737.318029,536.266849
1364.762422,7772.162391,-5699.585753,689.485948
1364.762751,7105.977043,-7105.977043,1762.019645
1364.763080,5477.523971,-8660.409521,1072.533697
1364.763409,4811.338623,-7920.203579,612.876398
1364.763739,5551.544565,-5847.626942,229.828649
1364.764068,6957.935855,-6957.935855,229.828649
1364.764397,7105.977043,-8512.368333,2221.676944
1364.764726,6587.832884,-8290.306550,1915.238745
1364.765055,7254.018232,-6587.832884,919.314598
1364.765384,7772.162391,-3552.988522,689.485948
1364.765713,8512.368333,-3775.050304,689.485948
1364.766042,8438.347739,-5625.565159,919.314598
1364.766371,7402.059420,-7402.059420,2604.724693
1364.766700,6809.894666,-7254.018232,1762.019645
1364.767029,6439.791695,-5625.565159,536.266849
1364.767359,6883.915261,-5551.544565,842.705048
1364.767688,7328.038826,-7550.100608,1072.533697
1364.768017,6735.874072,-8068.244768,2068.457845
1364.768346,5773.606348,-7254.018232,1225.752797
1364.768675,6513.812290,-5107.421000,0.000000
1364.769004,8216.285956,-2960.823768,459.657299
1364.769333,8882.471304,-5403.503377,1455.581446
1364.769662,8364.327145,-7846.182985,2298.286494
1364.769991,6291.750507,-8512.368333,1762.019645
1364.770320,5181.441594,-7031.956449,383.047749
1364.770649,5181.441594,-6365.771101,-306.438199
1364.770979,6587.832884,-7328.038826,0.000000
1364.771308,6143.709319,-9474.636058,1149.143247
1364.771637,6291.750507,-9474.636058,1455.581446
1364.771966,6513.812290,-7031.956449,1225.752797
1364.772295,7846.182985,-4219.173869,612.876398
1364.772624,8586.388927,-3701.029710,612.876398
1364.772953,8438.347739,-4811.338623,1532.190996
1364.773282,7105.977043,-7179.997637,1225.752797
1364.773611,6217.729913,-7105.977043,1302.362347
1364.773940,6661.853478,-5255.462188,153.219100
1364.774269,7105.977043,-5255.462188,306.438199
1364.774599,7179.997637,-6587.832884,1532.190996
1364.774928,7031.956449,-8586.388927,1762.019645
1364.775257,6957.935855,-7550.100608,1378.971896
1364.775586,7105.977043,-5107.421000,766.095498
1364.775915,8512.368333,-3997.112087,689.485948
1364.776244,8956.491898,-4885.359217,1302.362347
1364.776573,7550.100608,-7476.080014,1991.848295
1364.776902,5625.565159,-8512.368333,1532.190996
1364.777231,5033.400406,-7105.977043,459.657299
1364.777560,4959.379811,-6291.750507,0.000000
1364.777889,6143.709319,-7105.977043,153.219100
1364.778218,6365.771101,-8438.347739,1378.971896
1364.778548,6735.874072,-8660.409521,1608.800546
1364.778877,6513.812290,-6809.894666,995.924147
1364.779206,7624.121203,-3330.926739,536.266849
1364.779535,9252.574275,-2886.803174,766.095498
1364.779864,9252.574275,-5181.441594,2145.067394
1364.780193,8512.368333,-7328.038826,2374.896044
1364.780522,7105.977043,-7254.018232,1455.581446
1364.780851,6587.832884,-5699.585753,766.095498
1364.781180,6735.874072,-5921.647536,612.876398
1364.781509,6883.915261,-7550.100608,1149.143247
1364.781838,5773.606348,-8438.347739,1455.581446
1364.782168,5773.606348,-8364.327145,689.485948
1364.782497,6069.688724,-5921.647536,229.828649
1364.782826,7328.038826,-3627.009116,306.438199
1364.783155,8290.306550,-5107.421000,1378.971896
1364.783484,8290.306550,-7476.080014,1762.019645
1364.783813,6291.750507,-8438.347739,1838.629195
1364.784142,5773.606348,-6809.894666,306.438199
1364.784471,6217.729913,-5625.565159,0.000000
1364.784800,6661.853478,-7698.141797,766.095498
1364.785129,7105.977043,-8142.265362,1225.752797
1364.785458,6365.771101,-9844.739029,1915.238745
1364.785788,5699.585753,-7254.018232,306.438199
1364.786117,6957.935855,-3627.009116,-459.657299
1364.786446,8216.285956,-4293.194464,1302.362347
1364.786775,8290.306550,-6143.709319,1455.581446
1364.787104,7476.080014,-7105.977043,1685.410096
1364.787433,6291.750507,-6957.935855,1455.581446
1364.787762,6513.812290,-4441.235652,153.219100
1364.788091,7031.956449,-5107.421000,689.485948
1364.788420,7550.100608,-6661.853478,1991.848295
1364.788749,7698.141797,-7920.203579,1991.848295
1364.789079,6883.915261,-6291.750507,1072.533697
1364.789408,6809.894666,-4441.235652,536.266849
1364.789737,8290.306550,-4293.194464,689.485948
1364.790066,8586.388927,-5033.400406,1685.410096
1364.790395,7624.121203,-8068.244768,1762.019645
1364.790724,6587.832884,-8364.327145,612.876398
1364.791053,5329.482782,-6957.935855,689.485948
1364.791382,5921.647536,-6883.915261,-459.657299
1364.791711,6513.812290,-7846.182985,383.047749
1364.792041,6883.915261,-9104.533087,1225.752797
1364.792370,6143.709319,-9326.594869,1455.581446
1364.792699,5773.606348,-6809.894666,766.095498
1364.793028,6217.729913,-4737.318029,0.000000
1364.793357,7920.203579,-4367.215058,0.000000
1364.793686,8734.430116,-6291.750507,1762.019645
1364.794015,7476.080014,-7328.038826,1838.629195
1364.794344,6883.915261,-6735.874072,1608.800546
1364.794673,7179.997637,-4663.297435,766.095498
1364.795002,7920.203579,-4737.318029,842.705048
1364.795332,7328.038826,-6587.832884,1915.238745
1364.795661,7476.080014,-7476.080014,2451.505594
1364.795990,7031.956449,-6439.791695,1302.362347
1364.796319,6661.853478,-4589.276840,76.609550
1364.796648,7105.977043,-4145.153275,459.657299
1364.796977,7624.121203,-6143.709319,919.314598
1364.797306,7105.977043,-8586.388927,1762.019645
1364.797635,5699.585753,-7994.224174,1302.362347
1364.797964,5699.585753,-7254.018232,459.657299
1364.798293,6217.729913,-6217.729913,0.000000
1364.798623,6883.915261,-7402.059420,842.705048
1364.798952,6735.874072,-8956.491898,1378.971896
1364.799281,6439.791695,-8364.327145,1072.533697
1364.799610,6143.709319,-6365.771101,919.314598
1364.799939,7476.080014,-4959.379811,536.266849
1364.800268,9104.533087,-4367.215058,1149.143247
1364.800597,9252.574275,-5773.606348,1455.581446
1364.800926,7476.080014,-7105.977043,2145.067394
1364.801255,6143.709319,-5699.585753,842.705048
1364.801584,5847.626942,-4885.359217,-383.047749
1364.801914,6291.750507,-6143.709319,383.047749
1364.802243,6587.832884,-7772.162391,1532.190996
1364.802572,7105.977043,-8660.409521,1608.800546
1364.802901,6587.832884,-7550.100608,1685.410096
1364.803230,7031.956449,-4811.338623,306.438199
1364.803559,7846.182985,-3923.091493,536.266849
1364.803888,8290.306550,-5699.585753,1378.971896
1364.804217,7994.224174,-8586.388927,1915.238745
1364.804546,6217.729913,-8364.327145,1685.410096
1364.804875,5921.647536,-7105.977043,383.047749
1364.805205,6513.812290,-6513.812290,76.609550
1364.805534,6291.750507,-8142.265362,1302.362347
1364.805863,6217.729913,-8734.430116,1455.581446
1364.806192,5625.565159,-8216.285956,766.095498
1364.806521,5477.523971,-6439.791695,306.438199
1364.806850,7031.956449,-4515.256246,76.609550
1364.807179,8364.327145,-4663.297435,1149.143247
1364.807508,8216.285956,-6735.874072,1762.019645
1364.807837,7105.977043,-7624.121203,1838.629195
1364.808166,6365.771101,-6809.894666,1072.533697
1364.808496,6661.853478,-5033.400406,229.828649
1364.808825,7179.997637,-5329.482782,995.924147
1364.809154,7105.977043,-7550.100608,2145.067394
1364.809483,7254.018232,-7994.224174,1991.848295
1364.809812,6217.729913,-7105.977043,1149.143247
1364.810141,6735.874072,-4515.256246,536.266849
1364.810470,8290.306550,-3108.864956,0.000000
1364.810799,8290.306550,-6439.791695,1532.190996
1364.811128,7550.100608,-7772.162391,2298.286494
1364.811457,6883.915261,-8808.450710,1838.629195
1364.811787,7031.956449,-5625.565159,306.438199
1364.812116,6217.729913,-5107.421000,229.828649
1364.812445,6661.853478,-7105.977043,842.705048
1364.812774,6661.853478,-9178.553681,1455.581446
1364.813103,5551.544565,-9030.512492,1149.143247
1364.813432,6439.791695,-6291.750507,612.876398
1364.813761,7402.059420,-4663.297435,76.609550
1364.814090,8290.306550,-5033.400406,383.047749
1364.814419,7254.018232,-7698.141797,1072.533697
1364.814749,6513.812290,-8142.265362,2528.115143
1364.815078,6735.874072,-6143.709319,842.705048
1364.815407,7254.018232,-4737.318029,995.924147
1364.815736,7772.162391,-5181.441594,1225.752797
1364.816065,7476.080014,-6661.853478,1302.362347
1364.816394,6439.791695,-7994.224174,2068.457845
1364.816723,6513.812290,-6365.771101,1072.533697
1364.817052,7328.038826,-4219.173869,383.047749
1364.817381,8512.368333,-3701.029710,1378.971896
1364.817710,9252.574275,-5625.565159,2374.896044
1364.818040,7920.203579,-7772.162391,2374.896044
1364.818369,5921.647536,-7402.059420,1762.019645
1364.818698,4811.338623,-6661.853478,689.485948
1364.819027,5699.585753,-5551.544565,-689.485948
1364.819356,6365.771101,-7179.997637,842.705048
1364.819685,5921.647536,-9844.739029,1685.410096
1364.820014,6217.729913,-9030.512492,1762.019645
1364.820343,6735.874072,-6217.729913,383.047749
1364.820672,7254.018232,-4145.153275,-229.828649
1364.821001,8882.471304,-4441.235652,689.485948
1364.821331,8216.285956,-7105.977043,1532.190996
1364.821660,7031.956449,-8660.409521,1532.190996
1364.821989,5773.606348,-7550.100608,1072.533697
1364.822318,6587.832884,-5921.647536,0.000000
1364.822647,7254.018232,-6661.853478,536.266849
1364.822976,6957.935855,-7994.224174,1915.238745
1364.823305,6217.729913,-8882.471304,1302.362347
1364.823634,6069.688724,-6365.771101,1072.533697
1364.823963,6883.915261,-3923.091493,612.876398
1364.824292,8364.327145,-3775.050304,919.314598
1364.824622,8734.430116,-5773.606348,1838.629195
1364.824951,7179.997637,-7846.182985,2604.724693
1364.825280,5847.626942,-8068.244768,1072.533697
1364.825609,5255.462188,-6883.915261,459.657299
1364.825938,5773.606348,-6661.853478,229.828649
1364.826267,6735.874072,-7550.100608,383.047749
1364.826596,6587.832884,-8882.471304,1532.190996
1364.826925,6735.874072,-7994.224174,919.314598
1364.827254,7031.956449,-5699.585753,459.657299
1364.827583,7624.121203,-4219.173869,459.657299
1364.827913,7994.224174,-4737.318029,459.657299
1364.828242,7550.100608,-7179.997637,1838.629195
1364.828571,7105.977043,-7920.203579,2068.457845
1364.828900,6735.874072,-6587.832884,1225.752797
1364.829229,6809.894666,-4737.318029,306.438199
1364.829558,7328.038826,-5551.544565,995.924147
1364.829887,7846.182985,-6587.832884,1762.019645
1364.830216,6883.915261,-7254.018232,1608.800546
1364.830545,6587.832884,-6365.771101,1378.971896
1364.830874,7624.121203,-4293.194464,689.485948
1364.831204,8734.430116,-4219.173869,1302.362347
1364.831533,8882.471304,-5995.668130,1685.410096
1364.831862,6957.935855,-8068.244768,1685.410096
1364.832191,5921.647536,-7031.956449,1455.581446
1364.832520,6513.812290,-6143.709319,229.828649
1364.832849,6735.874072,-6291.750507,459.657299
1364.833178,6883.915261,-7179.997637,1302.362347
1364.833507,6365.771101,-8956.491898,842.705048
1364.833836,5625.565159,-7476.080014,842.705048
1364.834165,5625.565159,-5921.647536,306.438199
1364.834495,7846.182985,-3997.112087,383.047749
1364.834824,8956.491898,-4885.359217,995.924147
1364.835153,8068.244768,-7179.997637,1838.629195
1364.835482,7179.997637,-8068.244768,1378.971896
1364.835811,7031.956449,-5995.668130,612.876398
1364.836140,6513.812290,-5773.606348,612.876398
1364.836469,6661.853478,-6661.853478,536.266849
1364.836798,6883.915261,-8068.244768,1455.581446
1364.837127,6217.729913,-8586.388927,1378.971896
1364.837457,6291.750507,-7105.977043,689.485948
1364.837786,7402.059420,-4293.194464,766.095498
1364.838115,8290.306550,-3701.029710,995.924147
1364.838444,8290.306550,-5551.544565,1991.848295
1364.838773,7328.038826,-7031.956449,1915.238745
1364.839102,6143.709319,-7105.977043,536.266849
1364.839431,6217.729913,-6069.688724,1072.533697
1364.839760,7031.956449,-5921.647536,459.657299
1364.840089,7105.977043,-7698.141797,919.314598
1364.840418,5699.585753,-8882.471304,1378.971896
1364.840748,5625.565159,-8364.327145,536.266849
1364.841077,6513.812290,-6587.832884,229.828649
1364.841406,7328.038826,-4737.318029,612.876398
1364.841735,7772.162391,-5995.668130,459.657299
1364.842064,7550.100608,-8364.327145,1532.190996
1364.842393,5995.668130,-8734.430116,1302.362347
1364.842722,5477.523971,-7105.977043,459.657299
1364.843051,6587.832884,-5921.647536,459.657299
1364.843380,7179.997637,-5477.523971,842.705048
1364.843709,7846.182985,-7105.977043,1838.629195
1364.844039,6735.874072,-7328.038826,1991.848295
1364.844368,6587.832884,-5625.565159,306.438199
1364.844697,7772.162391,-3849.070898,689.485948
1364.845026,8586.388927,-4071.132681,1532.190996
1364.845355,8216.285956,-7105.977043,1915.238745
1364.845684,7254.018232,-5699.585753,1915.238745
1364.846013,6069.688724,-8068.244768,1915.238745
1364.846342,6143.709319,-6809.894666,229.828649
1364.846671,6883.915261,-4959.379811,459.657299
1364.847000,6883.915261,-7994.224174,1838.629195
1364.847330,5995.668130,-8216.285956,919.314598
1364.847659,4885.359217,-7698.141797,689.485948
1364.847988,6291.750507,-5847.626942,383.047749
1364.848317,7994.224174,-4367.215058,306.438199
1364.848646,9178.553681,-5033.400406,1915.238745
1364.848975,8438.347739,-6735.874072,2451.505594
1364.849304,7624.121203,-6883.915261,1225.752797
1364.849633,6809.894666,-5921.647536,919.314598
1364.849962,6809.894666,-4959.379811,76.609550
1364.850291,7550.100608,-7031.956449,1072.533697
1364.850621,7105.977043,-8290.306550,1225.752797
1364.850950,5551.544565,-8734.430116,1302.362347
1364.851279,5403.503377,-6735.874072,383.047749
1364.851608,6735.874072,-4811.338623,76.609550
1364.851937,7846.182985,-5551.544565,919.314598
1364.852266,7624.121203,-7105.977043,1685.410096
1364.852595,6513.812290,-8068.244768,1532.190996
1364.852924,5625.565159,-6957.935855,229.828649
1364.853253,6069.688724,-6291.750507,229.828649
1364.853582,6957.935855,-6439.791695,689.485948
1364.853912,7698.141797,-8068.244768,1838.629195
1364.854241,7254.018232,-7772.162391,1991.848295
1364.854570,6587.832884,-7476.080014,1225.752797
1364.854899,6661.853478,-5033.400406,612.876398
1364.855228,7772.162391,-4219.173869,0.000000
1364.855557,8142.265362,-5699.585753,306.438199
1364.855886,7105.977043,-7105.977043,1762.019645
1364.856215,6217.729913,-8142.265362,766.095498
1364.856544,5773.606348,-6883.915261,229.828649
1364.856873,6069.688724,-5847.626942,0.000000
1364.857203,7179.997637,-7254.018232,842.705048
1364.857532,7254.018232,-7920.203579,1455.581446
1364.857861,6735.874072,-7476.080014,1378.971896
1364.858190,6957.935855,-5255.462188,842.705048
1364.858519,8216.285956,-3775.050304,766.095498
1364.858848,9252.574275,-3849.070898,1149.143247
1364.859177,8660.409521,-6587.832884,1991.848295
1364.859506,7254.018232,-8290.306550,2221.676944
1364.859835,5921.647536,-7031.956449,766.095498
1364.860165,5625.565159,-6439.791695,689.485948
1364.860494,6809.894666,-6217.729913,612.876398
1364.860823,6661.853478,-8364.327145,1455.581446
1364.861152,6143.709319,-9474.636058,1455.581446
1364.861481,5699.585753,-7254.018232,995.924147
1364.861810,6069.688724,-4811.338623,0.000000
1364.862139,7105.977043,-3997.112087,153.219100
1364.862468,7846.182985,-6217.729913,1532.190996
1364.862797,7624.121203,-8142.265362,1991.848295
1364.863126,7105.977043,-7698.141797,2068.457845
1364.863456,6735.874072,-5477.523971,842.705048
1364.863785,7476.080014,-4589.276840,229.828649
1364.864114,7698.141797,-5551.544565,689.485948
1364.864443,6957.935855,-8068.244768,1532.190996
1364.864772,7031.956449,-7994.224174,1149.143247
1364.865101,7105.977043,-5551.544565,536.266849
1364.865430,7772.162391,-4515.256246,689.485948
1364.865759,8142.265362,-4811.338623,1149.143247
1364.866088,7402.059420,-7328.038826,1608.800546
1364.866417,6735.874072,-8660.409521,1838.629195
1364.866747,6069.688724,-6883.915261,1149.143247
1364.867076,5995.668130,-5625.565159,383.047749
1364.867405,6957.935855,-6513.812290,383.047749
1364.867734,7105.977043,-7698.141797,1608.800546
1364.868063,6291.750507,-8956.491898,1532.190996
1364.868392,6291.750507,-7328.038826,842.705048
1364.868721,7105.977043,-4441.235652,995.924147
1364.869050,8364.327145,-3256.906145,459.657299
1364.869379,8364.327145,-4737.318029,1532.190996
1364.869708,7328.038826,-7698.141797,1608.800546
1364.870038,6069.688724,-9178.553681,1532.190996
1364.870367,6365.771101,-5921.647536,995.924147
1364.870696,6883.915261,-6217.729913,612.876398
1364.871025,7402.059420,-6957.935855,995.924147
1364.871354,7105.977043,-8882.471304,1685.410096
1364.871683,6365.771101,-7920.203579,1072.533697
1364.872012,6291.750507,-6143.709319,612.876398
1364.872341,7624.121203,-4071.132681,76.609550
1364.872670,8364.327145,-4441.235652,842.705048
1364.872999,7698.141797,-6957.935855,1455.581446
1364.873329,6365.771101,-7846.182985,1532.190996
1364.873658,6069.688724,-6513.812290,1149.143247
1364.873987,7105.977043,-5551.544565,842.705048
1364.874316,7624.121203,-5847.626942,1149.143247
1364.874645,7179.997637,-8512.368333,1685.410096
1364.874974,6365.771101,-8882.471304,1532.190996
1364.875303,5773.606348,-7254.018232,995.924147
1364.875632,6883.915261,-5329.482782,229.828649
1364.875961,8290.306550,-3775.050304,919.314598
1364.876290,8290.306550,-5625.565159,1378.971896
1364.876620,7550.100608,-7254.018232,1838.629195
1364.876949,6365.771101,-7031.956449,1455.581446
1364.877278,5995.668130,-6217.729913,459.657299
1364.877607,6735.874072,-5329.482782,536.266849
1364.877936,6957.935855,-6439.791695,842.705048
1364.878265,6809.894666,-8438.347739,1991.848295
1364.878594,5773.606348,-8364.327145,1762.019645
1364.878923,5847.626942,-6143.709319,459.657299
1364.879252,6735.874072,-5255.462188,-153.219100
1364.879581,7624.121203,-5477.523971,689.485948
1364.879911,7179.997637,-8290.306550,1838.629195
1364.880240,6587.832884,-9030.512492,1762.019645
1364.880569,6143.709319,-6957.935855,1072.533697
1364.880898,6291.750507,-5921.647536,229.828649
1364.881227,7105.977043,-6069.688724,1302.362347
1364.881556,7105.977043,-7328.038826,1455.581446
1364.881885,6513.812290,-8512.368333,1532.190996
1364.882214,6291.750507,-6587.832884,1149.143247
1364.882543,7105.977043,-3923.091493,919.314598
1364.882873,8586.388927,-2960.823768,1532.190996
1364.883202,8956.491898,-5403.503377,1915.238745
1364.883531,7772.162391,-6587.832884,2145.067394
1364.883860,6217.729913,-6513.812290,1072.533697
1364.884189,6439.791695,-5329.482782,919.314598
1364.884518,7105.977043,-5403.503377,306.438199
1364.884847,7179.997637,-7402.059420,1685.410096
1364.885177,6513.812290,-8290.306550,1838.629195
1364.885506,5773.606348,-8734.430116,842.705048
1364.885835,6365.771101,-7105.977043,536.266849
1364.886164,6957.935855,-4737.318029,383.047749
1364.886493,7698.141797,-6217.729913,459.657299
1364.886822,7328.038826,-7328.038826,1072.533697
1364.887152,6883.915261,-7994.224174,1838.629195
1364.887481,6661.853478,-7476.080014,842.705048
1364.887810,7402.059420,-5033.400406,766.095498
1364.888139,7698.141797,-5551.544565,1072.533697
1364.888468,7179.997637,-7550.100608,919.314598
1364.888797,5773.606348,-7772.162391,1225.752797
1364.889127,5995.668130,-6883.915261,1072.533697
1364.889456,6883.915261,-4737.318029,536.266849
1364.889785,8068.244768,-4737.318029,689.485948
1364.890114,7846.182985,-6365.771101,1378.971896
1364.890443,6883.915261,-8216.285956,1991.848295
1364.890773,6365.771101,-7920.203579,1149.143247
1364.891102,6587.832884,-6365.771101,612.876398
1364.891431,7105.977043,-5551.544565,612.876398
1364.891760,7179.997637,-7179.997637,1302.362347
1364.892089,6365.771101,-8290.306550,1225.752797
1364.892418,5699.585753,-7624.121203,766.095498
1364.892748,6587.832884,-5847.626942,76.609550
1364.893077,8586.388927,-4441.235652,459.657299
1364.893406,9696.697840,-4441.235652,1302.362347
1364.893735,8512.368333,-7105.977043,1915.238745
1364.894064,6587.832884,-7179.997637,995.924147
1364.894393,5255.462188,-6957.935855,0.000000
1364.894723,5551.544565,-6513.812290,0.000000
1364.895052,6735.874072,-7105.977043,229.828649
1364.895381,6661.853478,-9252.574275,1378.971896
1364.895710,6217.729913,-9252.574275,1072.533697
1364.896039,6217.729913,-6957.935855,919.314598
1364.896368,8068.244768,-4145.153275,689.485948
1364.896698,8882.471304,-3552.988522,842.705048
1364.897027,8808.450710,-5033.400406,1608.800546
1364.897356,7476.080014,-6291.750507,1685.410096
1364.897685,6661.853478,-6513.812290,1302.362347
1364.898014,7476.080014,-5033.400406,612.876398
1364.898343,7476.080014,-4737.318029,229.828649
1364.898673,7328.038826,-7105.977043,1455.581446
1364.899002,6513.812290,-8438.347739,2068.457845
1364.899331,5773.606348,-8290.306550,306.438199
1364.899660,5847.626942,-6365.771101,459.657299
1364.899989,7698.141797,-4737.318029,229.828649
1364.900318,8438.347739,-6143.709319,842.705048
1364.900648,7550.100608,-8068.244768,2221.676944
1364.900977,6069.688724,-8586.388927,1608.800546
1364.901306,5995.668130,-7105.977043,229.828649
1364.901635,6291.750507,-5847.626942,689.485948
1364.901964,7105.977043,-6809.894666,689.485948
1364.902294,6957.935855,-7698.141797,1608.800546
1364.902623,5773.606348,-7476.080014,1608.800546
1364.902952,6365.771101,-6069.688724,1225.752797
1364.903281,7772.162391,-3330.926739,689.485948
1364.903610,8438.347739,-3256.906145,612.876398
1364.903939,8142.265362,-5403.503377,1149.143247
1364.904269,7031.956449,-7772.162391,2068.457845
1364.904598,6587.832884,-7476.080014,1838.629195
1364.904927,6735.874072,-5699.585753,612.876398
1364.905256,6513.812290,-6069.688724,766.095498
1364.905585,6809.894666,-7698.141797,1072.533697
1364.905914,5847.626942,-8956.491898,1149.143247
1364.906244,5329.482782,-8290.306550,1378.971896
1364.906573,6439.791695,-5625.565159,383.047749
1364.906902,8512.368333,-3701.029710,995.924147
1364.907231,8808.450710,-4737.318029,1685.410096
1364.907560,7846.182985,-7031.956449,1455.581446
1364.907889,6291.750507,-7698.141797,1532.190996
1364.908219,5551.544565,-6069.688724,229.828649
1364.908548,6291.750507,-5773.606348,-306.438199
1364.908877,7105.977043,-6587.832884,1149.143247
1364.909206,7254.018232,-9474.636058,1915.238745
1364.909535,6513.812290,-9030.512492,1762.019645
1364.909864,5699.585753,-7105.977043,766.095498
1364.910194,6513.812290,-4737.318029,76.609550
1364.910523,8216.285956,-4145.153275,229.828649
1364.910852,7994.224174,-6143.709319,1532.190996
1364.911181,7328.038826,-8216.285956,2221.676944
1364.911510,7031.956449,-7105.977043,1378.971896
1364.911840,6735.874072,-4737.318029,536.266849
1364.912169,7105.977043,-4737.318029,229.828649
1364.912498,7698.141797,-6661.853478,1378.971896
1364.912827,7105.977043,-8142.265362,2068.457845
1364.913156,5995.668130,-7254.018232,306.438199
1364.913485,5773.606348,-4663.297435,0.000000
1364.913815,7254.018232,-4441.235652,0.000000
1364.914144,8512.368333,-6217.729913,1149.143247
1364.914473,7105.977043,-8216.285956,2145.067394
1364.914802,6365.771101,-8808.450710,612.876398
1364.915131,5403.503377,-7179.997637,229.828649
1364.915460,6809.894666,-6809.894666,383.047749
1364.915790,7328.038826,-7105.977043,995.924147
1364.916119,7402.059420,-7994.224174,2374.896044
1364.916448,6809.894666,-7994.224174,995.924147
1364.916777,5995.668130,-5699.585753,536.266849
1364.917106,6957.935855,-3108.864956,0.000000
1364.917435,8438.347739,-3478.967927,0.000000
1364.917765,8586.388927,-5995.668130,1225.752797
1364.918094,6883.915261,-7698.141797,2068.457845
1364.918423,5699.585753,-7254.018232,1225.752797
1364.918752,6661.853478,-5255.462188,612.876398
1364.919081,7105.977043,-5107.421000,383.047749
1364.919410,7179.997637,-7624.121203,1149.143247
1364.919740,6957.935855,-8216.285956,1685.410096
1364.920069,6217.729913,-6957.935855,612.876398
1364.920398,6513.812290,-6217.729913,229.828649
1364.920727,7328.038826,-4219.173869,1378.971896
1364.921056,8660.409521,-6809.894666,1455.581446
1364.921386,8142.265362,-8290.306550,2298.286494
1364.921715,6513.812290,-7105.977043,1685.410096
1364.922044,5921.647536,-5921.647536,-306.438199
1364.922373,6883.915261,-4811.338623,0.000000
1364.922702,7254.018232,-6513.812290,919.314598
1364.923031,7476.080014,-7994.224174,1455.581446
1364.923361,6439.791695,-7920.203579,1302.362347
1364.923690,6143.709319,-6365.771101,1302.362347
1364.924019,7402.059420,-4515.256246,459.657299
1364.924348,8290.306550,-4737.318029,1225.752797
1364.924677,8216.285956,-6661.853478,1838.629195
1364.925006,6735.874072,-8290.306550,1991.848295
1364.925336,5625.565159,-6587.832884,1072.533697
1364.925665,5773.606348,-5921.647536,0.000000
1364.925994,7476.080014,-6217.729913,919.314598
1364.926323,8216.285956,-7846.182985,2221.676944
1364.926652,7254.018232,-8586.388927,1685.410096
1364.926981,6661.853478,-6883.915261,1532.190996
1364.927311,7328.038826,-4811.338623,689.485948
1364.927640,7920.203579,-4071.132681,306.438199
1364.927969,7254.018232,-5477.523971,995.924147
1364.928298,6735.874072,-8290.306550,1838.629195
1364.928627,5551.544565,-8882.471304,229.828649
1364.928956,5181.441594,-6883.915261,459.657299
1364.929286,6143.709319,-6439.791695,153.219100
1364.929615,7402.059420,-8216.285956,919.314598
1364.929944,6513.812290,-9030.512492,1225.752797
1364.930273,4737.318029,-8882.471304,536.266849
1364.930602,5699.585753,-6291.750507,536.266849
1364.930932,8290.306550,-3701.029710,229.828649
1364.931261,9400.615463,-4219.173869,1991.848295
1364.931590,9178.553681,-5995.668130,2834.553343
1364.931919,8216.285956,-6439.791695,2221.676944
1364.932248,7254.018232,-5255.462188,919.314598
1364.932577,6291.750507,-4293.194464,766.095498
1364.932907,7105.977043,-5181.441594,919.314598
1364.933236,7624.121203,-7328.038826,1685.410096
1364.933565,6513.812290,-8438.347739,1915.238745
1364.933894,5625.565159,-7550.100608,766.095498
1364.934223,6957.935855,-5107.421000,76.609550
1364.934552,7476.080014,-4663.297435,229.828649
1364.934882,7550.100608,-6735.874072,842.705048
1364.935211,6809.894666,-8290.306550,1455.581446
1364.935540,5921.647536,-8290.306550,1455.581446
1364.935869,6439.791695,-6439.791695,0.000000
1364.936198,7031.956449,-6217.729913,995.924147
1364.936527,7328.038826,-7105.977043,1149.143247
1364.936857,6513.812290,-8512.368333,1072.533697
1364.937186,5625.565159,-7402.059420,842.705048
1364.937515,6365.771101,-6365.771101,536.266849
1364.937844,8068.244768,-4367.215058,536.266849
1364.938173,8808.450710,-4293.194464,536.266849
1364.938502,7920.203579,-6587.832884,1149.143247
1364.938832,7105.977043,-7772.162391,1838.629195
1364.939161,6513.812290,-7476.080014,1149.143247
1364.939490,7105.977043,-6069.688724,536.266849
1364.939819,7476.080014,-5773.606348,1149.143247
1364.940148,7772.162391,-7105.977043,1608.800546
1364.940477,6809.894666,-8216.285956,1685.410096
1364.940807,5625.565159,-6735.874072,1072.533697
1364.941136,7254.018232,-4663.297435,842.705048
1364.941465,8142.265362,-3478.967927,919.314598
1364.941794,7772.162391,-4737.318029,2298.286494
1364.942123,6735.874072,-8142.265362,1762.019645
1364.942453,5699.585753,-7846.182985,842.705048
1364.942782,6365.771101,-6439.791695,76.609550
1364.943111,7402.059420,-7179.997637,1225.752797
1364.943440,8808.450710,-7476.080014,1838.629195
1364.943769,6957.935855,-8882.471304,1378.971896
1364.944098,4367.215058,-8734.430116,306.438199
1364.944428,4367.215058,-6735.874072,-766.095498
1364.944757,6439.791695,-4737.318029,-919.314598
1364.945086,7328.038826,-5847.626942,842.705048
1364.945415,7624.121203,-6809.894666,1685.410096
1364.945744,7476.080014,-8068.244768,2068.457845
1364.946073,6809.894666,-6513.812290,1378.971896
1364.946403,6439.791695,-4737.318029,1072.533697
1364.946732,7402.059420,-5403.503377,612.876398
1364.947061,7402.059420,-7105.977043,1302.362347
1364.947390,6217.729913,-7550.100608,766.095498
1364.947719,5847.626942,-6883.915261,459.657299
1364.948048,7254.018232,-4811.338623,1225.752797
1364.948378,9104.533087,-4737.318029,1378.971896
1364.948707,8660.409521,-6587.832884,2145.067394
1364.949036,6809.894666,-8068.244768,2681.334243
1364.949365,5033.400406,-8660.409521,919.314598
1364.949694,3627.009116,-7920.203579,-612.876398
1364.950023,3034.844362,-6735.874072,-919.314598
1364.950353,4589.276840,-9252.574275,0.000000
1364.950682,5329.482782,-11177.109724,1455.581446
1364.951011,4959.379811,-9844.739029,1762.019645
1364.951340,5625.565159,-8216.285956,612.876398
1364.951669,7402.059420,-5403.503377,612.876398
1364.951999,8438.347739,-5477.523971,536.266849
1364.952328,7105.977043,-7550.100608,1838.629195
1364.952657,6661.853478,-7920.203579,1378.971896
1364.952986,6587.832884,-6957.935855,919.314598
1364.953315,6439.791695,-5995.668130,536.266849
1364.953644,6809.894666,-5921.647536,1072.533697
1364.953974,7476.080014,-7624.121203,2298.286494
1364.954303,6439.791695,-9696.697840,2681.334243
1364.954632,4589.276840,-6735.874072,1838.629195
1364.954961,5033.400406,-4441.235652,766.095498
1364.955290,6587.832884,-3627.009116,842.705048
1364.955619,7920.203579,-5477.523971,2145.067394
1364.955949,7328.038826,-8142.265362,2604.724693
1364.956278,6365.771101,-8512.368333,2145.067394
1364.956607,5255.462188,-8290.306550,1149.143247
1364.956936,4367.215058,-8216.285956,153.219100
1364.957265,3404.947333,-10214.842000,-689.485948
1364.957594,2590.720797,-13101.645173,306.438199
1364.957924,2590.720797,-14211.954086,842.705048
1364.958253,2738.761985,-11695.253884,1149.143247
1364.958582,3997.112087,-7402.059420,1225.752797
1364.958911,4811.338623,-7105.977043,995.924147
1364.959240,5181.441594,-6587.832884,1149.143247
1364.959569,5329.482782,-7772.162391,1762.019645
1364.959899,6143.709319,-7105.977043,2911.162892
1364.960228,6661.853478,-5329.482782,2451.505594
1364.960557,6143.709319,-5033.400406,2298.286494
1364.960886,5107.421000,-6957.935855,766.095498
1364.961215,4071.132681,-10140.821405,842.705048
1364.961545,3849.070898,-11547.212695,995.924147
1364.961874,3775.050304,-11029.068536,1149.143247
1364.962203,4959.379811,-9622.677246,1072.533697
1364.962532,5181.441594,-8808.450710,536.266849
1364.962861,4589.276840,-9474.636058,919.314598
1364.963190,4145.153275,-9326.594869,383.047749
1364.963520,4589.276840,-8586.388927,766.095498
1364.963849,5329.482782,-7105.977043,766.095498
1364.964178,5255.462188,-7328.038826,766.095498
1364.964507,4293.194464,-9104.533087,919.314598
1364.964836,2738.761985,-11843.295072,919.314598
1364.965165,2812.782580,-11843.295072,612.876398
1364.965495,3552.988522,-10066.800811,612.876398
1364.965824,4441.235652,-9104.533087,383.047749
1364.966153,4885.359217,-9548.656652,842.705048
1364.966482,4737.318029,-10732.986159,1762.019645
1364.966811,5255.462188,-10362.883188,1991.848295
1364.967140,6069.688724,-7846.182985,2068.457845
1364.967470,6957.935855,-4219.173869,2681.334243
1364.967799,7550.100608,-3256.906145,2374.896044
1364.968128,7179.997637,-3404.947333,1838.629195
1364.968457,7031.956449,-3849.070898,1302.362347
1364.968786,6217.729913,-5921.647536,383.047749
1364.969115,5551.544565,-6439.791695,919.314598
1364.969445,4959.379811,-8586.388927,1378.971896
1364.969774,4293.194464,-10436.903782,459.657299
1364.970103,3552.988522,-11621.233289,842.705048
1364.970432,3404.947333,-12213.398043,612.876398
1364.970761,4219.173869,-12657.521608,0.000000
1364.971090,3627.009116,-12361.439231,0.000000
1364.971420,3701.029710,-12139.377449,-689.485948
1364.971749,3330.926739,-11547.212695,-919.314598
1364.972078,3256.906145,-11695.253884,-689.485948
1364.972407,3478.967927,-11399.171507,229.828649
1364.972736,4293.194464,-8956.491898,1225.752797
1364.973066,5403.503377,-6069.688724,2451.505594
1364.973395,6957.935855,-4293.194464,1838.629195
1364.973724,8512.368333,-1036.288319,2757.943793
1364.974053,9326.594869,-1924.535449,2068.457845
1364.974382,8882.471304,-2220.617826,1455.581446
1364.974711,7920.203579,-4737.318029,1225.752797
1364.975041,6365.771101,-7698.141797,1225.752797
1364.975370,5921.647536,-10658.965565,1149.143247
1364.975699,4515.256246,-13101.645173,1915.238745
1364.976028,4367.215058,-12731.542202,1072.533697
1364.976357,3775.050304,-12139.377449,1608.800546
1364.976686,3923.091493,-10955.047942,995.924147
1364.977016,3627.009116,-10436.903782,-306.438199
1364.977345,3108.864956,-8882.471304,76.609550
1364.977674,2664.741391,-8586.388927,76.609550
1364.978003,2146.597232,-8364.327145,-76.609550
1364.978332,3923.091493,-7328.038826,1532.190996
1364.978661,5255.462188,-7624.121203,1838.629195
1364.978991,6439.791695,-6217.729913,2451.505594
1364.979320,5995.668130,-6291.750507,2068.457845
1364.979649,5847.626942,-7402.059420,1072.533697
1364.979978,4959.379811,-8512.368333,689.485948
1364.980307,5033.400406,-10881.027347,1302.362347
1364.980636,5329.482782,-12657.521608,1762.019645
1364.980966,4811.338623,-12879.583391,2221.676944
1364.981295,4515.256246,-11695.253884,2298.286494
1364.981624,4071.132681,-10955.047942,1532.190996
1364.981953,4071.132681,-7550.100608,1149.143247
1364.982282,3775.050304,-6439.791695,306.438199
1364.982612,3478.967927,-5847.626942,0.000000
1364.982941,4367.215058,-5329.482782,306.438199
1364.983270,4219.173869,-6143.709319,536.266849
1364.983599,4441.235652,-7402.059420,229.828649
1364.983928,4589.276840,-9030.512492,842.705048
1364.984257,5107.421000,-10066.800811,1532.190996
1364.984587,5329.482782,-10658.965565,2068.457845
1364.984916,5995.668130,-10732.986159,2528.115143
1364.985245,6143.709319,-10584.944971,2757.943793
1364.985574,5551.544565,-10214.842000,3217.601092
1364.985903,5403.503377,-9400.615463,1915.238745
1364.986232,5329.482782,-8068.244768,2068.457845
1364.986562,6069.688724,-7031.956449,2604.724693
1364.986891,6735.874072,-6513.812290,2987.772442
1364.987220,6809.894666,-6143.709319,3294.210641
1364.987549,5995.668130,-5551.544565,2681.334243
1364.987879,4663.297435,-5847.626942,1149.143247
1364.988208,3404.947333,-7031.956449,383.047749
1364.988537,3182.885551,-7698.141797,306.438199
1364.988866,3849.070898,-9030.512492,995.924147
1364.989195,5107.421000,-9696.697840,2451.505594
1364.989525,5847.626942,-10288.862594,3064.381992
1364.989854,6587.832884,-10807.006753,3677.258390
1364.990183,7550.100608,-8808.450710,3753.867940
1364.990512,8142.265362,-7476.080014,4519.963438
1364.990841,7920.203579,-6143.709319,3677.258390
1364.991171,7772.162391,-4589.276840,3370.820191
1364.991500,8068.244768,-4515.256246,3677.258390
1364.991829,7846.182985,-4589.276840,2528.115143
1364.992158,6365.771101,-5403.503377,2451.505594
1364.992488,4811.338623,-7031.956449,1532.190996
1364.992817,3997.112087,-8438.347739,1378.971896
1364.993146,3552.988522,-9030.512492,2451.505594
1364.993475,4959.379811,-8882.471304,2374.896044
1364.993804,5921.647536,-8290.306550,3370.820191
1364.994134,6661.853478,-7846.182985,3677.258390
1364.994463,7402.059420,-7105.977043,3830.477490
1364.994792,8068.244768,-5921.647536,4519.963438
1364.995121,8290.306550,-5921.647536,4673.182538
1364.995450,8586.388927,-5403.503377,4749.792088
1364.995780,8956.491898,-5033.400406,5439.278036
1364.996109,9030.512492,-3923.091493,5056.230287
1364.996438,8586.388927,-3256.906145,4749.792088
1364.996767,7550.100608,-3849.070898,4366.744339
1364.997096,5995.668130,-5477.523971,3524.039291
1364.997426,5255.462188,-7328.038826,3524.039291
1364.997755,4811.338623,-9474.636058,2911.162892
1364.998084,4663.297435,-10584.944971,3447.429741
1364.998413,4145.153275,-10658.965565,4060.306139
1364.998743,4145.153275,-10881.027347,3907.087040
1364.999072,4071.132681,-10288.862594,4213.525239
1364.999401,4737.318029,-9030.512492,3983.696590
1364.999730,5255.462188,-8068.244768,4213.525239
1365.000059,6439.791695,-6883.915261,4903.011187
1365.000389,7624.121203,-5773.606348,6128.763984
1365.000718,8808.450710,-5255.462188,6128.763984
1365.001047,8956.491898,-3627.009116,6511.811733
1365.001376,8882.471304,-2664.741391,5898.935335
1365.001705,8586.388927,-3330.926739,4903.011187
1365.002035,8734.430116,-3108.864956,5132.839837
1365.002364,9104.533087,-4737.318029,5132.839837
1365.002693,8586.388927,-5477.523971,4826.401637
1365.003022,7698.141797,-6439.791695,4443.353888
1365.003351,6957.935855,-7624.121203,3370.820191
1365.003681,5699.585753,-9252.574275,3677.258390
1365.004010,4737.318029,-10807.006753,4903.011187
1365.004339,4367.215058,-11473.192101,3983.696590
1365.004668,3627.009116,-10140.821405,3600.648841
1365.004998,3182.885551,-9326.594869,3600.648841
1365.005327,4441.235652,-8068.244768,3370.820191
1365.005656,5477.523971,-6069.688724,4136.915689
1365.005985,6587.832884,-4663.297435,4749.792088
1365.006314,8364.327145,-3404.947333,5209.449386
1365.006644,9622.677246,-2664.741391,6128.763984
1365.006973,10214.842000,-2590.720797,5592.497135
1365.007302,9548.656652,-2886.803174,5132.839837
1365.007631,9400.615463,-4219.173869,4366.744339
1365.007960,7994.224174,-6365.771101,4290.134789
1365.008290,6883.915261,-7254.018232,4596.572988
1365.008619,5625.565159,-9104.533087,2987.772442
1365.008948,4959.379811,-9622.677246,2068.457845
1365.009277,4441.235652,-9548.656652,2451.505594
1365.009606,4367.215058,-8882.471304,2834.553343
1365.009936,4441.235652,-7772.162391,2757.943793
1365.010265,5699.585753,-5773.606348,4060.306139
1365.010594,7624.121203,-4663.297435,3983.696590
1365.010923,9104.533087,-5033.400406,5362.668486
1365.011253,9918.759623,-4737.318029,5209.449386
1365.011582,10288.862594,-4145.153275,4213.525239
1365.011911,8586.388927,-4293.194464,2834.553343
1365.012240,6957.935855,-4885.359217,2068.457845
1365.012569,6291.750507,-7105.977043,2145.067394
1365.012899,6735.874072,-7624.121203,2757.943793
1365.013228,6217.729913,-9474.636058,3600.648841
1365.013557,7254.018232,-9104.533087,4443.353888
1365.013886,7550.100608,-8438.347739,4903.011187
1365.014215,7550.100608,-7476.080014,4290.134789
1365.014545,7846.182985,-6661.853478,3677.258390
1365.014874,6735.874072,-4663.297435,3600.648841
1365.015203,6661.853478,-4145.153275,2681.334243
1365.015532,7105.977043,-3552.988522,2604.724693
1365.015861,7920.203579,-2886.803174,2681.334243
1365.016191,8808.450710,-4737.318029,3294.210641
1365.016520,9326.594869,-5107.421000,4060.306139
1365.016849,7624.121203,-6957.935855,4136.915689
1365.017178,6883.915261,-9474.636058,3064.381992
1365.017508,6513.812290,-10510.924376,3370.820191
1365.017837,5033.400406,-11547.212695,3217.601092
1365.018166,3923.091493,-9918.759623,2834.553343
1365.018495,3701.029710,-7624.121203,2298.286494
1365.018824,4663.297435,-6439.791695,2451.505594
1365.019154,6143.709319,-4293.194464,2834.553343
1365.019483,7179.997637,-4737.318029,4749.792088
1365.019812,8512.368333,-4811.338623,5515.887586
1365.020141,9104.533087,-4885.359217,6205.373534
1365.020470,9326.594869,-3404.947333,5439.278036
1365.020800,9770.718434,-3182.885551,4903.011187
1365.021129,9622.677246,-3404.947333,4213.525239
1365.021458,8438.347739,-5181.441594,3753.867940
1365.021787,6957.935855,-7254.018232,2528.115143
1365.022117,5329.482782,-8956.491898,2911.162892
1365.022446,4145.153275,-11103.089130,2145.067394
1365.022775,2886.803174,-12213.398043,2834.553343
1365.023104,2738.761985,-11547.212695,2911.162892
1365.023433,3701.029710,-9104.533087,2911.162892
1365.023763,4885.359217,-6883.915261,2528.115143
1365.024092,6883.915261,-4441.235652,4060.306139
1365.024421,9178.553681,-3627.009116,4903.011187
1365.024750,10584.944971,-2664.741391,5439.278036
1365.025079,10214.842000,-1110.308913,4213.525239
1365.025409,9992.780217,-1776.494261,3983.696590
1365.025738,9844.739029,-3478.967927,4213.525239
1365.026067,8882.471304,-6365.771101,4519.963438
1365.026396,7994.224174,-8660.409521,4213.525239
1365.026725,7254.018232,-9030.512492,2528.115143
1365.027055,5921.647536,-9474.636058,1991.848295
1365.027384,4589.276840,-10584.944971,2068.457845
1365.027713,3849.070898,-8956.491898,1225.752797
1365.028042,3330.926739,-7031.956449,459.657299
1365.028372,4367.215058,-5625.565159,1225.752797
1365.028701,6809.894666,-4737.318029,3217.601092
1365.029030,9548.656652,-4663.297435,4443.353888
1365.029359,10214.842000,-3997.112087,4519.963438
1365.029688,9104.533087,-2960.823768,3677.258390
1365.030018,7994.224174,-4293.194464,2451.505594
1365.030347,7550.100608,-5329.482782,2757.943793
1365.030676,7476.080014,-7328.038826,2221.676944
1365.031005,8290.306550,-7920.203579,1532.190996
1365.031334,6587.832884,-8586.388927,1302.362347
1365.031664,5255.462188,-9474.636058,689.485948
1365.031993,5329.482782,-9326.594869,919.314598
1365.032322,5551.544565,-9252.574275,1455.581446
1365.032651,6291.750507,-8216.285956,1378.971896
1365.032980,6217.729913,-6439.791695,842.705048
1365.033310,6439.791695,-5847.626942,995.924147
1365.033639,6291.750507,-5995.668130,1225.752797
1365.033968,6439.791695,-5255.462188,1225.752797
1365.034297,7772.162391,-3330.926739,919.314598
1365.034627,8808.450710,-2368.659014,1225.752797
1365.034956,9030.512492,-3256.906145,842.705048
1365.035285,8956.491898,-4737.318029,1149.143247
1365.035614,8882.471304,-6439.791695,1915.238745
1365.035943,8956.491898,-7772.162391,1915.238745
1365.036273,7254.018232,-8660.409521,1149.143247
1365.036602,4737.318029,-10140.821405,-153.219100
1365.036931,3552.988522,-10362.883188,-1532.190996
1365.037260,2960.823768,-10732.986159,-1608.800546
1365.037589,3849.070898,-9992.780217,229.828649
1365.037919,5699.585753,-7328.038826,459.657299
1365.038248,6735.874072,-4811.338623,306.438199
1365.038577,7105.977043,-3034.844362,1225.752797
1365.038906,7994.224174,-3849.070898,1149.143247
1365.039235,9030.512492,-3627.009116,1762.019645
1365.039565,10140.821405,-3108.864956,2298.286494
1365.039894,10584.944971,-3330.926739,1838.629195
1365.040223,9918.759623,-3256.906145,1532.190996
1365.040552,7328.038826,-7328.038826,1149.143247
1365.040882,6143.709319,-9696.697840,612.876398
1365.041211,6069.688724,-10066.800811,229.828649
1365.041540,6735.874072,-10066.800811,383.047749
1365.041869,6069.688724,-8216.285956,76.609550
1365.042198,4589.276840,-8956.491898,-842.705048
1365.042528,3478.967927,-8586.388927,-612.876398
1365.042857,4441.235652,-7476.080014,0.000000
1365.043186,6883.915261,-5403.503377,1685.410096
1365.043515,8290.306550,-3997.112087,2374.896044
1365.043844,7624.121203,-4737.318029,2221.676944
1365.044174,6735.874072,-5033.400406,1838.629195
1365.044503,7179.997637,-5625.565159,1762.019645
1365.044832,8290.306550,-4145.153275,1608.800546
1365.045161,9474.636058,-3849.070898,1072.533697
1365.045490,8956.491898,-6217.729913,1608.800546
1365.045820,7624.121203,-6809.894666,1302.362347
1365.046149,6291.750507,-8808.450710,919.314598
1365.046478,6143.709319,-9178.553681,842.705048
1365.046807,6217.729913,-8660.409521,1149.143247
1365.047137,5921.647536,-8734.430116,536.266849
1365.047466,4367.215058,-8660.409521,153.219100
1365.047795,4589.276840,-8216.285956,1532.190996
1365.048124,6217.729913,-6439.791695,842.705048
1365.048453,7476.080014,-3775.050304,1455.581446
1365.048783,8512.368333,-1776.494261,1455.581446
1365.049112,9030.512492,-1702.473667,1149.143247
1365.049441,8142.265362,-3627.009116,1838.629195
1365.049770,8586.388927,-5847.626942,3064.381992
1365.050099,9696.697840,-7105.977043,3140.991542
1365.050429,9030.512492,-7254.018232,2221.676944
1365.050758,6735.874072,-9548.656652,536.266849
1365.051087,3997.112087,-11325.150913,76.609550
1365.051416,3849.070898,-10658.965565,0.000000
1365.051746,4663.297435,-9770.718434,0.000000
1365.052075,5477.523971,-6883.915261,459.657299
1365.052404,6291.750507,-5181.441594,306.438199
1365.052733,6957.935855,-5773.606348,842.705048
1365.053062,7328.038826,-5329.482782,2528.115143
1365.053392,9178.553681,-4737.318029,3064.381992
1365.053721,10807.006753,-3404.947333,1991.848295
1365.054050,9474.636058,-3256.906145,2145.067394
1365.054379,7105.977043,-5403.503377,229.828649
1365.054708,5995.668130,-7550.100608,-229.828649
1365.055038,6587.832884,-8142.265362,612.876398
1365.055367,7994.224174,-7698.141797,306.438199
1365.055696,7402.059420,-7550.100608,459.657299
1365.056025,6365.771101,-8956.491898,995.924147
1365.056354,5625.565159,-9918.759623,536.266849
1365.056684,6069.688724,-9474.636058,1838.629195
1365.057013,6957.935855,-7402.059420,2374.896044
1365.057342,7254.018232,-5107.421000,1225.752797
1365.057671,5699.585753,-4145.153275,153.219100
1365.058001,4589.276840,-5033.400406,842.705048
1365.058330,5551.544565,-6069.688724,1762.019645
1365.058659,7550.100608,-4959.379811,2374.896044
1365.058988,8068.244768,-4145.153275,1991.848295
1365.059317,7698.141797,-4367.215058,1378.971896
1365.059647,7179.997637,-5773.606348,842.705048
1365.059976,6661.853478,-7698.141797,1532.190996
1365.060305,7254.018232,-8068.244768,1149.143247
1365.060634,7994.224174,-7254.018232,1455.581446
1365.060963,7402.059420,-7402.059420,0.000000
1365.061293,4959.379811,-8808.450710,-612.876398
1365.061622,4367.215058,-9918.759623,-229.828649
1365.061951,5773.606348,-8808.450710,383.047749
1365.062280,7105.977043,-5699.585753,919.314598
1365.062609,7920.203579,-4219.173869,1225.752797
1365.062939,8586.388927,-3108.864956,1302.362347
1365.063268,8216.285956,-4367.215058,1685.410096
1365.063597,8142.265362,-4885.359217,1915.238745
1365.063926,8364.327145,-4811.338623,1685.410096
1365.064256,7698.141797,-4737.318029,995.924147
1365.064585,6439.791695,-5625.565159,0.000000
1365.064914,4737.318029,-9474.636058,0.000000
1365.065243,5329.482782,-10732.986159,1072.533697
1365.065572,6513.812290,-9992.780217,766.095498
1365.065902,7105.977043,-7846.182985,536.266849
1365.066231,7105.977043,-6069.688724,383.047749
1365.066560,7105.977043,-7105.977043,459.657299
1365.066889,6957.935855,-6735.874072,919.314598
1365.067218,7328.038826,-6069.688724,1378.971896
1365.067548,8956.491898,-4515.256246,536.266849
1365.067877,8290.306550,-3701.029710,612.876398
1365.068206,6661.853478,-6069.688724,459.657299
1365.068535,5551.544565,-7772.162391,766.095498
1365.068864,6513.812290,-7328.038826,842.705048
1365.069194,7402.059420,-6513.812290,306.438199
1365.069523,7624.121203,-4737.318029,306.438199
1365.069852,7254.018232,-6661.853478,995.924147
1365.070181,6957.935855,-7402.059420,306.438199
1365.070511,6587.832884,-7105.977043,2221.676944
1365.070840,7402.059420,-6587.832884,1455.581446
1365.071169,7698.141797,-5551.544565,919.314598
1365.071498,6143.709319,-6735.874072,689.485948
1365.071827,4737.318029,-8512.368333,689.485948
1365.072157,4885.359217,-7550.100608,1302.362347
1365.072486,6735.874072,-6217.729913,1532.190996
1365.072815,7698.141797,-5625.565159,1685.410096
1365.073144,7994.224174,-5699.585753,2145.067394
1365.073473,7550.100608,-5181.441594,1685.410096
1365.073803,6439.791695,-6513.812290,612.876398
1365.074132,5699.585753,-6069.688724,919.314598
1365.074461,6957.935855,-4885.359217,383.047749
1365.074790,6957.935855,-5995.668130,-306.438199
1365.075119,5477.523971,-7698.141797,1072.533697
1365.075449,5921.647536,-9992.780217,1378.971896
1365.075778,7624.121203,-9400.615463,1685.410096
1365.076107,8142.265362,-6957.935855,1991.848295
1365.076436,8068.244768,-5181.441594,1149.143247
1365.076766,7328.038826,-4515.256246,0.000000
1365.077095,7105.977043,-5477.523971,383.047749
1365.077424,7624.121203,-6587.832884,1532.190996
1365.077753,8734.430116,-4885.359217,1991.848295
1365.078082,8290.306550,-4515.256246,1225.752797
1365.078412,7179.997637,-7031.956449,1532.190996
1365.078741,5255.462188,-8660.409521,1685.410096
1365.079070,5551.544565,-9548.656652,1838.629195
1365.079399,7105.977043,-7920.203579,2068.457845
1365.079728,7402.059420,-5329.482782,995.924147
1365.080058,7402.059420,-5255.462188,383.047749
1365.080387,7254.018232,-5403.503377,459.657299
1365.080716,7402.059420,-6735.874072,1378.971896
1365.081045,7624.121203,-5995.668130,1685.410096
1365.081375,8290.306550,-5699.585753,1455.581446
1365.081704,7698.141797,-6069.688724,1532.190996
1365.082033,6439.791695,-8142.265362,1072.533697
1365.082362,5773.606348,-9104.533087,1455.581446
1365.082691,6365.771101,-7624.121203,459.657299
1365.083021,7105.977043,-5625.565159,0.000000
1365.083350,6957.935855,-4071.132681,0.000000
1365.083679,6587.832884,-4515.256246,0.000000
1365.084008,6217.729913,-6069.688724,1225.752797
1365.084337,7105.977043,-6957.935855,1838.629195
1365.084667,8438.347739,-6735.874072,2528.115143
1365.084996,8068.244768,-6217.729913,2221.676944
1365.085325,6587.832884,-7179.997637,1532.190996
1365.085654,5699.585753,-8142.265362,1149.143247
1365.085983,5625.565159,-8290.306550,919.314598
1365.086313,5625.565159,-7105.977043,1149.143247
1365.086642,6365.771101,-4885.359217,229.828649
1365.086971,7031.956449,-4441.235652,383.047749
1365.087300,6587.832884,-5033.400406,766.095498
1365.087630,6809.894666,-7105.977043,1455.581446
1365.087959,7846.182985,-7105.977043,2451.505594
1365.088288,8882.471304,-6587.832884,1915.238745
1365.088617,7550.100608,-6661.853478,1455.581446
1365.088946,5625.565159,-7328.038826,0.000000
1365.089276,4811.338623,-9178.553681,-612.876398
1365.089605,5995.668130,-8586.388927,153.219100
1365.089934,7105.977043,-5995.668130,0.000000
1365.090263,8512.368333,-4885.359217,689.485948
1365.090593,8216.285956,-5107.421000,536.266849
1365.090922,8290.306550,-7254.018232,1455.581446
1365.091251,8586.388927,-7698.141797,2145.067394
1365.091580,9104.533087,-6291.750507,2681.334243
1365.091910,8512.368333,-4737.318029,383.047749
1365.092239,5847.626942,-5921.647536,459.657299
1365.092568,4441.235652,-8882.471304,0.000000
1365.092897,5329.482782,-7772.162391,766.095498
1365.093227,6291.750507,-6883.915261,1302.362347
1365.093556,7328.038826,-5107.421000,842.705048
1365.093885,7698.141797,-5477.523971,1455.581446
1365.094214,8290.306550,-7031.956449,1915.238745
1365.094544,8068.244768,-6439.791695,2068.457845
1365.094873,7994.224174,-6143.709319,2221.676944
1365.095202,8364.327145,-4959.379811,1532.190996
1365.095531,7328.038826,-5107.421000,383.047749
1365.095860,4811.338623,-7698.141797,-229.828649
1365.096190,4589.276840,-7994.224174,-612.876398
1365.096519,5773.606348,-8512.368333,153.219100
1365.096848,7328.038826,-7328.038826,1302.362347
1365.097177,8142.265362,-5403.503377,1455.581446
1365.097507,8216.285956,-5773.606348,842.705048
1365.097836,7402.059420,-6513.812290,1302.362347
1365.098165,7031.956449,-6439.791695,1991.848295
1365.098494,7624.121203,-5625.565159,2145.067394
1365.098824,7772.162391,-4589.276840,1378.971896
1365.099153,6365.771101,-5329.482782,383.047749
1365.099482,5107.421000,-7772.162391,1149.143247
1365.099811,5625.565159,-9030.512492,1762.019645
1365.100141,6957.935855,-6957.935855,1532.190996
1365.100470,7105.977043,-4663.297435,1072.533697
1365.100799,6365.771101,-4515.256246,459.657299
1365.101128,6365.771101,-5921.647536,536.266849
1365.101457,7402.059420,-7994.224174,1915.238745
1365.101787,8734.430116,-7105.977043,2911.162892
1365.102116,8808.450710,-5551.544565,2145.067394
1365.102445,7105.977043,-5995.668130,459.657299
1365.102774,4885.359217,-7476.080014,306.438199
1365.103104,4663.297435,-9030.512492,153.219100
1365.103433,5625.565159,-8290.306550,1072.533697
1365.103762,7105.977043,-6365.771101,1072.533697
1365.104091,8068.244768,-4885.359217,612.876398
1365.104421,7550.100608,-4737.318029,919.314598
1365.104750,7105.977043,-7105.977043,1225.752797
1365.105079,7698.141797,-7772.162391,2298.286494
1365.105408,7994.224174,-6957.935855,1532.190996
1365.105738,7772.162391,-6217.729913,536.266849
1365.106067,7179.997637,-7031.956449,536.266849
1365.106396,6143.709319,-8734.430116,1149.143247
1365.106725,6143.709319,-8808.450710,1225.752797
1365.107055,6365.771101,-7254.018232,1532.190996
1365.107384,6883.915261,-4737.318029,766.095498
1365.107713,7105.977043,-4737.318029,919.314598
1365.108042,6439.791695,-6069.688724,1225.752797
1365.108371,6365.771101,-6143.709319,1532.190996
1365.108701,7402.059420,-6365.771101,1838.629195
1365.109030,8586.388927,-5033.400406,1838.629195
1365.109359,7698.141797,-5107.421000,766.095498
1365.109688,6661.853478,-7994.224174,612.876398
1365.110018,6143.709319,-8660.409521,995.924147
1365.110347,6143.709319,-8438.347739,76.609550
1365.110676,6661.853478,-5847.626942,76.609550
1365.111005,6883.915261,-5107.421000,76.609550
1365.111335,7550.100608,-6365.771101,229.828649
1365.111664,7328.038826,-6217.729913,1455.581446
1365.111993,7550.100608,-7698.141797,2145.067394
1365.112322,8882.471304,-5773.606348,2604.724693
1365.112652,7624.121203,-4515.256246,1455.581446
1365.112981,6513.812290,-5995.668130,383.047749
1365.113310,5107.421000,-6587.832884,306.438199
1365.113639,6217.729913,-7254.018232,1455.581446
1365.113969,7179.997637,-6587.832884,1225.752797
1365.114298,7698.141797,-4071.132681,1378.971896
1365.114627,8142.265362,-4885.359217,612.876398
1365.114956,7698.141797,-5995.668130,1149.143247
1365.115285,7031.956449,-7624.121203,1608.800546
1365.115615,7402.059420,-7402.059420,1762.019645
1365.115944,8290.306550,-5847.626942,1302.362347
1365.116273,6587.832884,-6291.750507,383.047749
1365.116602,4663.297435,-7772.162391,-536.266849
1365.116932,4589.276840,-9104.533087,0.000000
1365.117261,6809.894666,-7624.121203,383.047749
1365.117590,7254.018232,-6513.812290,1225.752797
1365.117919,7402.059420,-4959.379811,766.095498
1365.118249,7402.059420,-4811.338623,612.876398
1365.118578,7328.038826,-7402.059420,995.924147
1365.118907,8142.265362,-7846.182985,2451.505594
1365.119236,8290.306550,-5995.668130,2298.286494
1365.119566,7920.203579,-5477.523971,0.000000
1365.119895,5773.606348,-6365.771101,-689.485948
1365.120224,4441.235652,-8512.368333,-689.485948
1365.120553,5625.565159,-9030.512492,459.657299
1365.120883,6883.915261,-7698.141797,995.924147
1365.121212,7179.997637,-5847.626942,1455.581446
1365.121541,7772.162391,-5329.482782,1225.752797
1365.121870,7624.121203,-6217.729913,1991.848295
1365.122199,7328.038826,-7179.997637,2068.457845
1365.122529,7476.080014,-6143.709319,1915.238745
1365.122858,7994.224174,-4663.297435,1149.143247
1365.123187,6809.894666,-5107.421000,229.828649
1365.123516,4811.338623,-6291.750507,842.705048
1365.123846,4959.379811,-8512.368333,766.095498
1365.124175,5995.668130,-8290.306550,766.095498
1365.124504,6957.935855,-5625.565159,919.314598
1365.124833,7476.080014,-5921.647536,995.924147
1365.125163,7328.038826,-6069.688724,229.828649
1365.125492,7031.956449,-6587.832884,766.095498
1365.125821,7328.038826,-7920.203579,1149.143247
1365.126150,7920.203579,-5847.626942,1685.410096
1365.126480,7846.182985,-5773.606348,1685.410096
1365.126809,6957.935855,-7031.956449,842.705048
1365.127138,5699.585753,-7550.100608,1072.533697
1365.127467,6143.709319,-7698.141797,1072.533697
1365.127797,7254.018232,-6143.709319,1072.533697
1365.128126,7550.100608,-3849.070898,995.924147
1365.128455,7994.224174,-3552.988522,153.219100
1365.128784,7550.100608,-4737.318029,536.266849
1365.129113,7698.141797,-6439.791695,1455.581446
1365.129443,8734.430116,-6365.771101,1532.190996
1365.129772,8364.327145,-6291.750507,1302.362347
1365.130101,6883.915261,-6513.812290,536.266849
