#time,accel_x,accel_y,accel_z
1354.336965,6587.832884,-6957.935855,842.705048
1354.337295,6513.812290,-6809.894666,766.095498
1354.337625,6809.894666,-6957.935855,306.438199
1354.337955,7105.977043,-6883.915261,842.705048
1354.338285,7328.038826,-6365.771101,919.314598
1354.338615,7179.997637,-6587.832884,919.314598
1354.338945,7179.997637,-6365.771101,1302.362347
1354.339275,7105.977043,-6587.832884,612.876398
1354.339605,6735.874072,-6883.915261,1072.533697
1354.339935,7031.956449,-6439.791695,1225.752797
1354.340265,7402.059420,-6143.709319,842.705048
1354.340595,7254.018232,-6217.729913,1838.629195
1354.340925,7105.977043,-6439.791695,1225.752797
1354.341255,7105.977043,-6365.771101,995.924147
1354.341585,6809.894666,-6217.729913,1455.581446
1354.341915,6661.853478,-6735.874072,842.705048
1354.342245,6661.853478,-6513.812290,689.485948
1354.342575,6587.832884,-6883.915261,995.924147
1354.342905,6735.874072,-7031.956449,1149.143247
1354.343235,6809.894666,-6735.874072,995.924147
1354.343565,6439.791695,-6217.729913,1762.019645
1354.343895,6809.894666,-6735.874072,1149.143247
1354.344225,6809.894666,-6883.915261,842.705048
1354.344555,6587.832884,-6809.894666,766.095498
1354.344885,6735.874072,-6735.874072,919.314598
1354.345215,7105.977043,-6365.771101,1532.190996
1354.345545,7254.018232,-6291.750507,1302.362347
1354.345875,7328.038826,-6365.771101,995.924147
1354.346205,7105.977043,-6513.812290,919.314598
1354.346535,7402.059420,-6661.853478,919.314598
1354.346865,7105.977043,-6439.791695,995.924147
1354.347195,6957.935855,-6365.771101,995.924147
1354.347525,7254.018232,-6069.688724,1149.143247
1354.347855,7179.997637,-5921.647536,1149.143247
1354.348185,7624.121203,-5551.544565,1608.800546
1354.348515,7179.997637,-6291.750507,1149.143247
1354.348845,7105.977043,-6143.709319,919.314598
1354.349175,6661.853478,-6439.791695,995.924147
1354.349505,6735.874072,-6513.812290,995.924147
1354.349835,6883.915261,-6513.812290,919.314598
1354.350165,6735.874072,-6957.935855,1149.143247
1354.350495,7031.956449,-6809.894666,995.924147
1354.350825,7105.977043,-6661.853478,1149.143247
1354.351155,6883.915261,-7105.977043,1225.752797
1354.351485,6957.935855,-6883.915261,842.705048
1354.351815,6735.874072,-7031.956449,842.705048
1354.352145,6809.894666,-6883.915261,842.705048
1354.352475,6957.935855,-6957.935855,689.485948
1354.352805,7105.977043,-6661.853478,689.485948
1354.353135,7105.977043,-6735.874072,1149.143247
1354.353465,7179.997637,-6735.874072,1072.533697
1354.353795,7105.977043,-6587.832884,919.314598
1354.354125,6587.832884,-6809.894666,842.705048
1354.354455,7105.977043,-6587.832884,1072.533697
1354.354785,7105.977043,-6291.750507,689.485948
1354.355115,7179.997637,-6439.791695,1149.143247
1354.355445,7254.018232,-6365.771101,1302.362347
1354.355775,7105.977043,-6143.709319,1915.238745
1354.356105,6883.915261,-6365.771101,995.924147
1354.356435,6883.915261,-6513.812290,1072.533697
1354.356765,6809.894666,-6365.771101,842.705048
1354.357095,7105.977043,-6365.771101,995.924147
1354.357425,6439.791695,-6661.853478,919.314598
1354.357755,6587.832884,-6587.832884,1072.533697
1354.358085,6735.874072,-6661.853478,1302.362347
1354.358415,7031.956449,-6661.853478,919.314598
1354.358745,7031.956449,-6735.874072,1149.143247
1354.359075,6957.935855,-7105.977043,842.705048
1354.359405,6735.874072,-6587.832884,842.705048
1354.359735,6809.894666,-7105.977043,1149.143247
1354.360065,7624.121203,-6883.915261,1225.752797
1354.360395,7476.080014,-6069.688724,1302.362347
1354.360725,7328.038826,-6439.791695,1072.533697
1354.361055,7179.997637,-6661.853478,1378.971896
1354.361385,7105.977043,-6661.853478,919.314598
1354.361715,6735.874072,-6809.894666,1455.581446
1354.362045,7105.977043,-5699.585753,1072.533697
1354.362375,7179.997637,-6143.709319,842.705048
1354.362705,7105.977043,-6365.771101,1225.752797
1354.363035,7105.977043,-6661.853478,1302.362347
1354.363365,7328.038826,-6069.688724,766.095498
1354.363695,6883.915261,-6587.832884,1072.533697
1354.364025,6809.894666,-6217.729913,1608.800546
1354.364354,6513.812290,-6143.709319,1149.143247
1354.364684,6735.874072,-6365.771101,1225.752797
1354.365014,6809.894666,-6735.874072,1225.752797
1354.365344,6809.894666,-6809.894666,1149.143247
1354.365674,6661.853478,-6809.894666,1378.971896
1354.366004,6513.812290,-6883.915261,1225.752797
1354.366334,6883.915261,-6661.853478,1149.143247
1354.366664,6439.791695,-6809.894666,995.924147
1354.366994,6735.874072,-6883.915261,766.095498
1354.367324,7105.977043,-6735.874072,919.314598
1354.367654,7550.100608,-6217.729913,1225.752797
1354.367984,7179.997637,-6291.750507,1072.533697
1354.368314,7105.977043,-6439.791695,1225.752797
1354.368644,7105.977043,-6513.812290,919.314598
1354.368974,6883.915261,-6513.812290,1149.143247
1354.369304,7179.997637,-6809.894666,1225.752797
1354.369634,7179.997637,-6439.791695,1225.752797
1354.369964,7105.977043,-6513.812290,919.314598
1354.370294,6735.874072,-6439.791695,1225.752797
1354.370624,6809.894666,-6365.771101,1149.143247
1354.370954,6883.915261,-5921.647536,689.485948
1354.371284,7031.956449,-6069.688724,1455.581446
1354.371614,6809.894666,-6513.812290,842.705048
1354.371944,7105.977043,-6587.832884,919.314598
1354.372274,7105.977043,-6587.832884,1149.143247
1354.372604,6883.915261,-6513.812290,1302.362347
1354.372934,7031.956449,-6513.812290,995.924147
1354.373264,6735.874072,-6661.853478,919.314598
1354.373594,6587.832884,-6957.935855,612.876398
1354.373924,6587.832884,-6809.894666,1072.533697
1354.374254,6661.853478,-7105.977043,842.705048
1354.374584,7105.977043,-6735.874072,919.314598
1354.374914,7105.977043,-6365.771101,919.314598
1354.375244,7179.997637,-6439.791695,1149.143247
1354.375574,7179.997637,-6661.853478,995.924147
1354.375904,7476.080014,-6439.791695,919.314598
1354.376234,7105.977043,-6587.832884,1072.533697
1354.376564,7031.956449,-6439.791695,1149.143247
1354.376894,7105.977043,-6217.729913,1762.019645
1354.377224,7624.121203,-6735.874072,1532.190996
1354.377554,7105.977043,-6143.709319,1225.752797
1354.377884,7105.977043,-6513.812290,1225.752797
1354.378214,6661.853478,-6587.832884,842.705048
1354.378544,6957.935855,-5773.606348,1149.143247
1354.378874,6513.812290,-6217.729913,995.924147
1354.379204,6587.832884,-6661.853478,1149.143247
1354.379534,6957.935855,-6735.874072,1455.581446
1354.379864,6513.812290,-6513.812290,1685.410096
1354.380194,6735.874072,-6809.894666,1149.143247
1354.380524,6735.874072,-6439.791695,1455.581446
1354.380854,6661.853478,-7105.977043,842.705048
1354.381184,6661.853478,-7179.997637,995.924147
1354.381514,6735.874072,-6291.750507,536.266849
1354.381844,6735.874072,-7105.977043,766.095498
1354.382174,7254.018232,-6587.832884,1149.143247
1354.382504,7179.997637,-6513.812290,1149.143247
1354.382834,7105.977043,-6735.874072,995.924147
1354.383164,7105.977043,-6587.832884,1302.362347
1354.383494,7031.956449,-6439.791695,995.924147
1354.383824,7031.956449,-6661.853478,1072.533697
1354.384154,7105.977043,-6735.874072,1072.533697
1354.384484,7328.038826,-6143.709319,536.266849
1354.384814,7105.977043,-6143.709319,1072.533697
1354.385144,6809.894666,-6513.812290,1072.533697
1354.385474,6957.935855,-6143.709319,1225.752797
1354.385804,6957.935855,-6513.812290,1225.752797
1354.386134,6513.812290,-6661.853478,1225.752797
1354.386464,6661.853478,-6439.791695,766.095498
1354.386794,6735.874072,-7031.956449,1149.143247
1354.387124,6883.915261,-6587.832884,919.314598
1354.387454,6809.894666,-6587.832884,612.876398
1354.387784,6809.894666,-6513.812290,1225.752797
1354.388114,6883.915261,-6587.832884,1072.533697
1354.388444,6587.832884,-7105.977043,766.095498
1354.388774,7105.977043,-6513.812290,919.314598
1354.389104,7402.059420,-6883.915261,1149.143247
1354.389434,7254.018232,-6587.832884,766.095498
1354.389764,7179.997637,-6439.791695,842.705048
1354.390094,7328.038826,-6587.832884,842.705048
1354.390424,7402.059420,-5921.647536,1149.143247
1354.390754,7920.203579,-6587.832884,842.705048
1354.391084,7179.997637,-6513.812290,689.485948
1354.391414,7179.997637,-6735.874072,995.924147
1354.391744,7105.977043,-6661.853478,766.095498
1354.392074,7105.977043,-6217.729913,1378.971896
1354.392404,7105.977043,-6291.750507,1302.362347
1354.392734,7105.977043,-6217.729913,1225.752797
1354.393064,7179.997637,-6217.729913,1149.143247
1354.393394,6883.915261,-6217.729913,1149.143247
1354.393724,6587.832884,-6365.771101,766.095498
1354.394054,6809.894666,-6587.832884,919.314598
1354.394384,6957.935855,-7105.977043,1302.362347
1354.394714,6809.894666,-6587.832884,1149.143247
1354.395044,6661.853478,-6513.812290,1149.143247
1354.395374,6735.874072,-7105.977043,995.924147
1354.395704,6735.874072,-7254.018232,995.924147
1354.396034,6513.812290,-6735.874072,919.314598
1354.396364,6365.771101,-7031.956449,995.924147
1354.396694,6513.812290,-6809.894666,1302.362347
1354.397024,7476.080014,-6291.750507,1225.752797
1354.397354,7105.977043,-6365.771101,1302.362347
1354.397684,6957.935855,-6217.729913,1225.752797
1354.398014,7031.956449,-6217.729913,1149.143247
1354.398344,6809.894666,-6661.853478,919.314598
1354.398674,6513.812290,-6661.853478,1149.143247
1354.399004,6957.935855,-6587.832884,1072.533697
1354.399334,7328.038826,-6661.853478,1149.143247
1354.399664,7254.018232,-6957.935855,459.657299
1354.399994,6957.935855,-6661.853478,1149.143247
1354.400324,6957.935855,-6661.853478,919.314598
1354.400654,7031.956449,-6587.832884,1149.143247
1354.400984,6513.812290,-6291.750507,766.095498
1354.401314,6883.915261,-6957.935855,1149.143247
1354.401644,6883.915261,-6439.791695,1225.752797
1354.401974,7031.956449,-6513.812290,1072.533697
1354.402303,6883.915261,-6661.853478,1225.752797
1354.402633,6957.935855,-6587.832884,1378.971896
1354.402963,6957.935855,-7105.977043,842.705048
1354.403292,6513.812290,-7179.997637,689.485948
1354.403622,6513.812290,-7254.018232,842.705048
1354.403952,6883.915261,-7105.977043,536.266849
1354.404281,7476.080014,-6217.729913,1532.190996
1354.404611,7328.038826,-6439.791695,1072.533697
1354.404940,7179.997637,-6587.832884,1149.143247
1354.405270,7254.018232,-6365.771101,1149.143247
1354.405600,7328.038826,-6661.853478,536.266849
1354.405929,7105.977043,-5773.606348,995.924147
1354.406259,7402.059420,-6291.750507,1072.533697
1354.406589,7624.121203,-5921.647536,1072.533697
1354.406918,7179.997637,-6143.709319,995.924147
1354.407248,7105.977043,-6587.832884,1072.533697
1354.407578,7328.038826,-6291.750507,919.314598
1354.407907,7031.956449,-6661.853478,919.314598
1354.408237,6957.935855,-6661.853478,842.705048
1354.408567,6735.874072,-6587.832884,842.705048
1354.408896,7105.977043,-6883.915261,766.095498
1354.409226,7105.977043,-6587.832884,1225.752797
1354.409555,6735.874072,-6365.771101,842.705048
1354.409885,6809.894666,-6513.812290,1225.752797
1354.410215,6439.791695,-6661.853478,842.705048
1354.410544,5995.668130,-6957.935855,842.705048
1354.410874,6587.832884,-6809.894666,995.924147
1354.411204,7031.956449,-7328.038826,842.705048
1354.411533,7254.018232,-6587.832884,1532.190996
1354.411863,7550.100608,-6661.853478,1149.143247
1354.412193,7402.059420,-6143.709319,995.924147
1354.412522,7254.018232,-6809.894666,1072.533697
1354.412852,7105.977043,-6735.874072,689.485948
1354.413182,6883.915261,-6513.812290,536.266849
1354.413511,6735.874072,-6069.688724,842.705048
1354.413841,7105.977043,-6439.791695,919.314598
1354.414170,7179.997637,-6365.771101,612.876398
1354.414500,6735.874072,-6291.750507,919.314598
1354.414830,7105.977043,-6587.832884,1072.533697
1354.415159,6587.832884,-6513.812290,1149.143247
1354.415489,6513.812290,-6439.791695,995.924147
1354.415819,6439.791695,-6513.812290,995.924147
1354.416148,6735.874072,-7031.956449,1378.971896
1354.416478,7031.956449,-6661.853478,536.266849
1354.416808,6957.935855,-6809.894666,1072.533697
1354.417137,6809.894666,-6439.791695,689.485948
1354.417467,7031.956449,-6587.832884,1072.533697
1354.417797,6957.935855,-6809.894666,766.095498
1354.418126,5773.606348,-6513.812290,689.485948
1354.418456,6661.853478,-6809.894666,766.095498
1354.418785,7105.977043,-6735.874072,919.314598
1354.419115,7328.038826,-6365.771101,766.095498
1354.419445,7105.977043,-5995.668130,1991.848295
1354.419774,7402.059420,-6661.853478,1149.143247
1354.420104,7254.018232,-6587.832884,766.095498
1354.420434,7031.956449,-6513.812290,766.095498
1354.420763,6883.915261,-6587.832884,919.314598
1354.421093,7772.162391,-6069.688724,842.705048
1354.421423,7550.100608,-6143.709319,1149.143247
1354.421752,7105.977043,-6439.791695,1378.971896
1354.422082,7105.977043,-6217.729913,995.924147
1354.422412,7105.977043,-6439.791695,1532.190996
1354.422741,6809.894666,-6143.709319,842.705048
1354.423071,6365.771101,-6809.894666,612.876398
1354.423400,6735.874072,-6809.894666,919.314598
1354.423730,7105.977043,-6883.915261,1302.362347
1354.424060,7179.997637,-6439.791695,1149.143247
1354.424389,6809.894666,-6661.853478,1149.143247
1354.424719,6735.874072,-6513.812290,995.924147
1354.425049,6809.894666,-7031.956449,612.876398
1354.425378,6439.791695,-6957.935855,1302.362347
1354.425708,6513.812290,-6809.894666,842.705048
1354.426038,7105.977043,-6809.894666,1072.533697
1354.426367,7254.018232,-6365.771101,1149.143247
1354.426697,7105.977043,-6439.791695,1072.533697
1354.427027,7179.997637,-6291.750507,1608.800546
1354.427356,7031.956449,-6513.812290,995.924147
1354.427686,6883.915261,-6809.894666,842.705048
1354.428015,6735.874072,-6439.791695,689.485948
1354.428345,6883.915261,-5847.626942,919.314598
1354.428675,7031.956449,-6069.688724,1149.143247
1354.429004,7105.977043,-6143.709319,1225.752797
1354.429334,6957.935855,-6587.832884,1302.362347
1354.429664,7105.977043,-6143.709319,995.924147
1354.429993,6883.915261,-6735.874072,1455.581446
1354.430323,6735.874072,-6513.812290,842.705048
1354.430653,6735.874072,-6661.853478,1225.752797
1354.430982,6957.935855,-7105.977043,1225.752797
1354.431312,7031.956449,-6883.915261,1149.143247
1354.431642,7105.977043,-6809.894666,919.314598
1354.431971,6661.853478,-6957.935855,1302.362347
1354.432301,6291.750507,-7105.977043,1072.533697
1354.432630,6587.832884,-6957.935855,766.095498
1354.432960,6143.709319,-6587.832884,1532.190996
1354.433290,7031.956449,-7624.121203,459.657299
1354.433619,7179.997637,-6439.791695,1378.971896
1354.433949,7328.038826,-6365.771101,1225.752797
1354.434279,7254.018232,-6513.812290,689.485948
1354.434608,7328.038826,-5625.565159,766.095498
1354.434938,6883.915261,-6587.832884,689.485948
1354.435268,7105.977043,-6587.832884,919.314598
1354.435597,7105.977043,-6217.729913,766.095498
1354.435927,7550.100608,-6217.729913,536.266849
1354.436257,7031.956449,-6291.750507,995.924147
1354.436586,7105.977043,-6291.750507,766.095498
1354.436916,7105.977043,-6365.771101,995.924147
1354.437245,7105.977043,-6365.771101,1149.143247
1354.437575,7105.977043,-6069.688724,536.266849
1354.437905,7031.956449,-6291.750507,766.095498
1354.438234,7105.977043,-6735.874072,1302.362347
1354.438564,7031.956449,-6587.832884,1225.752797
1354.438894,7105.977043,-6365.771101,919.314598
1354.439223,7031.956449,-6439.791695,1225.752797
1354.439553,6809.894666,-6883.915261,919.314598
1354.439883,6809.894666,-6883.915261,766.095498
1354.440212,7031.956449,-6365.771101,919.314598
1354.440542,6809.894666,-6661.853478,1072.533697
1354.440872,7105.977043,-6513.812290,766.095498
1354.441201,7328.038826,-6365.771101,1149.143247
1354.441531,7328.038826,-6587.832884,919.314598
1354.441861,7402.059420,-6661.853478,1072.533697
1354.442190,7105.977043,-6587.832884,919.314598
1354.442520,6957.935855,-6587.832884,689.485948
1354.442849,6809.894666,-6439.791695,919.314598
1354.443179,7254.018232,-6513.812290,842.705048
1354.443509,6809.894666,-6291.750507,1532.190996
1354.443838,7105.977043,-6957.935855,995.924147
1354.444168,6957.935855,-6439.791695,1455.581446
1354.444498,6587.832884,-6513.812290,1149.143247
1354.444827,6661.853478,-6735.874072,1149.143247
1354.445157,6365.771101,-6217.729913,536.266849
1354.445487,6661.853478,-6883.915261,1072.533697
1354.445816,6661.853478,-6883.915261,1455.581446
1354.446146,6809.894666,-6587.832884,1149.143247
1354.446476,6143.709319,-6587.832884,1149.143247
1354.446805,6143.709319,-6883.915261,689.485948
1354.447135,6365.771101,-7031.956449,842.705048
1354.447464,6291.750507,-7105.977043,919.314598
1354.447794,6217.729913,-7105.977043,1225.752797
1354.448124,7476.080014,-6809.894666,1608.800546
1354.448453,7105.977043,-6217.729913,1302.362347
1354.448783,7328.038826,-6291.750507,1225.752797
1354.449113,7254.018232,-6291.750507,1149.143247
1354.449442,7254.018232,-6735.874072,995.924147
1354.449772,7179.997637,-6587.832884,536.266849
1354.450102,6735.874072,-6513.812290,1072.533697
1354.450431,7254.018232,-6143.709319,766.095498
1354.450761,7254.018232,-6217.729913,919.314598
1354.451091,7402.059420,-5921.647536,1532.190996
1354.451420,7031.956449,-6291.750507,1302.362347
1354.451750,6957.935855,-6291.750507,919.314598
1354.452079,7105.977043,-5699.585753,919.314598
1354.452409,6957.935855,-5477.523971,919.314598
1354.452739,7550.100608,-5403.503377,766.095498
1354.453068,8290.306550,-5995.668130,1378.971896
1354.453398,8438.347739,-5921.647536,1455.581446
1354.453728,7254.018232,-6143.709319,842.705048
1354.454057,6291.750507,-7105.977043,383.047749
1354.454387,6069.688724,-8068.244768,-383.047749
1354.454717,6069.688724,-7254.018232,153.219100
1354.455046,7105.977043,-7179.997637,689.485948
1354.455376,7846.182985,-6513.812290,1149.143247
1354.455706,8734.430116,-4885.359217,2298.286494
1354.456035,9030.512492,-4071.132681,995.924147
1354.456365,8660.409521,-4293.194464,1149.143247
1354.456694,8216.285956,-4589.276840,1302.362347
1354.457024,8438.347739,-4367.215058,842.705048
1354.457354,8216.285956,-4441.235652,1072.533697
1354.457683,8586.388927,-4367.215058,919.314598
1354.458013,8438.347739,-5329.482782,612.876398
1354.458343,8512.368333,-4885.359217,1225.752797
1354.458672,8586.388927,-5255.462188,612.876398
1354.459002,8438.347739,-5995.668130,766.095498
1354.459332,8290.306550,-5625.565159,995.924147
1354.459661,7624.121203,-5699.585753,76.609550
1354.459991,7328.038826,-5699.585753,459.657299
1354.460321,7476.080014,-5033.400406,1532.190996
1354.460650,8512.368333,-4811.338623,995.924147
1354.460980,8808.450710,-4145.153275,1608.800546
1354.461309,8660.409521,-4293.194464,1915.238745
1354.461639,9474.636058,-3404.947333,1455.581446
1354.461969,9252.574275,-3478.967927,1685.410096
1354.462298,8882.471304,-3552.988522,1072.533697
1354.462628,9326.594869,-3182.885551,919.314598
1354.462958,9622.677246,-3849.070898,1149.143247
1354.463287,9844.739029,-3108.864956,1762.019645
1354.463617,9770.718434,-4367.215058,1455.581446
1354.463947,9770.718434,-4589.276840,1455.581446
1354.464276,9326.594869,-5255.462188,1225.752797
1354.464606,8068.244768,-6217.729913,1149.143247
1354.464936,7772.162391,-4589.276840,229.828649
1354.465265,7476.080014,-6365.771101,612.876398
1354.465595,7994.224174,-5255.462188,1225.752797
1354.465924,8216.285956,-5255.462188,1149.143247
1354.466254,8438.347739,-4737.318029,1608.800546
1354.466584,8660.409521,-4145.153275,536.266849
1354.466913,8290.306550,-5255.462188,459.657299
1354.467243,8142.265362,-4145.153275,229.828649
1354.467573,8512.368333,-4737.318029,153.219100
1354.467902,10362.883188,-4293.194464,153.219100
1354.468232,10584.944971,-3478.967927,612.876398
1354.468562,10510.924376,-4663.297435,1685.410096
1354.468891,9992.780217,-3701.029710,995.924147
1354.469221,9474.636058,-4219.173869,306.438199
1354.469551,9178.553681,-4589.276840,689.485948
1354.469880,8586.388927,-5033.400406,1149.143247
1354.470210,8660.409521,-5255.462188,1532.190996
1354.470539,8734.430116,-3997.112087,1455.581446
1354.470869,8808.450710,-4811.338623,1532.190996
1354.471199,9696.697840,-4145.153275,1838.629195
1354.471528,9474.636058,-3849.070898,2145.067394
1354.471858,9104.533087,-3404.947333,995.924147
1354.472188,8808.450710,-3108.864956,689.485948
1354.472517,8808.450710,-3182.885551,919.314598
1354.472847,9696.697840,-3552.988522,612.876398
1354.473177,9622.677246,-3478.967927,536.266849
1354.473506,9696.697840,-3701.029710,0.000000
1354.473836,9178.553681,-4589.276840,383.047749
1354.474166,8808.450710,-5403.503377,229.828649
1354.474495,8364.327145,-5773.606348,459.657299
1354.474825,7772.162391,-6883.915261,766.095498
1354.475154,7920.203579,-6957.935855,1072.533697
1354.475484,8956.491898,-6439.791695,1072.533697
1354.475814,8216.285956,-5921.647536,1838.629195
1354.476143,8586.388927,-5255.462188,2374.896044
1354.476473,9104.533087,-4515.256246,2298.286494
1354.476803,8734.430116,-2368.659014,1455.581446
1354.477132,9252.574275,-1036.288319,995.924147
1354.477462,10140.821405,-1776.494261,689.485948
1354.477792,10436.903782,-1776.494261,383.047749
1354.478121,10584.944971,-2146.597232,0.000000
1354.478451,10584.944971,-3034.844362,-229.828649
1354.478781,10362.883188,-4071.132681,536.266849
1354.479110,9844.739029,-6069.688724,536.266849
1354.479440,8956.491898,-7476.080014,689.485948
1354.479769,7402.059420,-8586.388927,459.657299
1354.480099,6809.894666,-8068.244768,1455.581446
1354.480429,6661.853478,-8364.327145,306.438199
1354.480758,6735.874072,-7254.018232,842.705048
1354.481088,7105.977043,-5699.585753,919.314598
1354.481418,7994.224174,-4441.235652,612.876398
1354.481747,8512.368333,-3256.906145,1532.190996
1354.482077,9252.574275,-2368.659014,1685.410096
1354.482407,9918.759623,-1184.329507,1455.581446
1354.482736,10584.944971,-444.123565,1149.143247
1354.483066,11473.192101,-740.205942,919.314598
1354.483396,12287.418637,-592.164754,1225.752797
1354.483725,12879.583391,-1258.350101,1072.533697
1354.484055,12731.542202,-2368.659014,1455.581446
1354.484384,11399.171507,-2960.823768,2374.896044
1354.484714,9770.718434,-5921.647536,1149.143247
1354.485044,7698.141797,-8142.265362,1532.190996
1354.485373,5995.668130,-9252.574275,1072.533697
1354.485703,4441.235652,-9548.656652,-689.485948
1354.486033,2960.823768,-8364.327145,-766.095498
1354.486362,4219.173869,-7624.121203,-1072.533697
1354.486692,6661.853478,-7698.141797,0.000000
1354.487022,8142.265362,-5551.544565,995.924147
1354.487351,9992.780217,-3701.029710,2068.457845
1354.487681,11325.150913,-962.267725,1838.629195
1354.488011,11399.171507,-666.185348,1685.410096
1354.488340,11103.089130,-592.164754,1455.581446
1354.488670,11473.192101,-666.185348,995.924147
1354.488999,11251.130318,-1184.329507,1302.362347
1354.489329,11843.295072,-2368.659014,1302.362347
1354.489659,11917.315666,-4145.153275,2374.896044
1354.489988,11251.130318,-5107.421000,2528.115143
1354.490318,8660.409521,-5107.421000,1685.410096
1354.490648,6513.812290,-6883.915261,995.924147
1354.490977,4737.318029,-8290.306550,0.000000
1354.491307,3627.009116,-9252.574275,0.000000
1354.491637,3108.864956,-8512.368333,-612.876398
1354.491966,4293.194464,-8290.306550,-995.924147
1354.492296,6365.771101,-6365.771101,-459.657299
1354.492626,9326.594869,-3775.050304,383.047749
1354.492955,10955.047942,-3997.112087,995.924147
1354.493285,11917.315666,-3701.029710,2068.457845
1354.493614,11177.109724,-3404.947333,2221.676944
1354.493944,10140.821405,-3330.926739,1149.143247
1354.494274,8586.388927,-4737.318029,1225.752797
1354.494603,7772.162391,-5921.647536,766.095498
1354.494933,7550.100608,-7698.141797,766.095498
1354.495263,7476.080014,-9030.512492,1072.533697
1354.495592,6513.812290,-9030.512492,2145.067394
1354.495922,6217.729913,-7698.141797,842.705048
1354.496252,5255.462188,-6143.709319,0.000000
1354.496581,4219.173869,-4737.318029,-459.657299
1354.496911,5847.626942,-5847.626942,0.000000
1354.497241,7624.121203,-5033.400406,995.924147
1354.497570,8808.450710,-4515.256246,1685.410096
1354.497900,8660.409521,-4737.318029,1608.800546
1354.498229,8734.430116,-3701.029710,612.876398
1354.498559,7846.182985,-6365.771101,76.609550
1354.498889,7624.121203,-7254.018232,1302.362347
1354.499218,7920.203579,-8290.306550,1685.410096
1354.499548,7772.162391,-7846.182985,1991.848295
1354.499878,6217.729913,-6439.791695,306.438199
1354.500207,5181.441594,-7179.997637,306.438199
1354.500537,5699.585753,-6735.874072,0.000000
1354.500867,6809.894666,-6883.915261,1149.143247
1354.501196,7105.977043,-6809.894666,2068.457845
1354.501526,7402.059420,-5477.523971,2987.772442
1354.501856,6809.894666,-4515.256246,1149.143247
1354.502185,6143.709319,-4885.359217,1072.533697
1354.502515,6439.791695,-5477.523971,1608.800546
1354.502844,6661.853478,-6513.812290,2068.457845
1354.503174,6661.853478,-6217.729913,2221.676944
1354.503504,6291.750507,-5699.585753,1532.190996
1354.503833,6883.915261,-4071.132681,229.828649
1354.504163,7105.977043,-5477.523971,153.219100
1354.504492,7846.182985,-8808.450710,2528.115143
1354.504822,8216.285956,-9474.636058,2681.334243
1354.505151,7994.224174,-7402.059420,2528.115143
1354.505481,6735.874072,-5625.565159,1532.190996
1354.505810,6143.709319,-5477.523971,0.000000
1354.506139,5699.585753,-5995.668130,0.000000
1354.506469,5773.606348,-7846.182985,919.314598
1354.506798,6957.935855,-6957.935855,919.314598
1354.507128,7105.977043,-4885.359217,1685.410096
1354.507457,6809.894666,-4589.276840,1149.143247
1354.507786,7031.956449,-5477.523971,0.000000
1354.508116,7328.038826,-7105.977043,459.657299
1354.508445,8512.368333,-8290.306550,1225.752797
1354.508774,8882.471304,-7846.182985,1762.019645
1354.509104,8364.327145,-6587.832884,1685.410096
1354.509433,6513.812290,-7698.141797,383.047749
1354.509763,5107.421000,-9104.533087,459.657299
1354.510092,4441.235652,-9992.780217,0.000000
1354.510421,5625.565159,-10140.821405,536.266849
1354.510751,5773.606348,-6291.750507,1302.362347
1354.511080,7105.977043,-4219.173869,689.485948
1354.511409,7698.141797,-2590.720797,689.485948
1354.511739,7994.224174,-3923.091493,919.314598
1354.512068,8216.285956,-5477.523971,1532.190996
1354.512398,8512.368333,-3701.029710,1532.190996
1354.512727,8216.285956,-4441.235652,995.924147
1354.513056,8364.327145,-3923.091493,919.314598
1354.513386,7550.100608,-7328.038826,842.705048
1354.513715,7328.038826,-9252.574275,1072.533697
1354.514045,7031.956449,-9474.636058,1225.752797
1354.514374,6513.812290,-8290.306550,1149.143247
1354.514703,6069.688724,-5255.462188,689.485948
1354.515033,6365.771101,-6069.688724,76.609550
1354.515362,6587.832884,-6661.853478,689.485948
1354.515691,7105.977043,-6439.791695,919.314598
1354.516021,7031.956449,-6439.791695,1378.971896
1354.516350,6957.935855,-3330.926739,1532.190996
1354.516680,6957.935855,-4885.359217,383.047749
1354.517009,7031.956449,-6143.709319,766.095498
1354.517338,6809.894666,-8512.368333,1072.533697
1354.517668,7402.059420,-9400.615463,1608.800546
1354.517997,7402.059420,-6661.853478,612.876398
1354.518326,7476.080014,-5995.668130,76.609550
1354.518656,7031.956449,-5921.647536,383.047749
1354.518985,6365.771101,-8438.347739,612.876398
1354.519315,6365.771101,-9548.656652,1608.800546
1354.519644,6365.771101,-8586.388927,1455.581446
1354.519973,6143.709319,-6587.832884,1225.752797
1354.520303,6291.750507,-5551.544565,995.924147
1354.520632,6217.729913,-5995.668130,995.924147
1354.520962,6069.688724,-6735.874072,2068.457845
1354.521291,6365.771101,-6587.832884,1455.581446
1354.521620,6809.894666,-5329.482782,689.485948
1354.521950,7624.121203,-3552.988522,919.314598
1354.522279,8438.347739,-4293.194464,1149.143247
1354.522608,9548.656652,-5329.482782,1762.019645
1354.522938,9030.512492,-7254.018232,1608.800546
1354.523267,7550.100608,-8364.327145,1838.629195
1354.523597,6735.874072,-7105.977043,612.876398
1354.523926,5995.668130,-6291.750507,153.219100
1354.524255,5625.565159,-7994.224174,689.485948
1354.524585,5847.626942,-9400.615463,1225.752797
1354.524914,5847.626942,-9252.574275,1608.800546
1354.525243,5477.523971,-7105.977043,1225.752797
1354.525573,5921.647536,-4145.153275,689.485948
1354.525902,6735.874072,-3552.988522,306.438199
1354.526232,7550.100608,-4959.379811,766.095498
1354.526561,8216.285956,-6587.832884,2145.067394
1354.526890,9030.512492,-6735.874072,1915.238745
1354.527220,8068.244768,-5255.462188,1378.971896
1354.527549,7105.977043,-4737.318029,383.047749
1354.527879,6735.874072,-6661.853478,383.047749
1354.528208,6883.915261,-8882.471304,1455.581446
1354.528537,7105.977043,-9400.615463,1762.019645
1354.528867,6735.874072,-8364.327145,1302.362347
1354.529196,5921.647536,-5477.523971,459.657299
1354.529525,5847.626942,-4737.318029,-306.438199
1354.529855,5699.585753,-6661.853478,0.000000
1354.530184,6735.874072,-7179.997637,1378.971896
1354.530514,7328.038826,-7105.977043,1378.971896
1354.530843,7550.100608,-4959.379811,1072.533697
1354.531172,7105.977043,-4737.318029,306.438199
1354.531502,7920.203579,-5403.503377,76.609550
1354.531831,8068.244768,-7476.080014,995.924147
1354.532161,8068.244768,-8290.306550,1378.971896
1354.532490,7772.162391,-6291.750507,1762.019645
1354.532819,7328.038826,-4737.318029,919.314598
1354.533149,7772.162391,-4293.194464,459.657299
1354.533478,7254.018232,-5921.647536,689.485948
1354.533807,7105.977043,-7920.203579,1378.971896
1354.534137,6587.832884,-7994.224174,1302.362347
1354.534466,5995.668130,-6439.791695,995.924147
1354.534796,5329.482782,-5551.544565,153.219100
1354.535125,5329.482782,-6365.771101,153.219100
1354.535454,5921.647536,-8290.306550,383.047749
1354.535784,6217.729913,-9178.553681,1225.752797
1354.536113,6587.832884,-7772.162391,919.314598
1354.536442,6661.853478,-5995.668130,0.000000
1354.536772,7105.977043,-4737.318029,0.000000
1354.537101,7920.203579,-6069.688724,689.485948
1354.537431,8808.450710,-6735.874072,1991.848295
1354.537760,8586.388927,-7105.977043,2528.115143
1354.538089,8142.265362,-6069.688724,1685.410096
1354.538419,7179.997637,-4885.359217,153.219100
1354.538748,5847.626942,-6883.915261,383.047749
1354.539078,5329.482782,-7994.224174,1225.752797
1354.539407,5329.482782,-8956.491898,1378.971896
1354.539736,5403.503377,-7920.203579,1838.629195
1354.540066,6365.771101,-5107.421000,1149.143247
1354.540395,7476.080014,-3108.864956,766.095498
1354.540724,7698.141797,-4441.235652,1072.533697
1354.541054,7920.203579,-7031.956449,2451.505594
1354.541383,8290.306550,-6809.894666,2451.505594
1354.541713,7920.203579,-5329.482782,1302.362347
1354.542042,7550.100608,-3923.091493,919.314598
1354.542371,6661.853478,-6291.750507,766.095498
1354.542701,6587.832884,-9104.533087,1685.410096
1354.543030,6291.750507,-9770.718434,1685.410096
1354.543359,6069.688724,-7920.203579,1072.533697
1354.543689,6365.771101,-5033.400406,459.657299
1354.544018,6291.750507,-4959.379811,536.266849
1354.544348,7476.080014,-6587.832884,842.705048
1354.544677,7179.997637,-7402.059420,1302.362347
1354.545006,7105.977043,-7031.956449,1762.019645
1354.545336,6957.935855,-6143.709319,459.657299
1354.545665,6513.812290,-5477.523971,459.657299
1354.545995,6661.853478,-6661.853478,229.828649
1354.546324,6365.771101,-8660.409521,1149.143247
1354.546653,6439.791695,-9326.594869,1378.971896
1354.546983,6957.935855,-7328.038826,1455.581446
1354.547312,7105.977043,-5255.462188,536.266849
1354.547641,7105.977043,-4663.297435,612.876398
1354.547971,7105.977043,-5107.421000,383.047749
1354.548300,7624.121203,-7179.997637,2221.676944
1354.548630,7328.038826,-7179.997637,2068.457845
1354.548959,7550.100608,-5033.400406,1378.971896
1354.549288,6957.935855,-3923.091493,383.047749
1354.549618,6513.812290,-5477.523971,536.266849
1354.549947,6291.750507,-8068.244768,612.876398
1354.550277,6365.771101,-8660.409521,689.485948
1354.550606,6291.750507,-7994.224174,766.095498
1354.550935,7328.038826,-4589.276840,153.219100
1354.551265,7920.203579,-5107.421000,383.047749
1354.551594,8364.327145,-6587.832884,766.095498
1354.551923,8586.388927,-6883.915261,1838.629195
1354.552253,8438.347739,-6883.915261,1532.190996
1354.552582,6883.915261,-5921.647536,1225.752797
1354.552912,6217.729913,-5033.400406,76.609550
1354.553241,5625.565159,-6365.771101,0.000000
1354.553570,6069.688724,-8364.327145,995.924147
1354.553900,6439.791695,-8660.409521,1532.190996
1354.554229,7031.956449,-7550.100608,1685.410096
1354.554558,6957.935855,-6069.688724,995.924147
1354.554888,7328.038826,-4515.256246,612.876398
1354.555217,7402.059420,-5551.544565,153.219100
1354.555547,7772.162391,-6587.832884,689.485948
1354.555876,7328.038826,-7254.018232,1302.362347
1354.556205,7328.038826,-7031.956449,919.314598
1354.556535,7031.956449,-5329.482782,229.828649
1354.556864,6439.791695,-6217.729913,1149.143247
1354.557194,6291.750507,-8290.306550,1302.362347
1354.557523,6439.791695,-9474.636058,1685.410096
1354.557852,5773.606348,-8142.265362,1225.752797
1354.558182,5625.565159,-6069.688724,76.609550
1354.558511,6365.771101,-4589.276840,229.828649
1354.558840,8068.244768,-4959.379811,995.924147
1354.559170,8586.388927,-6513.812290,1762.019645
1354.559499,9030.512492,-6883.915261,2528.115143
1354.559829,8216.285956,-5625.565159,1762.019645
1354.560158,6883.915261,-4663.297435,306.438199
1354.560487,5995.668130,-6661.853478,0.000000
1354.560817,5773.606348,-8808.450710,536.266849
1354.561146,5551.544565,-9696.697840,1072.533697
1354.561475,5403.503377,-8660.409521,919.314598
1354.561805,6365.771101,-5921.647536,1072.533697
1354.562134,7031.956449,-5181.441594,612.876398
1354.562464,7624.121203,-5699.585753,766.095498
1354.562793,7920.203579,-6439.791695,2068.457845
1354.563122,8216.285956,-6809.894666,2681.334243
1354.563452,7624.121203,-5625.565159,2221.676944
1354.563781,7105.977043,-3256.906145,1378.971896
1354.564111,7105.977043,-4145.153275,1072.533697
1354.564440,7772.162391,-5921.647536,1149.143247
1354.564769,7254.018232,-7994.224174,1991.848295
1354.565099,6513.812290,-7550.100608,1225.752797
1354.565428,6143.709319,-6069.688724,306.438199
1354.565757,6513.812290,-4885.359217,383.047749
1354.566087,7328.038826,-5921.647536,306.438199
1354.566416,7328.038826,-7994.224174,1455.581446
1354.566746,7179.997637,-8438.347739,1991.848295
1354.567075,6513.812290,-7328.038826,919.314598
1354.567404,5625.565159,-5995.668130,459.657299
1354.567734,5847.626942,-6513.812290,459.657299
1354.568063,6291.750507,-8290.306550,689.485948
1354.568392,7105.977043,-8956.491898,1455.581446
1354.568722,6957.935855,-8290.306550,2145.067394
1354.569051,7328.038826,-5699.585753,1149.143247
1354.569381,7624.121203,-3330.926739,1302.362347
1354.569710,7550.100608,-5033.400406,536.266849
1354.570039,7994.224174,-6365.771101,766.095498
1354.570369,8216.285956,-7402.059420,1608.800546
1354.570698,7105.977043,-7031.956449,1608.800546
1354.571028,6439.791695,-5551.544565,153.219100
1354.571357,6735.874072,-5699.585753,306.438199
1354.571686,6439.791695,-7550.100608,536.266849
1354.572016,6365.771101,-8660.409521,995.924147
1354.572345,6069.688724,-8068.244768,1762.019645
1354.572674,6291.750507,-6809.894666,536.266849
1354.573004,7105.977043,-4663.297435,459.657299
1354.573333,8216.285956,-4367.215058,995.924147
1354.573663,8956.491898,-6291.750507,1685.410096
1354.573992,8882.471304,-7031.956449,2374.896044
1354.574321,7772.162391,-6661.853478,1455.581446
1354.574651,6883.915261,-5107.421000,689.485948
1354.574980,6217.729913,-5625.565159,229.828649
1354.575310,5921.647536,-8512.368333,383.047749
1354.575639,5625.565159,-9326.594869,766.095498
1354.575968,5181.441594,-9474.636058,689.485948
1354.576298,5921.647536,-6143.709319,459.657299
1354.576627,6439.791695,-5033.400406,689.485948
1354.576956,7550.100608,-4811.338623,1072.533697
1354.577286,7772.162391,-5995.668130,995.924147
1354.577615,7476.080014,-7550.100608,2068.457845
1354.577945,7105.977043,-6587.832884,1762.019645
1354.578274,7476.080014,-4737.318029,459.657299
1354.578603,7550.100608,-4589.276840,1455.581446
1354.578933,7476.080014,-6291.750507,1225.752797
1354.579262,7476.080014,-7772.162391,1378.971896
1354.579591,6735.874072,-7846.182985,1532.190996
1354.579921,6809.894666,-6661.853478,536.266849
1354.580250,6513.812290,-4441.235652,383.047749
1354.580580,7179.997637,-4589.276840,306.438199
1354.580909,7994.224174,-6513.812290,919.314598
1354.581238,7846.182985,-7920.203579,2298.286494
1354.581568,7476.080014,-7179.997637,1532.190996
1354.581897,6365.771101,-5107.421000,995.924147
1354.582227,6365.771101,-5847.626942,383.047749
1354.582556,5699.585753,-8068.244768,306.438199
1354.582885,5033.400406,-9548.656652,1072.533697
1354.583215,5551.544565,-9178.553681,1378.971896
1354.583544,6735.874072,-5773.606348,766.095498
1354.583873,7772.162391,-4441.235652,1302.362347
1354.584203,8660.409521,-4293.194464,1838.629195
1354.584532,8586.388927,-5033.400406,1225.752797
1354.584862,7698.141797,-6365.771101,1762.019645
1354.585191,7254.018232,-5107.421000,1762.019645
1354.585520,7550.100608,-5255.462188,1225.752797
1354.585850,8216.285956,-4885.359217,995.924147
1354.586179,7105.977043,-6291.750507,1455.581446
1354.586508,6957.935855,-8586.388927,1455.581446
1354.586838,6365.771101,-8438.347739,1532.190996
1354.587167,5403.503377,-7772.162391,1302.362347
1354.587497,5477.523971,-6143.709319,76.609550
1354.587826,5847.626942,-4811.338623,229.828649
1354.588155,6513.812290,-7772.162391,459.657299
1354.588485,7402.059420,-8808.450710,1915.238745
1354.588814,7920.203579,-7624.121203,1991.848295
1354.589144,7105.977043,-5995.668130,1302.362347
1354.589473,6217.729913,-5255.462188,-306.438199
1354.589802,5255.462188,-6883.915261,-229.828649
1354.590132,5921.647536,-9400.615463,536.266849
1354.590461,6365.771101,-9400.615463,1225.752797
1354.590790,7105.977043,-6439.791695,919.314598
1354.591120,7550.100608,-4737.318029,76.609550
1354.591449,8068.244768,-4959.379811,689.485948
1354.591779,7920.203579,-6809.894666,1455.581446
1354.592108,7105.977043,-7328.038826,1378.971896
1354.592437,6661.853478,-6365.771101,1149.143247
1354.592767,6365.771101,-4885.359217,459.657299
1354.593096,6587.832884,-4811.338623,689.485948
1354.593426,7179.997637,-6143.709319,612.876398
1354.593755,7105.977043,-7550.100608,1072.533697
1354.594084,6735.874072,-7476.080014,1149.143247
1354.594414,6957.935855,-6735.874072,1149.143247
1354.594743,7550.100608,-5181.441594,689.485948
1354.595072,8438.347739,-5033.400406,1149.143247
1354.595402,7772.162391,-6439.791695,766.095498
1354.595731,7179.997637,-7994.224174,1378.971896
1354.596061,7179.997637,-7254.018232,1838.629195
1354.596390,7105.977043,-5773.606348,842.705048
1354.596719,6439.791695,-5921.647536,0.000000
1354.597049,5551.544565,-7105.977043,76.609550
1354.597378,5329.482782,-9326.594869,229.828649
1354.597707,5181.441594,-9178.553681,1225.752797
1354.598037,5847.626942,-7031.956449,1302.362347
1354.598366,7179.997637,-4959.379811,842.705048
1354.598696,7698.141797,-3923.091493,612.876398
1354.599025,7550.100608,-5477.523971,459.657299
1354.599354,8586.388927,-6809.894666,1608.800546
1354.599684,8142.265362,-6069.688724,2451.505594
1354.600013,8216.285956,-4959.379811,1455.581446
1354.600343,7698.141797,-4219.173869,919.314598
1354.600672,7105.977043,-5921.647536,612.876398
1354.601001,7031.956449,-7920.203579,1149.143247
1354.601331,6513.812290,-9178.553681,1608.800546
1354.601660,6439.791695,-6883.915261,1225.752797
1354.601989,6439.791695,-4885.359217,306.438199
1354.602319,6587.832884,-4811.338623,229.828649
1354.602648,7254.018232,-5995.668130,842.705048
1354.602978,7328.038826,-7772.162391,1608.800546
1354.603307,7254.018232,-7550.100608,1608.800546
1354.603636,7031.956449,-5995.668130,842.705048
1354.603965,6735.874072,-4885.359217,0.000000
1354.604294,7031.956449,-6661.853478,459.657299
1354.604624,6735.874072,-9474.636058,995.924147
1354.604953,6217.729913,-9844.739029,1685.410096
1354.605282,6291.750507,-8068.244768,1302.362347
1354.605611,7105.977043,-5477.523971,459.657299
1354.605940,6883.915261,-4885.359217,76.609550
1354.606270,7105.977043,-6439.791695,842.705048
1354.606599,6809.894666,-7624.121203,842.705048
1354.606928,5847.626942,-7179.997637,1762.019645
1354.607257,6809.894666,-5107.421000,842.705048
1354.607587,7179.997637,-4145.153275,766.095498
1354.607916,7179.997637,-5773.606348,1225.752797
1354.608245,7328.038826,-7550.100608,1685.410096
1354.608574,7920.203579,-8290.306550,1915.238745
1354.608903,7179.997637,-6957.935855,1838.629195
1354.609233,7031.956449,-5255.462188,766.095498
1354.609562,6957.935855,-4885.359217,0.000000
1354.609891,7105.977043,-6587.832884,612.876398
1354.610220,7105.977043,-8734.430116,1455.581446
1354.610549,7105.977043,-7994.224174,1762.019645
1354.610879,6809.894666,-7105.977043,1149.143247
1354.611208,6069.688724,-5921.647536,76.609550
1354.611537,5181.441594,-6439.791695,383.047749
1354.611866,5995.668130,-8438.347739,842.705048
1354.612196,6217.729913,-9400.615463,1685.410096
1354.612525,6735.874072,-7105.977043,1685.410096
1354.612854,7254.018232,-4367.215058,1072.533697
1354.613183,8364.327145,-3182.885551,1072.533697
1354.613512,8882.471304,-5329.482782,1762.019645
1354.613842,7698.141797,-6809.894666,1608.800546
1354.614171,6809.894666,-7031.956449,1455.581446
1354.614500,7031.956449,-5329.482782,1838.629195
1354.614829,6883.915261,-4663.297435,459.657299
1354.615158,5847.626942,-6439.791695,919.314598
1354.615488,6143.709319,-7402.059420,1455.581446
1354.615817,6439.791695,-8290.306550,1225.752797
1354.616146,7105.977043,-6439.791695,919.314598
1354.616475,6661.853478,-5107.421000,1378.971896
1354.616804,7476.080014,-4811.338623,612.876398
1354.617134,7402.059420,-5403.503377,842.705048
1354.617463,6735.874072,-7179.997637,1149.143247
1354.617792,7550.100608,-7179.997637,1915.238745
1354.618121,7920.203579,-5625.565159,1532.190996
1354.618451,7105.977043,-6365.771101,536.266849
1354.618780,6587.832884,-6365.771101,612.876398
1354.619109,6513.812290,-7994.224174,459.657299
1354.619438,6661.853478,-9770.718434,1532.190996
1354.619767,6513.812290,-8438.347739,1762.019645
1354.620097,5995.668130,-6217.729913,689.485948
1354.620426,6809.894666,-5181.441594,0.000000
1354.620755,7328.038826,-5477.523971,306.438199
1354.621084,7476.080014,-6957.935855,919.314598
1354.621413,7402.059420,-6587.832884,1302.362347
1354.621743,7550.100608,-5403.503377,2068.457845
1354.622072,7402.059420,-4589.276840,995.924147
1354.622401,7105.977043,-5403.503377,1302.362347
1354.622730,6957.935855,-7402.059420,1608.800546
1354.623059,6661.853478,-7846.182985,1455.581446
1354.623389,6365.771101,-7105.977043,1149.143247
1354.623718,6735.874072,-4959.379811,842.705048
1354.624047,7476.080014,-4737.318029,383.047749
1354.624376,8438.347739,-6587.832884,995.924147
1354.624706,7402.059420,-7550.100608,1149.143247
1354.625035,7105.977043,-8216.285956,1762.019645
1354.625364,7254.018232,-7105.977043,1149.143247
1354.625693,6587.832884,-6365.771101,153.219100
1354.626022,5995.668130,-7328.038826,229.828649
1354.626352,5921.647536,-8068.244768,612.876398
1354.626681,5847.626942,-9030.512492,842.705048
1354.627010,5921.647536,-7772.162391,1072.533697
1354.627339,6365.771101,-5921.647536,766.095498
1354.627668,6883.915261,-4811.338623,842.705048
1354.627998,7328.038826,-5625.565159,689.485948
1354.628327,6735.874072,-6661.853478,919.314598
1354.628656,6439.791695,-7105.977043,1302.362347
1354.628985,7179.997637,-6439.791695,1378.971896
1354.629315,7698.141797,-5921.647536,766.095498
1354.629644,7254.018232,-5551.544565,536.266849
1354.629973,6809.894666,-7105.977043,995.924147
1354.630302,7105.977043,-8660.409521,1532.190996
1354.630631,6809.894666,-7105.977043,1302.362347
1354.630961,6365.771101,-5477.523971,689.485948
1354.631290,6661.853478,-3923.091493,76.609550
1354.631619,7550.100608,-5329.482782,383.047749
1354.631948,7624.121203,-6513.812290,1532.190996
1354.632277,7550.100608,-7031.956449,2145.067394
1354.632607,8216.285956,-5551.544565,1302.362347
1354.632936,7846.182985,-4515.256246,689.485948
1354.633265,6957.935855,-5921.647536,459.657299
1354.633594,6143.709319,-7624.121203,612.876398
1354.633923,5921.647536,-9104.533087,459.657299
1354.634253,6291.750507,-8808.450710,1302.362347
1354.634582,6957.935855,-6291.750507,689.485948
1354.634911,7328.038826,-5329.482782,383.047749
1354.635240,7328.038826,-6069.688724,766.095498
1354.635570,7476.080014,-6513.812290,842.705048
1354.635899,7105.977043,-6513.812290,1532.190996
1354.636228,7105.977043,-5921.647536,1225.752797
1354.636557,7402.059420,-5033.400406,842.705048
1354.636886,7105.977043,-5477.523971,536.266849
1354.637216,6587.832884,-6735.874072,1072.533697
1354.637545,6735.874072,-8586.388927,1915.238745
1354.637874,7402.059420,-7179.997637,1915.238745
1354.638203,7328.038826,-4885.359217,1378.971896
1354.638532,7105.977043,-4737.318029,306.438199
1354.638862,7550.100608,-5995.668130,153.219100
1354.639191,7550.100608,-7105.977043,1225.752797
1354.639520,7328.038826,-8734.430116,1455.581446
1354.639849,7105.977043,-7550.100608,1532.190996
1354.640178,6809.894666,-5995.668130,459.657299
1354.640508,6069.688724,-6883.915261,153.219100
1354.640837,5625.565159,-8808.450710,689.485948
1354.641166,5921.647536,-9474.636058,1225.752797
1354.641495,6217.729913,-8290.306550,1149.143247
1354.641825,5699.585753,-6661.853478,1072.533697
1354.642154,5773.606348,-4515.256246,153.219100
1354.642483,7402.059420,-5033.400406,995.924147
1354.642812,8586.388927,-6735.874072,1532.190996
1354.643141,8364.327145,-6735.874072,1762.019645
1354.643471,8438.347739,-5181.441594,1455.581446
1354.643800,7920.203579,-4885.359217,1225.752797
1354.644129,6661.853478,-5625.565159,612.876398
1354.644458,5625.565159,-7550.100608,1072.533697
1354.644787,6217.729913,-8808.450710,1455.581446
1354.645117,6735.874072,-7846.182985,919.314598
1354.645446,6143.709319,-6661.853478,995.924147
1354.645775,5995.668130,-5699.585753,459.657299
1354.646104,6661.853478,-5255.462188,383.047749
1354.646434,7476.080014,-6217.729913,1838.629195
1354.646763,7920.203579,-7105.977043,1915.238745
1354.647092,7920.203579,-5773.606348,2298.286494
1354.647421,7402.059420,-4441.235652,995.924147
1354.647750,6735.874072,-5033.400406,76.609550
1354.648080,6809.894666,-6735.874072,1302.362347
1354.648409,7105.977043,-9178.553681,1302.362347
1354.648738,7105.977043,-9030.512492,2068.457845
1354.649067,6957.935855,-6439.791695,842.705048
1354.649396,6957.935855,-5403.503377,383.047749
1354.649726,7105.977043,-5699.585753,383.047749
1354.650055,7105.977043,-7105.977043,1225.752797
1354.650384,6217.729913,-7105.977043,1072.533697
1354.650713,6439.791695,-6883.915261,1149.143247
1354.651042,6513.812290,-5329.482782,919.314598
1354.651372,6587.832884,-5181.441594,612.876398
1354.651701,6957.935855,-6661.853478,1225.752797
1354.652030,7476.080014,-7476.080014,1991.848295
1354.652359,7846.182985,-7550.100608,2068.457845
1354.652689,7476.080014,-5255.462188,1532.190996
1354.653018,7624.121203,-4145.153275,919.314598
1354.653347,8216.285956,-4441.235652,153.219100
1354.653676,8142.265362,-5921.647536,1072.533697
1354.654005,7846.182985,-6957.935855,2068.457845
1354.654335,7698.141797,-7254.018232,1225.752797
1354.654664,7179.997637,-6217.729913,1072.533697
1354.654993,6217.729913,-6439.791695,766.095498
1354.655322,5255.462188,-7846.182985,0.000000
1354.655651,4885.359217,-9696.697840,536.266849
1354.655981,5329.482782,-9252.574275,1149.143247
1354.656310,5551.544565,-6957.935855,842.705048
1354.656639,6143.709319,-5255.462188,76.609550
1354.656968,7328.038826,-4811.338623,1149.143247
1354.657297,8586.388927,-6883.915261,1915.238745
1354.657627,8068.244768,-7105.977043,2068.457845
1354.657956,7179.997637,-5921.647536,1378.971896
1354.658285,7031.956449,-4811.338623,689.485948
1354.658614,7328.038826,-4737.318029,536.266849
1354.658944,6735.874072,-7105.977043,842.705048
1354.659273,6883.915261,-7920.203579,1915.238745
1354.659602,6883.915261,-8216.285956,1532.190996
1354.659931,6735.874072,-6587.832884,995.924147
1354.660260,6513.812290,-5329.482782,689.485948
1354.660590,6957.935855,-5403.503377,306.438199
1354.660919,7624.121203,-5625.565159,536.266849
1354.661248,7254.018232,-7254.018232,1608.800546
1354.661577,7550.100608,-6883.915261,2451.505594
1354.661906,7994.224174,-4885.359217,1455.581446
1354.662236,7402.059420,-5033.400406,459.657299
1354.662565,6735.874072,-7105.977043,1149.143247
1354.662894,6439.791695,-9030.512492,1378.971896
1354.663223,6513.812290,-8956.491898,766.095498
1354.663553,6069.688724,-7105.977043,1225.752797
1354.663882,6365.771101,-5403.503377,459.657299
1354.664211,7328.038826,-4959.379811,76.609550
1354.664540,6809.894666,-7402.059420,1149.143247
1354.664869,6513.812290,-7846.182985,1225.752797
1354.665199,6809.894666,-6661.853478,842.705048
1354.665528,6735.874072,-5625.565159,842.705048
1354.665857,6809.894666,-5625.565159,919.314598
1354.666186,6735.874072,-7328.038826,995.924147
1354.666515,6513.812290,-8068.244768,1455.581446
1354.666845,6513.812290,-8068.244768,1378.971896
1354.667174,7105.977043,-6069.688724,842.705048
1354.667503,7105.977043,-4589.276840,536.266849
1354.667832,7550.100608,-4663.297435,919.314598
1354.668161,7550.100608,-6587.832884,842.705048
1354.668491,7402.059420,-6661.853478,1915.238745
1354.668820,7476.080014,-6513.812290,1685.410096
1354.669149,8216.285956,-4515.256246,919.314598
1354.669478,7994.224174,-5033.400406,1072.533697
1354.669808,7179.997637,-6957.935855,612.876398
1354.670137,6661.853478,-7994.224174,995.924147
1354.670466,6291.750507,-8512.368333,919.314598
1354.670795,6587.832884,-7105.977043,766.095498
1354.671124,6217.729913,-5329.482782,459.657299
1354.671454,7105.977043,-5477.523971,306.438199
1354.671783,7550.100608,-6217.729913,612.876398
1354.672112,8142.265362,-7402.059420,1532.190996
1354.672441,7550.100608,-6883.915261,1762.019645
1354.672770,7254.018232,-5181.441594,536.266849
1354.673100,6809.894666,-4811.338623,383.047749
1354.673429,6513.812290,-6587.832884,229.828649
1354.673758,5921.647536,-8216.285956,1225.752797
1354.674087,6957.935855,-7698.141797,1838.629195
1354.674417,7402.059420,-6513.812290,842.705048
1354.674746,7328.038826,-4811.338623,612.876398
1354.675075,7328.038826,-5255.462188,842.705048
1354.675404,7846.182985,-6439.791695,689.485948
1354.675733,7550.100608,-7179.997637,1608.800546
1354.676063,7105.977043,-6809.894666,1225.752797
1354.676392,6439.791695,-5773.606348,306.438199
1354.676721,7031.956449,-5699.585753,306.438199
1354.677050,6291.750507,-8068.244768,612.876398
1354.677379,5699.585753,-9326.594869,995.924147
1354.677709,5625.565159,-9548.656652,919.314598
1354.678038,5625.565159,-8142.265362,919.314598
1354.678367,6883.915261,-6439.791695,842.705048
1354.678696,6957.935855,-5551.544565,459.657299
1354.679025,7254.018232,-6587.832884,612.876398
1354.679355,7105.977043,-7105.977043,1455.581446
1354.679684,7328.038826,-6069.688724,1455.581446
1354.680013,7328.038826,-5773.606348,995.924147
1354.680342,7328.038826,-5403.503377,459.657299
1354.680672,6513.812290,-6365.771101,689.485948
1354.681001,6587.832884,-7994.224174,1149.143247
1354.681330,6809.894666,-8068.244768,2145.067394
1354.681659,7254.018232,-6513.812290,2068.457845
1354.681988,7328.038826,-4589.276840,1149.143247
1354.682318,7179.997637,-4293.194464,995.924147
1354.682647,7624.121203,-5921.647536,1762.019645
1354.682976,7105.977043,-6809.894666,1838.629195
1354.683305,7328.038826,-6513.812290,1838.629195
1354.683634,7328.038826,-5107.421000,1762.019645
1354.683964,7179.997637,-5625.565159,153.219100
1354.684293,6661.853478,-7698.141797,536.266849
1354.684622,5551.544565,-10066.800811,1225.752797
1354.684951,5255.462188,-9622.677246,995.924147
1354.685280,5255.462188,-7254.018232,536.266849
1354.685610,5699.585753,-5773.606348,0.000000
1354.685939,6957.935855,-4811.338623,306.438199
1354.686268,8142.265362,-6513.812290,1072.533697
1354.686597,8068.244768,-7476.080014,1991.848295
1354.686927,7105.977043,-6661.853478,2068.457845
1354.687256,7105.977043,-4885.359217,766.095498
1354.687585,7105.977043,-4367.215058,383.047749
1354.687914,7328.038826,-6143.709319,842.705048
1354.688243,7846.182985,-7550.100608,1915.238745
1354.688573,7698.141797,-7994.224174,2528.115143
1354.688902,7031.956449,-5625.565159,1532.190996
1354.689231,7105.977043,-4589.276840,536.266849
1354.689560,7179.997637,-4589.276840,76.609550
1354.689889,6809.894666,-6661.853478,229.828649
1354.690219,7105.977043,-7846.182985,1532.190996
1354.690548,6809.894666,-6735.874072,1532.190996
1354.690877,7624.121203,-6143.709319,1149.143247
1354.691206,7179.997637,-5181.441594,612.876398
1354.691536,6439.791695,-6883.915261,459.657299
1354.691865,5995.668130,-9474.636058,612.876398
1354.692194,5921.647536,-9178.553681,919.314598
1354.692523,6957.935855,-7698.141797,1072.533697
1354.692852,7402.059420,-4959.379811,919.314598
1354.693182,8364.327145,-4441.235652,459.657299
1354.693511,8734.430116,-6439.791695,842.705048
1354.693840,8290.306550,-7328.038826,1685.410096
1354.694169,7920.203579,-6365.771101,2145.067394
1354.694498,7402.059420,-4885.359217,459.657299
1354.694828,5773.606348,-5403.503377,153.219100
1354.695157,4959.379811,-6587.832884,0.000000
1354.695486,5181.441594,-9474.636058,459.657299
1354.695815,5847.626942,-9400.615463,1455.581446
1354.696144,6217.729913,-7550.100608,1685.410096
1354.696474,6217.729913,-5847.626942,459.657299
1354.696803,6439.791695,-5181.441594,0.000000
1354.697132,7105.977043,-6883.915261,536.266849
1354.697461,7846.182985,-7476.080014,1225.752797
1354.697791,8364.327145,-6439.791695,2145.067394
1354.698120,8660.409521,-4811.338623,2068.457845
1354.698449,8808.450710,-3997.112087,1302.362347
1354.698778,8142.265362,-5773.606348,1685.410096
1354.699107,6809.894666,-7846.182985,1225.752797
1354.699437,6217.729913,-8216.285956,689.485948
1354.699766,5995.668130,-6439.791695,383.047749
1354.700095,6439.791695,-5181.441594,306.438199
1354.700424,6439.791695,-5403.503377,229.828649
1354.700753,6513.812290,-6661.853478,1072.533697
1354.701083,6735.874072,-8216.285956,995.924147
1354.701412,7105.977043,-7698.141797,1532.190996
1354.701741,6513.812290,-6809.894666,1072.533697
1354.702070,6809.894666,-6291.750507,919.314598
1354.702399,7031.956449,-6809.894666,919.314598
1354.702729,6883.915261,-7846.182985,1225.752797
1354.703058,7179.997637,-7994.224174,2221.676944
1354.703387,7698.141797,-6217.729913,1608.800546
1354.703716,7328.038826,-4737.318029,842.705048
1354.704046,6735.874072,-4515.256246,1225.752797
1354.704375,6735.874072,-6291.750507,536.266849
1354.704704,6957.935855,-7105.977043,919.314598
1354.705033,6957.935855,-7105.977043,1532.190996
1354.705362,7105.977043,-6661.853478,1455.581446
1354.705692,7328.038826,-6365.771101,919.314598
1354.706021,6513.812290,-6513.812290,689.485948
1354.706350,5921.647536,-8364.327145,536.266849
1354.706679,5773.606348,-9326.594869,1149.143247
1354.707008,6365.771101,-7624.121203,842.705048
1354.707338,6809.894666,-5995.668130,919.314598
1354.707667,7698.141797,-3997.112087,1225.752797
1354.707996,8512.368333,-4811.338623,1532.190996
1354.708325,8586.388927,-6661.853478,2298.286494
1354.708654,7624.121203,-5699.585753,1991.848295
1354.708983,7105.977043,-5033.400406,919.314598
1354.709313,7179.997637,-4293.194464,689.485948
1354.709642,6661.853478,-5699.585753,612.876398
1354.709971,5995.668130,-7550.100608,842.705048
1354.710300,5403.503377,-8586.388927,1302.362347
1354.710629,5921.647536,-8882.471304,1762.019645
1354.710959,7031.956449,-6883.915261,1149.143247
1354.711288,6513.812290,-5847.626942,995.924147
1354.711617,6735.874072,-6587.832884,536.266849
1354.711946,6661.853478,-7105.977043,459.657299
1354.712275,6513.812290,-7846.182985,1072.533697
1354.712605,7031.956449,-6143.709319,1072.533697
1354.712934,6957.935855,-6143.709319,1991.848295
1354.713263,7402.059420,-5329.482782,1302.362347
1354.713592,7031.956449,-7105.977043,1302.362347
1354.713921,7328.038826,-8290.306550,1915.238745
1354.714250,7920.203579,-6587.832884,1532.190996
1354.714580,8068.244768,-4441.235652,1685.410096
1354.714909,7550.100608,-3701.029710,0.000000
1354.715238,6809.894666,-5551.544565,0.000000
1354.715567,6587.832884,-8216.285956,689.485948
1354.715896,6883.915261,-9326.594869,1838.629195
1354.716226,6957.935855,-7846.182985,1532.190996
1354.716555,6735.874072,-5699.585753,536.266849
1354.716884,6143.709319,-6291.750507,612.876398
1354.717213,6069.688724,-7920.203579,1225.752797
1354.717542,6217.729913,-8364.327145,1225.752797
1354.717872,6587.832884,-7031.956449,1455.581446
1354.718201,6957.935855,-4663.297435,842.705048
1354.718530,7105.977043,-4663.297435,612.876398
1354.718859,7772.162391,-5033.400406,1072.533697
1354.719188,8512.368333,-6439.791695,995.924147
1354.719517,8512.368333,-7031.956449,2145.067394
1354.719847,8290.306550,-6439.791695,1608.800546
1354.720176,7402.059420,-5551.544565,76.609550
1354.720505,6513.812290,-5995.668130,76.609550
1354.720834,5329.482782,-8364.327145,0.000000
1354.721163,5699.585753,-9918.759623,842.705048
1354.721493,6069.688724,-8734.430116,1455.581446
1354.721822,7105.977043,-6587.832884,1225.752797
1354.722151,7031.956449,-4071.132681,459.657299
1354.722480,7105.977043,-4737.318029,153.219100
1354.722809,7031.956449,-6883.915261,689.485948
1354.723139,7402.059420,-7105.977043,1455.581446
1354.723468,7550.100608,-5847.626942,1149.143247
1354.723797,7476.080014,-4515.256246,842.705048
1354.724126,7476.080014,-5255.462188,842.705048
1354.724455,7624.121203,-6735.874072,1302.362347
1354.724784,7624.121203,-8438.347739,1608.800546
1354.725114,7624.121203,-7920.203579,1762.019645
1354.725443,6957.935855,-6439.791695,1225.752797
1354.725772,5847.626942,-4737.318029,-383.047749
1354.726101,5107.421000,-6217.729913,-536.266849
1354.726430,5847.626942,-7846.182985,689.485948
1354.726760,7328.038826,-7846.182985,1225.752797
1354.727089,7105.977043,-6439.791695,1991.848295
1354.727418,7105.977043,-5403.503377,1149.143247
1354.727747,6883.915261,-5699.585753,612.876398
1354.728076,6143.709319,-7179.997637,0.000000
1354.728406,6291.750507,-9178.553681,1378.971896
1354.728735,6513.812290,-8586.388927,1685.410096
1354.729064,7550.100608,-5403.503377,1149.143247
1354.729393,8216.285956,-4071.132681,919.314598
1354.729722,8586.388927,-4219.173869,1225.752797
1354.730052,8808.450710,-5551.544565,1455.581446
1354.730381,8364.327145,-6957.935855,1838.629195
1354.730710,7179.997637,-5995.668130,1685.410096
1354.731039,5921.647536,-4811.338623,0.000000
1354.731368,5477.523971,-5551.544565,-229.828649
1354.731697,4885.359217,-7994.224174,306.438199
1354.732027,5921.647536,-9770.718434,1455.581446
1354.732356,6513.812290,-8438.347739,2374.896044
1354.732685,7031.956449,-6217.729913,1838.629195
1354.733014,7179.997637,-5329.482782,536.266849
1354.733343,7179.997637,-5107.421000,766.095498
1354.733673,7624.121203,-7105.977043,1072.533697
1354.734002,7772.162391,-7402.059420,2068.457845
1354.734331,7179.997637,-5773.606348,1378.971896
1354.734660,8216.285956,-5255.462188,1072.533697
1354.734989,7698.141797,-6069.688724,995.924147
1354.735319,6217.729913,-7402.059420,766.095498
1354.735648,5773.606348,-9030.512492,0.000000
1354.735977,5477.523971,-8882.471304,1149.143247
1354.736306,5995.668130,-6883.915261,1225.752797
1354.736635,6365.771101,-4293.194464,306.438199
1354.736964,6883.915261,-4515.256246,229.828649
1354.737294,7772.162391,-6291.750507,536.266849
1354.737623,7402.059420,-7772.162391,1915.238745
1354.737952,7846.182985,-6883.915261,2451.505594
1354.738281,7402.059420,-5255.462188,1149.143247
1354.738610,6883.915261,-5551.544565,612.876398
1354.738940,6735.874072,-7402.059420,1149.143247
1354.739269,6439.791695,-8586.388927,1225.752797
1354.739598,6957.935855,-8142.265362,1532.190996
1354.739927,6883.915261,-6439.791695,1608.800546
1354.740256,7476.080014,-4367.215058,689.485948
1354.740586,7254.018232,-5107.421000,383.047749
1354.740915,6883.915261,-6735.874072,842.705048
1354.741244,6661.853478,-7772.162391,1149.143247
1354.741573,6587.832884,-6957.935855,1685.410096
1354.741902,7105.977043,-5403.503377,536.266849
1354.742231,6661.853478,-5995.668130,612.876398
1354.742561,6365.771101,-7105.977043,536.266849
1354.742890,5847.626942,-9474.636058,536.266849
1354.743219,6291.750507,-9178.553681,1685.410096
1354.743548,7698.141797,-6439.791695,1762.019645
1354.743877,7772.162391,-4441.235652,612.876398
1354.744207,7698.141797,-3701.029710,919.314598
1354.744536,7402.059420,-6513.812290,1072.533697
1354.744865,7846.182985,-7920.203579,2298.286494
1354.745194,7476.080014,-6365.771101,1685.410096
1354.745523,6957.935855,-4441.235652,766.095498
1354.745853,6365.771101,-4441.235652,76.609550
1354.746182,6217.729913,-7105.977043,383.047749
1354.746511,6587.832884,-8586.388927,1762.019645
1354.746840,6957.935855,-8660.409521,1915.238745
1354.747169,7105.977043,-6143.709319,1762.019645
1354.747498,7105.977043,-4441.235652,459.657299
1354.747828,7624.121203,-4885.359217,1225.752797
1354.748157,7550.100608,-7179.997637,1378.971896
1354.748486,8290.306550,-7031.956449,1225.752797
1354.748815,7698.141797,-7105.977043,1838.629195
1354.749144,7254.018232,-6143.709319,995.924147
1354.749474,6809.894666,-5181.441594,995.924147
1354.749803,6069.688724,-7698.141797,536.266849
1354.750132,4885.359217,-9844.739029,383.047749
1354.750461,5107.421000,-9326.594869,1072.533697
1354.750790,5847.626942,-7105.977043,153.219100
1354.751120,6809.894666,-4589.276840,76.609550
1354.751449,7624.121203,-5329.482782,536.266849
1354.751778,7698.141797,-6365.771101,919.314598
1354.752107,7994.224174,-7624.121203,1762.019645
1354.752436,8142.265362,-6587.832884,1838.629195
1354.752766,7772.162391,-4737.318029,1378.971896
1354.753095,7846.182985,-4737.318029,1072.533697
1354.753424,7031.956449,-6883.915261,766.095498
1354.753753,6143.709319,-7698.141797,1455.581446
1354.754082,6587.832884,-9622.677246,995.924147
1354.754411,6883.915261,-7179.997637,2221.676944
1354.754741,6291.750507,-5181.441594,459.657299
1354.755070,6661.853478,-6143.709319,76.609550
1354.755399,7179.997637,-5773.606348,306.438199
1354.755728,6957.935855,-7476.080014,919.314598
1354.756057,7105.977043,-6957.935855,2068.457845
1354.756387,7624.121203,-5107.421000,1378.971896
1354.756716,7179.997637,-5403.503377,919.314598
1354.757045,5921.647536,-6735.874072,1302.362347
1354.757374,5329.482782,-9400.615463,1225.752797
1354.757703,5477.523971,-9474.636058,1455.581446
1354.758033,6217.729913,-6735.874072,1378.971896
1354.758362,7031.956449,-5625.565159,919.314598
1354.758691,7105.977043,-4811.338623,612.876398
1354.759020,7846.182985,-5477.523971,1149.143247
1354.759349,7920.203579,-6661.853478,2068.457845
1354.759678,7772.162391,-6365.771101,1685.410096
1354.760008,7254.018232,-5329.482782,1838.629195
1354.760337,6957.935855,-4515.256246,536.266849
1354.760666,6365.771101,-6735.874072,536.266849
1354.760995,6809.894666,-8216.285956,1302.362347
1354.761324,7105.977043,-8734.430116,1838.629195
1354.761654,7105.977043,-6735.874072,1991.848295
1354.761983,6587.832884,-4737.318029,1149.143247
1354.762312,6661.853478,-4441.235652,0.000000
1354.762641,6957.935855,-5329.482782,536.266849
1354.762970,6883.915261,-7254.018232,1991.848295
1354.763300,7254.018232,-7772.162391,1685.410096
1354.763629,7105.977043,-5699.585753,1225.752797
1354.763958,6809.894666,-5477.523971,766.095498
1354.764287,6587.832884,-7105.977043,459.657299
1354.764616,7105.977043,-9030.512492,1225.752797
1354.764945,6217.729913,-9770.718434,1149.143247
1354.765275,6513.812290,-7402.059420,1072.533697
1354.765604,6809.894666,-5255.462188,229.828649
1354.765933,7031.956449,-4959.379811,995.924147
1354.766262,7846.182985,-5551.544565,153.219100
1354.766591,7698.141797,-7179.997637,1225.752797
1354.766921,7846.182985,-6513.812290,1762.019645
1354.767250,7698.141797,-5107.421000,995.924147
1354.767579,7328.038826,-3923.091493,1072.533697
1354.767908,6735.874072,-6143.709319,766.095498
1354.768237,6513.812290,-7402.059420,995.924147
1354.768567,6439.791695,-8216.285956,1455.581446
1354.768896,6661.853478,-7920.203579,1455.581446
1354.769225,7624.121203,-5107.421000,1378.971896
1354.769554,7550.100608,-5551.544565,689.485948
1354.769883,7476.080014,-6957.935855,919.314598
1354.770212,6957.935855,-7846.182985,1378.971896
1354.770542,6587.832884,-8512.368333,1685.410096
1354.770871,6143.709319,-6143.709319,919.314598
1354.771200,6661.853478,-5477.523971,536.266849
1354.771529,6957.935855,-6439.791695,766.095498
1354.771858,6735.874072,-7624.121203,1225.752797
1354.772188,6957.935855,-8734.430116,1455.581446
1354.772517,6513.812290,-6809.894666,919.314598
1354.772846,6587.832884,-5107.421000,0.000000
1354.773175,7179.997637,-5033.400406,536.266849
1354.773504,7254.018232,-6439.791695,919.314598
1354.773834,7624.121203,-8142.265362,1455.581446
1354.774163,7846.182985,-7550.100608,1991.848295
1354.774492,7772.162391,-6217.729913,1455.581446
1354.774821,7179.997637,-4293.194464,919.314598
1354.775150,6661.853478,-5403.503377,0.000000
1354.775480,6439.791695,-7994.224174,995.924147
1354.775809,6143.709319,-8660.409521,1762.019645
1354.776138,6217.729913,-7624.121203,1532.190996
1354.776467,7031.956449,-4737.318029,1072.533697
1354.776796,7105.977043,-4589.276840,612.876398
1354.777125,7105.977043,-6143.709319,842.705048
1354.777455,6957.935855,-7254.018232,1455.581446
1354.777784,6735.874072,-8364.327145,1685.410096
1354.778113,7328.038826,-6809.894666,689.485948
1354.778442,6883.915261,-5403.503377,766.095498
1354.778771,6513.812290,-6513.812290,536.266849
1354.779101,6365.771101,-8142.265362,995.924147
1354.779430,6143.709319,-9474.636058,1225.752797
1354.779759,6809.894666,-7772.162391,1149.143247
1354.780088,6957.935855,-4663.297435,689.485948
1354.780417,7698.141797,-4145.153275,306.438199
1354.780747,7402.059420,-4811.338623,536.266849
1354.781076,7402.059420,-6439.791695,1838.629195
1354.781405,8142.265362,-6291.750507,2298.286494
1354.781734,7920.203579,-4663.297435,1608.800546
1354.782063,7550.100608,-3923.091493,1378.971896
1354.782392,7476.080014,-4885.359217,1225.752797
1354.782722,7624.121203,-6957.935855,2221.676944
1354.783051,7179.997637,-8660.409521,1838.629195
1354.783380,6957.935855,-7550.100608,1915.238745
1354.783709,6883.915261,-5329.482782,766.095498
1354.784038,6735.874072,-5477.523971,0.000000
1354.784368,6143.709319,-6439.791695,-153.219100
1354.784697,6291.750507,-7328.038826,612.876398
1354.785026,6809.894666,-8142.265362,1225.752797
1354.785355,7105.977043,-7772.162391,1378.971896
1354.785684,6661.853478,-6291.750507,1685.410096
1354.786014,6069.688724,-6513.812290,0.000000
1354.786343,5625.565159,-8364.327145,536.266849
1354.786672,6217.729913,-9252.574275,1378.971896
1354.787001,6587.832884,-8068.244768,1225.752797
1354.787330,7105.977043,-5329.482782,842.705048
1354.787659,7476.080014,-4589.276840,229.828649
1354.787989,7846.182985,-4959.379811,536.266849
1354.788318,7624.121203,-7550.100608,1149.143247
1354.788647,7105.977043,-7031.956449,2451.505594
1354.788976,7328.038826,-5847.626942,1608.800546
1354.789305,6957.935855,-4293.194464,459.657299
1354.789635,6661.853478,-5107.421000,383.047749
1354.789964,6587.832884,-7179.997637,842.705048
1354.790293,6735.874072,-7328.038826,1762.019645
1354.790622,7179.997637,-7031.956449,1608.800546
1354.790951,7624.121203,-5181.441594,1149.143247
1354.791281,7698.141797,-4441.235652,1149.143247
1354.791610,7772.162391,-5477.523971,536.266849
1354.791939,7105.977043,-6957.935855,1225.752797
1354.792268,7031.956449,-7550.100608,1838.629195
1354.792597,7624.121203,-7254.018232,1302.362347
1354.792926,7105.977043,-5699.585753,1455.581446
1354.793256,6661.853478,-6587.832884,689.485948
1354.793585,5477.523971,-7846.182985,0.000000
1354.793914,4737.318029,-9326.594869,383.047749
1354.794243,5107.421000,-9474.636058,919.314598
1354.794572,6143.709319,-6217.729913,612.876398
1354.794902,6291.750507,-4589.276840,-612.876398
1354.795231,6735.874072,-5107.421000,153.219100
1354.795560,7550.100608,-6143.709319,1149.143247
1354.795889,8216.285956,-6217.729913,1685.410096
1354.796218,9252.574275,-5477.523971,3600.648841
1354.796548,8364.327145,-4219.173869,1455.581446
1354.796877,7550.100608,-4441.235652,383.047749
1354.797206,6587.832884,-6883.915261,612.876398
1354.797535,6143.709319,-9104.533087,1762.019645
1354.797864,6883.915261,-8216.285956,1762.019645
1354.798194,7105.977043,-6143.709319,1302.362347
1354.798523,7105.977043,-4219.173869,842.705048
1354.798852,7179.997637,-5699.585753,459.657299
1354.799181,7328.038826,-7476.080014,1378.971896
1354.799510,6143.709319,-7846.182985,1455.581446
1354.799839,6809.894666,-6735.874072,919.314598
1354.800169,7031.956449,-4885.359217,1149.143247
1354.800498,6957.935855,-5921.647536,1149.143247
1354.800827,6883.915261,-8142.265362,1455.581446
1354.801156,6513.812290,-8586.388927,1455.581446
1354.801485,6587.832884,-8438.347739,1378.971896
1354.801815,7105.977043,-6069.688724,1378.971896
1354.802144,7476.080014,-4959.379811,919.314598
1354.802473,7179.997637,-4811.338623,229.828649
1354.802802,6957.935855,-6365.771101,459.657299
1354.803131,7031.956449,-7698.141797,1685.410096
1354.803461,7772.162391,-6513.812290,1685.410096
1354.803790,7846.182985,-5329.482782,1991.848295
1354.804119,7254.018232,-5477.523971,842.705048
1354.804448,6069.688724,-6957.935855,459.657299
1354.804777,5625.565159,-8586.388927,1455.581446
1354.805106,6513.812290,-7994.224174,1685.410096
1354.805435,7920.203579,-4737.318029,1225.752797
1354.805763,7920.203579,-3404.947333,1378.971896
1354.806092,7698.141797,-4663.297435,459.657299
1354.806421,7402.059420,-6439.791695,1149.143247
1354.806750,6587.832884,-6957.935855,1072.533697
1354.807079,6957.935855,-7328.038826,1149.143247
1354.807408,6883.915261,-6217.729913,842.705048
1354.807737,5995.668130,-7254.018232,306.438199
1354.808066,5477.523971,-8734.430116,383.047749
1354.808395,5329.482782,-9918.759623,612.876398
1354.808724,5181.441594,-9548.656652,919.314598
1354.809053,6513.812290,-7254.018232,995.924147
1354.809382,7254.018232,-4885.359217,536.266849
1354.809711,7624.121203,-4737.318029,536.266849
1354.810040,7476.080014,-5255.462188,536.266849
1354.810369,7550.100608,-6143.709319,1532.190996
1354.810698,7550.100608,-5995.668130,1378.971896
1354.811027,7772.162391,-4885.359217,1302.362347
1354.811356,7772.162391,-4145.153275,153.219100
1354.811685,6957.935855,-6587.832884,612.876398
1354.812014,7031.956449,-8512.368333,1762.019645
1354.812343,7328.038826,-7846.182985,1762.019645
1354.812672,7179.997637,-5773.606348,536.266849
1354.813001,7105.977043,-4293.194464,306.438199
1354.813330,7179.997637,-4811.338623,306.438199
1354.813659,7179.997637,-7254.018232,689.485948
1354.813987,6809.894666,-8290.306550,1915.238745
1354.814316,7772.162391,-7031.956449,1455.581446
1354.814645,7179.997637,-5033.400406,1072.533697
1354.814974,6587.832884,-5477.523971,766.095498
1354.815303,6439.791695,-7624.121203,612.876398
1354.815632,6439.791695,-8364.327145,919.314598
1354.815961,6069.688724,-9622.677246,1378.971896
1354.816290,6735.874072,-7105.977043,1149.143247
1354.816619,7105.977043,-5329.482782,229.828649
1354.816948,7179.997637,-5403.503377,0.000000
1354.817277,7328.038826,-7105.977043,766.095498
1354.817606,7920.203579,-7624.121203,1072.533697
1354.817935,7994.224174,-5995.668130,1762.019645
1354.818264,7550.100608,-4885.359217,1532.190996
1354.818593,7105.977043,-4589.276840,689.485948
1354.818922,6143.709319,-5625.565159,383.047749
1354.819251,5625.565159,-7772.162391,919.314598
1354.819580,6143.709319,-7772.162391,2374.896044
1354.819909,6809.894666,-7031.956449,1685.410096
1354.820238,7402.059420,-4515.256246,1149.143247
1354.820567,7624.121203,-4367.215058,1149.143247
1354.820896,7772.162391,-6587.832884,1455.581446
1354.821225,7624.121203,-7476.080014,1608.800546
1354.821554,7254.018232,-7031.956449,1455.581446
1354.821883,7105.977043,-5181.441594,689.485948
1354.822212,6513.812290,-5255.462188,612.876398
1354.822540,6143.709319,-7846.182985,76.609550
1354.822869,5255.462188,-10288.862594,1149.143247
1354.823198,5107.421000,-9474.636058,1378.971896
1354.823527,6365.771101,-7550.100608,689.485948
1354.823856,6513.812290,-5329.482782,459.657299
1354.824185,7105.977043,-4885.359217,153.219100
1354.824514,7550.100608,-6587.832884,612.876398
1354.824843,8438.347739,-7105.977043,1915.238745
1354.825172,7772.162391,-6587.832884,1762.019645
1354.825501,8068.244768,-5033.400406,1149.143247
1354.825830,7550.100608,-4441.235652,842.705048
1354.826159,6661.853478,-6661.853478,459.657299
1354.826488,6217.729913,-8512.368333,2221.676944
1354.826817,6439.791695,-8808.450710,2221.676944
1354.827146,6735.874072,-6957.935855,1608.800546
1354.827475,6809.894666,-4367.215058,612.876398
1354.827804,6809.894666,-4737.318029,306.438199
1354.828133,7031.956449,-5847.626942,919.314598
1354.828462,7105.977043,-7624.121203,1685.410096
1354.828791,7476.080014,-6439.791695,2145.067394
1354.829120,7846.182985,-5403.503377,1532.190996
1354.829449,7031.956449,-5107.421000,919.314598
1354.829778,6143.709319,-6513.812290,229.828649
1354.830107,5329.482782,-9326.594869,383.047749
1354.830436,6069.688724,-9474.636058,1072.533697
1354.830765,6439.791695,-7328.038826,919.314598
1354.831093,7402.059420,-5181.441594,0.000000
1354.831422,7550.100608,-5255.462188,383.047749
1354.831751,7179.997637,-6809.894666,536.266849
1354.832080,7031.956449,-7550.100608,1149.143247
1354.832409,6957.935855,-6957.935855,1685.410096
1354.832738,7624.121203,-5477.523971,1225.752797
1354.833067,7402.059420,-4293.194464,919.314598
1354.833396,6957.935855,-5921.647536,536.266849
1354.833725,7105.977043,-7105.977043,1378.971896
1354.834054,7476.080014,-7031.956449,2681.334243
1354.834383,8290.306550,-6513.812290,2145.067394
1354.834712,7994.224174,-4367.215058,995.924147
1354.835041,7328.038826,-4145.153275,842.705048
1354.835370,7179.997637,-6291.750507,612.876398
1354.835699,7920.203579,-7402.059420,1302.362347
1354.836028,7031.956449,-7846.182985,1608.800546
1354.836357,6957.935855,-6587.832884,612.876398
1354.836686,6513.812290,-6365.771101,766.095498
1354.837015,5995.668130,-7624.121203,383.047749
1354.837344,5107.421000,-9548.656652,612.876398
1354.837673,5551.544565,-9030.512492,1072.533697
1354.838002,6439.791695,-7105.977043,919.314598
1354.838331,7624.121203,-4737.318029,842.705048
1354.838660,8290.306550,-4145.153275,995.924147
1354.838989,7920.203579,-5107.421000,229.828649
1354.839317,7624.121203,-7105.977043,1378.971896
1354.839646,7550.100608,-7254.018232,2145.067394
1354.839975,7772.162391,-5181.441594,1225.752797
1354.840304,6883.915261,-4515.256246,995.924147
1354.840633,6439.791695,-5921.647536,0.000000
1354.840962,5921.647536,-8364.327145,383.047749
1354.841291,6069.688724,-9252.574275,1685.410096
1354.841620,6513.812290,-7772.162391,1608.800546
1354.841949,6957.935855,-5255.462188,612.876398
1354.842278,7031.956449,-4737.318029,842.705048
1354.842607,6883.915261,-6513.812290,995.924147
1354.842936,7476.080014,-7476.080014,1455.581446
1354.843265,7772.162391,-6513.812290,2145.067394
1354.843594,7476.080014,-5329.482782,1302.362347
1354.843923,7179.997637,-5551.544565,1072.533697
1354.844252,6883.915261,-6661.853478,842.705048
1354.844581,6587.832884,-9178.553681,919.314598
1354.844910,5847.626942,-10288.862594,1302.362347
1354.845239,5625.565159,-7994.224174,766.095498
1354.845568,5995.668130,-6809.894666,153.219100
1354.845897,6735.874072,-5181.441594,842.705048
1354.846226,7105.977043,-6809.894666,383.047749
1354.846555,7105.977043,-8216.285956,1915.238745
1354.846884,7105.977043,-6661.853478,1991.848295
1354.847213,7105.977043,-5329.482782,1225.752797
1354.847542,7105.977043,-4367.215058,1225.752797
1354.847870,6735.874072,-4959.379811,383.047749
1354.848199,6587.832884,-6217.729913,612.876398
1354.848528,6809.894666,-7105.977043,1532.190996
1354.848857,7846.182985,-6661.853478,2221.676944
1354.849186,8290.306550,-4219.173869,1991.848295
1354.849515,7698.141797,-4515.256246,842.705048
1354.849844,7254.018232,-6217.729913,766.095498
1354.850173,6883.915261,-7624.121203,1072.533697
1354.850502,6809.894666,-8290.306550,1302.362347
1354.850831,6587.832884,-6957.935855,1532.190996
1354.851160,6883.915261,-6365.771101,842.705048
1354.851489,6439.791695,-7179.997637,919.314598
1354.851818,5847.626942,-8882.471304,1072.533697
1354.852147,4737.318029,-9474.636058,1225.752797
1354.852476,5847.626942,-7328.038826,842.705048
1354.852805,6735.874072,-4959.379811,536.266849
1354.853134,7624.121203,-4515.256246,766.095498
1354.853463,7994.224174,-5033.400406,536.266849
1354.853792,7846.182985,-6513.812290,1762.019645
1354.854121,8290.306550,-7105.977043,2221.676944
1354.854450,7624.121203,-6069.688724,1685.410096
1354.854779,6883.915261,-5181.441594,919.314598
1354.855108,6365.771101,-6143.709319,383.047749
1354.855437,5921.647536,-7846.182985,842.705048
1354.855766,6217.729913,-9400.615463,1762.019645
1354.856094,6513.812290,-7254.018232,2068.457845
1354.856423,7031.956449,-4959.379811,1225.752797
1354.856752,7105.977043,-4071.132681,842.705048
1354.857081,7105.977043,-4811.338623,1149.143247
1354.857410,7402.059420,-7105.977043,1302.362347
1354.857739,7476.080014,-6735.874072,1991.848295
1354.858068,7105.977043,-5551.544565,1608.800546
1354.858397,7031.956449,-5033.400406,306.438199
1354.858726,6587.832884,-6217.729913,766.095498
1354.859055,6143.709319,-8808.450710,919.314598
1354.859384,6291.750507,-10288.862594,1302.362347
1354.859713,6365.771101,-8290.306550,1838.629195
1354.860042,6439.791695,-6587.832884,459.657299
1354.860371,5921.647536,-4737.318029,-153.219100
1354.860700,6365.771101,-6143.709319,306.438199
1354.861029,6587.832884,-7994.224174,995.924147
1354.861358,6809.894666,-7254.018232,1915.238745
1354.861687,7254.018232,-5551.544565,1378.971896
1354.862016,7624.121203,-4811.338623,1302.362347
1354.862345,7254.018232,-5329.482782,919.314598
1354.862674,7105.977043,-7402.059420,1532.190996
1354.863003,7105.977043,-7105.977043,1455.581446
1354.863332,7179.997637,-6513.812290,1378.971896
1354.863661,7920.203579,-5033.400406,1149.143247
1354.863990,7920.203579,-4737.318029,459.657299
1354.864319,7994.224174,-6069.688724,842.705048
1354.864647,7328.038826,-7624.121203,1072.533697
1354.864976,6957.935855,-8216.285956,1149.143247
1354.865305,6143.709319,-6735.874072,1225.752797
1354.865634,5995.668130,-6365.771101,153.219100
1354.865963,5551.544565,-6143.709319,0.000000
1354.866292,5625.565159,-8068.244768,842.705048
1354.866621,6143.709319,-9770.718434,1378.971896
1354.866950,7031.956449,-7698.141797,1685.410096
1354.867279,7624.121203,-5107.421000,1685.410096
1354.867608,8142.265362,-4071.132681,689.485948
1354.867937,8290.306550,-5329.482782,229.828649
1354.868266,7994.224174,-7105.977043,919.314598
1354.868595,7550.100608,-7402.059420,1302.362347
1354.868924,7698.141797,-6069.688724,1685.410096
1354.869253,7328.038826,-5403.503377,995.924147
1354.869582,6735.874072,-5995.668130,689.485948
1354.869911,6143.709319,-7772.162391,919.314598
1354.870240,5551.544565,-7698.141797,1302.362347
1354.870569,5699.585753,-6883.915261,1149.143247
1354.870898,7031.956449,-4811.338623,919.314598
1354.871227,7994.224174,-4219.173869,1149.143247
1354.871556,7994.224174,-4589.276840,1378.971896
1354.871885,7698.141797,-6513.812290,2374.896044
1354.872214,7698.141797,-6957.935855,1762.019645
1354.872543,7254.018232,-5995.668130,1838.629195
1354.872871,7105.977043,-5847.626942,995.924147
1354.873200,7105.977043,-5773.606348,383.047749
1354.873529,5255.462188,-7476.080014,689.485948
1354.873858,5033.400406,-10584.944971,536.266849
1354.874187,5921.647536,-8882.471304,1225.752797
1354.874516,5847.626942,-7179.997637,459.657299
1354.874845,6439.791695,-5699.585753,0.000000
1354.875174,6513.812290,-5699.585753,153.219100
1354.875503,6809.894666,-7698.141797,919.314598
1354.875832,7254.018232,-7550.100608,1991.848295
1354.876161,7476.080014,-5921.647536,1685.410096
1354.876490,6809.894666,-3627.009116,689.485948
1354.876819,6513.812290,-6365.771101,689.485948
1354.877148,7105.977043,-7920.203579,1532.190996
1354.877477,7105.977043,-7772.162391,1762.019645
1354.877806,6957.935855,-7476.080014,1685.410096
1354.878135,7476.080014,-5181.441594,1149.143247
1354.878464,7846.182985,-4071.132681,612.876398
1354.878793,8068.244768,-5551.544565,766.095498
1354.879122,7846.182985,-5921.647536,1532.190996
1354.879451,7550.100608,-7179.997637,1838.629195
1354.879780,6661.853478,-5551.544565,1455.581446
1354.880109,6735.874072,-5921.647536,1072.533697
1354.880438,7254.018232,-5699.585753,995.924147
1354.880767,6661.853478,-6069.688724,689.485948
1354.881096,6439.791695,-7920.203579,1378.971896
1354.881424,6809.894666,-7994.224174,2068.457845
1354.881753,7254.018232,-5847.626942,1072.533697
1354.882082,7179.997637,-4811.338623,306.438199
1354.882411,6883.915261,-5033.400406,0.000000
1354.882740,6809.894666,-7698.141797,306.438199
1354.883069,7031.956449,-8068.244768,1072.533697
1354.883398,6957.935855,-7179.997637,1225.752797
1354.883727,6809.894666,-6365.771101,766.095498
1354.884056,6587.832884,-6587.832884,536.266849
1354.884385,6143.709319,-8216.285956,536.266849
1354.884714,5477.523971,-8660.409521,1455.581446
1354.885043,5329.482782,-8142.265362,1149.143247
1354.885372,5921.647536,-5699.585753,1532.190996
1354.885701,6883.915261,-4589.276840,459.657299
1354.886030,7772.162391,-4959.379811,1149.143247
1354.886359,7624.121203,-5181.441594,1149.143247
1354.886688,8290.306550,-6661.853478,1915.238745
1354.887017,7920.203579,-5477.523971,2451.505594
1354.887346,7624.121203,-5551.544565,1149.143247
1354.887675,6587.832884,-6217.729913,383.047749
1354.888004,5847.626942,-7328.038826,383.047749
1354.888333,5255.462188,-10066.800811,919.314598
1354.888662,6365.771101,-9030.512492,995.924147
1354.888991,7254.018232,-6809.894666,1762.019645
1354.889320,7624.121203,-5033.400406,766.095498
1354.889649,7328.038826,-4885.359217,612.876398
1354.889977,6883.915261,-5699.585753,919.314598
1354.890306,6883.915261,-6513.812290,76.609550
1354.890635,7105.977043,-5995.668130,1762.019645
1354.890964,7846.182985,-4737.318029,1685.410096
1354.891293,8586.388927,-4737.318029,2068.457845
1354.891622,7772.162391,-6291.750507,1608.800546
1354.891951,7105.977043,-8142.265362,1762.019645
1354.892280,6291.750507,-8142.265362,1225.752797
1354.892609,6587.832884,-7105.977043,1072.533697
1354.892938,5921.647536,-5403.503377,76.609550
1354.893267,6735.874072,-5995.668130,153.219100
1354.893596,6957.935855,-6957.935855,1378.971896
1354.893925,7328.038826,-7994.224174,1685.410096
1354.894254,7624.121203,-6587.832884,1685.410096
1354.894583,7179.997637,-4737.318029,995.924147
1354.894912,6217.729913,-5699.585753,306.438199
1354.895241,6069.688724,-7105.977043,612.876398
1354.895570,6217.729913,-8586.388927,1378.971896
1354.895899,7031.956449,-8068.244768,2068.457845
1354.896228,7772.162391,-5329.482782,1532.190996
1354.896557,8586.388927,-4219.173869,1072.533697
1354.896886,8438.347739,-4811.338623,689.485948
1354.897215,7550.100608,-5921.647536,536.266849
1354.897544,7105.977043,-7994.224174,1072.533697
1354.897873,6661.853478,-7698.141797,1455.581446
1354.898201,6439.791695,-6809.894666,1532.190996
1354.898530,6587.832884,-5773.606348,383.047749
1354.898859,6143.709319,-6883.915261,919.314598
1354.899188,5477.523971,-8068.244768,842.705048
1354.899517,6069.688724,-7772.162391,1072.533697
1354.899846,6439.791695,-6365.771101,1149.143247
1354.900175,6957.935855,-4515.256246,612.876398
1354.900504,7254.018232,-4071.132681,383.047749
1354.900833,7550.100608,-5995.668130,1149.143247
1354.901162,8364.327145,-7402.059420,2145.067394
1354.901491,8364.327145,-6883.915261,2145.067394
1354.901820,7698.141797,-5921.647536,1149.143247
1354.902149,7254.018232,-5625.565159,766.095498
1354.902478,5847.626942,-7846.182985,76.609550
1354.902807,5551.544565,-9252.574275,689.485948
1354.903136,5403.503377,-9918.759623,1149.143247
1354.903465,6439.791695,-7550.100608,995.924147
1354.903794,5921.647536,-5625.565159,153.219100
1354.904123,6587.832884,-5033.400406,76.609550
1354.904452,6957.935855,-6513.812290,76.609550
1354.904781,7179.997637,-7105.977043,1149.143247
1354.905110,7772.162391,-6957.935855,1915.238745
1354.905439,7624.121203,-4663.297435,1302.362347
1354.905768,8142.265362,-4441.235652,766.095498
1354.906097,7920.203579,-5773.606348,1072.533697
1354.906425,7698.141797,-7550.100608,1685.410096
1354.906754,7105.977043,-8512.368333,919.314598
1354.907083,6883.915261,-7105.977043,1762.019645
1354.907412,7105.977043,-5329.482782,612.876398
1354.907741,6809.894666,-5403.503377,229.828649
1354.908070,7402.059420,-6069.688724,1302.362347
1354.908399,7179.997637,-7254.018232,1762.019645
1354.908728,7254.018232,-6439.791695,1608.800546
1354.909057,6661.853478,-5255.462188,1378.971896
1354.909386,6365.771101,-5033.400406,153.219100
1354.909715,5773.606348,-6735.874072,229.828649
1354.910044,5847.626942,-8142.265362,1072.533697
1354.910373,6143.709319,-9104.533087,1302.362347
1354.910702,7402.059420,-6439.791695,1762.019645
1354.911031,8290.306550,-5255.462188,1378.971896
1354.911360,8734.430116,-4441.235652,995.924147
1354.911689,8808.450710,-5329.482782,1225.752797
1354.912017,8438.347739,-7846.182985,1455.581446
1354.912346,7772.162391,-6439.791695,1455.581446
1354.912675,7105.977043,-5699.585753,612.876398
1354.913004,6883.915261,-4885.359217,612.876398
1354.913333,6513.812290,-6217.729913,306.438199
1354.913662,5995.668130,-8142.265362,1608.800546
1354.913991,5551.544565,-7846.182985,1532.190996
1354.914320,5699.585753,-7920.203579,536.266849
1354.914649,5329.482782,-5329.482782,306.438199
1354.914978,6143.709319,-5403.503377,0.000000
1354.915307,7550.100608,-6957.935855,842.705048
1354.915636,8512.368333,-7402.059420,2681.334243
1354.915965,8438.347739,-7328.038826,2451.505594
1354.916294,8142.265362,-5181.441594,1378.971896
1354.916623,7105.977043,-5255.462188,536.266849
1354.916952,6587.832884,-6809.894666,153.219100
1354.917281,5995.668130,-9030.512492,1378.971896
1354.917610,5477.523971,-9770.718434,1149.143247
1354.917938,5255.462188,-8068.244768,1072.533697
1354.918267,6809.894666,-5329.482782,536.266849
1354.918596,7624.121203,-4737.318029,0.000000
1354.918925,7105.977043,-5625.565159,459.657299
1354.919254,7179.997637,-6661.853478,1455.581446
1354.919583,6883.915261,-6883.915261,1149.143247
1354.919912,7105.977043,-5625.565159,1149.143247
1354.920241,7105.977043,-5255.462188,842.705048
1354.920570,7254.018232,-6217.729913,842.705048
1354.920899,6957.935855,-8142.265362,1685.410096
1354.921228,6587.832884,-9104.533087,1762.019645
1354.921557,6883.915261,-7550.100608,1991.848295
1354.921886,6957.935855,-4515.256246,766.095498
1354.922215,7179.997637,-4589.276840,306.438199
1354.922544,7254.018232,-5847.626942,536.266849
1354.922873,7179.997637,-8068.244768,2145.067394
1354.923202,7254.018232,-7772.162391,1838.629195
1354.923530,6735.874072,-6217.729913,1072.533697
1354.923859,6439.791695,-5329.482782,689.485948
1354.924188,6069.688724,-7698.141797,229.828649
1354.924517,5551.544565,-8808.450710,1762.019645
1354.924846,6069.688724,-9104.533087,1225.752797
1354.925175,6439.791695,-7105.977043,1149.143247
1354.925504,7328.038826,-4589.276840,1072.533697
1354.925833,7698.141797,-4219.173869,76.609550
1354.926162,7772.162391,-5255.462188,536.266849
1354.926491,7476.080014,-7105.977043,1225.752797
1354.926820,7698.141797,-7105.977043,1838.629195
1354.927149,7846.182985,-4959.379811,1378.971896
1354.927478,7031.956449,-4441.235652,1225.752797
1354.927807,7179.997637,-5477.523971,842.705048
1354.928136,6883.915261,-7846.182985,1225.752797
1354.928465,5995.668130,-8216.285956,1532.190996
1354.928794,6217.729913,-6735.874072,1225.752797
1354.929122,6957.935855,-5551.544565,1072.533697
1354.929451,7550.100608,-4589.276840,153.219100
1354.929780,7031.956449,-5921.647536,459.657299
1354.930109,7328.038826,-7105.977043,1532.190996
1354.930438,7624.121203,-7476.080014,1685.410096
1354.930767,7994.224174,-5699.585753,1608.800546
1354.931096,7402.059420,-5033.400406,919.314598
1354.931425,6587.832884,-6513.812290,0.000000
1354.931754,5847.626942,-8660.409521,766.095498
1354.932083,6069.688724,-9030.512492,919.314598
1354.932412,7179.997637,-7994.224174,1302.362347
1354.932741,7698.141797,-5477.523971,1149.143247
1354.933070,7772.162391,-5329.482782,536.266849
1354.933399,7328.038826,-6291.750507,0.000000
1354.933728,6587.832884,-6735.874072,919.314598
1354.934057,6513.812290,-7179.997637,1072.533697
1354.934386,7031.956449,-5847.626942,1302.362347
1354.934715,6809.894666,-5329.482782,1225.752797
1354.935043,7179.997637,-6069.688724,842.705048
1354.935372,7254.018232,-7254.018232,1149.143247
1354.935701,7105.977043,-8660.409521,2145.067394
1354.936030,7698.141797,-7328.038826,1915.238745
1354.936359,7254.018232,-5033.400406,1532.190996
1354.936688,7328.038826,-4885.359217,1072.533697
1354.937017,7031.956449,-5329.482782,536.266849
1354.937346,7179.997637,-7254.018232,1532.190996
1354.937675,7105.977043,-7698.141797,2221.676944
1354.938004,7105.977043,-6365.771101,1225.752797
1354.938333,6217.729913,-5551.544565,689.485948
1354.938662,5329.482782,-6513.812290,0.000000
1354.938991,5255.462188,-8438.347739,0.000000
1354.939320,5625.565159,-8956.491898,1302.362347
1354.939649,6143.709319,-7772.162391,1225.752797
1354.939978,6957.935855,-5773.606348,1149.143247
1354.940307,7698.141797,-4219.173869,689.485948
1354.940635,7698.141797,-5477.523971,0.000000
1354.940964,7846.182985,-6735.874072,1685.410096
1354.941293,7772.162391,-6957.935855,2068.457845
1354.941622,7846.182985,-5847.626942,1838.629195
1354.941951,7698.141797,-4737.318029,1225.752797
1354.942280,7254.018232,-4737.318029,1455.581446
1354.942609,6587.832884,-6883.915261,842.705048
1354.942938,6069.688724,-7476.080014,2145.067394
1354.943267,6069.688724,-7920.203579,1532.190996
1354.943596,6883.915261,-5921.647536,1225.752797
1354.943925,6735.874072,-4219.173869,536.266849
1354.944254,6883.915261,-5329.482782,689.485948
1354.944583,6957.935855,-7031.956449,995.924147
1354.944912,7402.059420,-7254.018232,1685.410096
1354.945241,7920.203579,-6883.915261,1762.019645
1354.945570,7254.018232,-5477.523971,1225.752797
1354.945899,6809.894666,-6587.832884,1225.752797
1354.946227,6291.750507,-8142.265362,536.266849
1354.946556,5551.544565,-9474.636058,995.924147
1354.946885,6143.709319,-9252.574275,1225.752797
1354.947214,7105.977043,-6217.729913,1149.143247
1354.947543,8068.244768,-4367.215058,229.828649
1354.947872,7031.956449,-4811.338623,0.000000
1354.948201,6735.874072,-7254.018232,766.095498
1354.948530,6957.935855,-7698.141797,1072.533697
1354.948859,6809.894666,-5255.462188,995.924147
1354.949188,7254.018232,-4737.318029,766.095498
1354.949517,7920.203579,-4367.215058,612.876398
1354.949846,7994.224174,-7105.977043,1149.143247
1354.950175,7328.038826,-8290.306550,2145.067394
1354.950504,7328.038826,-6809.894666,1532.190996
1354.950833,6957.935855,-5995.668130,919.314598
1354.951162,6661.853478,-4811.338623,612.876398
1354.951491,7105.977043,-6291.750507,919.314598
1354.951820,7624.121203,-7698.141797,1838.629195
1354.952148,7328.038826,-7624.121203,2451.505594
1354.952477,7402.059420,-6069.688724,1302.362347
1354.952806,6735.874072,-4737.318029,919.314598
1354.953135,5699.585753,-6217.729913,229.828649
1354.953464,5551.544565,-7846.182985,306.438199
1354.953793,4737.318029,-9400.615463,919.314598
1354.954122,4959.379811,-8882.471304,766.095498
1354.954451,6957.935855,-6069.688724,459.657299
1354.954780,7179.997637,-4811.338623,383.047749
1354.955109,7550.100608,-5477.523971,383.047749
1354.955438,8290.306550,-7105.977043,1225.752797
1354.955767,8216.285956,-7105.977043,2145.067394
1354.956096,7624.121203,-5995.668130,1685.410096
1354.956425,6735.874072,-3627.009116,1532.190996
1354.956754,6735.874072,-4885.359217,229.828649
1354.957083,6883.915261,-7254.018232,995.924147
1354.957412,7105.977043,-8068.244768,2298.286494
1354.957740,7105.977043,-7105.977043,1608.800546
1354.958069,7031.956449,-4515.256246,919.314598
1354.958398,6809.894666,-4441.235652,0.000000
1354.958727,6735.874072,-4959.379811,153.219100
1354.959056,6809.894666,-7105.977043,842.705048
1354.959385,7179.997637,-7476.080014,1838.629195
1354.959714,7402.059420,-6217.729913,1149.143247
1354.960043,6735.874072,-5625.565159,766.095498
1354.960372,6439.791695,-6735.874072,153.219100
1354.960701,5921.647536,-8586.388927,689.485948
1354.961030,6587.832884,-10362.883188,1455.581446
1354.961359,5921.647536,-8956.491898,1685.410096
1354.961688,6439.791695,-6513.812290,1149.143247
1354.962017,7402.059420,-4737.318029,766.095498
1354.962346,7846.182985,-5403.503377,689.485948
1354.962675,7772.162391,-6513.812290,919.314598
1354.963004,7476.080014,-6883.915261,1685.410096
1354.963332,7328.038826,-5699.585753,995.924147
1354.963661,7328.038826,-4515.256246,612.876398
1354.963990,8068.244768,-5255.462188,766.095498
1354.964319,7179.997637,-6883.915261,995.924147
1354.964648,6809.894666,-8364.327145,1838.629195
1354.964977,6809.894666,-7698.141797,1762.019645
1354.965306,7031.956449,-5329.482782,536.266849
1354.965635,7105.977043,-4885.359217,383.047749
1354.965964,7402.059420,-6069.688724,919.314598
1354.966293,7476.080014,-7550.100608,1532.190996
1354.966622,7105.977043,-8216.285956,2145.067394
1354.966951,6957.935855,-6661.853478,1532.190996
1354.967280,7105.977043,-5255.462188,689.485948
1354.967609,6143.709319,-5847.626942,536.266849
1354.967938,5847.626942,-7772.162391,76.609550
1354.968267,5551.544565,-9622.677246,1072.533697
1354.968596,6439.791695,-7402.059420,1149.143247
1354.968924,6809.894666,-6069.688724,842.705048
1354.969253,7328.038826,-4441.235652,612.876398
1354.969582,7624.121203,-5033.400406,0.000000
1354.969911,7624.121203,-6365.771101,153.219100
1354.970240,7698.141797,-6661.853478,1455.581446
1354.970569,8068.244768,-6587.832884,1608.800546
1354.970898,7994.224174,-4959.379811,1302.362347
1354.971227,7402.059420,-5181.441594,919.314598
1354.971556,7105.977043,-6439.791695,1762.019645
1354.971885,6883.915261,-8216.285956,1762.019645
1354.972214,6661.853478,-7846.182985,1991.848295
1354.972543,6883.915261,-5477.523971,995.924147
1354.972872,7105.977043,-4885.359217,612.876398
1354.973201,7402.059420,-4811.338623,1072.533697
1354.973530,7105.977043,-7105.977043,1149.143247
1354.973859,7550.100608,-8142.265362,1915.238745
1354.974188,7254.018232,-5847.626942,1302.362347
1354.974517,6735.874072,-5773.606348,536.266849
1354.974845,6143.709319,-6143.709319,536.266849
1354.975174,5329.482782,-8882.471304,0.000000
1354.975503,4663.297435,-10510.924376,995.924147
1354.975832,4885.359217,-8956.491898,1149.143247
1354.976161,6069.688724,-6661.853478,459.657299
1354.976490,7254.018232,-5477.523971,1149.143247
1354.976819,7698.141797,-5995.668130,995.924147
1354.977148,7624.121203,-6883.915261,612.876398
1354.977477,7105.977043,-7031.956449,1455.581446
1354.977806,7994.224174,-5625.565159,1608.800546
1354.978135,7920.203579,-4589.276840,1378.971896
1354.978464,8216.285956,-4811.338623,1532.190996
1354.978793,7476.080014,-5995.668130,1378.971896
1354.979122,7328.038826,-7105.977043,1685.410096
1354.979451,6365.771101,-7328.038826,2068.457845
1354.979780,6587.832884,-5699.585753,1225.752797
1354.980109,6661.853478,-4811.338623,229.828649
1354.980437,6587.832884,-5255.462188,766.095498
1354.980766,6439.791695,-7328.038826,995.924147
1354.981095,7105.977043,-8142.265362,1608.800546
1354.981424,7698.141797,-6143.709319,1838.629195
1354.981753,7624.121203,-5403.503377,995.924147
1354.982082,7254.018232,-5921.647536,1149.143247
1354.982411,6365.771101,-7624.121203,842.705048
1354.982740,5847.626942,-9400.615463,919.314598
1354.983069,5699.585753,-8956.491898,1149.143247
1354.983398,5995.668130,-7031.956449,842.705048
1354.983727,7105.977043,-5255.462188,153.219100
1354.984056,7402.059420,-5995.668130,842.705048
1354.984385,7550.100608,-6809.894666,995.924147
1354.984714,7402.059420,-7031.956449,1225.752797
1354.985043,6957.935855,-6513.812290,1532.190996
1354.985372,6513.812290,-5033.400406,689.485948
1354.985701,6957.935855,-4885.359217,536.266849
1354.986029,7254.018232,-6735.874072,1072.533697
1354.986358,7254.018232,-8290.306550,2068.457845
1354.986687,7846.182985,-7254.018232,2298.286494
1354.987016,7402.059420,-5403.503377,1072.533697
1354.987345,7105.977043,-4219.173869,0.000000
1354.987674,7105.977043,-4737.318029,766.095498
1354.988003,7846.182985,-6217.729913,919.314598
1354.988332,8068.244768,-8512.368333,1532.190996
1354.988661,7698.141797,-6587.832884,2451.505594
1354.988990,6809.894666,-6439.791695,842.705048
1354.989319,5181.441594,-6513.812290,-229.828649
1354.989648,4737.318029,-7254.018232,153.219100
1354.989977,5033.400406,-10584.944971,612.876398
1354.990306,5477.523971,-9030.512492,1072.533697
1354.990635,5847.626942,-7179.997637,919.314598
1354.990964,6957.935855,-4959.379811,1072.533697
1354.991293,7624.121203,-4663.297435,1149.143247
1354.991622,7994.224174,-6291.750507,1072.533697
1354.991950,7772.162391,-6809.894666,1762.019645
1354.992279,8290.306550,-5921.647536,1915.238745
1354.992608,8290.306550,-4663.297435,1378.971896
1354.992937,7105.977043,-4071.132681,766.095498
1354.993266,7105.977043,-6143.709319,919.314598
1354.993595,7179.997637,-7476.080014,1608.800546
1354.993924,6809.894666,-8290.306550,1762.019645
1354.994253,6735.874072,-5995.668130,1838.629195
1354.994582,6291.750507,-5033.400406,612.876398
1354.994911,6883.915261,-5033.400406,383.047749
1354.995240,7105.977043,-6513.812290,995.924147
1354.995569,7031.956449,-8142.265362,1762.019645
1354.995898,7624.121203,-5921.647536,2145.067394
1354.996227,7254.018232,-6069.688724,1532.190996
1354.996556,6439.791695,-5921.647536,766.095498
1354.996885,5773.606348,-7105.977043,306.438199
1354.997214,5403.503377,-10140.821405,689.485948
1354.997542,5107.421000,-9252.574275,919.314598
1354.997871,5551.544565,-8290.306550,995.924147
1354.998200,6735.874072,-6217.729913,612.876398
1354.998529,7402.059420,-5921.647536,612.876398
1354.998858,7105.977043,-7105.977043,689.485948
1354.999187,6291.750507,-8734.430116,919.314598
1354.999516,6069.688724,-8364.327145,1149.143247
1354.999845,5921.647536,-6809.894666,229.828649
1355.000174,5551.544565,-6291.750507,0.000000
1355.000503,6365.771101,-7994.224174,459.657299
1355.000832,6217.729913,-9474.636058,995.924147
1355.001161,6143.709319,-9770.718434,1838.629195
1355.001490,6143.709319,-7254.018232,1532.190996
1355.001819,5921.647536,-4811.338623,1072.533697
1355.002148,6143.709319,-5625.565159,229.828649
1355.002477,5921.647536,-6957.935855,766.095498
1355.002806,6513.812290,-8142.265362,1608.800546
1355.003134,7846.182985,-7179.997637,2834.553343
1355.003463,8290.306550,-6217.729913,2834.553343
1355.003792,7179.997637,-5181.441594,1378.971896
1355.004121,5921.647536,-6291.750507,919.314598
1355.004450,5033.400406,-8734.430116,612.876398
1355.004779,4885.359217,-10066.800811,1225.752797
1355.005108,4959.379811,-8808.450710,1532.190996
1355.005437,5625.565159,-7476.080014,1225.752797
1355.005766,5847.626942,-6883.915261,1072.533697
1355.006095,4737.318029,-8438.347739,842.705048
1355.006424,4737.318029,-9844.739029,1455.581446
1355.006753,4885.359217,-8586.388927,766.095498
1355.007082,5403.503377,-7550.100608,1455.581446
1355.007411,5551.544565,-7254.018232,1455.581446
1355.007740,5033.400406,-8216.285956,995.924147
1355.008069,4071.132681,-9696.697840,1149.143247
1355.008398,3701.029710,-10732.986159,842.705048
1355.008727,3997.112087,-9622.677246,1685.410096
1355.009056,4367.215058,-8438.347739,1608.800546
1355.009385,4293.194464,-8956.491898,2451.505594
1355.009714,3849.070898,-8956.491898,1302.362347
1355.010043,3775.050304,-8290.306550,842.705048
1355.010372,4071.132681,-7550.100608,1072.533697
1355.010701,5995.668130,-6217.729913,1225.752797
1355.011030,6439.791695,-5995.668130,2068.457845
1355.011359,6513.812290,-8216.285956,1455.581446
1355.011688,5551.544565,-9918.759623,1378.971896
1355.012017,4515.256246,-11029.068536,919.314598
1355.012346,4441.235652,-9844.739029,459.657299
1355.012675,3997.112087,-10584.944971,229.828649
1355.013004,3701.029710,-11029.068536,0.000000
1355.013333,3108.864956,-11621.233289,-459.657299
1355.013662,3034.844362,-12805.562797,0.000000
1355.013991,3923.091493,-12287.418637,766.095498
1355.014320,3330.926739,-9992.780217,1455.581446
1355.014649,4885.359217,-7254.018232,1991.848295
1355.014978,5551.544565,-4811.338623,1532.190996
1355.015307,6439.791695,-4737.318029,1762.019645
1355.015636,7698.141797,-3849.070898,1532.190996
1355.015965,7846.182985,-4515.256246,1838.629195
1355.016294,7550.100608,-5107.421000,1072.533697
1355.016623,5625.565159,-7254.018232,689.485948
1355.016952,4515.256246,-10140.821405,766.095498
1355.017281,3108.864956,-12509.480420,1149.143247
1355.017610,3034.844362,-12657.521608,383.047749
1355.017939,3552.988522,-11325.150913,306.438199
1355.018268,4145.153275,-10436.903782,-383.047749
1355.018597,4589.276840,-9696.697840,536.266849
1355.018926,3923.091493,-10288.862594,459.657299
1355.019255,3997.112087,-9770.718434,0.000000
1355.019584,3997.112087,-8734.430116,0.000000
1355.019913,4367.215058,-8660.409521,689.485948
1355.020242,5255.462188,-8586.388927,2374.896044
1355.020571,6365.771101,-6809.894666,2145.067394
1355.020900,7179.997637,-4589.276840,2298.286494
1355.021229,7550.100608,-3849.070898,1302.362347
1355.021558,8068.244768,-3478.967927,1532.190996
1355.021887,7105.977043,-5551.544565,842.705048
1355.022216,6439.791695,-7698.141797,229.828649
1355.022545,5847.626942,-9474.636058,1608.800546
1355.022874,5921.647536,-10955.047942,1608.800546
1355.023203,4959.379811,-11103.089130,2145.067394
1355.023532,4737.318029,-9770.718434,1838.629195
1355.023861,4885.359217,-9178.553681,1608.800546
1355.024190,4441.235652,-8290.306550,1532.190996
1355.024519,3849.070898,-7846.182985,1302.362347
1355.024848,3923.091493,-7920.203579,612.876398
1355.025177,3552.988522,-8142.265362,306.438199
1355.025506,3256.906145,-8290.306550,-383.047749
1355.025835,3108.864956,-9030.512492,229.828649
1355.026164,3775.050304,-9326.594869,919.314598
1355.026493,4737.318029,-9326.594869,919.314598
1355.026822,5255.462188,-9622.677246,1378.971896
1355.027151,5181.441594,-9548.656652,1838.629195
1355.027480,6069.688724,-10362.883188,1915.238745
1355.027809,5403.503377,-9326.594869,2451.505594
1355.028137,5107.421000,-9104.533087,2221.676944
1355.028466,5477.523971,-8660.409521,2298.286494
1355.028795,5255.462188,-7254.018232,1915.238745
1355.029124,4737.318029,-7772.162391,1685.410096
1355.029453,3923.091493,-7105.977043,612.876398
1355.029782,3701.029710,-7179.997637,306.438199
1355.030111,3330.926739,-8512.368333,-383.047749
1355.030440,3034.844362,-8586.388927,-689.485948
1355.030769,3108.864956,-10066.800811,-919.314598
1355.031098,3775.050304,-11177.109724,-919.314598
1355.031427,4441.235652,-12139.377449,1072.533697
1355.031756,5255.462188,-12583.501014,1991.848295
1355.032085,5625.565159,-10732.986159,2681.334243
1355.032414,5699.585753,-9770.718434,2987.772442
1355.032743,5625.565159,-7698.141797,2528.115143
1355.033072,5699.585753,-6883.915261,2681.334243
1355.033401,6069.688724,-6439.791695,3140.991542
1355.033730,6735.874072,-5255.462188,3294.210641
1355.034059,6957.935855,-5255.462188,2757.943793
1355.034388,6439.791695,-5773.606348,2451.505594
1355.034717,5847.626942,-7179.997637,1685.410096
1355.035046,5551.544565,-8364.327145,1915.238745
1355.035375,4145.153275,-9252.574275,229.828649
1355.035704,3997.112087,-10288.862594,0.000000
1355.036033,4071.132681,-10140.821405,689.485948
1355.036362,4293.194464,-11177.109724,766.095498
1355.036691,4367.215058,-10584.944971,2145.067394
1355.037020,4811.338623,-9696.697840,2987.772442
1355.037349,6661.853478,-7994.224174,3907.087040
1355.037678,7772.162391,-5847.626942,4903.011187
1355.038007,8364.327145,-4811.338623,5439.278036
1355.038336,8734.430116,-3404.947333,4749.792088
1355.038665,7994.224174,-2960.823768,3907.087040
1355.038994,7328.038826,-2886.803174,2757.943793
1355.039323,7105.977043,-4663.297435,2451.505594
1355.039652,6883.915261,-5921.647536,2987.772442
1355.039981,6291.750507,-7476.080014,2298.286494
1355.040310,5921.647536,-9326.594869,2528.115143
1355.040639,5995.668130,-9252.574275,3140.991542
1355.040968,5625.565159,-9548.656652,3064.381992
1355.041297,5403.503377,-8956.491898,3064.381992
1355.041626,5255.462188,-7624.121203,2987.772442
1355.041955,4959.379811,-7624.121203,3370.820191
1355.042284,5847.626942,-7105.977043,4519.963438
1355.042613,7328.038826,-5921.647536,4826.401637
1355.042942,8364.327145,-4589.276840,4366.744339
1355.043271,9030.512492,-3849.070898,4979.620737
1355.043600,9696.697840,-3404.947333,4596.572988
1355.043929,8882.471304,-4441.235652,4749.792088
1355.044258,8068.244768,-5329.482782,4673.182538
1355.044587,7328.038826,-6883.915261,3907.087040
1355.044916,6439.791695,-8808.450710,3600.648841
1355.045245,5477.523971,-10955.047942,4060.306139
1355.045574,3701.029710,-11695.253884,4366.744339
1355.045903,2886.803174,-11177.109724,2604.724693
1355.046232,2072.576638,-10140.821405,2987.772442
1355.046561,2960.823768,-9400.615463,3447.429741
1355.046890,4145.153275,-8142.265362,3753.867940
1355.047219,5847.626942,-6587.832884,4749.792088
1355.047548,7031.956449,-5625.565159,4903.011187
1355.047877,7772.162391,-4219.173869,5592.497135
1355.048206,9178.553681,-4219.173869,6358.592633
1355.048535,10436.903782,-3478.967927,6588.421283
1355.048864,10881.027347,-2886.803174,5898.935335
1355.049193,10288.862594,-3182.885551,6052.154434
1355.049522,9548.656652,-3627.009116,5209.449386
1355.049851,8586.388927,-4959.379811,4903.011187
1355.050180,7402.059420,-6217.729913,4443.353888
1355.050509,6069.688724,-7328.038826,3983.696590
1355.050838,5403.503377,-8512.368333,3524.039291
1355.051167,4367.215058,-9474.636058,3677.258390
1355.051496,3849.070898,-10066.800811,4290.134789
1355.051825,3552.988522,-9622.677246,4213.525239
1355.052154,3256.906145,-8956.491898,3294.210641
1355.052483,3330.926739,-8512.368333,3524.039291
1355.052812,5181.441594,-7105.977043,4060.306139
1355.053141,7179.997637,-5995.668130,4749.792088
1355.053470,9400.615463,-4737.318029,6358.592633
1355.053799,10362.883188,-3182.885551,6128.763984
1355.054128,10288.862594,-2072.576638,5745.716235
1355.054457,9548.656652,-2368.659014,5056.230287
1355.054786,8882.471304,-2886.803174,3983.696590
1355.055115,7772.162391,-5033.400406,3600.648841
1355.055444,6735.874072,-6809.894666,3064.381992
1355.055773,5921.647536,-8956.491898,2451.505594
1355.056102,5551.544565,-9696.697840,2604.724693
1355.056431,5255.462188,-9622.677246,2604.724693
1355.056760,5403.503377,-9548.656652,2987.772442
1355.057089,5403.503377,-8660.409521,3370.820191
1355.057418,6143.709319,-7402.059420,3677.258390
1355.057747,7698.141797,-5551.544565,4213.525239
1355.058076,9104.533087,-4071.132681,4749.792088
1355.058405,9548.656652,-4145.153275,4673.182538
1355.058734,9178.553681,-4441.235652,3907.087040
1355.059063,8216.285956,-5107.421000,3600.648841
1355.059392,7179.997637,-5551.544565,2451.505594
1355.059721,5847.626942,-7105.977043,2757.943793
1355.060050,5181.441594,-7698.141797,2681.334243
1355.060379,5329.482782,-8660.409521,3140.991542
1355.060708,5847.626942,-8734.430116,3907.087040
1355.061037,7105.977043,-7772.162391,4673.182538
1355.061366,7624.121203,-7031.956449,4213.525239
1355.061695,7772.162391,-6365.771101,4366.744339
1355.062024,7624.121203,-5551.544565,3983.696590
1355.062353,7254.018232,-4293.194464,3524.039291
1355.062682,7105.977043,-3997.112087,3447.429741
1355.063011,7846.182985,-3108.864956,2987.772442
1355.063340,8364.327145,-4071.132681,3370.820191
1355.063669,8290.306550,-4589.276840,3830.477490
1355.063998,8512.368333,-6513.812290,3677.258390
1355.064327,7105.977043,-8586.388927,3064.381992
1355.064656,5255.462188,-10807.006753,2987.772442
1355.064985,4367.215058,-11843.295072,2834.553343
1355.065314,3997.112087,-10362.883188,3064.381992
1355.065643,3701.029710,-9844.739029,3217.601092
1355.065972,5181.441594,-7031.956449,3370.820191
1355.066301,6735.874072,-5107.421000,3983.696590
1355.066630,7772.162391,-4293.194464,4903.011187
1355.066959,8290.306550,-3404.947333,5362.668486
1355.067288,7994.224174,-2368.659014,4749.792088
1355.067617,8660.409521,-1850.514855,4366.744339
1355.067946,9696.697840,-2368.659014,4596.572988
1355.068275,10288.862594,-3627.009116,5132.839837
1355.068604,9918.759623,-5107.421000,4060.306139
1355.068933,8068.244768,-7624.121203,3447.429741
1355.069262,5773.606348,-9474.636058,2221.676944
1355.069591,3627.009116,-11843.295072,919.314598
1355.069920,2294.638420,-12657.521608,1915.238745
1355.070249,2294.638420,-12213.398043,2145.067394
1355.070578,3404.947333,-10658.965565,1838.629195
1355.070907,5033.400406,-7105.977043,2298.286494
1355.071236,7105.977043,-5625.565159,3294.210641
1355.071565,9474.636058,-4367.215058,4749.792088
1355.071894,9918.759623,-2294.638420,4596.572988
1355.072223,9474.636058,-666.185348,4290.134789
1355.072552,10732.986159,0.000000,3830.477490
1355.072881,10288.862594,-1184.329507,3064.381992
1355.073210,8808.450710,-4737.318029,3677.258390
1355.073539,7698.141797,-7328.038826,3370.820191
1355.073868,7476.080014,-8808.450710,1838.629195
1355.074197,6661.853478,-10436.903782,1762.019645
1355.074526,5329.482782,-12213.398043,2374.896044
1355.074855,4515.256246,-12435.459826,1302.362347
1355.075184,3108.864956,-10288.862594,536.266849
1355.075513,2368.659014,-7624.121203,536.266849
1355.075842,4071.132681,-5329.482782,536.266849
1355.076171,7698.141797,-3849.070898,3524.039291
1355.076500,9770.718434,-2738.761985,3907.087040
1355.076829,9770.718434,-2664.741391,3294.210641
1355.077158,8882.471304,-1924.535449,2451.505594
1355.077487,8438.347739,-3849.070898,1685.410096
1355.077816,8364.327145,-6217.729913,1915.238745
1355.078145,8364.327145,-7402.059420,2145.067394
1355.078474,7550.100608,-9252.574275,1072.533697
1355.078803,5995.668130,-9178.553681,76.609550
1355.079132,4737.318029,-9548.656652,459.657299
1355.079461,4959.379811,-9474.636058,153.219100
1355.079790,6069.688724,-8660.409521,766.095498
1355.080119,6587.832884,-7254.018232,1149.143247
1355.080448,7105.977043,-5551.544565,1532.190996
1355.080777,7031.956449,-4885.359217,1225.752797
1355.081106,6735.874072,-5033.400406,1685.410096
1355.081435,6587.832884,-3701.029710,1302.362347
1355.081764,7105.977043,-3627.009116,842.705048
1355.082093,8142.265362,-3701.029710,1455.581446
1355.082422,8734.430116,-4663.297435,995.924147
1355.082751,8660.409521,-6069.688724,842.705048
1355.083080,7994.224174,-7105.977043,459.657299
1355.083409,7105.977043,-8660.409521,919.314598
1355.083738,7328.038826,-9548.656652,995.924147
1355.084067,6217.729913,-10288.862594,766.095498
1355.084396,4441.235652,-9918.759623,-612.876398
1355.084725,3330.926739,-9326.594869,-766.095498
1355.085054,3775.050304,-8586.388927,-229.828649
1355.085383,5699.585753,-7105.977043,536.266849
1355.085712,6883.915261,-5625.565159,1378.971896
1355.086041,7846.182985,-4737.318029,1608.800546
1355.086370,8512.368333,-3849.070898,1838.629195
1355.086699,8216.285956,-3775.050304,1685.410096
1355.087028,9326.594869,-3997.112087,2374.896044
1355.087357,10362.883188,-4145.153275,2221.676944
1355.087686,9770.718434,-4737.318029,1532.190996
1355.088015,8512.368333,-6291.750507,1608.800546
1355.088344,6291.750507,-8364.327145,229.828649
1355.088673,5477.523971,-9992.780217,0.000000
1355.089002,5329.482782,-10288.862594,153.219100
1355.089331,5921.647536,-9696.697840,383.047749
1355.089660,5477.523971,-8142.265362,0.000000
1355.089989,4071.132681,-6809.894666,-612.876398
1355.090318,4589.276840,-5329.482782,0.000000
1355.090647,6883.915261,-4367.215058,1072.533697
1355.090976,9622.677246,-3404.947333,3140.991542
1355.091305,9770.718434,-2960.823768,2834.553343
1355.091634,8956.491898,-3923.091493,2374.896044
1355.091963,7328.038826,-5477.523971,1225.752797
1355.092292,6365.771101,-7402.059420,383.047749
1355.092621,6069.688724,-8068.244768,2298.286494
1355.092950,6957.935855,-7920.203579,1378.971896
1355.093279,6661.853478,-7846.182985,229.828649
1355.093608,5773.606348,-7550.100608,536.266849
1355.093937,5181.441594,-7402.059420,153.219100
1355.094266,6143.709319,-7105.977043,842.705048
1355.094595,7624.121203,-6365.771101,2145.067394
1355.094924,8586.388927,-5625.565159,1915.238745
1355.095253,7846.182985,-4737.318029,1762.019645
1355.095582,6291.750507,-5107.421000,1149.143247
1355.095911,6365.771101,-5699.585753,842.705048
1355.096240,8290.306550,-5329.482782,1762.019645
1355.096569,9474.636058,-6143.709319,2604.724693
1355.096898,9178.553681,-5773.606348,1915.238745
1355.097227,7402.059420,-7031.956449,1455.581446
1355.097556,5625.565159,-7920.203579,0.000000
1355.097885,5847.626942,-8290.306550,0.000000
1355.098214,7624.121203,-7994.224174,1608.800546
1355.098543,8364.327145,-8068.244768,1532.190996
1355.098872,6439.791695,-7846.182985,919.314598
1355.099201,4737.318029,-8364.327145,689.485948
1355.099530,4145.153275,-8438.347739,229.828649
1355.099859,5255.462188,-7105.977043,995.924147
1355.100188,6291.750507,-6143.709319,1915.238745
1355.100517,7179.997637,-5107.421000,1225.752797
1355.100846,7846.182985,-4145.153275,995.924147
1355.101175,7994.224174,-5181.441594,2068.457845
1355.101504,8512.368333,-4811.338623,2451.505594
1355.101833,9474.636058,-4885.359217,2145.067394
1355.102162,8882.471304,-5625.565159,1915.238745
1355.102491,7105.977043,-6513.812290,1149.143247
1355.102820,5625.565159,-8142.265362,842.705048
1355.103149,4589.276840,-9696.697840,76.609550
1355.103478,4367.215058,-9400.615463,76.609550
1355.103807,5773.606348,-8216.285956,229.828649
1355.104136,6809.894666,-6587.832884,306.438199
1355.104465,6217.729913,-6069.688724,612.876398
1355.104794,6365.771101,-5773.606348,689.485948
1355.105123,7105.977043,-4589.276840,1378.971896
1355.105452,8586.388927,-4737.318029,2298.286494
1355.105781,8882.471304,-3849.070898,2911.162892
1355.106110,7772.162391,-4145.153275,1685.410096
1355.106439,6513.812290,-5773.606348,612.876398
1355.106768,5033.400406,-7328.038826,76.609550
1355.107097,5995.668130,-8438.347739,612.876398
1355.107426,7105.977043,-7402.059420,306.438199
1355.107755,7328.038826,-8438.347739,0.000000
1355.108084,6809.894666,-7920.203579,459.657299
1355.108413,6513.812290,-7624.121203,689.485948
1355.108742,7105.977043,-7179.997637,1149.143247
1355.109071,8364.327145,-5773.606348,1225.752797
1355.109401,9400.615463,-4885.359217,766.095498
1355.109730,8586.388927,-4737.318029,995.924147
1355.110059,7105.977043,-5033.400406,766.095498
1355.110388,6587.832884,-6291.750507,842.705048
1355.110717,7476.080014,-5477.523971,766.095498
1355.111046,7402.059420,-5625.565159,1072.533697
1355.111375,7402.059420,-6291.750507,612.876398
1355.111704,6809.894666,-6587.832884,0.000000
1355.112033,5921.647536,-7846.182985,612.876398
1355.112362,6439.791695,-7328.038826,1072.533697
1355.112691,7698.141797,-7179.997637,1072.533697
1355.113021,8216.285956,-7031.956449,1378.971896
1355.113350,7254.018232,-7254.018232,1149.143247
1355.113679,5921.647536,-8216.285956,0.000000
1355.114008,4663.297435,-8290.306550,689.485948
1355.114337,4885.359217,-7624.121203,459.657299
1355.114666,6587.832884,-6661.853478,1225.752797
1355.114995,7402.059420,-5699.585753,1149.143247
1355.115324,7624.121203,-5181.441594,1072.533697
1355.115653,7624.121203,-5181.441594,1378.971896
1355.115982,7624.121203,-5329.482782,1685.410096
1355.116311,7994.224174,-5329.482782,2068.457845
1355.116641,8142.265362,-5107.421000,1378.971896
1355.116970,6809.894666,-6439.791695,919.314598
1355.117299,5033.400406,-7254.018232,-306.438199
1355.117628,4515.256246,-8734.430116,76.609550
1355.117957,6143.709319,-9326.594869,919.314598
1355.118286,7254.018232,-7772.162391,1072.533697
1355.118615,7402.059420,-6513.812290,1072.533697
1355.118944,6587.832884,-6809.894666,459.657299
1355.119273,6365.771101,-6735.874072,1072.533697
1355.119602,6735.874072,-5403.503377,1072.533697
1355.119931,8142.265362,-5033.400406,1762.019645
1355.120260,9104.533087,-4811.338623,2451.505594
1355.120590,8290.306550,-5773.606348,2068.457845
1355.120919,6291.750507,-7254.018232,1072.533697
1355.121248,3997.112087,-7698.141797,995.924147
1355.121577,4293.194464,-8882.471304,76.609550
1355.121906,5255.462188,-7179.997637,459.657299
1355.122235,6439.791695,-6883.915261,0.000000
1355.122564,6957.935855,-7254.018232,1072.533697
1355.122893,7105.977043,-6587.832884,2068.457845
1355.123222,7994.224174,-6439.791695,1991.848295
1355.123551,9104.533087,-5921.647536,2298.286494
1355.123880,9696.697840,-4811.338623,2298.286494
1355.124210,8882.471304,-5181.441594,1685.410096
1355.124539,6587.832884,-5403.503377,1225.752797
1355.124868,5181.441594,-6069.688724,229.828649
1355.125197,6291.750507,-6513.812290,0.000000
1355.125526,7698.141797,-6735.874072,766.095498
1355.125855,8216.285956,-6587.832884,842.705048
1355.126184,7105.977043,-7254.018232,1149.143247
1355.126513,6587.832884,-7846.182985,1072.533697
1355.126842,6439.791695,-7179.997637,1072.533697
1355.127171,7920.203579,-6513.812290,1455.581446
1355.127500,8586.388927,-5477.523971,2145.067394
1355.127830,7624.121203,-5403.503377,995.924147
1355.128159,5699.585753,-5773.606348,-612.876398
1355.128488,4811.338623,-6735.874072,76.609550
1355.128817,5847.626942,-7476.080014,229.828649
1355.129146,7402.059420,-7550.100608,1762.019645
1355.129475,7772.162391,-6957.935855,2528.115143
1355.129804,7550.100608,-6587.832884,1608.800546
1355.130133,6587.832884,-5699.585753,995.924147
1355.130462,6143.709319,-4663.297435,1149.143247
1355.130791,7402.059420,-5847.626942,919.314598
1355.131120,8142.265362,-5255.462188,1072.533697
1355.131449,7402.059420,-5329.482782,689.485948
1355.131779,5921.647536,-6661.853478,-76.609550
1355.132108,5403.503377,-8660.409521,919.314598
1355.132437,6365.771101,-8364.327145,1532.190996
1355.132766,7624.121203,-7476.080014,1455.581446
1355.133095,7846.182985,-5995.668130,1378.971896
1355.133424,7550.100608,-5699.585753,1685.410096
1355.133753,7031.956449,-6143.709319,153.219100
1355.134082,6365.771101,-5773.606348,0.000000
1355.134411,7031.956449,-5477.523971,689.485948
1355.134740,8142.265362,-5995.668130,1225.752797
1355.135069,6957.935855,-6069.688724,1532.190996
1355.135399,5329.482782,-7624.121203,766.095498
1355.135728,4885.359217,-8438.347739,459.657299
1355.136057,5699.585753,-9474.636058,1072.533697
1355.136386,6883.915261,-8956.491898,1991.848295
1355.136715,7698.141797,-6439.791695,1378.971896
1355.137044,7105.977043,-6143.709319,766.095498
1355.137373,6365.771101,-5625.565159,306.438199
1355.137702,5995.668130,-5107.421000,306.438199
1355.138031,7624.121203,-5255.462188,612.876398
1355.138360,8956.491898,-5033.400406,1225.752797
1355.138689,8586.388927,-5699.585753,1991.848295
1355.139018,7476.080014,-7105.977043,1532.190996
1355.139348,6217.729913,-8068.244768,1225.752797
1355.139677,6217.729913,-7920.203579,153.219100
1355.140006,6883.915261,-7105.977043,306.438199
1355.140335,7179.997637,-6217.729913,306.438199
1355.140664,6735.874072,-5995.668130,0.000000
1355.140993,6143.709319,-6143.709319,0.000000
1355.141322,6439.791695,-6513.812290,1072.533697
1355.141651,8290.306550,-6587.832884,1685.410096
1355.141980,9252.574275,-6217.729913,2757.943793
1355.142309,8660.409521,-6069.688724,2681.334243
1355.142638,6439.791695,-6513.812290,1072.533697
1355.142968,4959.379811,-6217.729913,76.609550
1355.143297,4367.215058,-6883.915261,-306.438199
1355.143626,6069.688724,-7179.997637,153.219100
1355.143955,7698.141797,-5921.647536,1608.800546
1355.144284,7402.059420,-6365.771101,1685.410096
1355.144613,6957.935855,-6439.791695,1149.143247
1355.144942,7179.997637,-6217.729913,2145.067394
1355.145271,8142.265362,-6587.832884,1915.238745
1355.145600,8512.368333,-5773.606348,1838.629195
1355.145929,7105.977043,-5403.503377,1838.629195
1355.146258,6217.729913,-5773.606348,612.876398
1355.146588,5403.503377,-6883.915261,383.047749
1355.146917,5255.462188,-7105.977043,1378.971896
1355.147246,7402.059420,-6735.874072,1072.533697
1355.147575,8364.327145,-5773.606348,1762.019645
1355.147904,7698.141797,-5995.668130,1455.581446
1355.148233,6735.874072,-6883.915261,842.705048
1355.148562,7031.956449,-5921.647536,1225.752797
1355.148891,7402.059420,-5773.606348,1455.581446
1355.149220,7846.182985,-5847.626942,1608.800546
1355.149549,8216.285956,-6143.709319,1915.238745
1355.149878,6587.832884,-6809.894666,612.876398
1355.150207,4145.153275,-7994.224174,0.000000
1355.150537,3997.112087,-8068.244768,153.219100
1355.150866,5773.606348,-7846.182985,383.047749
