#time,accel_x,accel_y,accel_z
1361.034830,6587.832884,-7105.977043,1225.752797
1361.035160,6735.874072,-6291.750507,919.314598
1361.035490,6809.894666,-6883.915261,383.047749
1361.035820,6883.915261,-6883.915261,1225.752797
1361.036150,7105.977043,-7031.956449,1072.533697
1361.036480,7105.977043,-6661.853478,1378.971896
1361.036810,7031.956449,-6661.853478,1149.143247
1361.037140,6957.935855,-6291.750507,842.705048
1361.037470,7105.977043,-6439.791695,1072.533697
1361.037800,6957.935855,-6661.853478,919.314598
1361.038130,7105.977043,-6513.812290,689.485948
1361.038460,7328.038826,-5921.647536,1072.533697
1361.038790,7105.977043,-6217.729913,1378.971896
1361.039121,7105.977043,-5995.668130,1302.362347
1361.039451,7031.956449,-6365.771101,1378.971896
1361.039781,7105.977043,-6439.791695,1225.752797
1361.040111,7402.059420,-6291.750507,1149.143247
1361.040441,6957.935855,-6365.771101,1072.533697
1361.040771,6957.935855,-6735.874072,919.314598
1361.041101,7031.956449,-7105.977043,1378.971896
1361.041431,7105.977043,-6513.812290,1225.752797
1361.041761,7105.977043,-6809.894666,1072.533697
1361.042091,6661.853478,-6809.894666,1072.533697
1361.042421,6809.894666,-6661.853478,766.095498
1361.042751,6957.935855,-6661.853478,842.705048
1361.043081,6883.915261,-6291.750507,1302.362347
1361.043411,6883.915261,-6809.894666,1072.533697
1361.043741,7402.059420,-6513.812290,1149.143247
1361.044072,7179.997637,-6291.750507,995.924147
1361.044402,7179.997637,-6957.935855,612.876398
1361.044732,6957.935855,-6587.832884,1149.143247
1361.045062,7105.977043,-6809.894666,1072.533697
1361.045392,7179.997637,-6957.935855,919.314598
1361.045722,7105.977043,-6365.771101,1225.752797
1361.046052,7254.018232,-6513.812290,919.314598
1361.046382,6957.935855,-6291.750507,1302.362347
1361.046712,6809.894666,-6365.771101,1072.533697
1361.047042,6587.832884,-6069.688724,1072.533697
1361.047372,6735.874072,-6291.750507,1072.533697
1361.047702,7105.977043,-5921.647536,1302.362347
1361.048032,6957.935855,-6513.812290,995.924147
1361.048362,6809.894666,-6957.935855,1225.752797
1361.048692,6809.894666,-6809.894666,995.924147
1361.049022,6661.853478,-6735.874072,383.047749
1361.049353,6587.832884,-7328.038826,1072.533697
1361.049683,6735.874072,-7254.018232,1149.143247
1361.050013,6809.894666,-7105.977043,536.266849
1361.050343,6809.894666,-6957.935855,919.314598
1361.050673,6735.874072,-7031.956449,919.314598
1361.051003,7254.018232,-7031.956449,842.705048
1361.051333,7031.956449,-6365.771101,1225.752797
1361.051663,7031.956449,-6513.812290,1149.143247
1361.051993,7402.059420,-6217.729913,919.314598
1361.052323,7254.018232,-6143.709319,995.924147
1361.052653,6957.935855,-6439.791695,689.485948
1361.052983,7031.956449,-6365.771101,842.705048
1361.053313,7179.997637,-6069.688724,842.705048
1361.053643,7105.977043,-6217.729913,1455.581446
1361.053973,7031.956449,-6365.771101,1072.533697
1361.054304,6809.894666,-6735.874072,766.095498
1361.054634,6883.915261,-6365.771101,689.485948
1361.054964,7031.956449,-6513.812290,842.705048
1361.055294,6809.894666,-6809.894666,1225.752797
1361.055624,6809.894666,-6513.812290,1378.971896
1361.055954,7031.956449,-6291.750507,1455.581446
1361.056284,7031.956449,-6513.812290,1072.533697
1361.056614,6809.894666,-6291.750507,1149.143247
1361.056944,6661.853478,-6069.688724,1455.581446
1361.057274,7105.977043,-6291.750507,766.095498
1361.057604,6809.894666,-6439.791695,766.095498
1361.057934,6587.832884,-6883.915261,1072.533697
1361.058264,7254.018232,-7402.059420,459.657299
1361.058594,7179.997637,-6365.771101,1608.800546
1361.058924,6957.935855,-6365.771101,919.314598
1361.059255,7179.997637,-6661.853478,842.705048
1361.059585,7031.956449,-6365.771101,995.924147
1361.059915,7031.956449,-6439.791695,536.266849
1361.060245,7254.018232,-6735.874072,995.924147
1361.060575,7254.018232,-5699.585753,1149.143247
1361.060905,7179.997637,-6143.709319,995.924147
1361.061235,7179.997637,-6069.688724,1225.752797
1361.061565,7105.977043,-6365.771101,1608.800546
1361.061895,7105.977043,-6661.853478,995.924147
1361.062225,6439.791695,-6661.853478,536.266849
1361.062555,6365.771101,-6513.812290,689.485948
1361.062885,6587.832884,-6957.935855,1302.362347
1361.063215,7031.956449,-6957.935855,1149.143247
1361.063545,6735.874072,-6587.832884,1072.533697
1361.063875,6587.832884,-6513.812290,842.705048
1361.064206,6513.812290,-7105.977043,1378.971896
1361.064536,6809.894666,-6661.853478,995.924147
1361.064866,6513.812290,-7105.977043,919.314598
1361.065196,6661.853478,-6735.874072,1149.143247
1361.065526,7105.977043,-6883.915261,766.095498
1361.065856,7402.059420,-6809.894666,1225.752797
1361.066186,7105.977043,-6809.894666,383.047749
1361.066516,7179.997637,-6587.832884,1149.143247
1361.066846,7031.956449,-6735.874072,1302.362347
1361.067176,6957.935855,-6587.832884,689.485948
1361.067506,7179.997637,-6809.894666,1149.143247
1361.067836,7328.038826,-6217.729913,1149.143247
1361.068166,7476.080014,-6069.688724,919.314598
1361.068496,7328.038826,-6291.750507,1149.143247
1361.068826,7328.038826,-6069.688724,842.705048
1361.069157,6957.935855,-6291.750507,766.095498
1361.069487,6957.935855,-6217.729913,689.485948
1361.069817,6957.935855,-6661.853478,1072.533697
1361.070147,6957.935855,-6587.832884,766.095498
1361.070477,7105.977043,-6587.832884,1225.752797
1361.070807,7105.977043,-6439.791695,919.314598
1361.071137,6883.915261,-6661.853478,766.095498
1361.071467,6957.935855,-6809.894666,919.314598
1361.071797,6809.894666,-6809.894666,1532.190996
1361.072127,7105.977043,-6735.874072,1225.752797
1361.072457,6883.915261,-6587.832884,1149.143247
1361.072787,7031.956449,-7031.956449,1072.533697
1361.073117,7105.977043,-6513.812290,1225.752797
1361.073447,7254.018232,-6143.709319,1532.190996
1361.073777,7031.956449,-6809.894666,995.924147
1361.074108,7105.977043,-6513.812290,1072.533697
1361.074438,6809.894666,-6883.915261,1302.362347
1361.074768,6883.915261,-6513.812290,919.314598
1361.075098,6957.935855,-6513.812290,1378.971896
1361.075428,7105.977043,-6217.729913,1072.533697
1361.075758,7179.997637,-6439.791695,1225.752797
1361.076088,6809.894666,-6365.771101,1225.752797
1361.076418,6957.935855,-6809.894666,842.705048
1361.076748,6513.812290,-6291.750507,1455.581446
1361.077078,6513.812290,-5847.626942,1225.752797
1361.077408,6513.812290,-6587.832884,766.095498
1361.077738,6291.750507,-7031.956449,766.095498
1361.078068,7031.956449,-6661.853478,459.657299
1361.078398,6513.812290,-7031.956449,995.924147
1361.078728,6735.874072,-7031.956449,1225.752797
1361.079059,6661.853478,-6883.915261,919.314598
1361.079389,6809.894666,-7105.977043,1149.143247
1361.079719,6809.894666,-6513.812290,995.924147
1361.080049,6735.874072,-6883.915261,766.095498
1361.080379,7105.977043,-6735.874072,766.095498
1361.080709,7105.977043,-6513.812290,1072.533697
1361.081039,7105.977043,-6291.750507,1225.752797
1361.081369,7179.997637,-6365.771101,1072.533697
1361.081699,7105.977043,-6291.750507,1225.752797
1361.082029,7105.977043,-6513.812290,689.485948
1361.082359,7179.997637,-6365.771101,842.705048
1361.082689,7105.977043,-5995.668130,612.876398
1361.083019,7328.038826,-6513.812290,995.924147
1361.083349,7105.977043,-6587.832884,1072.533697
1361.083679,7179.997637,-6291.750507,1149.143247
1361.084010,7476.080014,-6513.812290,995.924147
1361.084340,6957.935855,-6291.750507,1455.581446
1361.084670,6809.894666,-6661.853478,995.924147
1361.085000,7031.956449,-6513.812290,1149.143247
1361.085330,7105.977043,-6365.771101,919.314598
1361.085660,6735.874072,-6513.812290,919.314598
1361.085990,6883.915261,-6217.729913,1149.143247
1361.086320,6957.935855,-6809.894666,1838.629195
1361.086650,7031.956449,-6513.812290,919.314598
1361.086980,6883.915261,-6883.915261,842.705048
1361.087310,6957.935855,-6513.812290,919.314598
1361.087640,7105.977043,-7105.977043,842.705048
1361.087970,7402.059420,-6587.832884,1302.362347
1361.088300,7328.038826,-7105.977043,1302.362347
1361.088630,7402.059420,-5847.626942,1149.143247
1361.088961,7328.038826,-6587.832884,1149.143247
1361.089291,6957.935855,-6587.832884,1149.143247
1361.089621,7105.977043,-6291.750507,995.924147
1361.089951,7328.038826,-5921.647536,1149.143247
1361.090281,7105.977043,-5699.585753,995.924147
1361.090611,7105.977043,-6365.771101,1455.581446
1361.090941,7031.956449,-6513.812290,1072.533697
1361.091271,7031.956449,-6809.894666,1072.533697
1361.091601,7179.997637,-6809.894666,1302.362347
1361.091931,6365.771101,-6735.874072,1149.143247
1361.092261,6587.832884,-7031.956449,1455.581446
1361.092591,6809.894666,-6883.915261,1225.752797
1361.092921,6809.894666,-6809.894666,1302.362347
1361.093251,7031.956449,-6661.853478,536.266849
1361.093581,6661.853478,-6883.915261,1225.752797
1361.093912,6957.935855,-6957.935855,842.705048
1361.094242,6439.791695,-7105.977043,689.485948
1361.094572,6513.812290,-6809.894666,1149.143247
1361.094902,6735.874072,-7031.956449,1455.581446
1361.095232,7105.977043,-6661.853478,1149.143247
1361.095562,7105.977043,-6513.812290,1072.533697
1361.095892,7105.977043,-6809.894666,842.705048
1361.096222,7254.018232,-6439.791695,1302.362347
1361.096552,7105.977043,-6661.853478,842.705048
1361.096882,7105.977043,-6587.832884,766.095498
1361.097212,7772.162391,-5995.668130,1378.971896
1361.097542,7772.162391,-5995.668130,766.095498
1361.097872,7254.018232,-6217.729913,1302.362347
1361.098202,6883.915261,-6217.729913,1149.143247
1361.098532,6809.894666,-6439.791695,919.314598
1361.098863,6809.894666,-6365.771101,919.314598
1361.099193,6883.915261,-6143.709319,1149.143247
1361.099523,6661.853478,-6439.791695,995.924147
1361.099853,7328.038826,-6587.832884,1378.971896
1361.100183,7105.977043,-6439.791695,1302.362347
1361.100513,7105.977043,-6217.729913,689.485948
1361.100843,6883.915261,-7031.956449,842.705048
1361.101173,6957.935855,-6661.853478,1149.143247
1361.101503,7105.977043,-6883.915261,919.314598
1361.101832,6883.915261,-6587.832884,842.705048
1361.102162,7105.977043,-6957.935855,1225.752797
1361.102491,7105.977043,-6735.874072,689.485948
1361.102820,7031.956449,-6439.791695,1378.971896
1361.103150,7254.018232,-6809.894666,842.705048
1361.103479,7105.977043,-6513.812290,1072.533697
1361.103808,6735.874072,-6587.832884,1302.362347
1361.104138,6957.935855,-6587.832884,689.485948
1361.104467,7031.956449,-6439.791695,1378.971896
1361.104797,7402.059420,-6217.729913,1225.752797
1361.105126,7105.977043,-6365.771101,1302.362347
1361.105455,6587.832884,-6143.709319,1455.581446
1361.105785,6957.935855,-6735.874072,1378.971896
1361.106114,6957.935855,-6217.729913,1072.533697
1361.106443,6439.791695,-6587.832884,1302.362347
1361.106773,6217.729913,-6587.832884,766.095498
1361.107102,6661.853478,-6957.935855,1378.971896
1361.107431,6513.812290,-6661.853478,842.705048
1361.107761,6587.832884,-6291.750507,842.705048
1361.108090,6661.853478,-6661.853478,919.314598
1361.108419,6957.935855,-7031.956449,689.485948
1361.108749,6513.812290,-7179.997637,766.095498
1361.109078,6735.874072,-6809.894666,919.314598
1361.109407,6883.915261,-7105.977043,1072.533697
1361.109737,7031.956449,-6587.832884,995.924147
1361.110066,7105.977043,-6957.935855,1532.190996
1361.110395,7105.977043,-6661.853478,689.485948
1361.110725,7105.977043,-6587.832884,689.485948
1361.111054,7105.977043,-6439.791695,1302.362347
1361.111384,7105.977043,-6587.832884,995.924147
1361.111713,7031.956449,-6439.791695,995.924147
1361.112042,7402.059420,-6143.709319,995.924147
1361.112372,7328.038826,-6143.709319,1072.533697
1361.112701,6957.935855,-5773.606348,842.705048
1361.113030,7179.997637,-6439.791695,1072.533697
1361.113360,7254.018232,-6513.812290,919.314598
1361.113689,6957.935855,-6291.750507,1149.143247
1361.114018,6809.894666,-6513.812290,766.095498
1361.114348,6735.874072,-6661.853478,1455.581446
1361.114677,7105.977043,-6735.874072,1302.362347
1361.115006,6883.915261,-6291.750507,1072.533697
1361.115336,7031.956449,-6735.874072,766.095498
1361.115665,6809.894666,-6365.771101,1149.143247
1361.115994,6883.915261,-6439.791695,1225.752797
1361.116324,6735.874072,-6587.832884,766.095498
1361.116653,6661.853478,-6217.729913,842.705048
1361.116982,7105.977043,-6809.894666,919.314598
1361.117312,7105.977043,-6439.791695,1838.629195
1361.117641,7402.059420,-6587.832884,995.924147
1361.117971,7402.059420,-6513.812290,842.705048
1361.118300,7179.997637,-6365.771101,1072.533697
1361.118629,7105.977043,-6439.791695,995.924147
1361.118959,6809.894666,-6513.812290,1225.752797
1361.119288,7254.018232,-5773.606348,1225.752797
1361.119617,7105.977043,-5921.647536,919.314598
1361.119947,6883.915261,-6143.709319,1378.971896
1361.120276,6587.832884,-7031.956449,1685.410096
1361.120605,6957.935855,-6217.729913,1149.143247
1361.120935,6809.894666,-6291.750507,1072.533697
1361.121264,6735.874072,-6513.812290,919.314598
1361.121593,6587.832884,-6661.853478,1072.533697
1361.121923,7179.997637,-7031.956449,1378.971896
1361.122252,7031.956449,-6735.874072,1225.752797
1361.122581,7031.956449,-6735.874072,1072.533697
1361.122911,6661.853478,-7254.018232,1149.143247
1361.123240,6513.812290,-7476.080014,1302.362347
1361.123569,6957.935855,-7402.059420,383.047749
1361.123899,6439.791695,-6883.915261,919.314598
1361.124228,6661.853478,-6957.935855,919.314598
1361.124558,7254.018232,-6735.874072,1225.752797
1361.124887,7254.018232,-6143.709319,1302.362347
1361.125216,7105.977043,-6439.791695,1072.533697
1361.125546,7328.038826,-6291.750507,1072.533697
1361.125875,7105.977043,-6735.874072,1149.143247
1361.126204,7105.977043,-6365.771101,842.705048
1361.126534,7402.059420,-6291.750507,995.924147
1361.126863,7105.977043,-6217.729913,1072.533697
1361.127192,7105.977043,-6365.771101,995.924147
1361.127522,7031.956449,-6587.832884,1072.533697
1361.127851,7031.956449,-6291.750507,1455.581446
1361.128180,7105.977043,-6217.729913,689.485948
1361.128510,7031.956449,-6217.729913,919.314598
1361.128839,6883.915261,-6439.791695,995.924147
1361.129168,7179.997637,-6365.771101,1225.752797
1361.129498,6809.894666,-6069.688724,1685.410096
1361.129827,7031.956449,-6439.791695,689.485948
1361.130157,7031.956449,-6735.874072,1149.143247
1361.130486,6957.935855,-6809.894666,1072.533697
1361.130815,7031.956449,-6883.915261,612.876398
1361.131145,6513.812290,-6439.791695,995.924147
1361.131474,6957.935855,-6957.935855,995.924147
1361.131803,7179.997637,-7031.956449,842.705048
1361.132133,7254.018232,-6513.812290,1378.971896
1361.132462,7328.038826,-6217.729913,919.314598
1361.132791,7179.997637,-6069.688724,1149.143247
1361.133121,6957.935855,-6365.771101,995.924147
1361.133450,7031.956449,-6587.832884,842.705048
1361.133779,7105.977043,-6365.771101,1149.143247
1361.134109,7920.203579,-6365.771101,1455.581446
1361.134438,7105.977043,-6661.853478,1532.190996
1361.134767,6957.935855,-6365.771101,995.924147
1361.135097,6883.915261,-6735.874072,1149.143247
1361.135426,7105.977043,-6809.894666,1378.971896
1361.135755,7031.956449,-6809.894666,1225.752797
1361.136085,6439.791695,-6587.832884,1455.581446
1361.136414,6661.853478,-7254.018232,1225.752797
1361.136744,6809.894666,-6809.894666,1302.362347
1361.137073,6513.812290,-6661.853478,1685.410096
1361.137402,6365.771101,-6883.915261,995.924147
1361.137732,6439.791695,-6661.853478,1149.143247
1361.138061,6661.853478,-6661.853478,842.705048
1361.138390,6883.915261,-6957.935855,536.266849
1361.138720,7105.977043,-6883.915261,919.314598
1361.139049,6735.874072,-7105.977043,995.924147
1361.139378,7105.977043,-6883.915261,1302.362347
1361.139708,6883.915261,-6513.812290,842.705048
1361.140037,7031.956449,-6365.771101,1532.190996
1361.140366,7105.977043,-6809.894666,1378.971896
1361.140696,7105.977043,-6365.771101,766.095498
1361.141025,7105.977043,-6217.729913,1149.143247
1361.141354,7105.977043,-5773.606348,1149.143247
1361.141684,7698.141797,-5921.647536,919.314598
1361.142013,7105.977043,-6291.750507,1225.752797
1361.142342,7328.038826,-6365.771101,1685.410096
1361.142672,6883.915261,-6291.750507,842.705048
1361.143001,6513.812290,-6069.688724,1072.533697
1361.143331,6735.874072,-6735.874072,919.314598
1361.143660,7031.956449,-6661.853478,766.095498
1361.143989,7254.018232,-6587.832884,1302.362347
1361.144319,7254.018232,-6291.750507,919.314598
1361.144648,6883.915261,-6809.894666,1302.362347
1361.144977,6735.874072,-6735.874072,1225.752797
1361.145307,6735.874072,-6735.874072,766.095498
1361.145636,6883.915261,-6587.832884,689.485948
1361.145965,7031.956449,-6735.874072,1455.581446
1361.146295,6957.935855,-6217.729913,1149.143247
1361.146624,7328.038826,-6661.853478,1225.752797
1361.146953,7179.997637,-6365.771101,1225.752797
1361.147283,7105.977043,-6217.729913,766.095498
1361.147612,7328.038826,-6143.709319,536.266849
1361.147941,6735.874072,-6587.832884,995.924147
1361.148271,7105.977043,-6735.874072,766.095498
1361.148600,7254.018232,-6217.729913,919.314598
1361.148929,7179.997637,-6587.832884,842.705048
1361.149259,7254.018232,-6217.729913,1302.362347
1361.149588,7105.977043,-6587.832884,1378.971896
1361.149918,6957.935855,-6661.853478,1149.143247
1361.150247,6809.894666,-6439.791695,919.314598
1361.150576,6883.915261,-6069.688724,536.266849
1361.150906,6883.915261,-6883.915261,842.705048
1361.151235,6661.853478,-6735.874072,919.314598
1361.151564,6957.935855,-6809.894666,1302.362347
1361.151894,6661.853478,-6883.915261,766.095498
1361.152223,6513.812290,-6809.894666,1608.800546
1361.152552,6957.935855,-6069.688724,1072.533697
1361.152882,7402.059420,-6291.750507,536.266849
1361.153211,7624.121203,-5773.606348,1225.752797
1361.153540,8068.244768,-6069.688724,1302.362347
1361.153870,8512.368333,-6365.771101,1455.581446
1361.154199,7031.956449,-6291.750507,612.876398
1361.154528,6069.688724,-7402.059420,76.609550
1361.154858,6069.688724,-6957.935855,383.047749
1361.155187,7254.018232,-7031.956449,995.924147
1361.155516,8068.244768,-6661.853478,919.314598
1361.155846,8216.285956,-5773.606348,1685.410096
1361.156175,8660.409521,-4515.256246,1378.971896
1361.156505,8438.347739,-3627.009116,1225.752797
1361.156834,8142.265362,-4071.132681,1378.971896
1361.157163,8660.409521,-4071.132681,1225.752797
1361.157493,8882.471304,-4515.256246,1378.971896
1361.157822,8586.388927,-4589.276840,995.924147
1361.158151,7920.203579,-4737.318029,689.485948
1361.158481,7772.162391,-5773.606348,766.095498
1361.158810,8364.327145,-4885.359217,1225.752797
1361.159139,8808.450710,-5995.668130,383.047749
1361.159469,8290.306550,-5921.647536,1149.143247
1361.159798,7920.203579,-5477.523971,689.485948
1361.160127,7624.121203,-6291.750507,459.657299
1361.160457,7550.100608,-4885.359217,689.485948
1361.160786,7624.121203,-5477.523971,536.266849
1361.161115,8512.368333,-4737.318029,1149.143247
1361.161445,9030.512492,-4663.297435,1072.533697
1361.161774,9400.615463,-3923.091493,1225.752797
1361.162103,9622.677246,-2886.803174,1455.581446
1361.162433,9696.697840,-3552.988522,1685.410096
1361.162762,10214.842000,-2072.576638,1455.581446
1361.163092,10288.862594,-2738.761985,1455.581446
1361.163421,10214.842000,-2442.679609,1762.019645
1361.163750,9696.697840,-3478.967927,1072.533697
1361.164080,9474.636058,-5181.441594,1302.362347
1361.164409,8882.471304,-5181.441594,2068.457845
1361.164738,8438.347739,-6365.771101,1455.581446
1361.165068,7698.141797,-5255.462188,1149.143247
1361.165397,6883.915261,-5921.647536,459.657299
1361.165726,7402.059420,-6217.729913,689.485948
1361.166056,7920.203579,-5329.482782,1302.362347
1361.166385,8216.285956,-4737.318029,76.609550
1361.166714,7920.203579,-4515.256246,0.000000
1361.167044,8142.265362,-4367.215058,153.219100
1361.167373,9474.636058,-4663.297435,1225.752797
1361.167702,10140.821405,-3997.112087,766.095498
1361.168032,10214.842000,-4219.173869,1532.190996
1361.168361,9770.718434,-3997.112087,919.314598
1361.168690,10510.924376,-4515.256246,689.485948
1361.169020,9030.512492,-4145.153275,995.924147
1361.169349,8882.471304,-4589.276840,76.609550
1361.169679,8660.409521,-4811.338623,766.095498
1361.170008,8956.491898,-4811.338623,919.314598
1361.170337,8734.430116,-4737.318029,1838.629195
1361.170667,9178.553681,-3330.926739,1225.752797
1361.170996,8808.450710,-3478.967927,1455.581446
1361.171325,8956.491898,-4293.194464,1915.238745
1361.171655,9326.594869,-4219.173869,1838.629195
1361.171984,9548.656652,-3552.988522,1378.971896
1361.172313,9400.615463,-3627.009116,612.876398
1361.172643,8956.491898,-3923.091493,1685.410096
1361.172972,9326.594869,-4515.256246,842.705048
1361.173301,9104.533087,-4515.256246,919.314598
1361.173631,9030.512492,-4441.235652,383.047749
1361.173960,8660.409521,-4737.318029,-229.828649
1361.174289,8216.285956,-5033.400406,0.000000
1361.174619,7994.224174,-5625.565159,229.828649
1361.174948,8512.368333,-6217.729913,689.485948
1361.175277,7920.203579,-6291.750507,919.314598
1361.175607,8142.265362,-6439.791695,1378.971896
1361.175936,8364.327145,-6069.688724,1991.848295
1361.176266,8586.388927,-5255.462188,2298.286494
1361.176595,8734.430116,-4737.318029,2145.067394
1361.176924,9178.553681,-3330.926739,1685.410096
1361.177254,9696.697840,-1924.535449,1608.800546
1361.177583,10658.965565,-1184.329507,1072.533697
1361.177912,11251.130318,-592.164754,842.705048
1361.178242,11695.253884,-962.267725,536.266849
1361.178571,10881.027347,-2072.576638,383.047749
1361.178900,9474.636058,-3849.070898,229.828649
1361.179230,8956.491898,-4737.318029,0.000000
1361.179559,7698.141797,-7105.977043,842.705048
1361.179888,7328.038826,-8438.347739,229.828649
1361.180218,6883.915261,-8808.450710,689.485948
1361.180547,6809.894666,-9400.615463,919.314598
1361.180876,6809.894666,-8216.285956,536.266849
1361.181206,6217.729913,-6957.935855,229.828649
1361.181535,6735.874072,-5107.421000,459.657299
1361.181864,8216.285956,-3552.988522,995.924147
1361.182194,9548.656652,-2664.741391,1762.019645
1361.182523,10140.821405,-962.267725,1991.848295
1361.182853,10732.986159,74.020594,1455.581446
1361.183182,11769.274478,0.000000,1302.362347
1361.183511,12509.480420,444.123565,1762.019645
1361.183841,12509.480420,-148.041188,1225.752797
1361.184170,12583.501014,-1850.514855,1225.752797
1361.184499,11621.233289,-3627.009116,1302.362347
1361.184829,9918.759623,-5847.626942,995.924147
1361.185158,7698.141797,-8364.327145,995.924147
1361.185487,6143.709319,-9104.533087,842.705048
1361.185817,4293.194464,-9844.739029,-612.876398
1361.186146,3478.967927,-9326.594869,-459.657299
1361.186475,4811.338623,-8216.285956,-842.705048
1361.186805,6883.915261,-7920.203579,383.047749
1361.187134,9400.615463,-4515.256246,1378.971896
1361.187463,10140.821405,-3108.864956,1608.800546
1361.187793,10658.965565,-1924.535449,1991.848295
1361.188122,10510.924376,-444.123565,1532.190996
1361.188451,10955.047942,0.000000,1762.019645
1361.188781,11917.315666,296.082377,1378.971896
1361.189110,13175.665768,74.020594,2068.457845
1361.189440,13841.851115,-1036.288319,2451.505594
1361.189769,13027.624579,-2664.741391,2298.286494
1361.190098,11621.233289,-4145.153275,2145.067394
1361.190428,8364.327145,-6143.709319,1762.019645
1361.190757,6365.771101,-8808.450710,229.828649
1361.191086,3701.029710,-9474.636058,0.000000
1361.191416,2442.679609,-9548.656652,-1378.971896
1361.191745,1998.556043,-10436.903782,-2068.457845
1361.192074,4071.132681,-8586.388927,-612.876398
1361.192404,7476.080014,-5773.606348,306.438199
1361.192733,10288.862594,-3404.947333,689.485948
1361.193062,11103.089130,-3034.844362,2221.676944
1361.193392,10955.047942,-1628.453072,1608.800546
1361.193721,10436.903782,-2294.638420,919.314598
1361.194050,9252.574275,-3552.988522,1532.190996
1361.194380,9400.615463,-4737.318029,1378.971896
1361.194709,9252.574275,-5847.626942,1455.581446
1361.195038,8808.450710,-6513.812290,2221.676944
1361.195368,8734.430116,-8586.388927,2374.896044
1361.195697,7550.100608,-8290.306550,2374.896044
1361.196027,6365.771101,-6883.915261,1149.143247
1361.196356,4367.215058,-5699.585753,-383.047749
1361.196685,4145.153275,-4663.297435,-766.095498
1361.197015,5625.565159,-5921.647536,-689.485948
1361.197344,7105.977043,-4885.359217,306.438199
1361.197673,8512.368333,-4737.318029,1532.190996
1361.198003,9474.636058,-4219.173869,919.314598
1361.198332,9178.553681,-3775.050304,1455.581446
1361.198661,8290.306550,-5847.626942,689.485948
1361.198991,8364.327145,-7254.018232,1378.971896
1361.199320,7476.080014,-8808.450710,1302.362347
1361.199649,6883.915261,-8586.388927,1225.752797
1361.199979,6069.688724,-7105.977043,612.876398
1361.200308,6069.688724,-6809.894666,76.609550
1361.200643,6735.874072,-7402.059420,689.485948
1361.200973,7254.018232,-8734.430116,2145.067394
1361.201302,7402.059420,-6587.832884,1838.629195
1361.201631,6439.791695,-6217.729913,842.705048
1361.201961,4737.318029,-4737.318029,-383.047749
1361.202290,4885.359217,-5847.626942,612.876398
1361.202620,6217.729913,-6587.832884,1532.190996
1361.202949,7846.182985,-6143.709319,2374.896044
1361.203278,8438.347739,-4737.318029,2757.943793
1361.203608,9400.615463,-2664.741391,2757.943793
1361.203937,9030.512492,-2738.761985,995.924147
1361.204266,8142.265362,-4811.338623,612.876398
1361.204596,7179.997637,-7031.956449,1762.019645
1361.204925,7105.977043,-8216.285956,2145.067394
1361.205255,7179.997637,-7031.956449,2145.067394
1361.205584,6513.812290,-5921.647536,1455.581446
1361.205913,6439.791695,-7031.956449,1072.533697
1361.206243,7624.121203,-7624.121203,1532.190996
1361.206572,7179.997637,-7179.997637,2451.505594
1361.206901,6883.915261,-5551.544565,1532.190996
1361.207231,6291.750507,-3701.029710,-306.438199
1361.207560,6217.729913,-4219.173869,-383.047749
1361.207890,7031.956449,-6217.729913,153.219100
1361.208219,7328.038826,-9252.574275,2145.067394
1361.208548,7698.141797,-9030.512492,2298.286494
1361.208878,7031.956449,-7846.182985,1685.410096
1361.209207,5773.606348,-7105.977043,0.000000
1361.209536,4441.235652,-9030.512492,0.000000
1361.209866,4737.318029,-10362.883188,536.266849
1361.210195,5699.585753,-10584.944971,2145.067394
1361.210525,6513.812290,-7994.224174,2374.896044
1361.210854,7328.038826,-3997.112087,1455.581446
1361.211183,8586.388927,-2590.720797,1072.533697
1361.211513,8216.285956,-3849.070898,1762.019645
1361.211842,7624.121203,-5847.626942,1838.629195
1361.212171,6957.935855,-5033.400406,1225.752797
1361.212501,6661.853478,-4515.256246,0.000000
1361.212830,6809.894666,-5107.421000,-76.609550
1361.213160,7031.956449,-7254.018232,536.266849
1361.213489,6883.915261,-10140.821405,1072.533697
1361.213818,6513.812290,-9696.697840,1072.533697
1361.214148,6957.935855,-7179.997637,1302.362347
1361.214477,7994.224174,-6069.688724,766.095498
1361.214806,8290.306550,-5033.400406,919.314598
1361.215136,7254.018232,-7105.977043,919.314598
1361.215465,6143.709319,-7772.162391,1149.143247
1361.215795,5847.626942,-6143.709319,459.657299
1361.216124,6143.709319,-4737.318029,153.219100
1361.216453,6883.915261,-4737.318029,612.876398
1361.216783,7105.977043,-6661.853478,1455.581446
1361.217112,7179.997637,-7624.121203,1838.629195
1361.217441,6957.935855,-7402.059420,1685.410096
1361.217771,7328.038826,-4959.379811,459.657299
1361.218100,7698.141797,-4441.235652,0.000000
1361.218430,8142.265362,-5773.606348,919.314598
1361.218759,7846.182985,-8068.244768,2221.676944
1361.219088,7105.977043,-9104.533087,1532.190996
1361.219418,6439.791695,-7328.038826,766.095498
1361.219747,6069.688724,-5847.626942,306.438199
1361.220076,6661.853478,-6217.729913,536.266849
1361.220406,6513.812290,-7105.977043,1072.533697
1361.220735,6291.750507,-8068.244768,995.924147
1361.221065,6143.709319,-6143.709319,689.485948
1361.221394,6957.935855,-3627.009116,0.000000
1361.221723,8586.388927,-3849.070898,-153.219100
1361.222053,8882.471304,-5033.400406,1455.581446
1361.222382,8808.450710,-7772.162391,2757.943793
1361.222712,7994.224174,-7254.018232,1685.410096
1361.223041,6957.935855,-5551.544565,536.266849
1361.223370,6735.874072,-5181.441594,229.828649
1361.223700,7328.038826,-7105.977043,459.657299
1361.224029,6957.935855,-9400.615463,2145.067394
1361.224358,6217.729913,-9030.512492,2068.457845
1361.224688,6069.688724,-6513.812290,1225.752797
1361.225017,6587.832884,-3923.091493,229.828649
1361.225347,7254.018232,-4367.215058,0.000000
1361.225676,7179.997637,-6217.729913,1455.581446
1361.226005,7105.977043,-8068.244768,2221.676944
1361.226335,6809.894666,-5847.626942,459.657299
1361.226664,5921.647536,-5773.606348,0.000000
1361.226993,6365.771101,-6291.750507,0.000000
1361.227323,7179.997637,-7105.977043,919.314598
1361.227652,7402.059420,-9400.615463,2221.676944
1361.227982,7550.100608,-7402.059420,2145.067394
1361.228311,7772.162391,-5403.503377,1455.581446
1361.228640,7179.997637,-4515.256246,459.657299
1361.228970,6587.832884,-5329.482782,-229.828649
1361.229299,6883.915261,-7624.121203,1915.238745
1361.229628,6735.874072,-7772.162391,2451.505594
1361.229958,6883.915261,-5847.626942,1225.752797
1361.230287,6735.874072,-4737.318029,919.314598
1361.230617,6735.874072,-5181.441594,536.266849
1361.230946,6809.894666,-7846.182985,919.314598
1361.231275,5921.647536,-8660.409521,1762.019645
1361.231605,6291.750507,-6661.853478,919.314598
1361.231934,7328.038826,-4589.276840,612.876398
1361.232263,8586.388927,-3923.091493,1225.752797
1361.232593,8956.491898,-6809.894666,1685.410096
1361.232922,8142.265362,-8882.471304,1838.629195
1361.233252,6809.894666,-7772.162391,1915.238745
1361.233581,6069.688724,-6513.812290,536.266849
1361.233910,6513.812290,-5033.400406,0.000000
1361.234240,5995.668130,-7105.977043,459.657299
1361.234569,6217.729913,-9400.615463,842.705048
1361.234898,6069.688724,-8068.244768,1378.971896
1361.235228,6069.688724,-6291.750507,383.047749
1361.235557,6957.935855,-3923.091493,-612.876398
1361.235887,7550.100608,-4441.235652,0.000000
1361.236216,8438.347739,-7402.059420,1302.362347
1361.236545,7920.203579,-8512.368333,1838.629195
1361.236875,7402.059420,-6883.915261,1762.019645
1361.237204,7179.997637,-4663.297435,0.000000
1361.237533,6661.853478,-5773.606348,76.609550
1361.237863,7105.977043,-8068.244768,995.924147
1361.238192,6661.853478,-10066.800811,1455.581446
1361.238522,6365.771101,-8142.265362,2451.505594
1361.238851,6365.771101,-5329.482782,766.095498
1361.239180,7476.080014,-3256.906145,306.438199
1361.239510,7994.224174,-5033.400406,1302.362347
1361.239839,7920.203579,-7698.141797,2145.067394
1361.240168,7031.956449,-6513.812290,1915.238745
1361.240498,5921.647536,-5255.462188,766.095498
1361.240827,5773.606348,-4367.215058,-536.266849
1361.241157,5995.668130,-5699.585753,-229.828649
1361.241486,6439.791695,-9104.533087,1608.800546
1361.241815,7254.018232,-10140.821405,1991.848295
1361.242145,7105.977043,-7402.059420,1608.800546
1361.242474,7698.141797,-4589.276840,459.657299
1361.242803,8142.265362,-4663.297435,766.095498
1361.243133,8882.471304,-5773.606348,1685.410096
1361.243462,7772.162391,-7920.203579,2068.457845
1361.243792,6291.750507,-7105.977043,1455.581446
1361.244121,6217.729913,-4885.359217,536.266849
1361.244450,5551.544565,-5255.462188,-766.095498
1361.244780,5699.585753,-7254.018232,383.047749
1361.245109,5995.668130,-9178.553681,1608.800546
1361.245438,6661.853478,-8142.265362,1915.238745
1361.245768,7031.956449,-5699.585753,1072.533697
1361.246097,7550.100608,-3256.906145,76.609550
1361.246427,8290.306550,-4071.132681,766.095498
1361.246756,8586.388927,-7179.997637,1915.238745
1361.247085,8068.244768,-7920.203579,2528.115143
1361.247415,7031.956449,-7105.977043,1685.410096
1361.247744,6587.832884,-5033.400406,1072.533697
1361.248073,6217.729913,-5699.585753,383.047749
1361.248403,6735.874072,-7846.182985,766.095498
1361.248732,6439.791695,-8290.306550,1685.410096
1361.249062,6069.688724,-7254.018232,842.705048
1361.249391,5625.565159,-4737.318029,76.609550
1361.249720,6513.812290,-3701.029710,0.000000
1361.250050,8364.327145,-5921.647536,612.876398
1361.250379,8808.450710,-7772.162391,2451.505594
1361.250708,7994.224174,-8882.471304,2451.505594
1361.251038,7402.059420,-6735.874072,1532.190996
1361.251367,6883.915261,-4959.379811,0.000000
1361.251697,6957.935855,-7920.203579,842.705048
1361.252026,7031.956449,-9178.553681,1149.143247
1361.252355,5921.647536,-9696.697840,1762.019645
1361.252685,5403.503377,-6957.935855,536.266849
1361.253014,5625.565159,-4293.194464,-383.047749
1361.253343,6809.894666,-4367.215058,229.828649
1361.253673,7624.121203,-6513.812290,1455.581446
1361.254002,7402.059420,-8364.327145,2068.457845
1361.254332,6661.853478,-6513.812290,1608.800546
1361.254661,6143.709319,-5329.482782,229.828649
1361.254990,6661.853478,-6439.791695,689.485948
1361.255320,7105.977043,-7476.080014,1302.362347
1361.255649,7105.977043,-9400.615463,1225.752797
1361.255978,6143.709319,-8438.347739,1302.362347
1361.256308,6069.688724,-5847.626942,459.657299
1361.256637,7105.977043,-4441.235652,153.219100
1361.256967,7920.203579,-4959.379811,1072.533697
1361.257296,8142.265362,-6513.812290,1762.019645
1361.257625,7179.997637,-6957.935855,2221.676944
1361.257955,6143.709319,-5921.647536,1532.190996
1361.258284,6439.791695,-4737.318029,0.000000
1361.258613,6217.729913,-5625.565159,76.609550
1361.258943,7105.977043,-7402.059420,689.485948
1361.259272,7476.080014,-9030.512492,2221.676944
1361.259602,7179.997637,-6883.915261,1991.848295
1361.259931,7624.121203,-4811.338623,919.314598
1361.260260,8438.347739,-3775.050304,689.485948
1361.260590,8586.388927,-5107.421000,1378.971896
1361.260919,7920.203579,-7402.059420,1762.019645
1361.261248,6957.935855,-7846.182985,1762.019645
1361.261578,5995.668130,-6513.812290,459.657299
1361.261907,5477.523971,-5773.606348,0.000000
1361.262237,6143.709319,-7105.977043,229.828649
1361.262566,7254.018232,-8290.306550,1608.800546
1361.262895,6439.791695,-8808.450710,1685.410096
1361.263225,5329.482782,-6587.832884,383.047749
1361.263554,5255.462188,-4589.276840,-306.438199
1361.263883,7254.018232,-4885.359217,306.438199
1361.264213,9104.533087,-6365.771101,1762.019645
1361.264542,9030.512492,-8142.265362,2374.896044
1361.264872,7698.141797,-7328.038826,2068.457845
1361.265201,6883.915261,-5921.647536,689.485948
1361.265530,6661.853478,-5773.606348,0.000000
1361.265860,6883.915261,-7698.141797,459.657299
1361.266189,6069.688724,-9474.636058,1225.752797
1361.266519,6143.709319,-8142.265362,1225.752797
1361.266848,6365.771101,-5551.544565,229.828649
1361.267177,7402.059420,-3849.070898,0.000000
1361.267507,8216.285956,-4885.359217,1225.752797
1361.267836,8660.409521,-6513.812290,1685.410096
1361.268165,7031.956449,-6809.894666,1608.800546
1361.268495,6291.750507,-6513.812290,1225.752797
1361.268824,6513.812290,-5329.482782,0.000000
1361.269154,6365.771101,-6143.709319,612.876398
1361.269483,6957.935855,-8882.471304,1455.581446
1361.269812,6809.894666,-8438.347739,1608.800546
1361.270142,6291.750507,-7402.059420,1072.533697
1361.270471,5847.626942,-5033.400406,383.047749
1361.270800,7476.080014,-4367.215058,229.828649
1361.271130,8364.327145,-6069.688724,612.876398
1361.271459,7624.121203,-8290.306550,1991.848295
1361.271789,6365.771101,-8438.347739,1685.410096
1361.272118,6069.688724,-5921.647536,383.047749
1361.272447,6291.750507,-5773.606348,-612.876398
1361.272777,6513.812290,-7476.080014,536.266849
1361.273106,6809.894666,-8956.491898,1991.848295
1361.273435,6143.709319,-8734.430116,1608.800546
1361.273765,5773.606348,-6069.688724,383.047749
1361.274094,6513.812290,-4293.194464,229.828649
1361.274424,7105.977043,-4737.318029,459.657299
1361.274753,8512.368333,-5995.668130,1532.190996
1361.275082,8142.265362,-7254.018232,2298.286494
1361.275412,7624.121203,-7105.977043,1838.629195
1361.275741,7328.038826,-4811.338623,383.047749
1361.276070,7105.977043,-4885.359217,766.095498
1361.276400,7105.977043,-7105.977043,1378.971896
1361.276729,7328.038826,-8586.388927,1991.848295
1361.277059,6439.791695,-7476.080014,2145.067394
1361.277388,5773.606348,-5699.585753,689.485948
1361.277717,6809.894666,-4515.256246,229.828649
1361.278047,7402.059420,-5477.523971,1149.143247
1361.278376,7179.997637,-6957.935855,1225.752797
1361.278705,6513.812290,-7624.121203,1685.410096
1361.279035,6217.729913,-6069.688724,1225.752797
1361.279364,7105.977043,-4959.379811,306.438199
1361.279694,7624.121203,-6069.688724,1225.752797
1361.280023,8364.327145,-8364.327145,2298.286494
1361.280352,7328.038826,-9474.636058,2145.067394
1361.280682,5995.668130,-6735.874072,1302.362347
1361.281011,6365.771101,-4589.276840,0.000000
1361.281340,7031.956449,-4219.173869,76.609550
1361.281670,8216.285956,-5995.668130,1302.362347
1361.281999,8438.347739,-7772.162391,2451.505594
1361.282329,7698.141797,-7179.997637,3064.381992
1361.282658,6513.812290,-5255.462188,766.095498
1361.282987,5625.565159,-4663.297435,-306.438199
1361.283317,5995.668130,-6809.894666,459.657299
1361.283646,6809.894666,-8512.368333,1991.848295
1361.283975,6957.935855,-8142.265362,1838.629195
1361.284305,6661.853478,-6069.688724,1532.190996
1361.284634,7179.997637,-4219.173869,689.485948
1361.284964,8216.285956,-4737.318029,689.485948
1361.285293,8808.450710,-6069.688724,2298.286494
1361.285622,7402.059420,-8364.327145,1915.238745
1361.285952,5995.668130,-8216.285956,1455.581446
1361.286281,5181.441594,-5921.647536,153.219100
1361.286610,4959.379811,-6513.812290,-229.828649
1361.286940,5551.544565,-7772.162391,459.657299
1361.287269,6143.709319,-9400.615463,1149.143247
1361.287599,5847.626942,-9178.553681,995.924147
1361.287928,6365.771101,-6143.709319,612.876398
1361.288257,7698.141797,-4737.318029,919.314598
1361.288587,8808.450710,-4441.235652,689.485948
1361.288916,8438.347739,-6957.935855,1838.629195
1361.289245,7624.121203,-8290.306550,2221.676944
1361.289575,6957.935855,-6587.832884,1302.362347
1361.289904,6513.812290,-4737.318029,536.266849
1361.290234,6143.709319,-5921.647536,536.266849
1361.290563,6809.894666,-7846.182985,1225.752797
1361.290892,7105.977043,-8956.491898,2145.067394
1361.291222,6217.729913,-7994.224174,1915.238745
1361.291551,6143.709319,-4219.173869,689.485948
1361.291880,6809.894666,-3256.906145,229.828649
1361.292210,7846.182985,-5477.523971,689.485948
1361.292539,7920.203579,-7328.038826,1455.581446
1361.292869,7031.956449,-7550.100608,1762.019645
1361.293198,6809.894666,-6439.791695,383.047749
1361.293527,6809.894666,-5107.421000,383.047749
1361.293857,7105.977043,-7031.956449,919.314598
1361.294186,7031.956449,-8956.491898,995.924147
1361.294515,6587.832884,-8586.388927,1149.143247
1361.294845,5921.647536,-7031.956449,919.314598
1361.295174,6735.874072,-4737.318029,76.609550
1361.295504,8216.285956,-4145.153275,383.047749
1361.295833,8364.327145,-5625.565159,1225.752797
1361.296162,7846.182985,-7031.956449,2145.067394
1361.296492,7105.977043,-6291.750507,1762.019645
1361.296821,7031.956449,-4515.256246,306.438199
1361.297150,6957.935855,-5107.421000,229.828649
1361.297480,6957.935855,-6957.935855,1378.971896
1361.297809,6809.894666,-8364.327145,1455.581446
1361.298139,6365.771101,-8142.265362,1685.410096
1361.298468,6217.729913,-5699.585753,1225.752797
1361.298797,7105.977043,-4737.318029,0.000000
1361.299127,8216.285956,-4959.379811,1762.019645
1361.299456,9104.533087,-7179.997637,1915.238745
1361.299785,7772.162391,-8142.265362,2068.457845
1361.300115,6217.729913,-6883.915261,1455.581446
1361.300444,5995.668130,-6735.874072,0.000000
1361.300774,5921.647536,-6809.894666,306.438199
1361.301103,5551.544565,-9474.636058,1149.143247
1361.301432,5403.503377,-9992.780217,689.485948
1361.301762,5403.503377,-7328.038826,383.047749
1361.302091,6735.874072,-4811.338623,766.095498
1361.302420,8142.265362,-4219.173869,-76.609550
1361.302750,8512.368333,-5625.565159,919.314598
1361.303079,7994.224174,-7624.121203,1455.581446
1361.303408,7328.038826,-7254.018232,2068.457845
1361.303738,7550.100608,-5551.544565,1225.752797
1361.304067,7105.977043,-5477.523971,995.924147
1361.304396,7476.080014,-6883.915261,1762.019645
1361.304726,7179.997637,-8216.285956,1915.238745
1361.305055,6883.915261,-8142.265362,1302.362347
1361.305384,5921.647536,-5625.565159,536.266849
1361.305713,6365.771101,-4663.297435,-153.219100
1361.306043,7624.121203,-4959.379811,536.266849
1361.306372,7994.224174,-7105.977043,1915.238745
1361.306701,7328.038826,-7254.018232,2221.676944
1361.307031,6365.771101,-6661.853478,919.314598
1361.307360,5773.606348,-5477.523971,229.828649
1361.307689,5995.668130,-6217.729913,306.438199
1361.308019,6587.832884,-8734.430116,995.924147
1361.308348,6439.791695,-9474.636058,1532.190996
1361.308677,5921.647536,-8364.327145,919.314598
1361.309006,6439.791695,-6217.729913,919.314598
1361.309336,7328.038826,-4737.318029,306.438199
1361.309665,8216.285956,-4737.318029,1072.533697
1361.309994,7846.182985,-6883.915261,1685.410096
1361.310324,7254.018232,-6809.894666,1685.410096
1361.310653,7254.018232,-4959.379811,1072.533697
1361.310982,7328.038826,-4145.153275,536.266849
1361.311311,8438.347739,-5255.462188,1149.143247
1361.311641,8290.306550,-7105.977043,2451.505594
1361.311970,7550.100608,-8142.265362,2374.896044
1361.312299,6587.832884,-6439.791695,995.924147
1361.312629,6809.894666,-4145.153275,842.705048
1361.312958,7328.038826,-4441.235652,536.266849
1361.313287,8142.265362,-6587.832884,842.705048
1361.313617,7476.080014,-7994.224174,2221.676944
1361.313946,6735.874072,-7624.121203,1915.238745
1361.314275,6365.771101,-6069.688724,229.828649
1361.314604,5329.482782,-5699.585753,0.000000
1361.314934,5181.441594,-8438.347739,153.219100
1361.315263,6217.729913,-10066.800811,1149.143247
1361.315592,6439.791695,-9474.636058,2221.676944
1361.315922,6365.771101,-7105.977043,919.314598
1361.316251,7105.977043,-3923.091493,0.000000
1361.316580,7476.080014,-4441.235652,0.000000
1361.316909,7846.182985,-6883.915261,1149.143247
1361.317239,7698.141797,-7402.059420,2145.067394
1361.317568,7624.121203,-6587.832884,1455.581446
1361.317897,7550.100608,-4515.256246,612.876398
1361.318227,7254.018232,-5255.462188,919.314598
1361.318556,7179.997637,-7328.038826,1532.190996
1361.318885,7476.080014,-8364.327145,1991.848295
1361.319215,6217.729913,-7698.141797,1532.190996
1361.319544,5773.606348,-4367.215058,0.000000
1361.319873,6143.709319,-4589.276840,0.000000
1361.320202,7402.059420,-5329.482782,1149.143247
1361.320532,7920.203579,-7698.141797,1685.410096
1361.320861,7031.956449,-8364.327145,2145.067394
1361.321190,6365.771101,-6661.853478,1762.019645
1361.321520,6291.750507,-5699.585753,229.828649
1361.321849,6439.791695,-5921.647536,0.000000
1361.322178,6513.812290,-9326.594869,1225.752797
1361.322508,6883.915261,-9474.636058,1225.752797
1361.322837,6291.750507,-7624.121203,1532.190996
1361.323166,6587.832884,-4885.359217,536.266849
1361.323495,7476.080014,-4293.194464,-229.828649
1361.323825,8142.265362,-5551.544565,1225.752797
1361.324154,8290.306550,-6735.874072,2221.676944
1361.324483,7550.100608,-6143.709319,1915.238745
1361.324813,7031.956449,-3923.091493,1302.362347
1361.325142,6809.894666,-4589.276840,229.828649
1361.325471,6365.771101,-6291.750507,766.095498
1361.325800,5921.647536,-8660.409521,995.924147
1361.326130,5847.626942,-9104.533087,1302.362347
1361.326459,6513.812290,-6957.935855,1149.143247
1361.326788,7772.162391,-4071.132681,689.485948
1361.327118,8364.327145,-4145.153275,919.314598
1361.327447,8364.327145,-6587.832884,1838.629195
1361.327776,7624.121203,-7624.121203,2604.724693
1361.328106,6513.812290,-7031.956449,1149.143247
1361.328435,5995.668130,-5403.503377,919.314598
1361.328764,5773.606348,-5921.647536,76.609550
1361.329093,6143.709319,-8290.306550,536.266849
1361.329423,5773.606348,-9548.656652,1378.971896
1361.329752,5477.523971,-9252.574275,1072.533697
1361.330081,5625.565159,-5403.503377,0.000000
1361.330411,6883.915261,-4367.215058,-76.609550
1361.330740,8586.388927,-5033.400406,842.705048
1361.331069,9252.574275,-6513.812290,1838.629195
1361.331399,8068.244768,-7328.038826,2374.896044
1361.331728,7920.203579,-5403.503377,766.095498
1361.332057,7179.997637,-4737.318029,0.000000
1361.332386,7328.038826,-5477.523971,459.657299
1361.332716,7328.038826,-7402.059420,1149.143247
1361.333045,7328.038826,-8808.450710,2221.676944
1361.333374,7105.977043,-7105.977043,1608.800546
1361.333704,6661.853478,-5181.441594,459.657299
1361.334033,7402.059420,-2886.803174,383.047749
1361.334362,8216.285956,-5255.462188,1072.533697
1361.334691,7920.203579,-7920.203579,1915.238745
1361.335021,6439.791695,-7698.141797,2145.067394
1361.335350,6365.771101,-7031.956449,842.705048
1361.335679,6513.812290,-4737.318029,0.000000
1361.336009,6365.771101,-7105.977043,689.485948
1361.336338,6439.791695,-9770.718434,1149.143247
1361.336667,5921.647536,-9326.594869,1455.581446
1361.336997,5699.585753,-7698.141797,1149.143247
1361.337326,6365.771101,-4219.173869,76.609550
1361.337655,7698.141797,-4737.318029,536.266849
1361.337984,8882.471304,-7031.956449,1455.581446
1361.338314,7624.121203,-8438.347739,2681.334243
1361.338643,6809.894666,-7402.059420,2068.457845
1361.338972,6735.874072,-4737.318029,-306.438199
1361.339302,6439.791695,-5477.523971,76.609550
1361.339631,6735.874072,-7179.997637,1072.533697
1361.339960,6957.935855,-8734.430116,1455.581446
1361.340289,6365.771101,-7994.224174,1532.190996
1361.340619,6661.853478,-4737.318029,842.705048
1361.340948,7772.162391,-4293.194464,689.485948
1361.341277,8438.347739,-4663.297435,1149.143247
1361.341607,8290.306550,-6735.874072,1762.019645
1361.341936,7105.977043,-7624.121203,1915.238745
1361.342265,6587.832884,-6217.729913,1378.971896
1361.342595,6957.935855,-5773.606348,842.705048
1361.342924,6661.853478,-6809.894666,766.095498
1361.343253,6217.729913,-8956.491898,1532.190996
1361.343582,5551.544565,-9918.759623,1149.143247
1361.343912,5181.441594,-8216.285956,1149.143247
1361.344241,5995.668130,-5403.503377,229.828649
1361.344570,7254.018232,-3552.988522,0.000000
1361.344900,8216.285956,-5107.421000,919.314598
1361.345229,7772.162391,-7105.977043,1685.410096
1361.345558,7105.977043,-7179.997637,1378.971896
1361.345888,7105.977043,-5255.462188,1149.143247
1361.346217,6957.935855,-4515.256246,0.000000
1361.346546,7031.956449,-5921.647536,919.314598
1361.346875,8068.244768,-7476.080014,1608.800546
1361.347205,7698.141797,-8364.327145,2068.457845
1361.347534,7550.100608,-5699.585753,1149.143247
1361.347863,7328.038826,-4145.153275,612.876398
1361.348193,7846.182985,-3404.947333,229.828649
1361.348522,7550.100608,-7105.977043,1149.143247
1361.348851,7105.977043,-8142.265362,2298.286494
1361.349180,6735.874072,-7254.018232,1838.629195
1361.349510,7105.977043,-5625.565159,766.095498
1361.349839,6957.935855,-5181.441594,153.219100
1361.350168,6365.771101,-8068.244768,1225.752797
1361.350498,6217.729913,-9992.780217,1378.971896
1361.350827,5329.482782,-8438.347739,995.924147
1361.351156,5551.544565,-6735.874072,0.000000
1361.351486,7105.977043,-4367.215058,0.000000
1361.351815,8364.327145,-5699.585753,306.438199
1361.352144,8438.347739,-8290.306550,1915.238745
1361.352473,6587.832884,-7846.182985,2068.457845
1361.352803,6957.935855,-6735.874072,842.705048
1361.353132,7105.977043,-4959.379811,383.047749
1361.353461,7402.059420,-5699.585753,612.876398
1361.353791,7624.121203,-7476.080014,1225.752797
1361.354120,7105.977043,-7920.203579,1762.019645
1361.354449,7031.956449,-7105.977043,2068.457845
1361.354778,7031.956449,-4293.194464,459.657299
1361.355108,8216.285956,-3701.029710,919.314598
1361.355437,8364.327145,-5921.647536,1225.752797
1361.355766,7328.038826,-7994.224174,1608.800546
1361.356096,5995.668130,-8364.327145,1685.410096
1361.356425,5847.626942,-6217.729913,919.314598
1361.356754,6069.688724,-6439.791695,0.000000
1361.357084,6143.709319,-7476.080014,612.876398
1361.357413,6069.688724,-10584.944971,1455.581446
1361.357742,5921.647536,-9474.636058,1991.848295
1361.358071,6143.709319,-6883.915261,842.705048
1361.358401,7105.977043,-4663.297435,229.828649
1361.358730,7476.080014,-4219.173869,229.828649
1361.359059,7476.080014,-7105.977043,1072.533697
1361.359389,6513.812290,-8216.285956,1378.971896
1361.359718,5773.606348,-6587.832884,919.314598
1361.360047,6735.874072,-4589.276840,-229.828649
1361.360377,7402.059420,-5255.462188,536.266849
1361.360706,8068.244768,-7624.121203,1915.238745
1361.361035,7476.080014,-8956.491898,1762.019645
1361.361364,6143.709319,-7105.977043,1838.629195
1361.361694,6661.853478,-4293.194464,383.047749
1361.362023,8068.244768,-2812.782580,536.266849
1361.362352,9696.697840,-4071.132681,1991.848295
1361.362682,9844.739029,-6291.750507,2604.724693
1361.363011,8290.306550,-6661.853478,2451.505594
1361.363340,7031.956449,-5773.606348,1608.800546
1361.363669,6365.771101,-4959.379811,0.000000
1361.363999,4959.379811,-6809.894666,0.000000
1361.364328,5255.462188,-9326.594869,1149.143247
1361.364657,5033.400406,-9992.780217,1149.143247
1361.364987,5551.544565,-8512.368333,1225.752797
1361.365316,6735.874072,-4737.318029,842.705048
1361.365645,8364.327145,-4515.256246,919.314598
1361.365975,8438.347739,-5921.647536,1378.971896
1361.366304,7105.977043,-8142.265362,1532.190996
1361.366633,6069.688724,-7402.059420,459.657299
1361.366962,6513.812290,-5255.462188,229.828649
1361.367292,7624.121203,-5699.585753,-76.609550
1361.367621,7846.182985,-6957.935855,1149.143247
1361.367950,7402.059420,-9030.512492,1915.238745
1361.368280,6661.853478,-8290.306550,1532.190996
1361.368609,5995.668130,-5699.585753,766.095498
1361.368938,6957.935855,-3849.070898,0.000000
1361.369268,7476.080014,-4737.318029,76.609550
1361.369597,7920.203579,-7105.977043,1532.190996
1361.369926,7698.141797,-8438.347739,1915.238745
1361.370255,5995.668130,-8586.388927,2145.067394
1361.370585,6217.729913,-4589.276840,0.000000
1361.370914,6365.771101,-6217.729913,229.828649
1361.371243,6439.791695,-9326.594869,1149.143247
1361.371573,6513.812290,-8882.471304,1991.848295
1361.371902,6587.832884,-7994.224174,1532.190996
1361.372231,6365.771101,-5255.462188,612.876398
1361.372560,7105.977043,-3701.029710,0.000000
1361.372890,7994.224174,-5329.482782,1302.362347
1361.373219,7624.121203,-7105.977043,919.314598
1361.373548,6957.935855,-7624.121203,1991.848295
1361.373878,6661.853478,-6587.832884,995.924147
1361.374207,7402.059420,-4737.318029,229.828649
1361.374536,7179.997637,-5625.565159,1072.533697
1361.374866,7105.977043,-8956.491898,1149.143247
1361.375195,6069.688724,-8734.430116,1532.190996
1361.375524,5477.523971,-6439.791695,459.657299
1361.375853,6217.729913,-4367.215058,76.609550
1361.376183,7846.182985,-3034.844362,536.266849
1361.376512,8290.306550,-7031.956449,1532.190996
1361.376841,7624.121203,-7920.203579,2374.896044
1361.377171,6661.853478,-7254.018232,1838.629195
1361.377500,6587.832884,-5699.585753,612.876398
1361.377829,6365.771101,-5773.606348,689.485948
1361.378158,6587.832884,-7550.100608,1302.362347
1361.378488,6365.771101,-9474.636058,1302.362347
1361.378817,5847.626942,-9252.574275,1991.848295
1361.379146,6513.812290,-5773.606348,1302.362347
1361.379476,7328.038826,-4367.215058,459.657299
1361.379805,8142.265362,-4589.276840,995.924147
1361.380134,7846.182985,-6587.832884,1225.752797
1361.380464,5995.668130,-7624.121203,1225.752797
1361.380793,6291.750507,-6291.750507,1149.143247
1361.381122,7105.977043,-5033.400406,76.609550
1361.381451,7550.100608,-4885.359217,536.266849
1361.381781,7105.977043,-7550.100608,1149.143247
1361.382110,6439.791695,-9030.512492,1302.362347
1361.382439,6957.935855,-7846.182985,1149.143247
1361.382769,7550.100608,-5551.544565,995.924147
1361.383098,8734.430116,-3701.029710,919.314598
1361.383427,8734.430116,-5329.482782,1149.143247
1361.383757,8438.347739,-7105.977043,1915.238745
1361.384086,6069.688724,-7031.956449,1302.362347
1361.384415,5625.565159,-6883.915261,153.219100
1361.384744,6439.791695,-4811.338623,306.438199
1361.385074,6735.874072,-6587.832884,459.657299
1361.385403,6513.812290,-8216.285956,1455.581446
1361.385732,5625.565159,-9474.636058,1685.410096
1361.386062,5995.668130,-6883.915261,1072.533697
1361.386391,6883.915261,-3849.070898,306.438199
1361.386720,7402.059420,-4071.132681,689.485948
1361.387049,8956.491898,-5921.647536,1532.190996
1361.387379,7179.997637,-8660.409521,1838.629195
1361.387708,6365.771101,-8068.244768,1455.581446
1361.388037,6439.791695,-5551.544565,229.828649
1361.388367,6661.853478,-5181.441594,76.609550
1361.388696,6883.915261,-7105.977043,919.314598
1361.389025,6587.832884,-9030.512492,1302.362347
1361.389355,6365.771101,-8068.244768,1302.362347
1361.389684,6365.771101,-5773.606348,612.876398
1361.390013,7328.038826,-3775.050304,0.000000
1361.390342,7624.121203,-4071.132681,76.609550
1361.390672,7994.224174,-7105.977043,1072.533697
1361.391001,7179.997637,-7920.203579,1378.971896
1361.391330,6587.832884,-6735.874072,919.314598
1361.391660,7105.977043,-5329.482782,689.485948
1361.391989,7698.141797,-5699.585753,536.266849
1361.392318,7624.121203,-7994.224174,1302.362347
1361.392647,6513.812290,-9252.574275,1915.238745
1361.392977,6069.688724,-7920.203579,1225.752797
1361.393306,6291.750507,-5477.523971,536.266849
1361.393635,7846.182985,-3923.091493,536.266849
1361.393965,8660.409521,-5403.503377,1225.752797
1361.394294,7846.182985,-7550.100608,2451.505594
1361.394623,6217.729913,-7624.121203,1838.629195
1361.394953,5551.544565,-6365.771101,153.219100
1361.395282,6143.709319,-4589.276840,0.000000
1361.395611,6365.771101,-7328.038826,842.705048
1361.395940,7105.977043,-9030.512492,1225.752797
1361.396270,5551.544565,-9252.574275,1455.581446
1361.396599,5773.606348,-7402.059420,842.705048
1361.396928,7105.977043,-4737.318029,383.047749
1361.397258,7920.203579,-4589.276840,689.485948
1361.397587,8586.388927,-5995.668130,1915.238745
1361.397916,7920.203579,-7476.080014,2298.286494
1361.398246,7105.977043,-6439.791695,1302.362347
1361.398575,7031.956449,-4885.359217,842.705048
1361.398904,7105.977043,-5181.441594,1302.362347
1361.399233,7105.977043,-7105.977043,1072.533697
1361.399563,6217.729913,-9104.533087,1455.581446
1361.399892,5477.523971,-8438.347739,1762.019645
1361.400221,5773.606348,-5551.544565,689.485948
1361.400551,7105.977043,-3923.091493,536.266849
1361.400880,7994.224174,-4589.276840,1072.533697
1361.401209,7698.141797,-6143.709319,1225.752797
1361.401538,7105.977043,-7402.059420,2068.457845
1361.401868,6661.853478,-6661.853478,1455.581446
1361.402197,7402.059420,-4589.276840,842.705048
1361.402526,7624.121203,-4737.318029,766.095498
1361.402856,7179.997637,-7328.038826,919.314598
1361.403185,6587.832884,-9326.594869,1685.410096
1361.403514,6439.791695,-8068.244768,1302.362347
1361.403843,6291.750507,-5329.482782,229.828649
1361.404173,6957.935855,-4145.153275,0.000000
1361.404502,7402.059420,-5921.647536,1072.533697
1361.404831,7328.038826,-8364.327145,1685.410096
1361.405160,6587.832884,-8068.244768,1608.800546
1361.405490,5699.585753,-6587.832884,842.705048
1361.405819,6513.812290,-4959.379811,0.000000
1361.406148,6735.874072,-7105.977043,459.657299
1361.406478,6809.894666,-9252.574275,1915.238745
1361.406807,6587.832884,-9400.615463,2068.457845
1361.407136,6661.853478,-6809.894666,1149.143247
1361.407465,7105.977043,-3627.009116,76.609550
1361.407795,7846.182985,-3775.050304,306.438199
1361.408124,8586.388927,-6513.812290,1762.019645
1361.408453,7550.100608,-7476.080014,1685.410096
1361.408782,6143.709319,-7994.224174,1302.362347
1361.409112,6513.812290,-5403.503377,766.095498
1361.409441,6661.853478,-5625.565159,612.876398
1361.409770,6809.894666,-7402.059420,689.485948
1361.410100,5699.585753,-8882.471304,1225.752797
1361.410429,5403.503377,-9030.512492,1149.143247
1361.410758,5847.626942,-6587.832884,459.657299
1361.411087,7105.977043,-4219.173869,306.438199
1361.411417,8734.430116,-4885.359217,842.705048
1361.411746,8512.368333,-6587.832884,1608.800546
1361.412075,7402.059420,-7328.038826,2068.457845
1361.412404,6883.915261,-6735.874072,1225.752797
1361.412734,7624.121203,-4589.276840,383.047749
1361.413063,7328.038826,-5181.441594,536.266849
1361.413392,6883.915261,-8068.244768,919.314598
1361.413722,5773.606348,-9622.677246,1225.752797
1361.414051,5847.626942,-8512.368333,689.485948
1361.414380,6069.688724,-5033.400406,459.657299
1361.414709,7031.956449,-3552.988522,76.609550
1361.415039,7846.182985,-5181.441594,459.657299
1361.415368,6957.935855,-8586.388927,1532.190996
1361.415697,5847.626942,-8290.306550,2451.505594
1361.416026,6143.709319,-5995.668130,766.095498
1361.416356,7105.977043,-4663.297435,612.876398
1361.416685,7994.224174,-6143.709319,1149.143247
1361.417014,8438.347739,-7031.956449,2298.286494
1361.417344,8142.265362,-7550.100608,2374.896044
1361.417673,6439.791695,-6735.874072,1225.752797
1361.418002,7105.977043,-4367.215058,229.828649
1361.418331,7920.203579,-3775.050304,459.657299
1361.418661,8808.450710,-5995.668130,842.705048
1361.418990,7179.997637,-7624.121203,1915.238745
1361.419319,6069.688724,-7476.080014,842.705048
1361.419648,6365.771101,-5107.421000,153.219100
1361.419978,6513.812290,-5625.565159,919.314598
1361.420307,7105.977043,-7698.141797,1149.143247
1361.420636,6291.750507,-8364.327145,1378.971896
1361.420966,5329.482782,-9030.512492,1072.533697
1361.421295,5995.668130,-6217.729913,919.314598
1361.421624,8216.285956,-3849.070898,0.000000
1361.421953,8734.430116,-4441.235652,1072.533697
1361.422283,8290.306550,-6069.688724,1532.190996
1361.422612,7105.977043,-8216.285956,1838.629195
1361.422941,6513.812290,-6735.874072,1608.800546
1361.423270,7105.977043,-5255.462188,153.219100
1361.423600,7254.018232,-6291.750507,689.485948
1361.423929,7105.977043,-7476.080014,1302.362347
1361.424258,6143.709319,-8734.430116,1149.143247
1361.424587,5403.503377,-6957.935855,689.485948
1361.424917,6069.688724,-5773.606348,306.438199
1361.425246,7328.038826,-4737.318029,383.047749
1361.425575,7772.162391,-5847.626942,919.314598
1361.425905,7254.018232,-7402.059420,1378.971896
1361.426234,6809.894666,-7698.141797,1532.190996
1361.426563,6291.750507,-6513.812290,1455.581446
1361.426892,6883.915261,-5403.503377,229.828649
1361.427222,7328.038826,-6513.812290,995.924147
1361.427551,7254.018232,-8364.327145,1072.533697
1361.427880,6513.812290,-9104.533087,1685.410096
1361.428209,6735.874072,-7105.977043,1455.581446
1361.428539,7994.224174,-4293.194464,306.438199
1361.428868,8660.409521,-4293.194464,459.657299
1361.429197,8142.265362,-5773.606348,1685.410096
1361.429527,7328.038826,-7476.080014,1762.019645
1361.429856,6143.709319,-7031.956449,919.314598
1361.430185,5699.585753,-5403.503377,153.219100
1361.430514,6587.832884,-5625.565159,153.219100
1361.430844,6069.688724,-7179.997637,766.095498
1361.431173,6143.709319,-8586.388927,1685.410096
1361.431502,5773.606348,-8068.244768,1072.533697
1361.431831,6143.709319,-5773.606348,306.438199
1361.432161,7772.162391,-4293.194464,0.000000
1361.432490,8882.471304,-5033.400406,995.924147
1361.432819,9252.574275,-6883.915261,2068.457845
1361.433149,7920.203579,-7772.162391,2068.457845
1361.433478,7105.977043,-6439.791695,1149.143247
1361.433807,7624.121203,-5329.482782,995.924147
1361.434136,6809.894666,-6217.729913,229.828649
1361.434466,6143.709319,-8512.368333,1072.533697
1361.434795,5181.441594,-9326.594869,995.924147
1361.435124,5181.441594,-8068.244768,919.314598
1361.435453,6365.771101,-5033.400406,536.266849
1361.435783,6735.874072,-4071.132681,76.609550
1361.436112,7328.038826,-5255.462188,306.438199
1361.436441,7624.121203,-7328.038826,1838.629195
1361.436771,7550.100608,-7698.141797,2298.286494
1361.437100,7550.100608,-5773.606348,1225.752797
1361.437429,7105.977043,-5625.565159,766.095498
1361.437758,7550.100608,-5699.585753,612.876398
1361.438088,7550.100608,-8438.347739,1685.410096
1361.438417,7105.977043,-8956.491898,2681.334243
1361.438746,6809.894666,-5995.668130,1455.581446
1361.439075,7105.977043,-4515.256246,306.438199
1361.439405,7105.977043,-4737.318029,229.828649
1361.439734,6587.832884,-6661.853478,1072.533697
1361.440063,5847.626942,-8364.327145,1608.800546
1361.440393,5329.482782,-7179.997637,842.705048
1361.440722,5921.647536,-6291.750507,229.828649
1361.441051,6587.832884,-6439.791695,766.095498
1361.441380,7179.997637,-7179.997637,1072.533697
1361.441710,6217.729913,-9548.656652,1685.410096
1361.442039,5995.668130,-8364.327145,1532.190996
1361.442368,7254.018232,-5107.421000,459.657299
1361.442697,8882.471304,-2812.782580,383.047749
1361.443027,9400.615463,-4737.318029,1608.800546
1361.443356,8882.471304,-6957.935855,1915.238745
1361.443685,7328.038826,-7402.059420,1455.581446
1361.444015,5921.647536,-6513.812290,842.705048
1361.444344,6365.771101,-5255.462188,153.219100
1361.444673,6365.771101,-6365.771101,459.657299
1361.445002,6439.791695,-8216.285956,1072.533697
1361.445332,5699.585753,-9252.574275,1302.362347
1361.445661,5773.606348,-7772.162391,1149.143247
1361.445990,6513.812290,-5255.462188,919.314598
1361.446319,7476.080014,-4959.379811,383.047749
1361.446649,7550.100608,-6217.729913,995.924147
1361.446978,7105.977043,-8290.306550,1685.410096
1361.447307,6957.935855,-7920.203579,2145.067394
1361.447637,6957.935855,-5625.565159,1225.752797
1361.447966,7105.977043,-5107.421000,383.047749
1361.448295,7550.100608,-6365.771101,766.095498
1361.448624,6883.915261,-8734.430116,1455.581446
1361.448954,6513.812290,-8956.491898,995.924147
1361.449283,5995.668130,-6439.791695,536.266849
1361.449612,7105.977043,-4737.318029,0.000000
1361.449941,7846.182985,-4293.194464,306.438199
1361.450271,7476.080014,-5995.668130,1455.581446
1361.450600,7402.059420,-7698.141797,1762.019645
1361.450929,6513.812290,-6661.853478,1455.581446
1361.451259,6587.832884,-5107.421000,536.266849
1361.451588,6809.894666,-4811.338623,383.047749
1361.451917,7698.141797,-6809.894666,1149.143247
1361.452246,7105.977043,-8216.285956,2068.457845
1361.452576,6661.853478,-7920.203579,1838.629195
1361.452905,6809.894666,-5551.544565,919.314598
1361.453234,7550.100608,-3849.070898,459.657299
1361.453563,8734.430116,-5551.544565,459.657299
1361.453893,8142.265362,-6883.915261,1685.410096
1361.454222,7105.977043,-7994.224174,1685.410096
1361.454551,6143.709319,-7402.059420,1378.971896
1361.454881,6809.894666,-4885.359217,536.266849
1361.455210,6069.688724,-7105.977043,0.000000
1361.455539,5107.421000,-9104.533087,536.266849
1361.455868,4811.338623,-9770.718434,919.314598
1361.456198,5107.421000,-8956.491898,536.266849
1361.456527,6291.750507,-4885.359217,1685.410096
1361.456856,8512.368333,-3478.967927,689.485948
1361.457185,9474.636058,-4811.338623,1378.971896
1361.457515,8734.430116,-5699.585753,2298.286494
1361.457844,8660.409521,-6217.729913,2374.896044
1361.458173,8586.388927,-4293.194464,1455.581446
1361.458503,7920.203579,-4219.173869,689.485948
1361.458832,7328.038826,-6069.688724,1455.581446
1361.459161,6809.894666,-7772.162391,1915.238745
1361.459490,5625.565159,-8364.327145,1685.410096
1361.459820,4885.359217,-6735.874072,995.924147
1361.460149,6069.688724,-4885.359217,0.000000
1361.460478,6513.812290,-4737.318029,766.095498
1361.460807,7105.977043,-7105.977043,919.314598
1361.461137,6217.729913,-8956.491898,1378.971896
1361.461466,5625.565159,-7994.224174,1302.362347
1361.461795,6809.894666,-6291.750507,306.438199
1361.462124,7698.141797,-6587.832884,536.266849
1361.462454,7846.182985,-7920.203579,1915.238745
1361.462783,7031.956449,-9400.615463,1685.410096
1361.463112,6809.894666,-7846.182985,1455.581446
1361.463442,6291.750507,-5995.668130,459.657299
1361.463771,7105.977043,-4293.194464,-153.219100
1361.464100,7328.038826,-4737.318029,536.266849
1361.464429,6661.853478,-7550.100608,1225.752797
1361.464759,5699.585753,-8290.306550,1608.800546
1361.465088,5921.647536,-6735.874072,919.314598
1361.465417,7179.997637,-5329.482782,153.219100
1361.465746,7402.059420,-5995.668130,1072.533697
1361.466076,6883.915261,-8142.265362,1532.190996
1361.466405,6291.750507,-8734.430116,1378.971896
1361.466734,5625.565159,-7105.977043,766.095498
1361.467064,6661.853478,-4367.215058,0.000000
1361.467393,8142.265362,-3849.070898,153.219100
1361.467722,9178.553681,-5773.606348,2068.457845
1361.468051,8586.388927,-7550.100608,2451.505594
1361.468381,7031.956449,-7476.080014,2298.286494
1361.468710,6513.812290,-5551.544565,766.095498
1361.469039,5921.647536,-5107.421000,76.609550
1361.469368,5921.647536,-7179.997637,229.828649
1361.469698,5773.606348,-8290.306550,1225.752797
1361.470027,6069.688724,-9030.512492,1532.190996
1361.470356,6513.812290,-6513.812290,1225.752797
1361.470686,7846.182985,-3627.009116,306.438199
1361.471015,8808.450710,-4071.132681,612.876398
1361.471344,8882.471304,-5181.441594,1532.190996
1361.471673,7994.224174,-7328.038826,1915.238745
1361.472003,6957.935855,-6809.894666,1762.019645
1361.472332,7179.997637,-4515.256246,995.924147
1361.472661,7698.141797,-4737.318029,459.657299
1361.472990,7328.038826,-5847.626942,306.438199
1361.473320,6513.812290,-8808.450710,1532.190996
1361.473649,6291.750507,-8068.244768,1378.971896
1361.473978,6439.791695,-5329.482782,536.266849
1361.474308,7624.121203,-4811.338623,536.266849
1361.474637,8142.265362,-5699.585753,1608.800546
1361.474966,6735.874072,-8734.430116,1915.238745
1361.475295,5329.482782,-9474.636058,1378.971896
1361.475625,5403.503377,-7476.080014,536.266849
1361.475954,6513.812290,-5403.503377,689.485948
1361.476283,7031.956449,-6957.935855,1225.752797
1361.476612,6439.791695,-8586.388927,1072.533697
1361.476942,5625.565159,-9252.574275,995.924147
1361.477271,5699.585753,-7328.038826,459.657299
1361.477600,7179.997637,-5403.503377,153.219100
1361.477930,8364.327145,-4219.173869,536.266849
1361.478259,8660.409521,-5995.668130,1225.752797
1361.478588,7920.203579,-7105.977043,1455.581446
1361.478917,6735.874072,-6957.935855,1532.190996
1361.479247,6957.935855,-4885.359217,1455.581446
1361.479576,8142.265362,-4959.379811,1072.533697
1361.479905,7772.162391,-5773.606348,1302.362347
1361.480234,7179.997637,-7254.018232,1915.238745
1361.480564,6513.812290,-7550.100608,1532.190996
1361.480893,6439.791695,-5699.585753,1149.143247
1361.481222,7105.977043,-4515.256246,612.876398
1361.481552,7772.162391,-4589.276840,1149.143247
1361.481881,7105.977043,-6365.771101,1225.752797
1361.482210,6217.729913,-8290.306550,1838.629195
1361.482539,5699.585753,-7772.162391,1915.238745
1361.482869,6809.894666,-6661.853478,383.047749
1361.483198,6809.894666,-6735.874072,536.266849
1361.483527,5921.647536,-8586.388927,1225.752797
1361.483856,5329.482782,-10288.862594,995.924147
1361.484186,5033.400406,-9030.512492,919.314598
1361.484515,5625.565159,-6143.709319,383.047749
1361.484844,7328.038826,-3627.009116,-459.657299
1361.485174,8882.471304,-4515.256246,1072.533697
1361.485503,8586.388927,-6439.791695,1302.362347
1361.485832,7402.059420,-6883.915261,2068.457845
1361.486161,6883.915261,-4959.379811,919.314598
1361.486491,7772.162391,-4219.173869,229.828649
1361.486820,7179.997637,-5107.421000,76.609550
1361.487149,7402.059420,-7105.977043,1608.800546
1361.487478,7328.038826,-8734.430116,1915.238745
1361.487808,6957.935855,-6291.750507,1685.410096
1361.488137,7550.100608,-4811.338623,919.314598
1361.488466,8364.327145,-3330.926739,229.828649
1361.488796,8364.327145,-5699.585753,1455.581446
1361.489125,7328.038826,-8586.388927,2068.457845
1361.489454,5921.647536,-7994.224174,1225.752797
1361.489783,5625.565159,-5921.647536,919.314598
1361.490113,6217.729913,-5847.626942,0.000000
1361.490442,6291.750507,-7031.956449,995.924147
1361.490771,6143.709319,-9030.512492,1608.800546
1361.491100,6143.709319,-9696.697840,1455.581446
1361.491430,6661.853478,-6217.729913,842.705048
1361.491759,7105.977043,-4293.194464,0.000000
1361.492088,7698.141797,-4367.215058,0.000000
1361.492418,7402.059420,-7031.956449,842.705048
1361.492747,7179.997637,-8068.244768,1608.800546
1361.493076,6883.915261,-7179.997637,1532.190996
1361.493405,7328.038826,-4663.297435,919.314598
1361.493735,7772.162391,-4589.276840,383.047749
1361.494064,7254.018232,-7254.018232,1072.533697
1361.494393,6439.791695,-8808.450710,2221.676944
1361.494722,6365.771101,-7550.100608,1072.533697
1361.495052,7254.018232,-3997.112087,842.705048
1361.495381,8438.347739,-3108.864956,1149.143247
1361.495710,8438.347739,-4737.318029,1455.581446
1361.496040,8142.265362,-7031.956449,2068.457845
1361.496369,6217.729913,-8216.285956,1532.190996
1361.496698,5403.503377,-7031.956449,766.095498
1361.497027,6143.709319,-6069.688724,612.876398
1361.497357,6143.709319,-6883.915261,689.485948
1361.497686,5699.585753,-9252.574275,995.924147
1361.498015,4737.318029,-10658.965565,1225.752797
1361.498344,5255.462188,-8882.471304,919.314598
1361.498674,6069.688724,-5329.482782,536.266849
1361.499003,7328.038826,-4145.153275,306.438199
1361.499332,7994.224174,-5551.544565,919.314598
1361.499661,7920.203579,-7476.080014,1838.629195
1361.499991,7105.977043,-6809.894666,1838.629195
1361.500320,8142.265362,-5181.441594,612.876398
1361.500649,8882.471304,-4145.153275,919.314598
1361.500979,8660.409521,-5847.626942,1455.581446
1361.501308,7624.121203,-8068.244768,2068.457845
1361.501637,6217.729913,-8364.327145,1915.238745
1361.501966,6661.853478,-6291.750507,153.219100
1361.502296,6957.935855,-3997.112087,229.828649
1361.502625,7624.121203,-4515.256246,766.095498
1361.502954,8216.285956,-6883.915261,1532.190996
1361.503283,7550.100608,-8216.285956,2681.334243
1361.503613,6069.688724,-7476.080014,1225.752797
1361.503942,6291.750507,-5477.523971,306.438199
1361.504271,6513.812290,-5699.585753,0.000000
1361.504600,5921.647536,-7846.182985,842.705048
1361.504930,5773.606348,-9696.697840,1838.629195
1361.505259,5921.647536,-9030.512492,1378.971896
1361.505588,6661.853478,-6439.791695,536.266849
1361.505917,7328.038826,-4441.235652,0.000000
1361.506246,8438.347739,-4663.297435,1072.533697
1361.506576,8142.265362,-6883.915261,1685.410096
1361.506905,7920.203579,-7698.141797,1991.848295
1361.507234,6735.874072,-5995.668130,1225.752797
1361.507563,7105.977043,-4441.235652,76.609550
1361.507892,7328.038826,-5477.523971,-229.828649
1361.508222,7105.977043,-8142.265362,1455.581446
1361.508551,6809.894666,-8660.409521,1685.410096
1361.508880,6291.750507,-6957.935855,1532.190996
1361.509209,7624.121203,-4737.318029,842.705048
1361.509539,8216.285956,-3997.112087,76.609550
1361.509868,8586.388927,-5477.523971,1149.143247
1361.510197,7254.018232,-8956.491898,2068.457845
1361.510526,6661.853478,-7772.162391,1072.533697
1361.510855,6587.832884,-4885.359217,919.314598
1361.511185,6735.874072,-6069.688724,153.219100
1361.511514,7179.997637,-7698.141797,612.876398
1361.511843,6809.894666,-8808.450710,1685.410096
1361.512172,5551.544565,-10140.821405,919.314598
1361.512501,4737.318029,-6587.832884,536.266849
1361.512831,6069.688724,-4885.359217,0.000000
1361.513160,7402.059420,-5033.400406,76.609550
1361.513489,8438.347739,-6513.812290,1991.848295
1361.513818,8290.306550,-8142.265362,2298.286494
1361.514147,7550.100608,-6069.688724,1455.581446
1361.514477,7476.080014,-4071.132681,1225.752797
1361.514806,7624.121203,-4885.359217,459.657299
1361.515135,7846.182985,-6513.812290,1302.362347
1361.515464,7179.997637,-8512.368333,2145.067394
1361.515794,6513.812290,-7476.080014,1532.190996
1361.516123,6143.709319,-4811.338623,536.266849
1361.516452,7105.977043,-4441.235652,383.047749
1361.516781,7402.059420,-4737.318029,689.485948
1361.517110,7402.059420,-7179.997637,1225.752797
1361.517440,6365.771101,-8364.327145,1991.848295
1361.517769,6365.771101,-6809.894666,1225.752797
1361.518098,6735.874072,-5403.503377,383.047749
1361.518427,6365.771101,-7105.977043,536.266849
1361.518756,5847.626942,-8882.471304,766.095498
1361.519086,6069.688724,-9770.718434,1685.410096
1361.519415,6217.729913,-8290.306550,919.314598
1361.519744,6957.935855,-4737.318029,842.705048
1361.520073,7550.100608,-4367.215058,1455.581446
1361.520402,8438.347739,-5921.647536,1378.971896
1361.520732,7624.121203,-7328.038826,2145.067394
1361.521061,6217.729913,-7105.977043,1225.752797
1361.521390,5921.647536,-5329.482782,536.266849
1361.521719,6291.750507,-4293.194464,459.657299
1361.522049,7031.956449,-6809.894666,766.095498
1361.522378,7698.141797,-8586.388927,2221.676944
1361.522707,7328.038826,-8142.265362,1685.410096
1361.523036,7105.977043,-4737.318029,612.876398
1361.523365,7476.080014,-3478.967927,0.000000
1361.523695,8216.285956,-4293.194464,689.485948
1361.524024,8660.409521,-6809.894666,1608.800546
1361.524353,7772.162391,-8142.265362,2221.676944
1361.524682,6883.915261,-7031.956449,1685.410096
1361.525011,6587.832884,-5403.503377,842.705048
1361.525341,5551.544565,-6365.771101,229.828649
1361.525670,5403.503377,-7994.224174,459.657299
1361.525999,5625.565159,-9326.594869,383.047749
1361.526328,5551.544565,-8290.306550,842.705048
1361.526657,6143.709319,-5847.626942,306.438199
1361.526987,7179.997637,-4515.256246,153.219100
1361.527316,7846.182985,-5847.626942,842.705048
1361.527645,8216.285956,-7550.100608,1838.629195
1361.527974,7254.018232,-7550.100608,1762.019645
1361.528304,7328.038826,-5699.585753,1149.143247
1361.528633,8734.430116,-4811.338623,919.314598
1361.528962,8290.306550,-5773.606348,919.314598
1361.529291,7105.977043,-7179.997637,1072.533697
1361.529620,5625.565159,-9178.553681,995.924147
1361.529950,5773.606348,-6217.729913,766.095498
1361.530279,6809.894666,-4737.318029,76.609550
1361.530608,8216.285956,-4219.173869,1072.533697
1361.530937,8216.285956,-6069.688724,2068.457845
1361.531266,8142.265362,-8512.368333,1991.848295
1361.531596,6735.874072,-7476.080014,1762.019645
1361.531925,6439.791695,-5625.565159,919.314598
1361.532254,6439.791695,-4959.379811,536.266849
1361.532583,5995.668130,-7624.121203,766.095498
1361.532913,5847.626942,-9918.759623,1532.190996
1361.533242,5995.668130,-9030.512492,1302.362347
1361.533571,6587.832884,-6439.791695,842.705048
1361.533900,7254.018232,-4515.256246,459.657299
1361.534229,7254.018232,-5033.400406,842.705048
1361.534559,6735.874072,-7105.977043,1149.143247
1361.534888,5995.668130,-7550.100608,919.314598
1361.535217,5625.565159,-6883.915261,1072.533697
1361.535546,6513.812290,-5033.400406,153.219100
1361.535875,6957.935855,-6365.771101,536.266849
1361.536205,7105.977043,-7772.162391,1302.362347
1361.536534,7328.038826,-8882.471304,1455.581446
1361.536863,7105.977043,-7179.997637,1838.629195
1361.537192,7179.997637,-4441.235652,1149.143247
1361.537521,7846.182985,-3701.029710,689.485948
1361.537851,8438.347739,-4219.173869,995.924147
1361.538180,7920.203579,-6217.729913,2221.676944
1361.538509,7105.977043,-7328.038826,1608.800546
1361.538838,7031.956449,-6513.812290,2068.457845
1361.539168,7031.956449,-5255.462188,689.485948
1361.539497,6291.750507,-6439.791695,306.438199
1361.539826,5625.565159,-9252.574275,766.095498
1361.540155,5477.523971,-9992.780217,1685.410096
1361.540484,5033.400406,-7105.977043,612.876398
1361.540814,6143.709319,-5329.482782,459.657299
1361.541143,7254.018232,-4441.235652,612.876398
1361.541472,8216.285956,-6883.915261,1072.533697
1361.541801,7105.977043,-9178.553681,2374.896044
1361.542130,6439.791695,-7698.141797,1532.190996
1361.542460,6809.894666,-5921.647536,459.657299
1361.542789,7179.997637,-4293.194464,919.314598
1361.543118,7624.121203,-6291.750507,1302.362347
1361.543447,7772.162391,-7772.162391,1532.190996
1361.543776,7105.977043,-7105.977043,1685.410096
1361.544106,7105.977043,-5255.462188,919.314598
1361.544435,7994.224174,-4145.153275,612.876398
1361.544764,7846.182985,-5181.441594,842.705048
1361.545093,7328.038826,-7476.080014,1532.190996
1361.545423,6365.771101,-8068.244768,1532.190996
1361.545752,6439.791695,-7179.997637,995.924147
1361.546081,6809.894666,-5107.421000,766.095498
1361.546410,6957.935855,-5551.544565,536.266849
1361.546739,6661.853478,-7476.080014,1378.971896
1361.547069,6291.750507,-8660.409521,1455.581446
1361.547398,5477.523971,-7254.018232,1455.581446
1361.547727,5551.544565,-5699.585753,689.485948
1361.548056,6883.915261,-4737.318029,0.000000
1361.548385,7550.100608,-6217.729913,919.314598
1361.548715,7105.977043,-8734.430116,1991.848295
1361.549044,6587.832884,-8216.285956,1838.629195
1361.549373,6661.853478,-6291.750507,842.705048
1361.549702,7105.977043,-5181.441594,0.000000
1361.550031,7254.018232,-6143.709319,689.485948
1361.550361,7698.141797,-7920.203579,2451.505594
1361.550690,7254.018232,-9104.533087,2145.067394
1361.551019,6439.791695,-6069.688724,1149.143247
1361.551348,6809.894666,-4071.132681,229.828649
1361.551678,7772.162391,-4515.256246,1149.143247
1361.552007,8882.471304,-5551.544565,1838.629195
1361.552336,7402.059420,-7105.977043,2145.067394
1361.552665,6365.771101,-6883.915261,1608.800546
1361.552994,6439.791695,-6069.688724,919.314598
1361.553324,7031.956449,-5847.626942,383.047749
1361.553653,6365.771101,-8586.388927,1072.533697
1361.553982,5625.565159,-9992.780217,1378.971896
1361.554311,5403.503377,-8660.409521,1072.533697
1361.554640,5847.626942,-6513.812290,689.485948
1361.554970,7550.100608,-4441.235652,383.047749
1361.555299,8438.347739,-5107.421000,766.095498
1361.555628,7994.224174,-6365.771101,1685.410096
1361.555957,6661.853478,-7402.059420,766.095498
1361.556287,6217.729913,-6217.729913,1302.362347
1361.556616,6513.812290,-5033.400406,689.485948
1361.556945,7105.977043,-6143.709319,306.438199
1361.557274,7105.977043,-7328.038826,1455.581446
1361.557603,7105.977043,-8068.244768,1685.410096
1361.557933,6883.915261,-6513.812290,1072.533697
1361.558262,7105.977043,-4071.132681,1149.143247
1361.558591,7402.059420,-6365.771101,612.876398
1361.558920,8734.430116,-2960.823768,306.438199
1361.559249,7846.182985,-7624.121203,1915.238745
1361.559579,7105.977043,-9178.553681,1685.410096
1361.559908,7550.100608,-4293.194464,689.485948
1361.560237,8216.285956,-5403.503377,1532.190996
1361.560566,7698.141797,-6513.812290,1149.143247
1361.560895,5699.585753,-8438.347739,612.876398
1361.561225,4663.297435,-8956.491898,1225.752797
1361.561554,4589.276840,-7550.100608,-76.609550
1361.561883,6957.935855,-5847.626942,919.314598
1361.562212,9104.533087,-4293.194464,1149.143247
1361.562542,9400.615463,-5921.647536,1072.533697
1361.562871,7550.100608,-8068.244768,2221.676944
1361.563200,6143.709319,-7550.100608,1302.362347
1361.563529,6883.915261,-5995.668130,0.000000
1361.563858,6513.812290,-4589.276840,-459.657299
1361.564188,6365.771101,-7698.141797,766.095498
1361.564517,6513.812290,-8586.388927,1225.752797
1361.564846,6365.771101,-7476.080014,1838.629195
1361.565175,7105.977043,-5477.523971,842.705048
1361.565504,8808.450710,-4219.173869,383.047749
1361.565834,8660.409521,-4663.297435,1149.143247
1361.566163,7476.080014,-6365.771101,919.314598
1361.566492,6143.709319,-7105.977043,842.705048
1361.566821,6587.832884,-6587.832884,995.924147
1361.567150,7031.956449,-6217.729913,536.266849
1361.567480,7328.038826,-6587.832884,1225.752797
1361.567809,7105.977043,-8290.306550,1378.971896
1361.568138,5995.668130,-9474.636058,1532.190996
1361.568467,4811.338623,-7772.162391,766.095498
1361.568797,5329.482782,-5773.606348,0.000000
1361.569126,6809.894666,-4293.194464,0.000000
1361.569455,7550.100608,-5181.441594,919.314598
1361.569784,7254.018232,-7550.100608,1838.629195
1361.570113,6587.832884,-7624.121203,1991.848295
1361.570443,6661.853478,-6365.771101,536.266849
1361.570772,7402.059420,-5995.668130,689.485948
1361.571101,6957.935855,-6291.750507,459.657299
1361.571430,5773.606348,-9474.636058,1608.800546
1361.571759,4959.379811,-9252.574275,76.609550
1361.572089,5699.585753,-5921.647536,0.000000
1361.572418,7328.038826,-4959.379811,536.266849
1361.572747,9548.656652,-4515.256246,1225.752797
1361.573076,9030.512492,-5625.565159,2145.067394
1361.573405,7179.997637,-7328.038826,1532.190996
1361.573735,5995.668130,-6661.853478,766.095498
1361.574064,6735.874072,-5625.565159,459.657299
1361.574393,7031.956449,-5773.606348,919.314598
1361.574722,7105.977043,-7402.059420,1532.190996
1361.575052,7031.956449,-8068.244768,1685.410096
1361.575381,6365.771101,-7476.080014,995.924147
1361.575710,7031.956449,-4515.256246,1072.533697
1361.576039,7698.141797,-4145.153275,1532.190996
1361.576368,8586.388927,-4737.318029,766.095498
1361.576698,7254.018232,-6587.832884,1378.971896
1361.577027,6217.729913,-8142.265362,1378.971896
1361.577356,6217.729913,-6661.853478,995.924147
1361.577685,6143.709319,-5995.668130,536.266849
1361.578014,6809.894666,-6809.894666,229.828649
1361.578344,6365.771101,-8586.388927,1225.752797
1361.578673,5699.585753,-9104.533087,1149.143247
1361.579002,5181.441594,-7994.224174,612.876398
1361.579331,6143.709319,-5477.523971,689.485948
1361.579661,7994.224174,-3849.070898,612.876398
1361.579990,9252.574275,-5255.462188,1072.533697
1361.580319,8734.430116,-6217.729913,2145.067394
1361.580648,7550.100608,-6809.894666,1685.410096
1361.580977,6661.853478,-6143.709319,919.314598
1361.581307,6957.935855,-5107.421000,229.828649
1361.581636,6735.874072,-7254.018232,383.047749
1361.581965,6513.812290,-8808.450710,1608.800546
1361.582294,5773.606348,-8734.430116,1149.143247
1361.582623,5847.626942,-7402.059420,1072.533697
1361.582953,7550.100608,-4737.318029,766.095498
1361.583282,8660.409521,-4737.318029,995.924147
1361.583611,7920.203579,-6291.750507,1532.190996
1361.583940,6069.688724,-8586.388927,1225.752797
1361.584269,5847.626942,-7328.038826,1149.143247
1361.584599,6439.791695,-6069.688724,383.047749
1361.584928,7105.977043,-5033.400406,612.876398
1361.585257,7476.080014,-7105.977043,1532.190996
1361.585586,7105.977043,-7994.224174,1455.581446
1361.585916,6217.729913,-7772.162391,1685.410096
1361.586245,6735.874072,-6513.812290,995.924147
1361.586574,8216.285956,-3627.009116,536.266849
1361.586903,8586.388927,-4367.215058,612.876398
1361.587232,7846.182985,-6217.729913,1378.971896
1361.587562,7179.997637,-7476.080014,1762.019645
1361.587891,6809.894666,-7476.080014,1455.581446
1361.588220,7105.977043,-5329.482782,76.609550
1361.588549,6587.832884,-5995.668130,153.219100
1361.588878,5699.585753,-8586.388927,689.485948
1361.589208,5033.400406,-9992.780217,1455.581446
1361.589537,5995.668130,-8216.285956,1378.971896
1361.589866,6439.791695,-5255.462188,459.657299
1361.590195,7624.121203,-3627.009116,0.000000
1361.590524,8438.347739,-4071.132681,1072.533697
1361.590854,7846.182985,-7254.018232,2145.067394
1361.591183,8586.388927,-7920.203579,2834.553343
1361.591512,7624.121203,-5255.462188,1608.800546
1361.591841,7402.059420,-4515.256246,842.705048
1361.592171,7105.977043,-5551.544565,766.095498
1361.592500,7031.956449,-8290.306550,1378.971896
1361.592829,6069.688724,-9474.636058,1149.143247
1361.593158,5551.544565,-7328.038826,919.314598
1361.593487,6587.832884,-5033.400406,76.609550
1361.593817,7476.080014,-4663.297435,383.047749
1361.594146,7550.100608,-6661.853478,1455.581446
1361.594475,7179.997637,-8364.327145,1455.581446
1361.594804,6587.832884,-7402.059420,1225.752797
1361.595133,6217.729913,-5255.462188,842.705048
1361.595463,7550.100608,-5847.626942,766.095498
1361.595792,7920.203579,-6365.771101,1455.581446
1361.596121,7105.977043,-8364.327145,1608.800546
1361.596450,6069.688724,-8586.388927,2068.457845
1361.596779,6957.935855,-5033.400406,1072.533697
1361.597109,8142.265362,-2738.761985,0.000000
1361.597438,8512.368333,-4145.153275,1072.533697
1361.597767,7550.100608,-6439.791695,1225.752797
1361.598096,6439.791695,-8734.430116,383.047749
1361.598426,5181.441594,-8216.285956,689.485948
1361.598755,6809.894666,-5699.585753,919.314598
1361.599084,7179.997637,-6069.688724,612.876398
1361.599413,6735.874072,-8364.327145,1608.800546
1361.599742,5847.626942,-9178.553681,1378.971896
1361.600072,5625.565159,-7328.038826,536.266849
1361.600401,6735.874072,-4589.276840,612.876398
1361.600730,8068.244768,-4145.153275,919.314598
1361.601059,8734.430116,-5181.441594,1608.800546
1361.601388,8216.285956,-7179.997637,1991.848295
1361.601718,7105.977043,-7624.121203,2221.676944
1361.602047,5995.668130,-6513.812290,919.314598
1361.602376,6217.729913,-5403.503377,229.828649
1361.602705,6439.791695,-6883.915261,229.828649
1361.603035,6291.750507,-8586.388927,1378.971896
1361.603364,6365.771101,-8512.368333,1225.752797
1361.603693,6735.874072,-7105.977043,1455.581446
1361.604022,8216.285956,-3627.009116,1455.581446
1361.604351,9326.594869,-3478.967927,612.876398
1361.604681,9104.533087,-5033.400406,1838.629195
1361.605010,7105.977043,-7031.956449,1838.629195
1361.605339,5995.668130,-7698.141797,1302.362347
1361.605668,5699.585753,-5995.668130,306.438199
1361.605997,5773.606348,-5625.565159,76.609550
1361.606326,5773.606348,-7179.997637,229.828649
1361.606656,4959.379811,-9844.739029,1149.143247
1361.606985,5033.400406,-9474.636058,919.314598
1361.607314,6217.729913,-7105.977043,383.047749
1361.607643,7772.162391,-5107.421000,536.266849
1361.607972,9104.533087,-5329.482782,1072.533697
1361.608301,8660.409521,-7254.018232,1838.629195
1361.608630,7624.121203,-7105.977043,2068.457845
1361.608960,6365.771101,-5921.647536,536.266849
1361.609289,6883.915261,-4441.235652,689.485948
1361.609618,7254.018232,-5995.668130,919.314598
1361.609947,7031.956449,-8660.409521,1608.800546
1361.610276,5921.647536,-9400.615463,1685.410096
1361.610605,4737.318029,-7402.059420,766.095498
1361.610934,5847.626942,-4959.379811,0.000000
1361.611264,7105.977043,-4293.194464,229.828649
1361.611593,8216.285956,-5107.421000,995.924147
1361.611922,7772.162391,-7624.121203,1991.848295
1361.612251,7476.080014,-7254.018232,2451.505594
1361.612580,7031.956449,-5551.544565,1149.143247
1361.612909,8290.306550,-4811.338623,536.266849
1361.613238,8586.388927,-5921.647536,1608.800546
1361.613568,7994.224174,-8068.244768,2374.896044
1361.613897,6809.894666,-7846.182985,2145.067394
1361.614226,6439.791695,-6143.709319,1762.019645
1361.614555,7105.977043,-4145.153275,0.000000
1361.614884,6957.935855,-4515.256246,0.000000
1361.615213,6735.874072,-7402.059420,919.314598
1361.615542,6439.791695,-8216.285956,995.924147
1361.615872,5773.606348,-8290.306550,995.924147
1361.616201,5773.606348,-6957.935855,459.657299
1361.616530,6513.812290,-5995.668130,-612.876398
1361.616859,6735.874072,-8290.306550,1225.752797
1361.617188,6809.894666,-9178.553681,1378.971896
1361.617517,7105.977043,-8068.244768,1685.410096
1361.617846,7994.224174,-4663.297435,1302.362347
1361.618176,8808.450710,-3256.906145,842.705048
1361.618505,8734.430116,-3552.988522,1225.752797
1361.618834,8142.265362,-6513.812290,1532.190996
1361.619163,6661.853478,-7698.141797,1149.143247
1361.619492,5995.668130,-6069.688724,459.657299
1361.619821,6735.874072,-4737.318029,0.000000
1361.620151,6883.915261,-6439.791695,76.609550
1361.620480,6735.874072,-8142.265362,1378.971896
1361.620809,5551.544565,-9252.574275,995.924147
1361.621138,5477.523971,-7846.182985,612.876398
1361.621467,7254.018232,-5181.441594,842.705048
1361.621796,8734.430116,-4071.132681,766.095498
1361.622125,9178.553681,-5403.503377,1991.848295
1361.622455,8438.347739,-7179.997637,2451.505594
1361.622784,7402.059420,-6809.894666,1915.238745
1361.623113,6291.750507,-5625.565159,459.657299
1361.623442,6143.709319,-5107.421000,383.047749
1361.623771,6365.771101,-7105.977043,306.438199
1361.624100,6365.771101,-9030.512492,1149.143247
1361.624429,5403.503377,-8660.409521,1762.019645
1361.624759,5625.565159,-7179.997637,919.314598
1361.625088,7179.997637,-4589.276840,459.657299
1361.625417,8290.306550,-4515.256246,229.828649
1361.625746,7920.203579,-6439.791695,1532.190996
1361.626075,7105.977043,-7698.141797,1455.581446
1361.626404,6735.874072,-7105.977043,1302.362347
1361.626733,6661.853478,-5329.482782,612.876398
1361.627063,6883.915261,-5477.523971,766.095498
1361.627392,7105.977043,-7031.956449,1608.800546
1361.627721,6069.688724,-8660.409521,1762.019645
1361.628050,6143.709319,-8142.265362,1685.410096
1361.628379,7105.977043,-5329.482782,612.876398
1361.628708,7920.203579,-4071.132681,995.924147
1361.629037,8290.306550,-5181.441594,1455.581446
1361.629367,7624.121203,-7402.059420,1915.238745
1361.629696,5921.647536,-7772.162391,1149.143247
1361.630025,4959.379811,-7105.977043,459.657299
1361.630354,5995.668130,-6217.729913,612.876398
1361.630683,6735.874072,-6661.853478,1149.143247
1361.631012,6957.935855,-8586.388927,1302.362347
1361.631341,6291.750507,-9104.533087,1915.238745
1361.631671,6069.688724,-6957.935855,1149.143247
1361.632000,7031.956449,-4071.132681,689.485948
1361.632329,8142.265362,-3256.906145,306.438199
1361.632658,8808.450710,-5625.565159,1072.533697
1361.632987,8216.285956,-7254.018232,1991.848295
1361.633316,7179.997637,-7846.182985,2068.457845
1361.633645,6883.915261,-5033.400406,919.314598
1361.633975,7402.059420,-4885.359217,536.266849
1361.634304,6883.915261,-6883.915261,459.657299
1361.634633,5773.606348,-8068.244768,1072.533697
1361.634962,5625.565159,-8364.327145,1149.143247
1361.635291,6069.688724,-5699.585753,1149.143247
1361.635620,7328.038826,-4441.235652,536.266849
1361.635949,8142.265362,-5033.400406,1149.143247
1361.636279,8142.265362,-6587.832884,1608.800546
1361.636608,6883.915261,-8512.368333,1915.238745
1361.636937,5773.606348,-7179.997637,1149.143247
1361.637266,5921.647536,-5773.606348,612.876398
1361.637595,7105.977043,-6217.729913,76.609550
1361.637924,6735.874072,-7476.080014,1762.019645
1361.638253,6661.853478,-9770.718434,1149.143247
1361.638583,5921.647536,-7920.203579,995.924147
1361.638912,6217.729913,-5033.400406,612.876398
1361.639241,7550.100608,-3701.029710,0.000000
1361.639570,8586.388927,-4663.297435,995.924147
1361.639899,8290.306550,-6883.915261,1532.190996
1361.640228,7031.956449,-7254.018232,1608.800546
1361.640557,6587.832884,-5921.647536,1072.533697
1361.640887,7402.059420,-4515.256246,0.000000
1361.641216,7550.100608,-5329.482782,919.314598
1361.641545,7031.956449,-7994.224174,1532.190996
1361.641874,6513.812290,-8956.491898,1302.362347
1361.642203,6661.853478,-7772.162391,1149.143247
1361.642532,7772.162391,-4663.297435,1149.143247
1361.642862,8142.265362,-4663.297435,919.314598
1361.643191,7994.224174,-6069.688724,1455.581446
1361.643520,6661.853478,-7920.203579,1915.238745
1361.643849,5255.462188,-7698.141797,383.047749
1361.644178,5255.462188,-5551.544565,536.266849
1361.644507,5773.606348,-6217.729913,-306.438199
1361.644836,5995.668130,-8364.327145,229.828649
1361.645166,5255.462188,-9770.718434,1072.533697
1361.645495,5181.441594,-9474.636058,1225.752797
1361.645824,6365.771101,-6291.750507,383.047749
1361.646153,8216.285956,-3849.070898,306.438199
1361.646482,8882.471304,-4441.235652,1302.362347
1361.646811,9474.636058,-5995.668130,1991.848295
1361.647140,8660.409521,-7031.956449,2145.067394
1361.647470,7254.018232,-6217.729913,1532.190996
1361.647799,7105.977043,-4367.215058,919.314598
1361.648128,7254.018232,-4737.318029,612.876398
1361.648457,7105.977043,-7550.100608,1762.019645
1361.648786,5995.668130,-8290.306550,2374.896044
1361.649115,5403.503377,-7105.977043,612.876398
1361.649444,5551.544565,-5329.482782,229.828649
1361.649774,6809.894666,-4441.235652,306.438199
1361.650103,8290.306550,-6069.688724,1455.581446
1361.650432,8142.265362,-8068.244768,1838.629195
1361.650761,6883.915261,-8364.327145,1991.848295
1361.651090,6513.812290,-6661.853478,842.705048
1361.651419,6513.812290,-5995.668130,153.219100
1361.651748,5699.585753,-7624.121203,995.924147
1361.652078,5699.585753,-9474.636058,995.924147
1361.652407,5403.503377,-10140.821405,995.924147
1361.652736,5255.462188,-7031.956449,995.924147
1361.653065,7328.038826,-4589.276840,842.705048
1361.653394,9030.512492,-3627.009116,919.314598
1361.653723,8660.409521,-5551.544565,1838.629195
1361.654052,7550.100608,-7476.080014,1915.238745
1361.654382,7328.038826,-5699.585753,1072.533697
1361.654711,7179.997637,-4663.297435,-306.438199
1361.655040,7994.224174,-4737.318029,612.876398
1361.655369,8216.285956,-7105.977043,1838.629195
1361.655698,7698.141797,-8142.265362,1991.848295
1361.656027,7031.956449,-6735.874072,1991.848295
1361.656356,6439.791695,-5773.606348,536.266849
1361.656686,6809.894666,-4589.276840,153.219100
1361.657015,7179.997637,-5477.523971,612.876398
1361.657344,7105.977043,-7920.203579,1838.629195
1361.657673,6587.832884,-8364.327145,1762.019645
1361.658002,5699.585753,-7328.038826,1378.971896
1361.658331,5921.647536,-5995.668130,459.657299
1361.658660,6291.750507,-6735.874072,306.438199
1361.658990,5995.668130,-8512.368333,919.314598
1361.659319,5625.565159,-10214.842000,1532.190996
1361.659648,5995.668130,-7994.224174,1072.533697
1361.659977,6809.894666,-4441.235652,229.828649
1361.660306,7624.121203,-4145.153275,0.000000
1361.660635,8882.471304,-4737.318029,1149.143247
1361.660964,8142.265362,-6143.709319,1302.362347
1361.661294,7328.038826,-6735.874072,1532.190996
1361.661623,7179.997637,-5773.606348,1149.143247
1361.661952,7920.203579,-4589.276840,612.876398
1361.662281,7550.100608,-6069.688724,919.314598
1361.662610,6661.853478,-8438.347739,2068.457845
1361.662939,6217.729913,-8364.327145,1378.971896
1361.663268,6291.750507,-6513.812290,1225.752797
1361.663598,7476.080014,-3997.112087,1072.533697
1361.663927,8438.347739,-3849.070898,612.876398
1361.664256,8808.450710,-5847.626942,1455.581446
1361.664585,7624.121203,-7476.080014,1685.410096
1361.664914,6291.750507,-7105.977043,1302.362347
1361.665243,6365.771101,-5921.647536,766.095498
1361.665573,6143.709319,-6217.729913,536.266849
1361.665902,5921.647536,-8290.306550,766.095498
1361.666231,4589.276840,-9918.759623,842.705048
1361.666560,4885.359217,-9474.636058,536.266849
1361.666889,6069.688724,-7105.977043,306.438199
1361.667218,7772.162391,-4737.318029,842.705048
1361.667547,8586.388927,-4885.359217,766.095498
1361.667877,8512.368333,-6809.894666,1455.581446
1361.668206,7105.977043,-7105.977043,2145.067394
1361.668535,6957.935855,-5847.626942,1608.800546
1361.668864,7624.121203,-4071.132681,612.876398
1361.669193,7994.224174,-4145.153275,689.485948
1361.669522,7550.100608,-6809.894666,1302.362347
1361.669851,6957.935855,-8438.347739,2374.896044
1361.670181,6069.688724,-7031.956449,612.876398
1361.670510,6661.853478,-4811.338623,306.438199
1361.670839,7920.203579,-3997.112087,612.876398
1361.671168,8660.409521,-5477.523971,1532.190996
1361.671497,7328.038826,-8586.388927,1915.238745
1361.671826,5995.668130,-8068.244768,1915.238745
1361.672155,5773.606348,-7031.956449,766.095498
1361.672485,7031.956449,-5995.668130,153.219100
1361.672814,6291.750507,-7179.997637,1149.143247
1361.673143,5921.647536,-9326.594869,1072.533697
1361.673472,4885.359217,-9400.615463,1072.533697
1361.673801,4959.379811,-8734.430116,919.314598
1361.674130,6217.729913,-4737.318029,153.219100
1361.674459,7476.080014,-3923.091493,76.609550
1361.674789,8068.244768,-6439.791695,1455.581446
1361.675118,7328.038826,-7105.977043,1685.410096
1361.675447,7105.977043,-6735.874072,1378.971896
1361.675776,7105.977043,-5255.462188,842.705048
1361.676105,7476.080014,-4959.379811,536.266849
1361.676434,7550.100608,-6587.832884,2221.676944
1361.676763,6957.935855,-8808.450710,1532.190996
1361.677093,5403.503377,-8586.388927,1225.752797
1361.677422,6365.771101,-5625.565159,1149.143247
1361.677751,7328.038826,-3997.112087,153.219100
1361.678080,8808.450710,-4293.194464,1455.581446
1361.678409,8142.265362,-6809.894666,2298.286494
1361.678738,7179.997637,-7328.038826,1991.848295
1361.679067,6513.812290,-6513.812290,1685.410096
1361.679397,6439.791695,-6365.771101,766.095498
1361.679726,6365.771101,-7105.977043,459.657299
1361.680055,5625.565159,-9696.697840,842.705048
1361.680384,4589.276840,-11177.109724,689.485948
1361.680713,3701.029710,-10214.842000,229.828649
1361.681042,4811.338623,-7550.100608,229.828649
1361.681371,6513.812290,-6587.832884,0.000000
1361.681701,7031.956449,-7328.038826,766.095498
1361.682030,5773.606348,-8956.491898,306.438199
1361.682359,4737.318029,-9030.512492,766.095498
1361.682688,5255.462188,-7105.977043,612.876398
1361.683017,5773.606348,-7105.977043,0.000000
1361.683346,7105.977043,-6661.853478,612.876398
1361.683675,6735.874072,-9030.512492,1455.581446
1361.684005,6439.791695,-9252.574275,1915.238745
1361.684334,6069.688724,-7105.977043,1455.581446
1361.684663,6661.853478,-4885.359217,995.924147
1361.684992,7550.100608,-2960.823768,76.609550
1361.685321,7476.080014,-5847.626942,1072.533697
1361.685650,6957.935855,-7698.141797,2604.724693
1361.685979,6883.915261,-7772.162391,2987.772442
1361.686309,7328.038826,-6365.771101,2221.676944
1361.686638,6291.750507,-4367.215058,1685.410096
1361.686967,5181.441594,-6957.935855,766.095498
1361.687296,3849.070898,-9992.780217,612.876398
1361.687625,3330.926739,-11177.109724,766.095498
1361.687954,4219.173869,-9844.739029,1455.581446
1361.688283,4959.379811,-7698.141797,842.705048
1361.688613,5477.523971,-8068.244768,612.876398
1361.688942,4737.318029,-9326.594869,612.876398
1361.689271,4145.153275,-10732.986159,1455.581446
1361.689600,4959.379811,-9844.739029,1378.971896
1361.689929,5551.544565,-7920.203579,1762.019645
1361.690258,5477.523971,-7402.059420,1149.143247
1361.690588,4145.153275,-9178.553681,1225.752797
1361.690917,2886.803174,-10510.924376,842.705048
1361.691246,2516.700203,-11029.068536,1072.533697
1361.691575,3256.906145,-9844.739029,1378.971896
1361.691904,4885.359217,-7698.141797,2068.457845
1361.692233,5773.606348,-6661.853478,1455.581446
1361.692562,4811.338623,-7846.182985,1915.238745
1361.692892,4663.297435,-8512.368333,1072.533697
1361.693221,5329.482782,-7031.956449,1455.581446
1361.693550,7105.977043,-6587.832884,1608.800546
1361.693879,7254.018232,-6661.853478,2145.067394
1361.694208,6365.771101,-9400.615463,1302.362347
1361.694537,5033.400406,-10955.047942,1149.143247
1361.694866,3256.906145,-11769.274478,536.266849
1361.695196,2516.700203,-11103.089130,-306.438199
1361.695525,2738.761985,-10140.821405,-536.266849
1361.695854,2664.741391,-12213.398043,-383.047749
1361.696183,1850.514855,-13027.624579,459.657299
1361.696512,2368.659014,-12435.459826,1302.362347
1361.696841,3775.050304,-9992.780217,1762.019645
1361.697170,5477.523971,-6217.729913,1762.019645
1361.697500,7031.956449,-4145.153275,2451.505594
1361.697829,7476.080014,-3478.967927,1991.848295
1361.698158,8142.265362,-3478.967927,1762.019645
1361.698487,8512.368333,-4071.132681,1762.019645
1361.698816,7550.100608,-5033.400406,1685.410096
1361.699145,6883.915261,-5847.626942,1302.362347
1361.699474,5699.585753,-8882.471304,1455.581446
1361.699804,3627.009116,-11251.130318,1225.752797
1361.700133,2812.782580,-12213.398043,536.266849
1361.700462,3775.050304,-11547.212695,153.219100
1361.700791,4441.235652,-11103.089130,-229.828649
1361.701120,4071.132681,-10807.006753,-306.438199
1361.701449,3256.906145,-11695.253884,-153.219100
1361.701778,2516.700203,-10658.965565,-459.657299
1361.702108,2368.659014,-10140.821405,-766.095498
1361.702437,3478.967927,-9992.780217,-306.438199
1361.702766,4959.379811,-9252.574275,1838.629195
1361.703095,6439.791695,-7179.997637,2298.286494
1361.703424,7550.100608,-4885.359217,2145.067394
1361.703753,9252.574275,-1776.494261,2451.505594
1361.704082,9474.636058,-2738.761985,1608.800546
1361.704412,8216.285956,-4441.235652,1532.190996
1361.704741,5995.668130,-6735.874072,1838.629195
1361.705070,5625.565159,-9030.512492,459.657299
1361.705399,5255.462188,-10584.944971,1302.362347
1361.705728,5033.400406,-11843.295072,2145.067394
1361.706057,5033.400406,-11547.212695,1149.143247
1361.706386,4293.194464,-9918.759623,1072.533697
1361.706715,3701.029710,-9400.615463,689.485948
1361.707044,3256.906145,-8290.306550,0.000000
1361.707373,2886.803174,-8068.244768,306.438199
1361.707702,3182.885551,-8660.409521,306.438199
1361.708031,3256.906145,-8216.285956,76.609550
1361.708360,3997.112087,-7994.224174,1225.752797
1361.708690,4885.359217,-8068.244768,2298.286494
1361.709019,6069.688724,-8142.265362,2528.115143
1361.709348,6069.688724,-8216.285956,1838.629195
1361.709677,4959.379811,-8586.388927,1302.362347
1361.710006,4219.173869,-9696.697840,995.924147
1361.710335,4589.276840,-10436.903782,1608.800546
1361.710664,5107.421000,-10658.965565,2374.896044
1361.710993,5255.462188,-10584.944971,2604.724693
1361.711322,4737.318029,-9474.636058,2298.286494
1361.711651,3627.009116,-8882.471304,1149.143247
1361.711980,3034.844362,-8216.285956,0.000000
1361.712309,2812.782580,-7772.162391,229.828649
1361.712639,3256.906145,-7105.977043,-612.876398
1361.712968,3552.988522,-6735.874072,0.000000
1361.713297,4367.215058,-7476.080014,0.000000
1361.713626,5477.523971,-8660.409521,995.924147
1361.713955,5773.606348,-9770.718434,1685.410096
1361.714284,6143.709319,-10066.800811,2068.457845
1361.714613,6143.709319,-9918.759623,2451.505594
1361.714942,5847.626942,-9548.656652,2374.896044
1361.715271,5995.668130,-9622.677246,2987.772442
1361.715600,5551.544565,-8438.347739,2451.505594
1361.715929,5477.523971,-7772.162391,2604.724693
1361.716258,6143.709319,-7254.018232,2451.505594
1361.716587,6217.729913,-5847.626942,3140.991542
1361.716917,6069.688724,-6809.894666,2374.896044
1361.717246,5329.482782,-6809.894666,1838.629195
1361.717575,4219.173869,-6661.853478,689.485948
1361.717904,3478.967927,-8216.285956,76.609550
1361.718233,3775.050304,-7994.224174,612.876398
1361.718562,4737.318029,-9474.636058,1991.848295
1361.718891,5181.441594,-10584.944971,2298.286494
1361.719220,5403.503377,-10140.821405,2604.724693
1361.719549,5773.606348,-9992.780217,3140.991542
1361.719878,7179.997637,-8586.388927,3370.820191
1361.720207,7994.224174,-6661.853478,4060.306139
1361.720536,7846.182985,-6069.688724,4136.915689
1361.720866,7698.141797,-4663.297435,3753.867940
1361.721195,7624.121203,-4071.132681,4136.915689
1361.721524,7994.224174,-3923.091493,3064.381992
1361.721853,7031.956449,-5329.482782,2604.724693
1361.722182,5699.585753,-6365.771101,2145.067394
1361.722511,5181.441594,-8068.244768,1455.581446
1361.722840,4737.318029,-9252.574275,2681.334243
1361.723169,5181.441594,-8882.471304,3064.381992
1361.723498,5625.565159,-8512.368333,2451.505594
1361.723827,5921.647536,-8216.285956,3294.210641
1361.724156,6143.709319,-7254.018232,3600.648841
1361.724485,6809.894666,-6661.853478,3830.477490
1361.724814,7624.121203,-5921.647536,4749.792088
1361.725144,7920.203579,-5551.544565,4903.011187
1361.725473,8512.368333,-4737.318029,4903.011187
1361.725802,9178.553681,-3997.112087,5515.887586
1361.726131,9178.553681,-3552.988522,4826.401637
1361.726460,8290.306550,-4145.153275,4673.182538
1361.726789,6809.894666,-5699.585753,3907.087040
1361.727118,6365.771101,-7254.018232,3064.381992
1361.727447,5329.482782,-8512.368333,3294.210641
1361.727776,4959.379811,-9844.739029,3370.820191
1361.728105,4515.256246,-11029.068536,3370.820191
1361.728434,4367.215058,-10658.965565,3677.258390
1361.728763,3997.112087,-10732.986159,3983.696590
1361.729093,4145.153275,-9622.677246,4596.572988
1361.729422,4441.235652,-7624.121203,3830.477490
1361.729751,5477.523971,-6735.874072,4290.134789
1361.730080,6661.853478,-6143.709319,5439.278036
1361.730409,8216.285956,-4663.297435,6128.763984
1361.730738,9252.574275,-4145.153275,6665.030833
1361.731067,9400.615463,-3256.906145,6358.592633
1361.731396,9474.636058,-2960.823768,6128.763984
1361.731725,9548.656652,-3256.906145,4903.011187
1361.732054,8882.471304,-3627.009116,4826.401637
1361.732383,7920.203579,-5181.441594,4519.963438
1361.732712,7550.100608,-6365.771101,4213.525239
1361.733041,6809.894666,-6587.832884,3830.477490
1361.733371,6291.750507,-9326.594869,3370.820191
1361.733700,5403.503377,-9622.677246,4136.915689
1361.734029,4219.173869,-10362.883188,3524.039291
1361.734358,3404.947333,-10436.903782,3294.210641
1361.734687,2960.823768,-9548.656652,3830.477490
1361.735016,3849.070898,-8808.450710,3524.039291
1361.735345,5181.441594,-7105.977043,3983.696590
1361.735674,6735.874072,-6069.688724,4826.401637
1361.736003,8808.450710,-4663.297435,5515.887586
1361.736332,10214.842000,-2960.823768,6741.640382
1361.736661,10066.800811,-1998.556043,5898.935335
1361.736990,9696.697840,-1924.535449,4826.401637
1361.737320,8882.471304,-3256.906145,3983.696590
1361.737649,7550.100608,-4737.318029,3600.648841
1361.737978,6513.812290,-6291.750507,2987.772442
1361.738307,6439.791695,-8586.388927,2987.772442
1361.738636,5625.565159,-9178.553681,2911.162892
1361.738965,5329.482782,-9992.780217,2911.162892
1361.739294,5403.503377,-10214.842000,2834.553343
1361.739623,5033.400406,-9178.553681,3753.867940
1361.739952,5921.647536,-7254.018232,3524.039291
1361.740281,7105.977043,-5551.544565,4060.306139
1361.740610,8438.347739,-4441.235652,4596.572988
1361.740939,9622.677246,-4441.235652,4213.525239
1361.741268,9326.594869,-4293.194464,3830.477490
1361.741598,8438.347739,-4589.276840,2987.772442
1361.741927,7031.956449,-5625.565159,2451.505594
1361.742256,6217.729913,-6069.688724,2528.115143
1361.742585,5847.626942,-7402.059420,2451.505594
1361.742914,5921.647536,-8216.285956,3217.601092
1361.743243,5921.647536,-8364.327145,4136.915689
1361.743572,6957.935855,-8068.244768,4903.011187
1361.743901,7031.956449,-6883.915261,4749.792088
1361.744230,7254.018232,-6735.874072,4290.134789
1361.744559,7698.141797,-5995.668130,4443.353888
1361.744888,7698.141797,-4737.318029,4519.963438
1361.745217,7476.080014,-3775.050304,4060.306139
1361.745546,7994.224174,-2960.823768,3983.696590
1361.745876,9030.512492,-3034.844362,4519.963438
1361.746205,9474.636058,-4441.235652,4290.134789
1361.746534,8364.327145,-5551.544565,3907.087040
1361.746863,6957.935855,-8364.327145,2987.772442
1361.747192,5255.462188,-11177.109724,2374.896044
1361.747521,4145.153275,-11251.130318,2374.896044
1361.747850,3034.844362,-11177.109724,2145.067394
1361.748179,2664.741391,-9622.677246,1991.848295
1361.748508,4219.173869,-8142.265362,1915.238745
1361.748837,5329.482782,-6735.874072,2528.115143
1361.749166,7550.100608,-5403.503377,4519.963438
1361.749495,9178.553681,-5551.544565,5592.497135
1361.749825,9474.636058,-3923.091493,6052.154434
1361.750154,9474.636058,-3330.926739,5975.544884
1361.750483,10140.821405,-3108.864956,5286.058936
1361.750812,10288.862594,-2220.617826,4519.963438
1361.751141,9326.594869,-4145.153275,3983.696590
1361.751470,7846.182985,-5403.503377,2681.334243
1361.751799,5551.544565,-7994.224174,2145.067394
1361.752128,4515.256246,-10732.986159,1838.629195
1361.752457,2886.803174,-11251.130318,1991.848295
1361.752786,3478.967927,-12435.459826,2757.943793
1361.753115,4071.132681,-10732.986159,3217.601092
1361.753444,4219.173869,-7624.121203,2298.286494
1361.753773,5181.441594,-4737.318029,2451.505594
1361.754103,7328.038826,-3552.988522,3524.039291
1361.754432,9770.718434,-3108.864956,4519.963438
1361.754761,10658.965565,-1258.350101,4519.963438
1361.755090,10510.924376,-962.267725,4060.306139
1361.755419,10955.047942,-2590.720797,4519.963438
1361.755748,9474.636058,-5033.400406,4519.963438
1361.756077,8290.306550,-7402.059420,3140.991542
1361.756406,7402.059420,-8364.327145,1608.800546
1361.756735,6735.874072,-8660.409521,1455.581446
1361.757064,5847.626942,-10658.965565,1532.190996
1361.757393,4959.379811,-11251.130318,2068.457845
1361.757722,3330.926739,-9030.512492,383.047749
1361.758052,2590.720797,-7402.059420,-306.438199
1361.758381,4219.173869,-6735.874072,1302.362347
1361.758710,7624.121203,-6439.791695,3830.477490
1361.759039,9770.718434,-5107.421000,3677.258390
1361.759368,9326.594869,-4071.132681,4366.744339
1361.759697,9104.533087,-2812.782580,3677.258390
1361.760026,8956.491898,-3478.967927,2987.772442
1361.760355,8882.471304,-4515.256246,3064.381992
1361.760684,7698.141797,-4959.379811,2298.286494
1361.761013,7179.997637,-7105.977043,995.924147
1361.761342,6365.771101,-8438.347739,919.314598
1361.761671,5033.400406,-9400.615463,536.266849
1361.762000,5477.523971,-10288.862594,153.219100
1361.762330,6217.729913,-9474.636058,842.705048
1361.762659,5921.647536,-8660.409521,842.705048
1361.762988,5551.544565,-7328.038826,229.828649
1361.763317,5551.544565,-6661.853478,842.705048
1361.763646,6291.750507,-5995.668130,383.047749
1361.763975,6587.832884,-4737.318029,1225.752797
1361.764304,7994.224174,-3775.050304,1838.629195
1361.764633,9326.594869,-3404.947333,1685.410096
1361.764962,8586.388927,-3478.967927,1991.848295
1361.765291,8734.430116,-4811.338623,1838.629195
1361.765620,8660.409521,-6661.853478,1991.848295
1361.765949,8364.327145,-7105.977043,1762.019645
1361.766279,6661.853478,-8068.244768,76.609550
1361.766608,5329.482782,-8734.430116,-383.047749
1361.766937,3404.947333,-9992.780217,-1302.362347
1361.767266,2886.803174,-10288.862594,-995.924147
1361.767595,4219.173869,-10584.944971,612.876398
1361.767924,6439.791695,-7698.141797,1072.533697
1361.768253,6957.935855,-5403.503377,536.266849
1361.768582,5995.668130,-5181.441594,919.314598
1361.768911,6735.874072,-4663.297435,1685.410096
1361.769240,8586.388927,-4071.132681,2068.457845
1361.769569,10140.821405,-2590.720797,2528.115143
1361.769898,10288.862594,-3182.885551,2757.943793
1361.770227,10140.821405,-4811.338623,1685.410096
1361.770557,8068.244768,-7179.997637,689.485948
1361.770886,6217.729913,-9104.533087,153.219100
1361.771215,7105.977043,-8142.265362,0.000000
1361.771544,7624.121203,-8586.388927,0.000000
1361.771873,6365.771101,-8660.409521,153.219100
1361.772202,4663.297435,-8734.430116,-383.047749
1361.772531,4959.379811,-8734.430116,0.000000
1361.772860,5847.626942,-7254.018232,306.438199
1361.773189,7402.059420,-4737.318029,1608.800546
1361.773518,7994.224174,-3923.091493,1685.410096
1361.773847,7476.080014,-4515.256246,1685.410096
1361.774176,6735.874072,-5033.400406,1838.629195
1361.774506,7105.977043,-5699.585753,1915.238745
1361.774835,8364.327145,-5329.482782,2068.457845
1361.775164,8808.450710,-4885.359217,2451.505594
1361.775493,8364.327145,-6291.750507,1838.629195
1361.775822,7179.997637,-7772.162391,1608.800546
1361.776151,6143.709319,-8438.347739,1685.410096
1361.776480,6439.791695,-8142.265362,1072.533697
1361.776809,6069.688724,-7105.977043,995.924147
1361.777138,5033.400406,-5477.523971,-995.924147
1361.777467,3627.009116,-7105.977043,-1762.019645
1361.777796,3701.029710,-7698.141797,0.000000
1361.778125,6439.791695,-6809.894666,919.314598
1361.778454,9400.615463,-5625.565159,1991.848295
1361.778784,9548.656652,-3775.050304,3370.820191
1361.779113,8956.491898,-4737.318029,2374.896044
1361.779442,7920.203579,-5107.421000,1532.190996
1361.779771,7624.121203,-6883.915261,1915.238745
1361.780100,8882.471304,-6883.915261,1608.800546
1361.780429,9178.553681,-5773.606348,1532.190996
1361.780758,7179.997637,-7698.141797,689.485948
1361.781087,4515.256246,-8808.450710,229.828649
1361.781416,3849.070898,-9770.718434,536.266849
1361.781745,4811.338623,-9548.656652,766.095498
1361.782074,5921.647536,-6883.915261,459.657299
1361.782403,6661.853478,-6143.709319,1762.019645
1361.782732,6735.874072,-5551.544565,689.485948
1361.783062,6735.874072,-5329.482782,1072.533697
1361.783391,7772.162391,-5181.441594,1455.581446
1361.783720,9474.636058,-4663.297435,1455.581446
1361.784049,9548.656652,-4737.318029,1915.238745
1361.784378,7550.100608,-5847.626942,536.266849
1361.784707,5551.544565,-8734.430116,536.266849
1361.785036,6217.729913,-9918.759623,1225.752797
1361.785365,7402.059420,-8882.471304,1762.019645
1361.785694,8068.244768,-7254.018232,1225.752797
1361.786023,6957.935855,-6217.729913,383.047749
1361.786352,5625.565159,-6513.812290,0.000000
1361.786681,4811.338623,-6439.791695,229.828649
1361.787011,6291.750507,-5033.400406,842.705048
1361.787340,8290.306550,-4367.215058,1608.800546
1361.787669,8512.368333,-4737.318029,1225.752797
1361.787998,6291.750507,-6513.812290,1378.971896
1361.788327,5403.503377,-7254.018232,1532.190996
1361.788656,6291.750507,-7772.162391,1532.190996
1361.788985,7476.080014,-6143.709319,1455.581446
1361.789314,7402.059420,-5551.544565,1149.143247
1361.789643,6735.874072,-5773.606348,536.266849
1361.789972,6143.709319,-6069.688724,459.657299
1361.790301,6513.812290,-7031.956449,689.485948
1361.790630,7624.121203,-6513.812290,1762.019645
1361.790959,8438.347739,-6883.915261,1915.238745
1361.791289,7179.997637,-7254.018232,919.314598
1361.791618,5033.400406,-7105.977043,76.609550
1361.791947,5551.544565,-8290.306550,306.438199
1361.792276,7179.997637,-6883.915261,766.095498
1361.792605,8586.388927,-4959.379811,919.314598
1361.792934,7994.224174,-4367.215058,612.876398
1361.793263,7328.038826,-4219.173869,-383.047749
1361.793592,7179.997637,-6513.812290,536.266849
1361.793921,8512.368333,-7476.080014,1838.629195
1361.794250,9474.636058,-7105.977043,2681.334243
1361.794579,9030.512492,-6735.874072,2374.896044
1361.794908,6069.688724,-7402.059420,536.266849
1361.795238,3997.112087,-8956.491898,76.609550
1361.795567,4367.215058,-9400.615463,689.485948
1361.795896,5995.668130,-7846.182985,612.876398
1361.796225,6957.935855,-5773.606348,536.266849
1361.796554,6809.894666,-5033.400406,919.314598
1361.796883,6809.894666,-5403.503377,919.314598
1361.797212,7179.997637,-6291.750507,1685.410096
1361.797541,8142.265362,-6365.771101,2068.457845
1361.797870,9178.553681,-5477.523971,1608.800546
1361.798199,7772.162391,-4811.338623,612.876398
1361.798528,4737.318029,-7254.018232,-689.485948
1361.798857,4367.215058,-8586.388927,-306.438199
1361.799186,5551.544565,-8586.388927,-153.219100
1361.799516,7698.141797,-7550.100608,612.876398
1361.799845,7772.162391,-6069.688724,1532.190996
1361.800174,7031.956449,-6365.771101,1149.143247
1361.800503,6439.791695,-7031.956449,459.657299
1361.800832,6587.832884,-7031.956449,1762.019645
1361.801161,7920.203579,-5921.647536,2451.505594
1361.801490,8364.327145,-3404.947333,2374.896044
1361.801819,5847.626942,-3627.009116,0.000000
1361.802148,4145.153275,-5699.585753,0.000000
1361.802477,4959.379811,-6883.915261,229.828649
1361.802806,6661.853478,-7254.018232,1378.971896
1361.803135,7550.100608,-6957.935855,1991.848295
1361.803465,8290.306550,-6513.812290,2221.676944
1361.803794,8142.265362,-7402.059420,1455.581446
1361.804123,6809.894666,-7550.100608,1225.752797
1361.804452,6217.729913,-6587.832884,1072.533697
1361.804781,7994.224174,-5773.606348,76.609550
1361.805110,8216.285956,-5699.585753,536.266849
1361.805439,6735.874072,-7031.956449,229.828649
1361.805768,6069.688724,-8290.306550,919.314598
1361.806097,6513.812290,-8586.388927,919.314598
1361.806426,7624.121203,-7105.977043,1532.190996
1361.806755,8734.430116,-5699.585753,1915.238745
1361.807084,8586.388927,-4367.215058,1532.190996
1361.807413,7476.080014,-4367.215058,0.000000
1361.807743,6809.894666,-5847.626942,306.438199
1361.808072,7624.121203,-6365.771101,842.705048
1361.808401,9252.574275,-5551.544565,1072.533697
1361.808730,8142.265362,-6661.853478,1072.533697
1361.809059,5625.565159,-8660.409521,306.438199
1361.809388,4811.338623,-9474.636058,612.876398
1361.809717,6217.729913,-9178.553681,1915.238745
1361.810046,7328.038826,-7550.100608,2528.115143
1361.810375,7772.162391,-4737.318029,1762.019645
1361.810704,7031.956449,-3997.112087,766.095498
1361.811034,5699.585753,-4515.256246,0.000000
1361.811363,6365.771101,-5255.462188,1608.800546
1361.811692,8142.265362,-4589.276840,1915.238745
1361.812021,8882.471304,-5477.523971,1838.629195
1361.812350,7031.956449,-6513.812290,1685.410096
1361.812679,4589.276840,-8142.265362,766.095498
1361.813008,4441.235652,-9400.615463,76.609550
1361.813338,6439.791695,-9252.574275,536.266849
1361.813667,7328.038826,-6291.750507,689.485948
1361.813996,7772.162391,-4959.379811,229.828649
1361.814325,6513.812290,-4515.256246,0.000000
1361.814654,5773.606348,-5921.647536,76.609550
1361.814983,7254.018232,-5477.523971,1455.581446
1361.815312,8808.450710,-4959.379811,2068.457845
1361.815641,9104.533087,-5921.647536,2298.286494
1361.815971,6883.915261,-6883.915261,1685.410096
1361.816300,5107.421000,-8808.450710,1378.971896
1361.816629,5773.606348,-8734.430116,1302.362347
1361.816958,6587.832884,-7402.059420,1072.533697
1361.817287,6365.771101,-5403.503377,306.438199
1361.817616,6069.688724,-5033.400406,-229.828649
1361.817945,6291.750507,-5921.647536,306.438199
1361.818274,6957.935855,-6883.915261,1378.971896
1361.818604,8364.327145,-7105.977043,2221.676944
1361.818933,9918.759623,-6439.791695,2834.553343
1361.819262,8660.409521,-6291.750507,1455.581446
1361.819591,5699.585753,-7476.080014,-383.047749
1361.819920,3997.112087,-7772.162391,-459.657299
1361.820249,5699.585753,-7550.100608,-689.485948
1361.820578,7994.224174,-6661.853478,0.000000
1361.820907,8660.409521,-5255.462188,1302.362347
1361.821237,8068.244768,-5847.626942,1149.143247
1361.821566,7624.121203,-6143.709319,612.876398
1361.821895,7105.977043,-7402.059420,1455.581446
1361.822224,8290.306550,-7105.977043,2374.896044
1361.822553,9770.718434,-5329.482782,2145.067394
1361.822882,7624.121203,-5847.626942,766.095498
1361.823211,5107.421000,-7105.977043,612.876398
1361.823541,4885.359217,-8068.244768,459.657299
1361.823870,6291.750507,-7105.977043,612.876398
1361.824199,6143.709319,-5847.626942,919.314598
1361.824528,7105.977043,-4737.318029,1302.362347
1361.824857,6809.894666,-5107.421000,995.924147
1361.825186,6587.832884,-6217.729913,1532.190996
1361.825515,7328.038826,-5551.544565,3140.991542
1361.825844,10066.800811,-5699.585753,2987.772442
1361.826174,9474.636058,-5847.626942,1532.190996
1361.826503,5699.585753,-6809.894666,842.705048
1361.826832,3775.050304,-8586.388927,-459.657299
1361.827161,4589.276840,-8142.265362,-766.095498
1361.827490,6143.709319,-7772.162391,689.485948
1361.827819,7772.162391,-6513.812290,1225.752797
1361.828148,8068.244768,-5551.544565,1225.752797
1361.828477,7476.080014,-5995.668130,995.924147
1361.828807,6513.812290,-6217.729913,1608.800546
1361.829136,7994.224174,-6217.729913,2068.457845
1361.829465,9178.553681,-4885.359217,1532.190996
1361.829794,7698.141797,-4959.379811,919.314598
1361.830123,6217.729913,-6439.791695,-229.828649
1361.830452,5107.421000,-7698.141797,76.609550
1361.830781,5995.668130,-8660.409521,1225.752797
1361.831110,7179.997637,-7254.018232,2374.896044
1361.831440,8068.244768,-5699.585753,1608.800546
1361.831769,7105.977043,-5921.647536,1225.752797
1361.832098,6217.729913,-6291.750507,689.485948
1361.832427,6513.812290,-7772.162391,1838.629195
1361.832756,8438.347739,-6069.688724,2145.067394
1361.833085,8808.450710,-5773.606348,1149.143247
1361.833414,6809.894666,-6957.935855,766.095498
1361.833744,4663.297435,-7402.059420,0.000000
1361.834073,4145.153275,-9030.512492,-383.047749
1361.834402,5699.585753,-7402.059420,76.609550
1361.834731,7476.080014,-6069.688724,1225.752797
1361.835060,8142.265362,-5699.585753,919.314598
1361.835389,7476.080014,-5181.441594,1302.362347
1361.835718,7328.038826,-7476.080014,1762.019645
1361.836047,8586.388927,-7254.018232,2681.334243
1361.836377,8586.388927,-5699.585753,2451.505594
1361.836706,7772.162391,-5847.626942,766.095498
1361.837035,5921.647536,-6069.688724,0.000000
1361.837364,4663.297435,-7624.121203,306.438199
1361.837693,4885.359217,-7772.162391,919.314598
1361.838022,6069.688724,-7179.997637,1685.410096
1361.838351,7179.997637,-6513.812290,1915.238745
1361.838680,7846.182985,-4811.338623,995.924147
1361.839010,7031.956449,-6069.688724,1685.410096
1361.839339,7402.059420,-6291.750507,1991.848295
1361.839668,8660.409521,-5477.523971,2145.067394
1361.839997,9252.574275,-5551.544565,1762.019645
1361.840326,8068.244768,-4811.338623,1225.752797
1361.840655,5773.606348,-6661.853478,0.000000
1361.840984,3997.112087,-8808.450710,76.609550
1361.841313,4959.379811,-9104.533087,306.438199
1361.841643,6513.812290,-7179.997637,306.438199
1361.841972,7846.182985,-5033.400406,689.485948
1361.842301,7105.977043,-5995.668130,536.266849
1361.842630,6809.894666,-6365.771101,1455.581446
1361.842959,7550.100608,-6883.915261,1455.581446
1361.843288,8808.450710,-5921.647536,1838.629195
1361.843617,9326.594869,-4589.276840,2068.457845
1361.843947,7772.162391,-5107.421000,459.657299
1361.844276,5773.606348,-6735.874072,383.047749
1361.844605,4811.338623,-7920.203579,842.705048
1361.844934,6809.894666,-7846.182985,1838.629195
1361.845263,8142.265362,-5625.565159,2374.896044
1361.845592,8290.306550,-5477.523971,1685.410096
1361.845921,7105.977043,-6217.729913,995.924147
1361.846250,6587.832884,-6661.853478,1225.752797
1361.846580,6957.935855,-6587.832884,1762.019645
1361.846909,7994.224174,-5255.462188,1455.581446
1361.847238,7624.121203,-4959.379811,1608.800546
1361.847567,5995.668130,-6439.791695,0.000000
1361.847896,4589.276840,-8808.450710,0.000000
1361.848225,5033.400406,-9178.553681,612.876398
1361.848554,7920.203579,-8068.244768,1378.971896
1361.848883,9104.533087,-6291.750507,1302.362347
