#time,accel_x,accel_y,accel_z
1343.976061,6809.894666,-6883.915261,1225.752797
1343.976391,6957.935855,-6883.915261,1225.752797
1343.976721,6587.832884,-6291.750507,995.924147
1343.977052,7105.977043,-6365.771101,1072.533697
1343.977382,6735.874072,-6661.853478,1149.143247
1343.977712,7031.956449,-6439.791695,689.485948
1343.978043,7031.956449,-6809.894666,766.095498
1343.978373,6883.915261,-6439.791695,995.924147
1343.978703,7031.956449,-6735.874072,689.485948
1343.979034,7179.997637,-6957.935855,1149.143247
1343.979364,6957.935855,-6291.750507,1072.533697
1343.979694,7105.977043,-6735.874072,689.485948
1343.980025,7031.956449,-6217.729913,1225.752797
1343.980355,7105.977043,-6809.894666,1072.533697
1343.980685,7179.997637,-6365.771101,1072.533697
1343.981016,7254.018232,-6217.729913,1072.533697
1343.981346,7624.121203,-6365.771101,1072.533697
1343.981676,7031.956449,-6217.729913,1149.143247
1343.982007,6735.874072,-6513.812290,842.705048
1343.982337,7031.956449,-6661.853478,995.924147
1343.982667,7031.956449,-6217.729913,1149.143247
1343.982998,6513.812290,-6217.729913,919.314598
1343.983328,6661.853478,-6883.915261,689.485948
1343.983658,6809.894666,-7031.956449,1072.533697
1343.983989,6513.812290,-6883.915261,1378.971896
1343.984319,6735.874072,-6883.915261,766.095498
1343.984649,6735.874072,-7105.977043,1302.362347
1343.984980,6513.812290,-7031.956449,1072.533697
1343.985310,6513.812290,-7031.956449,1072.533697
1343.985641,6291.750507,-6735.874072,1072.533697
1343.985971,6957.935855,-6661.853478,689.485948
1343.986301,7031.956449,-6365.771101,919.314598
1343.986632,7105.977043,-6513.812290,1378.971896
1343.986962,7105.977043,-6587.832884,842.705048
1343.987292,7254.018232,-6513.812290,995.924147
1343.987623,7550.100608,-6957.935855,1302.362347
1343.987953,7105.977043,-6513.812290,995.924147
1343.988283,7179.997637,-6439.791695,1149.143247
1343.988614,7402.059420,-6291.750507,919.314598
1343.988944,7550.100608,-6291.750507,1302.362347
1343.989274,7254.018232,-6217.729913,995.924147
1343.989605,7031.956449,-6365.771101,766.095498
1343.989935,7328.038826,-6143.709319,1149.143247
1343.990265,6661.853478,-6365.771101,919.314598
1343.990596,6587.832884,-6661.853478,2145.067394
1343.990926,6883.915261,-6809.894666,1225.752797
1343.991256,7105.977043,-6439.791695,1072.533697
1343.991587,6883.915261,-6809.894666,766.095498
1343.991917,7031.956449,-7105.977043,919.314598
1343.992247,7105.977043,-6587.832884,1455.581446
1343.992578,7105.977043,-7031.956449,689.485948
1343.992908,7105.977043,-6809.894666,919.314598
1343.993238,6809.894666,-6957.935855,689.485948
1343.993569,7698.141797,-7105.977043,459.657299
1343.993899,7105.977043,-6957.935855,1072.533697
1343.994229,7105.977043,-6513.812290,689.485948
1343.994560,6957.935855,-6365.771101,919.314598
1343.994890,6957.935855,-6513.812290,1149.143247
1343.995221,7254.018232,-6587.832884,689.485948
1343.995551,7179.997637,-6587.832884,1455.581446
1343.995881,7254.018232,-5921.647536,842.705048
1343.996212,7105.977043,-6217.729913,842.705048
1343.996542,7179.997637,-6217.729913,1685.410096
1343.996872,6809.894666,-5995.668130,1302.362347
1343.997203,7031.956449,-6587.832884,919.314598
1343.997533,6957.935855,-6439.791695,1225.752797
1343.997863,6735.874072,-6291.750507,919.314598
1343.998194,6809.894666,-7105.977043,1072.533697
1343.998524,6365.771101,-6957.935855,1302.362347
1343.998854,6365.771101,-6513.812290,766.095498
1343.999185,6143.709319,-7105.977043,766.095498
1343.999515,6661.853478,-6661.853478,1149.143247
1343.999845,7105.977043,-6957.935855,1302.362347
1344.000176,6735.874072,-6661.853478,842.705048
1344.000506,6587.832884,-6809.894666,1149.143247
1344.000836,7105.977043,-6809.894666,995.924147
1344.001167,6809.894666,-6513.812290,766.095498
1344.001497,6957.935855,-6809.894666,1225.752797
1344.001827,7328.038826,-7105.977043,995.924147
1344.002158,7179.997637,-6809.894666,1149.143247
1344.002488,7031.956449,-6143.709319,995.924147
1344.002818,7105.977043,-6735.874072,995.924147
1344.003149,7328.038826,-5995.668130,1149.143247
1344.003479,7328.038826,-6587.832884,766.095498
1344.003809,7254.018232,-5699.585753,919.314598
1344.004140,7476.080014,-6291.750507,766.095498
1344.004470,7031.956449,-6291.750507,536.266849
1344.004801,6883.915261,-6439.791695,919.314598
1344.005131,6587.832884,-6513.812290,766.095498
1344.005461,7105.977043,-6883.915261,995.924147
1344.005792,6957.935855,-6513.812290,383.047749
1344.006122,7031.956449,-6661.853478,995.924147
1344.006452,7179.997637,-6587.832884,919.314598
1344.006783,6883.915261,-6735.874072,1072.533697
1344.007113,6513.812290,-6365.771101,536.266849
1344.007443,6735.874072,-6735.874072,919.314598
1344.007774,7031.956449,-6439.791695,995.924147
1344.008104,7105.977043,-6809.894666,1072.533697
1344.008434,7328.038826,-6513.812290,1149.143247
1344.008765,7550.100608,-6439.791695,1455.581446
1344.009095,7105.977043,-6513.812290,766.095498
1344.009425,6809.894666,-6143.709319,689.485948
1344.009756,7031.956449,-6513.812290,766.095498
1344.010086,7105.977043,-6883.915261,1149.143247
1344.010416,7920.203579,-6291.750507,1455.581446
1344.010747,7550.100608,-6217.729913,919.314598
1344.011077,7179.997637,-6439.791695,1072.533697
1344.011407,6883.915261,-6439.791695,1149.143247
1344.011738,6957.935855,-6513.812290,1225.752797
1344.012068,6661.853478,-6291.750507,1072.533697
1344.012398,6587.832884,-6365.771101,1072.533697
1344.012729,6661.853478,-6883.915261,919.314598
1344.013059,6883.915261,-6809.894666,1225.752797
1344.013389,7105.977043,-6587.832884,1225.752797
1344.013720,6735.874072,-6809.894666,919.314598
1344.014050,6661.853478,-7031.956449,1149.143247
1344.014381,6809.894666,-6957.935855,1072.533697
1344.014711,6587.832884,-7179.997637,1455.581446
1344.015041,6809.894666,-7031.956449,919.314598
1344.015372,6735.874072,-7105.977043,1072.533697
1344.015702,6957.935855,-6735.874072,1072.533697
1344.016032,6883.915261,-6513.812290,1149.143247
1344.016363,6587.832884,-5921.647536,842.705048
1344.016693,7031.956449,-6439.791695,995.924147
1344.017023,6809.894666,-6661.853478,1225.752797
1344.017354,7105.977043,-6587.832884,842.705048
1344.017684,7105.977043,-6143.709319,995.924147
1344.018014,7254.018232,-5625.565159,1608.800546
1344.018345,7328.038826,-6365.771101,995.924147
1344.018675,7328.038826,-6883.915261,1455.581446
1344.019005,7031.956449,-6365.771101,842.705048
1344.019336,7328.038826,-6439.791695,766.095498
1344.019666,6661.853478,-6217.729913,1072.533697
1344.019996,6439.791695,-6661.853478,1072.533697
1344.020327,6957.935855,-6587.832884,842.705048
1344.020657,6957.935855,-6587.832884,1302.362347
1344.020987,6883.915261,-6661.853478,689.485948
1344.021318,6587.832884,-6439.791695,689.485948
1344.021648,6735.874072,-6809.894666,1455.581446
1344.021978,7031.956449,-7031.956449,76.609550
1344.022309,7031.956449,-7328.038826,459.657299
1344.022639,6957.935855,-7031.956449,1302.362347
1344.022970,7402.059420,-7031.956449,1225.752797
1344.023300,7254.018232,-6587.832884,1072.533697
1344.023630,7105.977043,-6809.894666,842.705048
1344.023961,7476.080014,-6217.729913,1225.752797
1344.024291,7105.977043,-6439.791695,1072.533697
1344.024621,7105.977043,-6661.853478,842.705048
1344.024952,7179.997637,-6291.750507,1149.143247
1344.025282,7920.203579,-6291.750507,919.314598
1344.025612,7179.997637,-6291.750507,995.924147
1344.025943,7105.977043,-5995.668130,1378.971896
1344.026273,7031.956449,-6439.791695,1455.581446
1344.026603,7031.956449,-6809.894666,1225.752797
1344.026934,7105.977043,-6513.812290,689.485948
1344.027264,6661.853478,-6587.832884,1149.143247
1344.027594,6809.894666,-6809.894666,919.314598
1344.027925,6957.935855,-6661.853478,1532.190996
1344.028255,6735.874072,-6809.894666,1302.362347
1344.028585,6661.853478,-6735.874072,536.266849
1344.028916,6661.853478,-6809.894666,995.924147
1344.029246,6809.894666,-6883.915261,766.095498
1344.029576,6439.791695,-6735.874072,919.314598
1344.029907,6587.832884,-6069.688724,1149.143247
1344.030237,6513.812290,-6883.915261,1225.752797
1344.030567,6957.935855,-6957.935855,1532.190996
1344.030898,7031.956449,-6439.791695,766.095498
1344.031228,6957.935855,-6957.935855,995.924147
1344.031558,7031.956449,-6661.853478,1149.143247
1344.031889,7031.956449,-6513.812290,919.314598
1344.032219,7031.956449,-6587.832884,1149.143247
1344.032550,7105.977043,-6291.750507,1072.533697
1344.032880,6957.935855,-6291.750507,1378.971896
1344.033210,7550.100608,-6365.771101,1149.143247
1344.033541,6957.935855,-6513.812290,1072.533697
1344.033871,7105.977043,-6291.750507,995.924147
1344.034201,6883.915261,-6587.832884,1225.752797
1344.034532,7031.956449,-6587.832884,1532.190996
1344.034862,6661.853478,-6587.832884,919.314598
1344.035192,6809.894666,-6735.874072,1072.533697
1344.035523,7105.977043,-6587.832884,1149.143247
1344.035853,7105.977043,-6439.791695,766.095498
1344.036183,6735.874072,-6661.853478,1378.971896
1344.036514,7105.977043,-7031.956449,842.705048
1344.036844,7031.956449,-6957.935855,766.095498
1344.037174,6661.853478,-6587.832884,995.924147
1344.037505,6957.935855,-7105.977043,1302.362347
1344.037835,7105.977043,-6069.688724,689.485948
1344.038165,7031.956449,-6143.709319,612.876398
1344.038496,7105.977043,-6291.750507,612.876398
1344.038826,7550.100608,-6143.709319,919.314598
1344.039156,7550.100608,-6143.709319,383.047749
1344.039487,7105.977043,-6439.791695,1225.752797
1344.039817,7328.038826,-6291.750507,1225.752797
1344.040147,7624.121203,-6217.729913,995.924147
1344.040477,7254.018232,-6365.771101,995.924147
1344.040806,7105.977043,-6587.832884,1225.752797
1344.041136,7105.977043,-6587.832884,919.314598
1344.041466,6957.935855,-6291.750507,1072.533697
1344.041796,6513.812290,-6217.729913,995.924147
1344.042125,6883.915261,-6365.771101,229.828649
1344.042455,6735.874072,-6883.915261,919.314598
1344.042785,6513.812290,-6809.894666,1225.752797
1344.043115,6735.874072,-6513.812290,689.485948
1344.043444,6809.894666,-6883.915261,919.314598
1344.043774,7328.038826,-7105.977043,1302.362347
1344.044104,6809.894666,-7105.977043,919.314598
1344.044434,6513.812290,-6957.935855,919.314598
1344.044763,6735.874072,-7179.997637,1149.143247
1344.045093,7179.997637,-6809.894666,1149.143247
1344.045423,7105.977043,-6365.771101,1302.362347
1344.045753,6957.935855,-6735.874072,1149.143247
1344.046082,6957.935855,-6513.812290,995.924147
1344.046412,6587.832884,-6439.791695,1072.533697
1344.046742,6661.853478,-6661.853478,1455.581446
1344.047072,7254.018232,-6439.791695,1532.190996
1344.047401,7328.038826,-6143.709319,1225.752797
1344.047731,7105.977043,-6439.791695,995.924147
1344.048061,6735.874072,-7031.956449,919.314598
1344.048391,7031.956449,-6365.771101,1378.971896
1344.048720,6883.915261,-6587.832884,1149.143247
1344.049050,6587.832884,-6735.874072,1225.752797
1344.049380,6957.935855,-6513.812290,1072.533697
1344.049709,7105.977043,-6661.853478,612.876398
1344.050039,6809.894666,-6809.894666,842.705048
1344.050369,6809.894666,-6439.791695,842.705048
1344.050699,6661.853478,-6661.853478,766.095498
1344.051028,6809.894666,-6661.853478,1225.752797
1344.051358,7328.038826,-6883.915261,536.266849
1344.051688,7105.977043,-6809.894666,995.924147
1344.052018,6735.874072,-6883.915261,689.485948
1344.052347,7105.977043,-6809.894666,842.705048
1344.052677,7328.038826,-6291.750507,1608.800546
1344.053007,6957.935855,-6809.894666,995.924147
1344.053337,7179.997637,-6587.832884,919.314598
1344.053666,7550.100608,-6587.832884,995.924147
1344.053996,7402.059420,-6217.729913,1072.533697
1344.054326,7105.977043,-6217.729913,1225.752797
1344.054656,7328.038826,-6217.729913,1378.971896
1344.054985,7476.080014,-5847.626942,919.314598
1344.055315,7031.956449,-6069.688724,995.924147
1344.055645,7031.956449,-6291.750507,995.924147
1344.055975,7624.121203,-6069.688724,1225.752797
1344.056304,7105.977043,-6587.832884,919.314598
1344.056634,6883.915261,-6883.915261,1072.533697
1344.056964,6735.874072,-6587.832884,919.314598
1344.057294,6735.874072,-6587.832884,766.095498
1344.057623,6883.915261,-6883.915261,842.705048
1344.057953,6809.894666,-6439.791695,1225.752797
1344.058283,6735.874072,-6513.812290,1302.362347
1344.058613,7105.977043,-6661.853478,1225.752797
1344.058942,7105.977043,-6809.894666,1149.143247
1344.059272,6513.812290,-6883.915261,1072.533697
1344.059602,6735.874072,-7031.956449,1149.143247
1344.059932,7105.977043,-6661.853478,1149.143247
1344.060261,7402.059420,-6587.832884,612.876398
1344.060591,6957.935855,-6735.874072,459.657299
1344.060921,7105.977043,-6957.935855,1302.362347
1344.061251,7105.977043,-7105.977043,995.924147
1344.061580,7105.977043,-6735.874072,1302.362347
1344.061910,7402.059420,-5995.668130,1225.752797
1344.062240,7476.080014,-6291.750507,995.924147
1344.062570,6957.935855,-6291.750507,1149.143247
1344.062899,6809.894666,-6587.832884,995.924147
1344.063229,6883.915261,-6143.709319,1225.752797
1344.063559,6735.874072,-6439.791695,1149.143247
1344.063889,6439.791695,-6365.771101,995.924147
1344.064218,6587.832884,-6957.935855,995.924147
1344.064548,6957.935855,-7105.977043,1072.533697
1344.064878,6809.894666,-6439.791695,1302.362347
1344.065208,6809.894666,-6661.853478,1072.533697
1344.065537,6957.935855,-7105.977043,1149.143247
1344.065867,7105.977043,-7105.977043,1072.533697
1344.066197,7105.977043,-7105.977043,1225.752797
1344.066527,7328.038826,-6513.812290,995.924147
1344.066856,6957.935855,-6735.874072,919.314598
1344.067186,7254.018232,-6661.853478,995.924147
1344.067516,7031.956449,-6217.729913,1149.143247
1344.067846,7179.997637,-6439.791695,842.705048
1344.068175,7402.059420,-6587.832884,842.705048
1344.068505,7105.977043,-6217.729913,919.314598
1344.068835,7179.997637,-6217.729913,689.485948
1344.069165,7031.956449,-6069.688724,1455.581446
1344.069494,7772.162391,-5921.647536,995.924147
1344.069824,7476.080014,-6217.729913,1225.752797
1344.070154,7179.997637,-6513.812290,1149.143247
1344.070484,7254.018232,-6365.771101,919.314598
1344.070813,7550.100608,-6217.729913,459.657299
1344.071143,6735.874072,-6661.853478,1072.533697
1344.071473,6735.874072,-6439.791695,842.705048
1344.071803,7031.956449,-6587.832884,995.924147
1344.072132,6957.935855,-6291.750507,1762.019645
1344.072462,7031.956449,-6661.853478,1532.190996
1344.072792,6883.915261,-6735.874072,995.924147
1344.073122,6809.894666,-6883.915261,995.924147
1344.073451,6809.894666,-6883.915261,1072.533697
1344.073781,6809.894666,-6883.915261,766.095498
1344.074111,6809.894666,-7031.956449,1762.019645
1344.074441,7105.977043,-6809.894666,1149.143247
1344.074770,7328.038826,-6735.874072,1302.362347
1344.075100,6809.894666,-6735.874072,1072.533697
1344.075430,7105.977043,-6587.832884,842.705048
1344.075759,6809.894666,-6661.853478,919.314598
1344.076089,6735.874072,-6883.915261,995.924147
1344.076419,6957.935855,-6217.729913,1149.143247
1344.076749,7105.977043,-6069.688724,1149.143247
1344.077078,7105.977043,-6587.832884,1149.143247
1344.077408,7031.956449,-6513.812290,1302.362347
1344.077738,6809.894666,-6587.832884,995.924147
1344.078068,7105.977043,-6217.729913,766.095498
1344.078397,7105.977043,-6661.853478,459.657299
1344.078727,6587.832884,-6661.853478,1149.143247
1344.079057,6883.915261,-6735.874072,1072.533697
1344.079387,6809.894666,-6809.894666,1302.362347
1344.079716,6587.832884,-6809.894666,995.924147
1344.080046,6957.935855,-7031.956449,1149.143247
1344.080376,6661.853478,-6513.812290,919.314598
1344.080706,6809.894666,-6957.935855,919.314598
1344.081035,6809.894666,-6587.832884,919.314598
1344.081365,7105.977043,-6809.894666,919.314598
1344.081695,7254.018232,-6291.750507,842.705048
1344.082025,7328.038826,-6809.894666,1302.362347
1344.082354,7254.018232,-6809.894666,995.924147
1344.082684,7105.977043,-6957.935855,689.485948
1344.083014,7772.162391,-6735.874072,689.485948
1344.083344,7105.977043,-6439.791695,766.095498
1344.083673,7105.977043,-6439.791695,1149.143247
1344.084003,7624.121203,-5699.585753,1225.752797
1344.084333,7328.038826,-6069.688724,1072.533697
1344.084663,7550.100608,-6439.791695,919.314598
1344.084992,7105.977043,-5995.668130,995.924147
1344.085322,7254.018232,-6291.750507,919.314598
1344.085652,6957.935855,-6513.812290,995.924147
1344.085982,6809.894666,-5995.668130,766.095498
1344.086311,6809.894666,-6661.853478,1072.533697
1344.086641,6883.915261,-6883.915261,1072.533697
1344.086971,6735.874072,-6587.832884,1072.533697
1344.087301,6661.853478,-6439.791695,842.705048
1344.087630,6809.894666,-6735.874072,1685.410096
1344.087960,6735.874072,-6513.812290,1072.533697
1344.088290,6735.874072,-6735.874072,919.314598
1344.088620,6587.832884,-6661.853478,919.314598
1344.088949,7105.977043,-6661.853478,842.705048
1344.089279,6809.894666,-5921.647536,995.924147
1344.089609,7402.059420,-5255.462188,1149.143247
1344.089939,7920.203579,-5699.585753,919.314598
1344.090268,8438.347739,-5625.565159,1225.752797
1344.090598,8364.327145,-6365.771101,1608.800546
1344.090928,7476.080014,-6513.812290,919.314598
1344.091258,6439.791695,-6587.832884,689.485948
1344.091587,5847.626942,-7179.997637,0.000000
1344.091917,6513.812290,-6365.771101,612.876398
1344.092247,7920.203579,-6587.832884,1455.581446
1344.092577,8364.327145,-6069.688724,1532.190996
1344.092906,8512.368333,-5403.503377,1991.848295
1344.093236,8068.244768,-3923.091493,1225.752797
1344.093566,7179.997637,-4737.318029,1532.190996
1344.093896,7772.162391,-5107.421000,1302.362347
1344.094225,8216.285956,-4293.194464,1378.971896
1344.094555,8734.430116,-5329.482782,1149.143247
1344.094885,8290.306550,-4663.297435,1378.971896
1344.095215,7994.224174,-5773.606348,766.095498
1344.095544,7846.182985,-5477.523971,459.657299
1344.095874,7920.203579,-5699.585753,306.438199
1344.096204,8290.306550,-6587.832884,766.095498
1344.096534,8216.285956,-5773.606348,1072.533697
1344.096863,8364.327145,-6217.729913,306.438199
1344.097193,7994.224174,-5625.565159,842.705048
1344.097523,7846.182985,-5329.482782,536.266849
1344.097853,8364.327145,-4515.256246,689.485948
1344.098182,8586.388927,-3552.988522,2374.896044
1344.098512,9474.636058,-4145.153275,1302.362347
1344.098842,10288.862594,-2812.782580,1762.019645
1344.099172,9844.739029,-3330.926739,1608.800546
1344.099501,9622.677246,-2442.679609,1225.752797
1344.099831,9474.636058,-2294.638420,1302.362347
1344.100161,10140.821405,-2960.823768,1838.629195
1344.100491,10584.944971,-2886.803174,1608.800546
1344.100820,10066.800811,-4145.153275,1915.238745
1344.101150,9844.739029,-4071.132681,1685.410096
1344.101480,9252.574275,-4663.297435,1455.581446
1344.101809,8364.327145,-4811.338623,1302.362347
1344.102139,7846.182985,-5255.462188,1225.752797
1344.102469,7254.018232,-6439.791695,1532.190996
1344.102799,7179.997637,-4589.276840,383.047749
1344.103128,7105.977043,-5773.606348,536.266849
1344.103458,7476.080014,-5699.585753,689.485948
1344.103788,7624.121203,-6069.688724,306.438199
1344.104118,8142.265362,-5699.585753,76.609550
1344.104447,8512.368333,-4663.297435,0.000000
1344.104777,9326.594869,-4737.318029,0.000000
1344.105107,10584.944971,-4145.153275,459.657299
1344.105437,10436.903782,-5255.462188,842.705048
1344.105766,10510.924376,-4293.194464,1685.410096
1344.106096,9918.759623,-2812.782580,0.000000
1344.106426,10066.800811,-3552.988522,842.705048
1344.106756,9474.636058,-3849.070898,1532.190996
1344.107085,9252.574275,-4737.318029,1455.581446
1344.107415,8882.471304,-4145.153275,1608.800546
1344.107745,8142.265362,-4071.132681,1455.581446
1344.108075,8290.306550,-4293.194464,2068.457845
1344.108404,9030.512492,-4219.173869,1915.238745
1344.108734,9104.533087,-4367.215058,2298.286494
1344.109064,9474.636058,-3404.947333,1378.971896
1344.109394,9474.636058,-3775.050304,1149.143247
1344.109723,9326.594869,-4071.132681,919.314598
1344.110053,8882.471304,-4441.235652,0.000000
1344.110383,8808.450710,-4811.338623,76.609550
1344.110713,8734.430116,-5403.503377,0.000000
1344.111042,8586.388927,-6291.750507,0.000000
1344.111372,8364.327145,-5477.523971,76.609550
1344.111702,8660.409521,-5773.606348,0.000000
1344.112032,8290.306550,-6143.709319,1225.752797
1344.112361,8068.244768,-6069.688724,1302.362347
1344.112691,8216.285956,-5995.668130,1302.362347
1344.113021,8364.327145,-5033.400406,1608.800546
1344.113351,9178.553681,-4515.256246,1685.410096
1344.113680,9622.677246,-3108.864956,2221.676944
1344.114010,10288.862594,-2442.679609,2145.067394
1344.114340,10658.965565,-1184.329507,1838.629195
1344.114670,11473.192101,-518.144159,766.095498
1344.114999,10658.965565,-1258.350101,536.266849
1344.115329,9918.759623,-1702.473667,76.609550
1344.115659,9474.636058,-3330.926739,0.000000
1344.115989,9400.615463,-5033.400406,383.047749
1344.116318,8290.306550,-6143.709319,1149.143247
1344.116648,7698.141797,-8364.327145,459.657299
1344.116978,6957.935855,-8956.491898,842.705048
1344.117308,6735.874072,-8882.471304,536.266849
1344.117637,6513.812290,-8068.244768,229.828649
1344.117967,6587.832884,-6883.915261,229.828649
1344.118297,6957.935855,-5995.668130,536.266849
1344.118627,8290.306550,-4145.153275,1149.143247
1344.118956,9326.594869,-2664.741391,1378.971896
1344.119286,10140.821405,-2146.597232,1915.238745
1344.119616,11029.068536,-814.226536,1915.238745
1344.119946,11029.068536,-740.205942,1149.143247
1344.120275,11473.192101,-296.082377,1455.581446
1344.120605,12065.356855,-444.123565,1072.533697
1344.120935,12805.562797,-1332.370696,1225.752797
1344.121265,11695.253884,-2738.761985,1302.362347
1344.121594,9918.759623,-5477.523971,1302.362347
1344.121924,9104.533087,-6291.750507,842.705048
1344.122254,7105.977043,-8660.409521,1149.143247
1344.122584,5033.400406,-9178.553681,689.485948
1344.122913,4145.153275,-8586.388927,-306.438199
1344.123243,4737.318029,-8512.368333,-383.047749
1344.123573,5995.668130,-7920.203579,76.609550
1344.123903,7402.059420,-6217.729913,306.438199
1344.124232,8290.306550,-5403.503377,1455.581446
1344.124562,9548.656652,-3330.926739,1302.362347
1344.124892,9844.739029,-2442.679609,1072.533697
1344.125222,9178.553681,-1702.473667,689.485948
1344.125551,10066.800811,-2072.576638,995.924147
1344.125881,11473.192101,-1924.535449,1072.533697
1344.126211,12435.459826,-1702.473667,1838.629195
1344.126540,13027.624579,-3552.988522,2451.505594
1344.126870,12805.562797,-4071.132681,3370.820191
1344.127200,10510.924376,-4737.318029,2451.505594
1344.127530,7328.038826,-5699.585753,1072.533697
1344.127859,5403.503377,-5921.647536,0.000000
1344.128189,4737.318029,-7179.997637,-76.609550
1344.128519,4811.338623,-8808.450710,-153.219100
1344.128849,5255.462188,-8068.244768,842.705048
1344.129178,5847.626942,-6587.832884,76.609550
1344.129508,6883.915261,-5255.462188,0.000000
1344.129838,7031.956449,-5107.421000,153.219100
1344.130168,7476.080014,-5847.626942,306.438199
1344.130497,7920.203579,-5329.482782,842.705048
1344.130827,7846.182985,-5033.400406,229.828649
1344.131157,8364.327145,-5921.647536,1225.752797
1344.131487,9844.739029,-6365.771101,1532.190996
1344.131816,9474.636058,-7624.121203,2374.896044
1344.132146,7772.162391,-8068.244768,1685.410096
1344.132476,5181.441594,-8586.388927,842.705048
1344.132806,4367.215058,-9474.636058,459.657299
1344.133135,4811.338623,-8290.306550,153.219100
1344.133465,4737.318029,-7624.121203,383.047749
1344.133795,5625.565159,-5699.585753,0.000000
1344.134125,5995.668130,-4293.194464,-76.609550
1344.134454,7254.018232,-3701.029710,536.266849
1344.134784,8808.450710,-3034.844362,842.705048
1344.135114,9104.533087,-3701.029710,919.314598
1344.135444,9474.636058,-3701.029710,1378.971896
1344.135773,9474.636058,-4737.318029,1762.019645
1344.136103,10140.821405,-5921.647536,1762.019645
1344.136433,9548.656652,-5847.626942,1915.238745
1344.136763,8808.450710,-6809.894666,2145.067394
1344.137092,7550.100608,-7254.018232,1838.629195
1344.137422,5995.668130,-6957.935855,1608.800546
1344.137752,6069.688724,-6957.935855,766.095498
1344.138082,5625.565159,-6513.812290,0.000000
1344.138411,5625.565159,-6883.915261,1072.533697
1344.138741,5847.626942,-6883.915261,1378.971896
1344.139070,6439.791695,-5773.606348,2221.676944
1344.139400,6291.750507,-5181.441594,766.095498
1344.139729,6439.791695,-5625.565159,459.657299
1344.140058,6217.729913,-7179.997637,1072.533697
1344.140387,6439.791695,-8586.388927,995.924147
1344.140716,6587.832884,-7772.162391,1762.019645
1344.141045,6217.729913,-7698.141797,1072.533697
1344.141375,7179.997637,-7402.059420,1302.362347
1344.141704,7624.121203,-6883.915261,1685.410096
1344.142033,7402.059420,-6587.832884,1608.800546
1344.142362,7550.100608,-6735.874072,1378.971896
1344.142691,7179.997637,-6513.812290,1838.629195
1344.143021,6143.709319,-6439.791695,1149.143247
1344.143350,5329.482782,-5995.668130,612.876398
1344.143679,5033.400406,-5403.503377,459.657299
1344.144008,5847.626942,-6809.894666,76.609550
1344.144337,6735.874072,-7624.121203,1225.752797
1344.144667,6587.832884,-7624.121203,1991.848295
1344.144996,6957.935855,-6513.812290,766.095498
1344.145325,7105.977043,-5181.441594,0.000000
1344.145654,7624.121203,-5995.668130,689.485948
1344.145983,8586.388927,-6883.915261,1608.800546
1344.146313,9326.594869,-6883.915261,2145.067394
1344.146642,8364.327145,-5107.421000,1532.190996
1344.146971,7402.059420,-5699.585753,1608.800546
1344.147300,6957.935855,-6143.709319,842.705048
1344.147629,5921.647536,-7994.224174,919.314598
1344.147958,5329.482782,-7772.162391,689.485948
1344.148288,5477.523971,-7698.141797,842.705048
1344.148617,6217.729913,-6661.853478,995.924147
1344.148946,6439.791695,-5921.647536,766.095498
1344.149275,6439.791695,-5255.462188,306.438199
1344.149604,6809.894666,-4959.379811,0.000000
1344.149934,8586.388927,-5255.462188,459.657299
1344.150263,9252.574275,-5921.647536,1762.019645
1344.150592,9104.533087,-5699.585753,1532.190996
1344.150921,8660.409521,-5921.647536,1532.190996
1344.151250,8068.244768,-5625.565159,1302.362347
1344.151580,7772.162391,-7254.018232,612.876398
1344.151909,7328.038826,-7550.100608,1455.581446
1344.152238,6735.874072,-7624.121203,995.924147
1344.152567,5551.544565,-7624.121203,1608.800546
1344.152896,5033.400406,-5921.647536,0.000000
1344.153226,5181.441594,-6587.832884,-229.828649
1344.153555,6143.709319,-6217.729913,306.438199
1344.153884,7254.018232,-6069.688724,842.705048
1344.154213,7624.121203,-5329.482782,1762.019645
1344.154542,7846.182985,-5699.585753,1532.190996
1344.154871,7772.162391,-6439.791695,1149.143247
1344.155201,7550.100608,-7698.141797,536.266849
1344.155530,6957.935855,-8068.244768,1072.533697
1344.155859,6439.791695,-8512.368333,842.705048
1344.156188,7031.956449,-8216.285956,2068.457845
1344.156517,7105.977043,-7476.080014,1762.019645
1344.156847,7031.956449,-6143.709319,383.047749
1344.157176,6217.729913,-5995.668130,229.828649
1344.157505,6217.729913,-6217.729913,229.828649
1344.157834,6513.812290,-6661.853478,1225.752797
1344.158163,6513.812290,-6809.894666,2451.505594
1344.158493,6365.771101,-5033.400406,1455.581446
1344.158822,6809.894666,-5033.400406,1302.362347
1344.159151,7254.018232,-5403.503377,766.095498
1344.159480,7476.080014,-6735.874072,1762.019645
1344.159809,7550.100608,-7105.977043,2374.896044
1344.160139,7031.956449,-5995.668130,1455.581446
1344.160468,6957.935855,-5847.626942,306.438199
1344.160797,6365.771101,-6587.832884,229.828649
1344.161126,6587.832884,-7254.018232,1149.143247
1344.161455,7105.977043,-7994.224174,1608.800546
1344.161784,7772.162391,-6439.791695,2221.676944
1344.162114,6513.812290,-5847.626942,1302.362347
1344.162443,6587.832884,-5995.668130,842.705048
1344.162772,5995.668130,-6883.915261,306.438199
1344.163101,5255.462188,-8586.388927,536.266849
1344.163430,6217.729913,-8364.327145,1149.143247
1344.163760,6513.812290,-7624.121203,1149.143247
1344.164089,6587.832884,-7105.977043,1455.581446
1344.164418,6809.894666,-6587.832884,842.705048
1344.164747,7328.038826,-6217.729913,459.657299
1344.165076,7624.121203,-6143.709319,459.657299
1344.165406,8216.285956,-5847.626942,1225.752797
1344.165735,8808.450710,-5625.565159,1991.848295
1344.166064,8438.347739,-5773.606348,1762.019645
1344.166393,7031.956449,-5625.565159,842.705048
1344.166722,5847.626942,-6291.750507,459.657299
1344.167052,6809.894666,-6735.874072,306.438199
1344.167381,7031.956449,-6957.935855,1302.362347
1344.167710,7624.121203,-6513.812290,1685.410096
1344.168039,7328.038826,-5847.626942,995.924147
1344.168368,6883.915261,-5403.503377,383.047749
1344.168698,6735.874072,-5699.585753,0.000000
1344.169027,7476.080014,-5699.585753,612.876398
1344.169356,8290.306550,-5255.462188,1685.410096
1344.169685,8586.388927,-5699.585753,1838.629195
1344.170014,7994.224174,-6291.750507,1838.629195
1344.170343,7105.977043,-6513.812290,1225.752797
1344.170673,6735.874072,-7179.997637,459.657299
1344.171002,5995.668130,-8586.388927,842.705048
1344.171331,5625.565159,-8438.347739,766.095498
1344.171660,5625.565159,-8216.285956,842.705048
1344.171989,5551.544565,-6661.853478,612.876398
1344.172319,6365.771101,-7179.997637,0.000000
1344.172648,6883.915261,-6069.688724,0.000000
1344.172977,7254.018232,-6291.750507,1149.143247
1344.173306,8438.347739,-6439.791695,1762.019645
1344.173635,8216.285956,-5625.565159,1608.800546
1344.173965,7179.997637,-5699.585753,995.924147
1344.174294,6809.894666,-6439.791695,612.876398
1344.174623,6587.832884,-7476.080014,766.095498
1344.174952,6661.853478,-7994.224174,1302.362347
1344.175281,6587.832884,-8364.327145,1225.752797
1344.175611,6439.791695,-7105.977043,1915.238745
1344.175940,6513.812290,-6661.853478,766.095498
1344.176269,5995.668130,-6513.812290,153.219100
1344.176598,5699.585753,-5625.565159,76.609550
1344.176927,7105.977043,-5921.647536,1072.533697
1344.177256,8290.306550,-5773.606348,1762.019645
1344.177586,8512.368333,-5255.462188,1915.238745
1344.177915,7772.162391,-5625.565159,1072.533697
1344.178244,7179.997637,-6439.791695,612.876398
1344.178573,7105.977043,-7772.162391,689.485948
1344.178902,6439.791695,-8438.347739,1378.971896
1344.179232,7105.977043,-7920.203579,1762.019645
1344.179561,7105.977043,-6143.709319,1149.143247
1344.179890,6735.874072,-5551.544565,459.657299
1344.180219,6217.729913,-6439.791695,459.657299
1344.180548,7105.977043,-6143.709319,919.314598
1344.180878,7328.038826,-6513.812290,1762.019645
1344.181207,7328.038826,-6217.729913,1302.362347
1344.181536,6587.832884,-5847.626942,1072.533697
1344.181865,6291.750507,-5995.668130,459.657299
1344.182194,6291.750507,-7105.977043,689.485948
1344.182524,6439.791695,-7846.182985,1072.533697
1344.182853,7476.080014,-7254.018232,2068.457845
1344.183182,7772.162391,-6957.935855,1762.019645
1344.183511,6365.771101,-6439.791695,842.705048
1344.183840,5995.668130,-5921.647536,383.047749
1344.184169,6661.853478,-6069.688724,536.266849
1344.184499,7624.121203,-5699.585753,1455.581446
1344.184828,8882.471304,-5477.523971,2068.457845
1344.185157,8586.388927,-5773.606348,2451.505594
1344.185486,7550.100608,-5477.523971,1455.581446
1344.185815,5625.565159,-6513.812290,229.828649
1344.186145,4885.359217,-7402.059420,-76.609550
1344.186474,5699.585753,-8586.388927,229.828649
1344.186803,6883.915261,-8364.327145,1455.581446
1344.187132,6809.894666,-7550.100608,1608.800546
1344.187461,6957.935855,-5477.523971,1072.533697
1344.187791,7105.977043,-5255.462188,153.219100
1344.188120,7920.203579,-5403.503377,612.876398
1344.188449,8660.409521,-5625.565159,1225.752797
1344.188778,8586.388927,-5551.544565,1685.410096
1344.189107,7772.162391,-4959.379811,1378.971896
1344.189437,6661.853478,-5403.503377,766.095498
1344.189766,5921.647536,-6439.791695,76.609550
1344.190095,6217.729913,-7920.203579,1072.533697
1344.190424,6809.894666,-8068.244768,1378.971896
1344.190753,7105.977043,-7846.182985,1455.581446
1344.191082,6143.709319,-7031.956449,1378.971896
1344.191412,5995.668130,-6587.832884,153.219100
1344.191741,6513.812290,-6365.771101,-306.438199
1344.192070,7846.182985,-6513.812290,919.314598
1344.192399,8364.327145,-6587.832884,1762.019645
1344.192728,8512.368333,-6217.729913,2068.457845
1344.193058,7624.121203,-5699.585753,1532.190996
1344.193387,7105.977043,-6291.750507,76.609550
1344.193716,6291.750507,-7179.997637,-153.219100
1344.194045,5921.647536,-8512.368333,612.876398
1344.194374,5921.647536,-8734.430116,1149.143247
1344.194704,6439.791695,-6809.894666,1608.800546
1344.195033,6365.771101,-6069.688724,1532.190996
1344.195362,6883.915261,-5847.626942,842.705048
1344.195691,7105.977043,-6217.729913,689.485948
1344.196020,7476.080014,-6217.729913,1072.533697
1344.196350,7476.080014,-5921.647536,1378.971896
1344.196679,7328.038826,-5477.523971,2145.067394
1344.197008,7105.977043,-5847.626942,1225.752797
1344.197337,6439.791695,-6217.729913,383.047749
1344.197666,6291.750507,-7105.977043,842.705048
1344.197996,7105.977043,-8142.265362,842.705048
1344.198325,7105.977043,-7624.121203,1685.410096
1344.198654,7105.977043,-6587.832884,1762.019645
1344.198983,6439.791695,-6735.874072,842.705048
1344.199312,6069.688724,-5477.523971,76.609550
1344.199641,6661.853478,-5773.606348,766.095498
1344.199971,7550.100608,-5773.606348,1225.752797
1344.200300,8364.327145,-5403.503377,2068.457845
1344.200629,7698.141797,-5181.441594,1838.629195
1344.200958,6661.853478,-5773.606348,919.314598
1344.201287,6513.812290,-7105.977043,689.485948
1344.201617,6143.709319,-7994.224174,229.828649
1344.201946,6439.791695,-8586.388927,1072.533697
1344.202275,6809.894666,-7402.059420,1915.238745
1344.202604,7476.080014,-6291.750507,1302.362347
1344.202933,7031.956449,-6143.709319,689.485948
1344.203263,7105.977043,-5921.647536,766.095498
1344.203592,7550.100608,-5921.647536,1072.533697
1344.203921,7772.162391,-5699.585753,1455.581446
1344.204250,7994.224174,-5033.400406,2145.067394
1344.204579,7105.977043,-5625.565159,1302.362347
1344.204909,6883.915261,-5699.585753,1149.143247
1344.205238,6513.812290,-6957.935855,383.047749
1344.205567,6735.874072,-7179.997637,0.000000
1344.205896,6513.812290,-7328.038826,1072.533697
1344.206225,6957.935855,-7624.121203,689.485948
1344.206554,6809.894666,-6957.935855,842.705048
1344.206884,6291.750507,-7328.038826,306.438199
1344.207213,6809.894666,-7402.059420,0.000000
1344.207542,7179.997637,-7031.956449,229.828649
1344.207871,7920.203579,-6217.729913,1072.533697
1344.208200,8438.347739,-6143.709319,1455.581446
1344.208530,7994.224174,-6217.729913,1455.581446
1344.208859,7624.121203,-6439.791695,995.924147
1344.209188,6291.750507,-7105.977043,536.266849
1344.209517,5477.523971,-7254.018232,842.705048
1344.209846,5773.606348,-7624.121203,1072.533697
1344.210176,6069.688724,-7179.997637,1302.362347
1344.210505,6143.709319,-6661.853478,842.705048
1344.210834,6143.709319,-6069.688724,459.657299
1344.211163,7476.080014,-5477.523971,153.219100
1344.211492,8290.306550,-6513.812290,1685.410096
1344.211822,8808.450710,-5921.647536,2528.115143
1344.212151,8882.471304,-5107.421000,2374.896044
1344.212480,7179.997637,-5551.544565,1149.143247
1344.212809,6217.729913,-6439.791695,76.609550
1344.213138,6291.750507,-7846.182985,459.657299
1344.213467,6735.874072,-8068.244768,1149.143247
1344.213797,7254.018232,-7920.203579,2145.067394
1344.214126,6735.874072,-6069.688724,1225.752797
1344.214455,6365.771101,-5107.421000,229.828649
1344.214784,6735.874072,-5773.606348,0.000000
1344.215113,7328.038826,-6439.791695,919.314598
1344.215443,7550.100608,-6217.729913,1072.533697
1344.215772,7772.162391,-6365.771101,1838.629195
1344.216101,7328.038826,-6439.791695,1072.533697
1344.216430,7105.977043,-6809.894666,536.266849
1344.216759,6439.791695,-7846.182985,383.047749
1344.217089,6439.791695,-9326.594869,842.705048
1344.217418,6513.812290,-8660.409521,766.095498
1344.217747,6143.709319,-7624.121203,1149.143247
1344.218076,6143.709319,-6513.812290,1149.143247
1344.218405,6365.771101,-5699.585753,766.095498
1344.218735,6809.894666,-5847.626942,612.876398
1344.219064,7328.038826,-5477.523971,842.705048
1344.219393,8216.285956,-5255.462188,2221.676944
1344.219722,8734.430116,-4737.318029,2681.334243
1344.220051,8216.285956,-4737.318029,2145.067394
1344.220380,7105.977043,-4219.173869,766.095498
1344.220710,6439.791695,-6513.812290,842.705048
1344.221039,7254.018232,-7846.182985,459.657299
1344.221368,7402.059420,-7105.977043,1532.190996
1344.221697,6513.812290,-8290.306550,2068.457845
1344.222026,5773.606348,-7105.977043,766.095498
1344.222356,5847.626942,-5625.565159,-229.828649
1344.222685,5995.668130,-7402.059420,536.266849
1344.223014,7476.080014,-6735.874072,1532.190996
1344.223343,8734.430116,-5625.565159,1608.800546
1344.223672,7772.162391,-5033.400406,1991.848295
1344.224002,6809.894666,-5403.503377,306.438199
1344.224331,5847.626942,-7179.997637,306.438199
1344.224660,5921.647536,-8512.368333,383.047749
1344.224989,6143.709319,-9030.512492,1149.143247
1344.225318,6513.812290,-7550.100608,1915.238745
1344.225648,7105.977043,-6957.935855,1378.971896
1344.225977,7105.977043,-5773.606348,1225.752797
1344.226306,7328.038826,-5699.585753,842.705048
1344.226635,7698.141797,-6365.771101,766.095498
1344.226964,7550.100608,-6069.688724,1915.238745
1344.227294,7254.018232,-6069.688724,1608.800546
1344.227623,7328.038826,-5921.647536,1149.143247
1344.227952,6291.750507,-6217.729913,612.876398
1344.228281,5625.565159,-6883.915261,229.828649
1344.228610,6217.729913,-7624.121203,689.485948
1344.228939,7179.997637,-7402.059420,1762.019645
1344.229269,7920.203579,-6809.894666,1455.581446
1344.229598,7254.018232,-6291.750507,1608.800546
1344.229927,6809.894666,-5477.523971,919.314598
1344.230256,7328.038826,-5329.482782,0.000000
1344.230585,8364.327145,-5329.482782,1225.752797
1344.230915,9252.574275,-5551.544565,2145.067394
1344.231244,8882.471304,-6069.688724,2374.896044
1344.231573,7698.141797,-5625.565159,1072.533697
1344.231902,6365.771101,-7179.997637,229.828649
1344.232231,4959.379811,-9104.533087,0.000000
1344.232561,4589.276840,-9030.512492,0.000000
1344.232890,4737.318029,-8882.471304,842.705048
1344.233219,5773.606348,-7105.977043,919.314598
1344.233548,5995.668130,-6365.771101,919.314598
1344.233877,6883.915261,-5995.668130,306.438199
1344.234207,7550.100608,-6291.750507,612.876398
1344.234536,8216.285956,-5551.544565,2068.457845
1344.234865,8586.388927,-5107.421000,1225.752797
1344.235194,8142.265362,-4737.318029,1608.800546
1344.235523,7624.121203,-5847.626942,1455.581446
1344.235852,7179.997637,-6735.874072,153.219100
1344.236182,6217.729913,-7105.977043,919.314598
1344.236511,6587.832884,-7550.100608,689.485948
1344.236840,7105.977043,-7624.121203,1225.752797
1344.237169,6661.853478,-7105.977043,1378.971896
1344.237498,6143.709319,-7105.977043,0.000000
1344.237828,5551.544565,-6217.729913,-306.438199
1344.238157,6217.729913,-5921.647536,306.438199
1344.238486,7476.080014,-6291.750507,766.095498
1344.238815,8512.368333,-5921.647536,2374.896044
1344.239144,8290.306550,-5921.647536,1608.800546
1344.239474,7698.141797,-5921.647536,1378.971896
1344.239803,6883.915261,-7105.977043,1149.143247
1344.240132,7031.956449,-7994.224174,1302.362347
1344.240461,6513.812290,-7772.162391,1838.629195
1344.240790,6587.832884,-7328.038826,1685.410096
1344.241106,6291.750507,-7105.977043,1302.362347
1344.241435,6291.750507,-7105.977043,1072.533697
1344.241764,6587.832884,-6069.688724,153.219100
1344.242093,6883.915261,-6217.729913,76.609550
1344.242422,6957.935855,-5995.668130,1225.752797
1344.242751,7476.080014,-6069.688724,1915.238745
1344.243080,7254.018232,-5551.544565,1149.143247
1344.243409,7105.977043,-4367.215058,919.314598
1344.243738,6513.812290,-5773.606348,459.657299
1344.244067,7328.038826,-6439.791695,842.705048
1344.244396,7624.121203,-7254.018232,1762.019645
1344.244725,7328.038826,-7402.059420,1608.800546
1344.245054,7031.956449,-6291.750507,1378.971896
1344.245383,6439.791695,-5847.626942,0.000000
1344.245712,6809.894666,-6439.791695,76.609550
1344.246041,7550.100608,-6069.688724,1378.971896
1344.246370,7920.203579,-7031.956449,1762.019645
1344.246699,7920.203579,-5551.544565,1685.410096
1344.247028,5921.647536,-6217.729913,689.485948
1344.247357,5329.482782,-6217.729913,0.000000
1344.247686,5699.585753,-7698.141797,0.000000
1344.248015,6365.771101,-8734.430116,1532.190996
1344.248344,6439.791695,-7254.018232,1838.629195
1344.248673,6217.729913,-6735.874072,1455.581446
1344.249002,6587.832884,-5699.585753,612.876398
1344.249331,6513.812290,-6291.750507,306.438199
1344.249660,6957.935855,-6217.729913,1378.971896
1344.249989,7328.038826,-7179.997637,1532.190996
1344.250318,7698.141797,-6143.709319,1455.581446
1344.250647,7402.059420,-5551.544565,1149.143247
1344.250976,7402.059420,-5551.544565,1455.581446
1344.251305,7328.038826,-6735.874072,919.314598
1344.251634,7105.977043,-7772.162391,919.314598
1344.251963,6957.935855,-7772.162391,919.314598
1344.252292,7031.956449,-6587.832884,1302.362347
1344.252621,7328.038826,-5255.462188,383.047749
1344.252950,6365.771101,-5773.606348,229.828649
1344.253279,6957.935855,-6291.750507,536.266849
1344.253608,7550.100608,-6365.771101,919.314598
1344.253937,8290.306550,-6513.812290,1608.800546
1344.254266,8216.285956,-5699.585753,2298.286494
1344.254595,7179.997637,-6291.750507,1378.971896
1344.254924,6439.791695,-7105.977043,689.485948
1344.255253,5329.482782,-8290.306550,153.219100
1344.255583,5847.626942,-8882.471304,612.876398
1344.255912,5773.606348,-8364.327145,689.485948
1344.256241,5921.647536,-7846.182985,2068.457845
1344.256570,6143.709319,-6883.915261,842.705048
1344.256899,5995.668130,-6291.750507,0.000000
1344.257228,6291.750507,-6143.709319,0.000000
1344.257557,7402.059420,-6069.688724,306.438199
1344.257886,8216.285956,-5329.482782,1838.629195
1344.258215,8364.327145,-4959.379811,2221.676944
1344.258544,8734.430116,-5773.606348,1608.800546
1344.258873,7920.203579,-5477.523971,919.314598
1344.259202,7031.956449,-6735.874072,689.485948
1344.259531,7031.956449,-7846.182985,1072.533697
1344.259860,6957.935855,-7031.956449,1685.410096
1344.260189,6883.915261,-6513.812290,1302.362347
1344.260518,6439.791695,-6069.688724,689.485948
1344.260847,6809.894666,-6069.688724,459.657299
1344.261176,7254.018232,-5625.565159,459.657299
1344.261505,8290.306550,-5033.400406,1762.019645
1344.261834,8290.306550,-5329.482782,1838.629195
1344.262163,7920.203579,-5403.503377,1762.019645
1344.262492,6735.874072,-5773.606348,1302.362347
1344.262821,5847.626942,-6291.750507,383.047749
1344.263150,6143.709319,-7846.182985,612.876398
1344.263479,6365.771101,-8660.409521,1762.019645
1344.263808,7179.997637,-7402.059420,1532.190996
1344.264137,6809.894666,-6883.915261,1302.362347
1344.264466,6143.709319,-6513.812290,766.095498
1344.264795,6143.709319,-6661.853478,0.000000
1344.265124,6143.709319,-6587.832884,-153.219100
1344.265453,6809.894666,-6291.750507,995.924147
1344.265782,7328.038826,-6513.812290,1532.190996
1344.266111,7698.141797,-7105.977043,2528.115143
1344.266440,7031.956449,-5477.523971,536.266849
1344.266769,6365.771101,-7031.956449,153.219100
1344.267098,6957.935855,-7105.977043,995.924147
1344.267427,8216.285956,-7105.977043,2068.457845
1344.267756,8586.388927,-7031.956449,2451.505594
1344.268085,7476.080014,-4515.256246,1225.752797
1344.268414,6291.750507,-5551.544565,0.000000
1344.268743,6217.729913,-5847.626942,76.609550
1344.269072,7254.018232,-5995.668130,383.047749
1344.269401,7920.203579,-6513.812290,2757.943793
1344.269730,7994.224174,-6143.709319,2374.896044
1344.270059,6735.874072,-6439.791695,1455.581446
1344.270388,5181.441594,-6587.832884,383.047749
1344.270717,5033.400406,-8216.285956,459.657299
1344.271046,5773.606348,-9030.512492,766.095498
1344.271375,5847.626942,-8142.265362,842.705048
1344.271704,5847.626942,-7476.080014,1302.362347
1344.272033,6439.791695,-6957.935855,842.705048
1344.272362,7105.977043,-7031.956449,919.314598
1344.272691,7254.018232,-6143.709319,612.876398
1344.273020,7920.203579,-5921.647536,689.485948
1344.273349,8660.409521,-5625.565159,1608.800546
1344.273678,7994.224174,-5551.544565,2068.457845
1344.274007,7328.038826,-5255.462188,459.657299
1344.274336,6587.832884,-5847.626942,76.609550
1344.274665,6587.832884,-6587.832884,0.000000
1344.274994,7031.956449,-7328.038826,1302.362347
1344.275323,6661.853478,-6883.915261,1915.238745
1344.275652,7031.956449,-6291.750507,1455.581446
1344.275981,6735.874072,-6365.771101,766.095498
1344.276310,6809.894666,-5921.647536,612.876398
1344.276639,6809.894666,-5773.606348,459.657299
1344.276968,8364.327145,-6217.729913,1915.238745
1344.277297,8216.285956,-5773.606348,2528.115143
1344.277626,7254.018232,-6883.915261,1378.971896
1344.277955,6439.791695,-5995.668130,995.924147
1344.278284,6143.709319,-6883.915261,689.485948
1344.278613,6513.812290,-8438.347739,536.266849
1344.278942,6217.729913,-7846.182985,1532.190996
1344.279271,6513.812290,-8512.368333,1915.238745
1344.279600,7031.956449,-6439.791695,1302.362347
1344.279929,5699.585753,-4663.297435,842.705048
1344.280258,6439.791695,-5847.626942,-383.047749
1344.280587,7698.141797,-5847.626942,612.876398
1344.280916,9030.512492,-5625.565159,2374.896044
1344.281245,9178.553681,-4737.318029,2298.286494
1344.281574,8290.306550,-4737.318029,1455.581446
1344.281903,7328.038826,-4885.359217,0.000000
1344.282232,6513.812290,-6513.812290,-306.438199
1344.282561,6439.791695,-8216.285956,919.314598
1344.282890,7476.080014,-7254.018232,1378.971896
1344.283219,7772.162391,-6735.874072,1838.629195
1344.283548,6809.894666,-5699.585753,842.705048
1344.283878,5847.626942,-5699.585753,0.000000
1344.284207,6217.729913,-6513.812290,0.000000
1344.284536,7698.141797,-6957.935855,995.924147
1344.284865,8290.306550,-6883.915261,2374.896044
1344.285194,7772.162391,-6291.750507,2451.505594
1344.285523,7402.059420,-5847.626942,1072.533697
1344.285852,5921.647536,-5995.668130,0.000000
1344.286181,4885.359217,-8290.306550,0.000000
1344.286510,5033.400406,-9400.615463,766.095498
1344.286839,6217.729913,-8586.388927,1225.752797
1344.287168,5995.668130,-7994.224174,1225.752797
1344.287497,6143.709319,-7031.956449,76.609550
1344.287826,5921.647536,-7105.977043,0.000000
1344.288155,6957.935855,-7105.977043,536.266849
1344.288484,8068.244768,-5995.668130,1532.190996
1344.288813,8660.409521,-5107.421000,1991.848295
1344.289142,8586.388927,-4737.318029,1455.581446
1344.289471,7254.018232,-5329.482782,612.876398
1344.289800,6587.832884,-7105.977043,689.485948
1344.290129,7105.977043,-7179.997637,536.266849
1344.290458,7402.059420,-7105.977043,1915.238745
1344.290787,7402.059420,-6365.771101,1762.019645
1344.291116,7254.018232,-6069.688724,1608.800546
1344.291445,7105.977043,-5847.626942,919.314598
1344.291774,7402.059420,-6587.832884,306.438199
1344.292103,7402.059420,-5477.523971,919.314598
1344.292432,8290.306550,-5551.544565,1302.362347
1344.292761,8142.265362,-5921.647536,2374.896044
1344.293090,7105.977043,-6439.791695,1532.190996
1344.293419,5847.626942,-7328.038826,383.047749
1344.293748,5551.544565,-7550.100608,536.266849
1344.294077,5921.647536,-8882.471304,459.657299
1344.294406,6143.709319,-8586.388927,1455.581446
1344.294735,5773.606348,-7550.100608,1608.800546
1344.295064,6069.688724,-6809.894666,919.314598
1344.295393,6365.771101,-6291.750507,153.219100
1344.295722,7031.956449,-6143.709319,459.657299
1344.296051,8068.244768,-6291.750507,1225.752797
1344.296380,9030.512492,-5551.544565,2068.457845
1344.296709,8512.368333,-4367.215058,2451.505594
1344.297038,7624.121203,-4737.318029,1149.143247
1344.297367,6587.832884,-5477.523971,229.828649
1344.297696,6365.771101,-6735.874072,536.266849
1344.298025,7105.977043,-7254.018232,1225.752797
1344.298354,6957.935855,-6809.894666,1762.019645
1344.298683,6735.874072,-6809.894666,1532.190996
1344.299012,6439.791695,-6587.832884,995.924147
1344.299341,6365.771101,-6735.874072,612.876398
1344.299670,6883.915261,-6661.853478,689.485948
1344.299999,7698.141797,-5921.647536,1302.362347
1344.300328,8216.285956,-6143.709319,2068.457845
1344.300657,8068.244768,-5921.647536,1838.629195
1344.300986,7105.977043,-5699.585753,1762.019645
1344.301315,6513.812290,-6809.894666,536.266849
1344.301644,6143.709319,-8364.327145,536.266849
1344.301973,5995.668130,-8734.430116,1685.410096
1344.302302,6365.771101,-7772.162391,1455.581446
1344.302631,6439.791695,-6883.915261,842.705048
1344.302960,6217.729913,-5995.668130,229.828649
1344.303289,6291.750507,-6217.729913,-229.828649
1344.303618,7105.977043,-6143.709319,612.876398
1344.303947,8512.368333,-7031.956449,1838.629195
1344.304276,8068.244768,-5921.647536,1455.581446
1344.304605,6957.935855,-5181.441594,842.705048
1344.304934,6661.853478,-6143.709319,306.438199
1344.305263,6809.894666,-7105.977043,459.657299
1344.305592,7846.182985,-7624.121203,1838.629195
1344.305921,8068.244768,-7105.977043,2298.286494
1344.306250,7624.121203,-6439.791695,1991.848295
1344.306579,6957.935855,-5773.606348,1608.800546
1344.306908,5921.647536,-6143.709319,0.000000
1344.307237,6291.750507,-5625.565159,76.609550
1344.307566,7179.997637,-5255.462188,1072.533697
1344.307895,8142.265362,-5847.626942,1685.410096
1344.308224,8364.327145,-5329.482782,2145.067394
1344.308553,7254.018232,-5921.647536,1608.800546
1344.308882,6587.832884,-7105.977043,0.000000
1344.309211,5995.668130,-8438.347739,612.876398
1344.309540,6291.750507,-8956.491898,842.705048
1344.309869,6661.853478,-8808.450710,1302.362347
1344.310198,6365.771101,-6809.894666,1378.971896
1344.310527,5921.647536,-6883.915261,689.485948
1344.310856,5921.647536,-6957.935855,0.000000
1344.311185,7105.977043,-6809.894666,306.438199
1344.311514,7772.162391,-5921.647536,995.924147
1344.311843,7698.141797,-5181.441594,1915.238745
1344.312172,7254.018232,-5477.523971,1532.190996
1344.312502,6291.750507,-6069.688724,153.219100
1344.312831,5329.482782,-6735.874072,-383.047749
1344.313160,5995.668130,-7254.018232,229.828649
1344.313489,7179.997637,-7624.121203,1225.752797
1344.313818,7772.162391,-7994.224174,2221.676944
1344.314147,7402.059420,-6291.750507,2145.067394
1344.314476,6291.750507,-5699.585753,229.828649
1344.314805,6661.853478,-5699.585753,229.828649
1344.315134,7031.956449,-6513.812290,229.828649
1344.315463,7254.018232,-6143.709319,1225.752797
1344.315792,7476.080014,-5921.647536,1838.629195
1344.316121,7402.059420,-5033.400406,1225.752797
1344.316450,6957.935855,-5477.523971,1072.533697
1344.316779,6735.874072,-7105.977043,995.924147
1344.317108,6883.915261,-8068.244768,689.485948
1344.317437,6809.894666,-7476.080014,1225.752797
1344.317766,6291.750507,-7105.977043,536.266849
1344.318095,6143.709319,-6809.894666,383.047749
1344.318424,6809.894666,-5699.585753,0.000000
1344.318753,7772.162391,-6217.729913,306.438199
1344.319082,8734.430116,-5255.462188,1149.143247
1344.319411,8882.471304,-5033.400406,1991.848295
1344.319740,8808.450710,-5181.441594,1762.019645
1344.320069,7179.997637,-5995.668130,1149.143247
1344.320398,5921.647536,-6143.709319,0.000000
1344.320727,6513.812290,-7105.977043,-766.095498
1344.321056,6809.894666,-8364.327145,1149.143247
1344.321385,7402.059420,-7698.141797,2298.286494
1344.321714,7328.038826,-6735.874072,1991.848295
1344.322043,6217.729913,-5477.523971,383.047749
1344.322372,5699.585753,-5551.544565,-383.047749
1344.322701,6809.894666,-6587.832884,0.000000
1344.323030,8068.244768,-6291.750507,1455.581446
1344.323359,8290.306550,-6291.750507,2145.067394
1344.323688,8364.327145,-5477.523971,1685.410096
1344.324017,7402.059420,-5403.503377,536.266849
1344.324346,6587.832884,-7105.977043,0.000000
1344.324675,6365.771101,-8734.430116,689.485948
1344.325004,5921.647536,-8882.471304,995.924147
1344.325333,5699.585753,-7698.141797,995.924147
1344.325662,5847.626942,-7254.018232,766.095498
1344.325991,5921.647536,-6883.915261,153.219100
1344.326320,5921.647536,-7328.038826,0.000000
1344.326649,6513.812290,-7254.018232,612.876398
1344.326978,7328.038826,-6513.812290,1302.362347
1344.327307,7920.203579,-5995.668130,1608.800546
1344.327636,6883.915261,-5625.565159,1608.800546
1344.327965,6069.688724,-6735.874072,689.485948
1344.328294,6439.791695,-7031.956449,459.657299
1344.328623,6661.853478,-6809.894666,536.266849
1344.328952,7254.018232,-6809.894666,1685.410096
1344.329281,7698.141797,-6365.771101,2451.505594
1344.329610,7179.997637,-5847.626942,1378.971896
1344.329939,6365.771101,-6587.832884,766.095498
1344.330268,6439.791695,-5773.606348,536.266849
1344.330597,7476.080014,-5847.626942,1608.800546
1344.330926,8512.368333,-5699.585753,2451.505594
1344.331255,7994.224174,-4737.318029,2987.772442
1344.331584,7402.059420,-4737.318029,995.924147
1344.331913,6365.771101,-5995.668130,383.047749
1344.332242,5847.626942,-7254.018232,306.438199
1344.332571,6217.729913,-8660.409521,995.924147
1344.332900,6587.832884,-7994.224174,1532.190996
1344.333229,6513.812290,-7328.038826,1225.752797
1344.333558,6143.709319,-7105.977043,383.047749
1344.333887,6661.853478,-6735.874072,459.657299
1344.334216,7698.141797,-6587.832884,995.924147
1344.334545,8512.368333,-6809.894666,1302.362347
1344.334874,7698.141797,-6513.812290,1838.629195
1344.335203,6957.935855,-6143.709319,1072.533697
1344.335532,5773.606348,-6587.832884,0.000000
1344.335861,5255.462188,-7105.977043,0.000000
1344.336190,5773.606348,-8068.244768,536.266849
1344.336519,6957.935855,-8068.244768,1762.019645
1344.336848,7328.038826,-6957.935855,2298.286494
1344.337177,6957.935855,-5329.482782,766.095498
1344.337506,6217.729913,-5477.523971,0.000000
1344.337835,6883.915261,-6217.729913,0.000000
1344.338164,8586.388927,-6291.750507,612.876398
1344.338493,9104.533087,-5181.441594,1915.238745
1344.338822,9770.718434,-5625.565159,2374.896044
1344.339151,9030.512492,-4885.359217,1608.800546
1344.339480,7402.059420,-5699.585753,1378.971896
1344.339810,6587.832884,-7254.018232,229.828649
1344.340139,6217.729913,-7328.038826,766.095498
1344.340468,6365.771101,-7254.018232,1302.362347
1344.340797,5921.647536,-7105.977043,995.924147
1344.341126,5625.565159,-6587.832884,459.657299
1344.341456,5995.668130,-6365.771101,383.047749
1344.341785,6587.832884,-6217.729913,306.438199
1344.342114,7624.121203,-5847.626942,1378.971896
1344.342443,8438.347739,-4737.318029,1915.238745
1344.342772,7994.224174,-5995.668130,1685.410096
1344.343102,7402.059420,-6069.688724,1455.581446
1344.343431,6661.853478,-6291.750507,612.876398
1344.343760,6661.853478,-7624.121203,766.095498
1344.344089,7031.956449,-7476.080014,1685.410096
1344.344418,7328.038826,-6957.935855,1532.190996
1344.344748,6883.915261,-6513.812290,1072.533697
1344.345077,6143.709319,-6439.791695,689.485948
1344.345406,6439.791695,-7031.956449,229.828649
1344.345735,6291.750507,-6069.688724,536.266849
1344.346064,6735.874072,-5773.606348,459.657299
1344.346394,7550.100608,-5847.626942,459.657299
1344.346723,7254.018232,-6587.832884,1685.410096
1344.347052,6809.894666,-7105.977043,612.876398
1344.347381,6513.812290,-7328.038826,612.876398
1344.347710,6735.874072,-7772.162391,536.266849
1344.348040,7031.956449,-8586.388927,1685.410096
1344.348369,6957.935855,-7476.080014,1762.019645
1344.348698,6957.935855,-7105.977043,1455.581446
1344.349027,6217.729913,-7698.141797,612.876398
1344.349356,5995.668130,-5921.647536,995.924147
1344.349686,6587.832884,-5921.647536,612.876398
1344.350015,7550.100608,-6883.915261,1378.971896
1344.350344,7698.141797,-5921.647536,2221.676944
1344.350673,7031.956449,-5921.647536,1762.019645
1344.351002,7031.956449,-5403.503377,1225.752797
1344.351332,7031.956449,-6069.688724,612.876398
1344.351661,7402.059420,-6513.812290,1455.581446
1344.351990,7254.018232,-6143.709319,1685.410096
1344.352319,7402.059420,-6513.812290,1378.971896
1344.352648,6587.832884,-6809.894666,1378.971896
1344.352978,6365.771101,-6883.915261,306.438199
1344.353307,6883.915261,-5699.585753,0.000000
1344.353636,7328.038826,-6513.812290,1149.143247
1344.353965,8216.285956,-6513.812290,2145.067394
1344.354294,7994.224174,-5921.647536,2068.457845
1344.354624,7254.018232,-6439.791695,1455.581446
1344.354953,7031.956449,-6291.750507,842.705048
1344.355282,6217.729913,-7105.977043,-229.828649
1344.355611,5551.544565,-7624.121203,306.438199
1344.355940,5847.626942,-8364.327145,1225.752797
1344.356270,6661.853478,-7698.141797,1378.971896
1344.356599,6513.812290,-6069.688724,1149.143247
1344.356928,6735.874072,-5995.668130,-229.828649
1344.357257,7179.997637,-5699.585753,842.705048
1344.357586,7846.182985,-5995.668130,1225.752797
1344.357916,7550.100608,-6217.729913,1838.629195
1344.358245,7476.080014,-6069.688724,1455.581446
1344.358574,7105.977043,-5921.647536,842.705048
1344.358903,6143.709319,-6513.812290,153.219100
1344.359232,5995.668130,-7846.182985,842.705048
1344.359562,7031.956449,-7772.162391,1762.019645
1344.359891,7402.059420,-7105.977043,1532.190996
1344.360220,6735.874072,-6513.812290,919.314598
1344.360549,6217.729913,-5551.544565,536.266849
1344.360878,7105.977043,-5255.462188,-229.828649
1344.361208,7772.162391,-5625.565159,536.266849
1344.361537,8142.265362,-5625.565159,1378.971896
1344.361866,9178.553681,-5181.441594,2145.067394
1344.362195,8512.368333,-5625.565159,1762.019645
1344.362524,7328.038826,-5699.585753,612.876398
1344.362854,6291.750507,-7402.059420,459.657299
1344.363183,6217.729913,-8734.430116,689.485948
1344.363512,6143.709319,-8586.388927,1149.143247
1344.363841,6291.750507,-7772.162391,1225.752797
1344.364170,6365.771101,-6217.729913,612.876398
1344.364500,6809.894666,-5995.668130,306.438199
1344.364829,6735.874072,-6291.750507,229.828649
1344.365158,7476.080014,-5477.523971,842.705048
1344.365487,8290.306550,-5921.647536,1532.190996
1344.365816,8586.388927,-5921.647536,1915.238745
1344.366145,6883.915261,-5329.482782,1838.629195
1344.366475,5773.606348,-7254.018232,76.609550
1344.366804,5255.462188,-7846.182985,0.000000
1344.367133,5847.626942,-8216.285956,612.876398
1344.367462,7105.977043,-8512.368333,1455.581446
1344.367791,6957.935855,-7698.141797,1915.238745
1344.368121,6587.832884,-6735.874072,766.095498
1344.368450,5995.668130,-5921.647536,-612.876398
1344.368779,6809.894666,-5551.544565,153.219100
1344.369108,8586.388927,-5403.503377,1455.581446
1344.369437,9178.553681,-5107.421000,2451.505594
1344.369767,8882.471304,-4663.297435,2374.896044
1344.370096,8290.306550,-5181.441594,1302.362347
1344.370425,6735.874072,-6365.771101,766.095498
1344.370754,6587.832884,-8068.244768,612.876398
1344.371083,6217.729913,-8586.388927,1072.533697
1344.371413,6513.812290,-8142.265362,1608.800546
1344.371742,6069.688724,-7772.162391,1608.800546
1344.372071,5625.565159,-6809.894666,1149.143247
1344.372400,5477.523971,-6365.771101,153.219100
1344.372729,6513.812290,-6587.832884,229.828649
1344.373059,7550.100608,-6217.729913,1915.238745
1344.373388,8290.306550,-5477.523971,2528.115143
1344.373717,7476.080014,-5181.441594,1838.629195
1344.374046,6735.874072,-5477.523971,842.705048
1344.374375,6291.750507,-6365.771101,0.000000
1344.374705,6439.791695,-7105.977043,459.657299
1344.375034,6735.874072,-7550.100608,1762.019645
1344.375363,7328.038826,-7846.182985,1532.190996
1344.375692,6957.935855,-7105.977043,842.705048
1344.376021,6217.729913,-7105.977043,689.485948
1344.376351,6365.771101,-6809.894666,0.000000
1344.376680,7402.059420,-5921.647536,689.485948
1344.377009,8216.285956,-5181.441594,1685.410096
1344.377338,8068.244768,-5033.400406,1762.019645
1344.377667,7624.121203,-5773.606348,1532.190996
1344.377997,6365.771101,-6513.812290,536.266849
1344.378326,5699.585753,-7105.977043,0.000000
1344.378655,5699.585753,-8364.327145,612.876398
1344.378984,6217.729913,-7328.038826,1149.143247
1344.379313,6587.832884,-7105.977043,1608.800546
1344.379643,7031.956449,-6957.935855,1838.629195
1344.379972,7624.121203,-5181.441594,995.924147
1344.380301,7846.182985,-5921.647536,689.485948
1344.380630,8068.244768,-5773.606348,1608.800546
1344.380959,8216.285956,-5921.647536,2374.896044
1344.381289,8512.368333,-5403.503377,1455.581446
1344.381618,6957.935855,-5329.482782,995.924147
1344.381947,6587.832884,-6661.853478,612.876398
1344.382276,6809.894666,-6957.935855,1378.971896
1344.382605,6587.832884,-7105.977043,1455.581446
1344.382935,6735.874072,-6883.915261,1225.752797
1344.383264,6069.688724,-6365.771101,842.705048
1344.383593,5625.565159,-7476.080014,0.000000
1344.383922,5773.606348,-6661.853478,-153.219100
1344.384251,7031.956449,-7031.956449,306.438199
1344.384581,8438.347739,-6587.832884,1378.971896
1344.384910,9030.512492,-5921.647536,2528.115143
1344.385239,8364.327145,-7179.997637,2451.505594
1344.385568,7846.182985,-6069.688724,1302.362347
1344.385897,6439.791695,-6809.894666,76.609550
1344.386227,5773.606348,-7846.182985,383.047749
1344.386556,5921.647536,-8364.327145,995.924147
1344.386885,6587.832884,-8068.244768,1915.238745
1344.387214,6883.915261,-6365.771101,1838.629195
1344.387543,6513.812290,-5477.523971,383.047749
1344.387873,6513.812290,-5403.503377,306.438199
1344.388202,7031.956449,-5995.668130,919.314598
1344.388531,7254.018232,-6217.729913,1072.533697
1344.388860,7550.100608,-5329.482782,1991.848295
1344.389189,7031.956449,-6143.709319,1072.533697
1344.389519,6661.853478,-6735.874072,689.485948
1344.389848,6291.750507,-7476.080014,536.266849
1344.390177,7105.977043,-7624.121203,1455.581446
1344.390506,7328.038826,-7772.162391,1608.800546
1344.390835,7402.059420,-6735.874072,2145.067394
1344.391165,7031.956449,-6217.729913,842.705048
1344.391494,5773.606348,-5921.647536,0.000000
1344.391823,6069.688724,-5181.441594,153.219100
1344.392152,7402.059420,-6365.771101,689.485948
1344.392481,8660.409521,-5995.668130,2451.505594
1344.392811,8956.491898,-6291.750507,2451.505594
1344.393140,7624.121203,-6143.709319,995.924147
1344.393469,6513.812290,-6439.791695,383.047749
1344.393798,5477.523971,-7772.162391,536.266849
1344.394127,5403.503377,-8438.347739,229.828649
1344.394457,5921.647536,-7772.162391,1378.971896
1344.394786,6735.874072,-6957.935855,1225.752797
1344.395115,7105.977043,-6365.771101,1762.019645
1344.395444,7105.977043,-6291.750507,1608.800546
1344.395773,7254.018232,-5551.544565,612.876398
1344.396103,7105.977043,-4885.359217,1532.190996
1344.396432,7402.059420,-5477.523971,1378.971896
1344.396761,6957.935855,-5847.626942,1455.581446
1344.397090,6513.812290,-5625.565159,1455.581446
1344.397419,6513.812290,-7105.977043,383.047749
1344.397749,7179.997637,-6957.935855,1455.581446
1344.398078,7624.121203,-7105.977043,1991.848295
1344.398407,7772.162391,-7328.038826,1838.629195
1344.398736,7402.059420,-6587.832884,1532.190996
1344.399065,6735.874072,-6291.750507,383.047749
1344.399395,7105.977043,-6365.771101,0.000000
1344.399724,7105.977043,-5699.585753,612.876398
1344.400053,7624.121203,-5847.626942,1532.190996
1344.400382,8068.244768,-6143.709319,1991.848295
1344.400711,7402.059420,-6069.688724,1685.410096
1344.401040,6143.709319,-6957.935855,1149.143247
1344.401370,4959.379811,-8142.265362,306.438199
1344.401699,4885.359217,-8956.491898,229.828649
1344.402028,5107.421000,-8734.430116,689.485948
1344.402357,6069.688724,-8364.327145,1455.581446
1344.402686,6513.812290,-6809.894666,1072.533697
1344.403016,6809.894666,-6217.729913,0.000000
1344.403345,7105.977043,-6217.729913,0.000000
1344.403674,8068.244768,-6291.750507,1378.971896
1344.404003,9326.594869,-6291.750507,2068.457845
1344.404332,9252.574275,-5181.441594,2374.896044
1344.404662,7920.203579,-5255.462188,995.924147
1344.404991,6439.791695,-6069.688724,153.219100
1344.405320,5699.585753,-6883.915261,306.438199
1344.405649,5995.668130,-7254.018232,459.657299
1344.405978,6587.832884,-8512.368333,1378.971896
1344.406308,7254.018232,-6883.915261,1225.752797
1344.406637,6661.853478,-6217.729913,536.266849
1344.406966,6439.791695,-6883.915261,766.095498
1344.407295,7031.956449,-6217.729913,536.266849
1344.407624,7698.141797,-5995.668130,1225.752797
1344.407954,7772.162391,-5403.503377,1838.629195
1344.408283,7402.059420,-5477.523971,1838.629195
1344.408612,7328.038826,-6587.832884,1072.533697
1344.408941,6439.791695,-6957.935855,919.314598
1344.409270,5773.606348,-7846.182985,383.047749
1344.409600,6439.791695,-7994.224174,842.705048
1344.409929,7476.080014,-7105.977043,2528.115143
1344.410258,6661.853478,-6957.935855,1378.971896
1344.410587,6661.853478,-5033.400406,766.095498
1344.410916,6143.709319,-5403.503377,306.438199
1344.411246,7031.956449,-6291.750507,0.000000
1344.411575,8216.285956,-4959.379811,1302.362347
1344.411904,8586.388927,-6291.750507,2068.457845
1344.412233,8512.368333,-5329.482782,1608.800546
1344.412562,6957.935855,-5921.647536,842.705048
1344.412892,6291.750507,-6439.791695,-383.047749
1344.413221,6735.874072,-7105.977043,536.266849
1344.413550,6883.915261,-7920.203579,1455.581446
1344.413879,7105.977043,-6883.915261,1608.800546
1344.414208,6513.812290,-6291.750507,1149.143247
1344.414538,6217.729913,-6957.935855,229.828649
1344.414867,6883.915261,-5921.647536,0.000000
1344.415196,7402.059420,-6291.750507,1302.362347
1344.415525,8216.285956,-5477.523971,1915.238745
1344.415854,8142.265362,-5921.647536,2374.896044
1344.416184,7328.038826,-6143.709319,1608.800546
1344.416513,5625.565159,-7105.977043,153.219100
1344.416842,4811.338623,-8364.327145,0.000000
1344.417171,5329.482782,-9030.512492,919.314598
1344.417500,5921.647536,-8586.388927,995.924147
1344.417830,6069.688724,-7476.080014,1072.533697
1344.418159,5699.585753,-6735.874072,919.314598
1344.418488,6365.771101,-6883.915261,0.000000
1344.418817,7179.997637,-5847.626942,306.438199
1344.419146,8586.388927,-5329.482782,1608.800546
1344.419476,9178.553681,-4737.318029,1991.848295
1344.419805,9252.574275,-4737.318029,2068.457845
1344.420134,7994.224174,-4663.297435,919.314598
1344.420463,7476.080014,-5847.626942,995.924147
1344.420792,7105.977043,-6735.874072,842.705048
1344.421122,7105.977043,-7031.956449,995.924147
1344.421451,7105.977043,-7105.977043,1838.629195
1344.421780,7105.977043,-7105.977043,1762.019645
1344.422109,6513.812290,-5995.668130,919.314598
1344.422438,5847.626942,-5921.647536,0.000000
1344.422768,6957.935855,-6217.729913,229.828649
1344.423097,8290.306550,-6291.750507,1378.971896
1344.423426,7920.203579,-6809.894666,1685.410096
1344.423755,7179.997637,-7031.956449,2068.457845
1344.424084,6513.812290,-7550.100608,536.266849
1344.424414,5477.523971,-7550.100608,76.609550
1344.424743,4811.338623,-8438.347739,0.000000
1344.425072,5773.606348,-8660.409521,919.314598
1344.425401,6143.709319,-7328.038826,1149.143247
1344.425730,6513.812290,-6957.935855,1149.143247
1344.426060,6365.771101,-6587.832884,612.876398
1344.426389,6143.709319,-5699.585753,0.000000
1344.426718,7105.977043,-6069.688724,76.609550
1344.427047,7624.121203,-5403.503377,1608.800546
1344.427376,8068.244768,-5477.523971,2145.067394
1344.427706,8364.327145,-5329.482782,1685.410096
1344.428035,7624.121203,-5921.647536,842.705048
1344.428364,7031.956449,-6143.709319,536.266849
1344.428693,7179.997637,-7698.141797,995.924147
1344.429022,7550.100608,-7772.162391,2145.067394
1344.429352,7328.038826,-5699.585753,1991.848295
1344.429681,6957.935855,-6661.853478,995.924147
1344.430010,5995.668130,-5477.523971,229.828649
1344.430339,6291.750507,-6291.750507,536.266849
1344.430668,7254.018232,-6661.853478,1302.362347
1344.430998,8290.306550,-5551.544565,2298.286494
1344.431327,7624.121203,-6143.709319,1838.629195
1344.431656,6735.874072,-6069.688724,842.705048
1344.431985,5847.626942,-7402.059420,536.266849
1344.432314,5995.668130,-8586.388927,306.438199
1344.432644,6217.729913,-7920.203579,612.876398
1344.432973,6587.832884,-7698.141797,1455.581446
1344.433302,6661.853478,-6809.894666,995.924147
1344.433631,6291.750507,-6365.771101,842.705048
1344.433960,6513.812290,-6587.832884,229.828649
1344.434290,6957.935855,-5921.647536,536.266849
1344.434619,7772.162391,-6143.709319,1532.190996
1344.434948,8586.388927,-5033.400406,1532.190996
1344.435277,7624.121203,-5403.503377,1378.971896
1344.435606,6957.935855,-5847.626942,459.657299
1344.435935,5995.668130,-6809.894666,0.000000
1344.436265,6883.915261,-7105.977043,536.266849
1344.436594,7994.224174,-7254.018232,2068.457845
1344.436923,8512.368333,-6439.791695,2451.505594
1344.437252,7698.141797,-5551.544565,1915.238745
1344.437581,6439.791695,-5551.544565,153.219100
1344.437911,6365.771101,-5551.544565,0.000000
1344.438240,7179.997637,-5477.523971,536.266849
1344.438569,7994.224174,-6217.729913,1378.971896
1344.438898,7624.121203,-6513.812290,1838.629195
1344.439227,6883.915261,-6883.915261,1532.190996
1344.439557,6217.729913,-7402.059420,459.657299
1344.439886,5773.606348,-7994.224174,229.828649
1344.440215,6069.688724,-8586.388927,919.314598
1344.440544,5921.647536,-8660.409521,1225.752797
1344.440873,5847.626942,-7476.080014,1302.362347
1344.441203,6365.771101,-7105.977043,766.095498
1344.441532,6439.791695,-6291.750507,0.000000
1344.441861,7179.997637,-6513.812290,383.047749
1344.442190,7624.121203,-5625.565159,1149.143247
1344.442519,8586.388927,-5107.421000,1608.800546
1344.442848,8660.409521,-5107.421000,1762.019645
1344.443178,7624.121203,-4589.276840,995.924147
1344.443507,6957.935855,-5699.585753,536.266849
1344.443836,6809.894666,-6957.935855,536.266849
1344.444165,7179.997637,-7254.018232,1455.581446
1344.444494,7402.059420,-7179.997637,1762.019645
1344.444823,6809.894666,-6365.771101,1685.410096
1344.445152,6217.729913,-6513.812290,612.876398
1344.445481,5995.668130,-6809.894666,459.657299
1344.445811,6365.771101,-6217.729913,153.219100
1344.446140,7328.038826,-6957.935855,1302.362347
1344.446469,7994.224174,-6217.729913,1762.019645
1344.446798,7550.100608,-6069.688724,1455.581446
1344.447127,6365.771101,-6513.812290,612.876398
1344.447456,5477.523971,-7105.977043,76.609550
1344.447785,5921.647536,-8068.244768,229.828649
1344.448115,5921.647536,-8216.285956,995.924147
1344.448444,6143.709319,-7994.224174,1455.581446
1344.448773,6143.709319,-6661.853478,536.266849
1344.449102,5329.482782,-5921.647536,306.438199
1344.449431,6735.874072,-6439.791695,-229.828649
1344.449760,7920.203579,-5995.668130,1072.533697
1344.450089,9770.718434,-4663.297435,2374.896044
1344.450418,9548.656652,-4367.215058,2068.457845
1344.450748,8364.327145,-3997.112087,1072.533697
1344.451077,7031.956449,-5699.585753,689.485948
1344.451406,6809.894666,-6957.935855,842.705048
1344.451735,7179.997637,-7105.977043,1455.581446
1344.452064,7254.018232,-7031.956449,2451.505594
1344.452393,6809.894666,-6365.771101,2374.896044
1344.452722,6291.750507,-6291.750507,919.314598
1344.453052,5477.523971,-5699.585753,76.609550
1344.453381,5921.647536,-5699.585753,76.609550
1344.453710,7402.059420,-5625.565159,995.924147
1344.454039,8438.347739,-5921.647536,2604.724693
1344.454368,8142.265362,-7105.977043,2298.286494
1344.454697,6809.894666,-7031.956449,919.314598
1344.455026,6143.709319,-7402.059420,612.876398
1344.455356,6439.791695,-8956.491898,766.095498
1344.455685,6143.709319,-8364.327145,1225.752797
1344.456014,5995.668130,-8438.347739,1225.752797
1344.456343,6365.771101,-7105.977043,689.485948
1344.456672,5995.668130,-7105.977043,383.047749
1344.457001,5477.523971,-6883.915261,0.000000
1344.457330,6587.832884,-6513.812290,0.000000
1344.457659,7402.059420,-5921.647536,919.314598
1344.457989,8068.244768,-5847.626942,1455.581446
1344.458318,8512.368333,-5625.565159,1532.190996
1344.458647,7772.162391,-5477.523971,1302.362347
1344.458976,7254.018232,-6439.791695,689.485948
1344.459305,6883.915261,-6439.791695,1072.533697
1344.459634,7476.080014,-6439.791695,1455.581446
1344.459963,7550.100608,-7105.977043,1991.848295
1344.460293,7254.018232,-6217.729913,1532.190996
1344.460622,6513.812290,-5921.647536,383.047749
1344.460951,6809.894666,-6217.729913,0.000000
1344.461280,7254.018232,-6217.729913,1532.190996
1344.461609,8142.265362,-6143.709319,1991.848295
1344.461938,7920.203579,-5847.626942,1838.629195
1344.462267,6661.853478,-6439.791695,1149.143247
1344.462596,5847.626942,-7254.018232,0.000000
1344.462926,6217.729913,-7402.059420,0.000000
1344.463255,6291.750507,-8734.430116,766.095498
1344.463584,6661.853478,-8068.244768,1225.752797
1344.463913,6735.874072,-7624.121203,1532.190996
1344.464242,6439.791695,-6883.915261,766.095498
1344.464571,6439.791695,-6439.791695,383.047749
1344.464900,7254.018232,-5477.523971,383.047749
1344.465230,8216.285956,-4663.297435,689.485948
1344.465559,8734.430116,-5255.462188,1838.629195
1344.465888,8586.388927,-5255.462188,2145.067394
1344.466217,7846.182985,-5403.503377,1072.533697
1344.466546,6735.874072,-5773.606348,76.609550
1344.466875,5995.668130,-6883.915261,536.266849
1344.467204,6957.935855,-7402.059420,689.485948
1344.467534,6809.894666,-7920.203579,2451.505594
1344.467863,7105.977043,-6957.935855,1838.629195
1344.468192,6661.853478,-6587.832884,842.705048
1344.468521,6439.791695,-5995.668130,76.609550
1344.468850,6661.853478,-6439.791695,229.828649
1344.469179,7476.080014,-6587.832884,1302.362347
1344.469508,8290.306550,-5625.565159,2298.286494
1344.469837,8290.306550,-6735.874072,1915.238745
1344.470167,7105.977043,-6217.729913,1302.362347
1344.470496,6365.771101,-7254.018232,459.657299
1344.470825,5773.606348,-8290.306550,76.609550
1344.471154,5329.482782,-7920.203579,842.705048
1344.471483,5625.565159,-8586.388927,1532.190996
1344.471812,5995.668130,-7624.121203,1225.752797
1344.472141,5921.647536,-6365.771101,0.000000
1344.472471,6587.832884,-6143.709319,-153.219100
1344.472800,7179.997637,-5847.626942,995.924147
1344.473129,8142.265362,-5699.585753,2068.457845
1344.473458,8882.471304,-5181.441594,1762.019645
1344.473787,8364.327145,-4293.194464,1685.410096
1344.474116,7550.100608,-5107.421000,306.438199
1344.474445,6883.915261,-6143.709319,1072.533697
1344.474774,6809.894666,-7550.100608,1608.800546
1344.475104,7179.997637,-7105.977043,1685.410096
1344.475433,7031.956449,-7105.977043,1608.800546
1344.475762,6291.750507,-6365.771101,1608.800546
1344.476091,5329.482782,-6735.874072,229.828649
1344.476420,5995.668130,-7031.956449,0.000000
1344.476749,6661.853478,-6217.729913,689.485948
1344.477078,7476.080014,-6809.894666,1225.752797
1344.477408,7772.162391,-6291.750507,1915.238745
1344.477737,7105.977043,-6291.750507,1608.800546
1344.478066,6735.874072,-6957.935855,0.000000
1344.478395,6217.729913,-7105.977043,76.609550
1344.478724,6217.729913,-8364.327145,1072.533697
1344.479053,7105.977043,-7846.182985,1762.019645
1344.479382,7105.977043,-7179.997637,2145.067394
1344.479711,6809.894666,-6735.874072,459.657299
1344.480041,6143.709319,-6365.771101,0.000000
1344.480370,6735.874072,-6217.729913,383.047749
1344.480699,8142.265362,-5921.647536,1532.190996
1344.481028,8216.285956,-5107.421000,1991.848295
1344.481357,7846.182985,-4959.379811,1762.019645
1344.481686,6809.894666,-5181.441594,689.485948
1344.482015,6069.688724,-6587.832884,153.219100
1344.482345,6069.688724,-7179.997637,-383.047749
1344.482674,6513.812290,-7254.018232,1225.752797
1344.483003,7105.977043,-7476.080014,1685.410096
1344.483332,7179.997637,-6291.750507,1915.238745
1344.483661,6217.729913,-6661.853478,229.828649
1344.483990,6365.771101,-5477.523971,0.000000
1344.484319,6957.935855,-6513.812290,383.047749
1344.484649,8438.347739,-6587.832884,1532.190996
1344.484978,8956.491898,-5847.626942,2757.943793
1344.485307,8660.409521,-5921.647536,2145.067394
1344.485636,7254.018232,-5995.668130,1225.752797
1344.485965,5477.523971,-7476.080014,0.000000
1344.486294,5033.400406,-8512.368333,306.438199
1344.486623,5773.606348,-8438.347739,1378.971896
1344.486952,6809.894666,-7402.059420,1149.143247
1344.487282,6587.832884,-6587.832884,1072.533697
1344.487611,6439.791695,-6291.750507,766.095498
1344.487940,6957.935855,-6143.709319,229.828649
1344.488269,7402.059420,-5329.482782,842.705048
1344.488598,7476.080014,-4959.379811,2221.676944
1344.488927,7772.162391,-4811.338623,1915.238745
1344.489256,7846.182985,-5625.565159,1302.362347
1344.489586,7179.997637,-6513.812290,1378.971896
1344.489915,7179.997637,-7105.977043,766.095498
1344.490244,8290.306550,-6883.915261,1838.629195
1344.490573,7698.141797,-6069.688724,2145.067394
1344.490902,6883.915261,-6587.832884,1302.362347
1344.491231,5773.606348,-5995.668130,306.438199
1344.491560,5403.503377,-6365.771101,306.438199
1344.491889,6513.812290,-6587.832884,0.000000
1344.492219,8586.388927,-6143.709319,1762.019645
1344.492548,9030.512492,-5995.668130,2451.505594
1344.492877,8734.430116,-5773.606348,2068.457845
1344.493206,7698.141797,-5625.565159,919.314598
1344.493535,5847.626942,-6809.894666,0.000000
1344.493864,5625.565159,-8068.244768,0.000000
1344.494193,6439.791695,-8068.244768,1225.752797
1344.494523,6957.935855,-7698.141797,1149.143247
1344.494852,6513.812290,-7254.018232,1149.143247
1344.495181,6365.771101,-6809.894666,1225.752797
1344.495510,6735.874072,-6365.771101,383.047749
1344.495839,6809.894666,-5921.647536,612.876398
1344.496168,7402.059420,-5403.503377,1532.190996
1344.496497,7402.059420,-5625.565159,1915.238745
1344.496827,6735.874072,-5847.626942,1149.143247
1344.497156,5847.626942,-5699.585753,612.876398
1344.497485,6143.709319,-7179.997637,766.095498
1344.497814,6957.935855,-7550.100608,1608.800546
1344.498143,7179.997637,-7698.141797,2068.457845
1344.498472,7328.038826,-7550.100608,2145.067394
1344.498801,7031.956449,-6069.688724,1225.752797
1344.499130,7031.956449,-6439.791695,306.438199
1344.499460,6957.935855,-5551.544565,383.047749
1344.499789,7698.141797,-5773.606348,919.314598
1344.500118,9030.512492,-7031.956449,1838.629195
1344.500447,8142.265362,-5773.606348,2451.505594
1344.500776,7031.956449,-6661.853478,1378.971896
1344.501105,5921.647536,-7105.977043,306.438199
1344.501434,5329.482782,-7994.224174,76.609550
1344.501764,5033.400406,-8956.491898,383.047749
1344.502093,5255.462188,-7476.080014,842.705048
1344.502422,5995.668130,-7624.121203,1378.971896
1344.502751,6809.894666,-7328.038826,1149.143247
1344.503080,6809.894666,-6735.874072,689.485948
1344.503409,7031.956449,-6735.874072,536.266849
1344.503738,7698.141797,-6069.688724,1532.190996
1344.504067,7772.162391,-6217.729913,2145.067394
1344.504397,7772.162391,-5551.544565,1378.971896
1344.504726,7105.977043,-5477.523971,842.705048
1344.505055,6513.812290,-6439.791695,536.266849
1344.505384,6069.688724,-6883.915261,612.876398
1344.505713,6883.915261,-7179.997637,1302.362347
1344.506042,7476.080014,-6661.853478,995.924147
1344.506371,7402.059420,-6069.688724,1302.362347
1344.506701,7105.977043,-4959.379811,1225.752797
1344.507030,7105.977043,-5625.565159,612.876398
1344.507359,7402.059420,-5773.606348,612.876398
1344.507688,7994.224174,-5699.585753,1915.238745
1344.508017,8882.471304,-5329.482782,2145.067394
1344.508346,8364.327145,-6143.709319,1608.800546
1344.508675,6809.894666,-5921.647536,1072.533697
1344.509004,5699.585753,-8290.306550,76.609550
1344.509334,4811.338623,-8512.368333,76.609550
1344.509663,4959.379811,-8660.409521,1225.752797
1344.509992,6143.709319,-8956.491898,1532.190996
1344.510321,6587.832884,-7031.956449,995.924147
1344.510650,5847.626942,-6587.832884,306.438199
1344.510979,6513.812290,-6365.771101,459.657299
1344.511308,7772.162391,-5107.421000,1072.533697
1344.511638,8364.327145,-5107.421000,1915.238745
1344.511967,8290.306550,-5477.523971,1915.238745
1344.512296,7550.100608,-6217.729913,1685.410096
1344.512625,6809.894666,-6661.853478,689.485948
1344.512954,6069.688724,-7105.977043,612.876398
1344.513283,6809.894666,-6883.915261,1225.752797
1344.513612,7402.059420,-6809.894666,1915.238745
1344.513942,7698.141797,-7105.977043,1685.410096
1344.514271,7402.059420,-5329.482782,1072.533697
1344.514600,6439.791695,-5847.626942,0.000000
1344.514929,6957.935855,-6587.832884,153.219100
1344.515258,7920.203579,-6069.688724,1149.143247
1344.515587,8586.388927,-5995.668130,1915.238745
1344.515916,7920.203579,-6365.771101,2221.676944
1344.516245,7105.977043,-6587.832884,1455.581446
1344.516575,6513.812290,-7254.018232,689.485948
1344.516904,6069.688724,-8216.285956,536.266849
1344.517233,5921.647536,-8290.306550,689.485948
1344.517562,5921.647536,-8068.244768,1149.143247
1344.517891,6291.750507,-7920.203579,1608.800546
1344.518220,6365.771101,-7031.956449,995.924147
1344.518549,6735.874072,-6513.812290,536.266849
1344.518879,7031.956449,-5329.482782,995.924147
1344.519208,7550.100608,-5699.585753,1455.581446
1344.519537,7550.100608,-5403.503377,2145.067394
1344.519866,6735.874072,-5033.400406,1302.362347
1344.520195,6735.874072,-5773.606348,153.219100
1344.520524,6291.750507,-5921.647536,612.876398
1344.520853,6587.832884,-8142.265362,995.924147
1344.521182,7328.038826,-7846.182985,1685.410096
1344.521512,7254.018232,-7031.956449,2068.457845
1344.521841,7179.997637,-6735.874072,1225.752797
1344.522170,7105.977043,-6217.729913,689.485948
1344.522499,6661.853478,-5699.585753,76.609550
1344.522828,7550.100608,-6143.709319,689.485948
1344.523157,8882.471304,-5625.565159,2374.896044
1344.523486,9326.594869,-6069.688724,1838.629195
1344.523816,7031.956449,-5847.626942,1378.971896
1344.524145,5181.441594,-7105.977043,995.924147
1344.524474,4885.359217,-7994.224174,-306.438199
1344.524803,4811.338623,-8216.285956,383.047749
1344.525132,5921.647536,-7994.224174,1532.190996
1344.525461,6883.915261,-6735.874072,1302.362347
1344.525790,6957.935855,-6143.709319,1685.410096
1344.526120,6439.791695,-6291.750507,459.657299
1344.526449,6661.853478,-5995.668130,1072.533697
1344.526778,7846.182985,-6217.729913,1378.971896
1344.527107,8512.368333,-5995.668130,2604.724693
1344.527436,7994.224174,-5847.626942,1915.238745
1344.527765,6883.915261,-5921.647536,1378.971896
1344.528094,6143.709319,-6513.812290,383.047749
1344.528423,6069.688724,-7772.162391,612.876398
1344.528753,6587.832884,-6883.915261,995.924147
1344.529082,6957.935855,-7328.038826,1608.800546
1344.529411,7328.038826,-6365.771101,1455.581446
1344.529740,6513.812290,-5995.668130,383.047749
1344.530069,6291.750507,-6143.709319,-383.047749
1344.530398,7031.956449,-5625.565159,76.609550
1344.530727,8808.450710,-5625.565159,1685.410096
1344.531057,9770.718434,-5033.400406,2528.115143
1344.531386,8734.430116,-5847.626942,1915.238745
1344.531715,7179.997637,-5995.668130,995.924147
1344.532044,6217.729913,-7402.059420,0.000000
1344.532373,5625.565159,-8734.430116,306.438199
1344.532702,5403.503377,-8512.368333,1378.971896
1344.533031,5921.647536,-8586.388927,1378.971896
1344.533360,5403.503377,-7550.100608,919.314598
1344.533690,5329.482782,-6883.915261,459.657299
1344.534019,6217.729913,-5921.647536,459.657299
1344.534348,7328.038826,-5181.441594,689.485948
1344.534677,7920.203579,-5551.544565,1455.581446
1344.535006,7920.203579,-5329.482782,1532.190996
1344.535335,7846.182985,-5255.462188,1685.410096
1344.535664,7550.100608,-5773.606348,689.485948
1344.535994,7624.121203,-6217.729913,689.485948
1344.536323,7624.121203,-7105.977043,1532.190996
1344.536652,8290.306550,-7402.059420,1991.848295
1344.536981,7624.121203,-6513.812290,1532.190996
1344.537310,6587.832884,-6069.688724,842.705048
1344.537639,6291.750507,-6365.771101,0.000000
1344.537968,6513.812290,-6365.771101,612.876398
1344.538297,7254.018232,-6143.709319,1225.752797
1344.538627,8142.265362,-5403.503377,1838.629195
1344.538956,8068.244768,-5033.400406,2145.067394
1344.539285,7476.080014,-5403.503377,1225.752797
1344.539614,6661.853478,-6069.688724,689.485948
1344.539943,6587.832884,-7105.977043,383.047749
1344.540272,5847.626942,-8438.347739,919.314598
1344.540601,5995.668130,-7994.224174,1302.362347
1344.540931,6513.812290,-8068.244768,1532.190996
1344.541260,6439.791695,-7254.018232,612.876398
1344.541589,6143.709319,-7254.018232,766.095498
1344.541918,6587.832884,-7031.956449,383.047749
1344.542247,7031.956449,-5921.647536,919.314598
1344.542576,7476.080014,-5995.668130,1455.581446
1344.542905,7031.956449,-5551.544565,919.314598
1344.543235,6439.791695,-6217.729913,766.095498
1344.543564,6143.709319,-7105.977043,766.095498
1344.543893,6439.791695,-7328.038826,229.828649
1344.544222,6957.935855,-8364.327145,1532.190996
1344.544551,7402.059420,-7476.080014,2681.334243
1344.544880,7179.997637,-6883.915261,1149.143247
1344.545209,6069.688724,-5921.647536,-229.828649
1344.545538,6365.771101,-5329.482782,-995.924147
1344.545867,7105.977043,-6291.750507,612.876398
1344.546196,9326.594869,-5699.585753,2068.457845
1344.546525,9622.677246,-5847.626942,2757.943793
1344.546854,8586.388927,-5921.647536,1915.238745
1344.547183,6513.812290,-5921.647536,919.314598
1344.547512,5255.462188,-7179.997637,153.219100
1344.547841,5699.585753,-7476.080014,842.705048
1344.548170,6143.709319,-7179.997637,995.924147
1344.548499,5921.647536,-7476.080014,1225.752797
1344.548828,6291.750507,-6217.729913,1302.362347
1344.549157,6735.874072,-5847.626942,766.095498
1344.549486,7402.059420,-6143.709319,306.438199
1344.549815,8290.306550,-5033.400406,1225.752797
1344.550145,8660.409521,-6069.688724,1915.238745
1344.550474,8660.409521,-5551.544565,2068.457845
1344.550803,7328.038826,-5699.585753,1378.971896
1344.551132,6143.709319,-6809.894666,-306.438199
1344.551461,6143.709319,-7179.997637,76.609550
1344.551790,6365.771101,-7994.224174,995.924147
1344.552119,6957.935855,-7624.121203,1991.848295
1344.552448,6587.832884,-6439.791695,1378.971896
1344.552777,6143.709319,-6439.791695,612.876398
1344.553106,6291.750507,-6291.750507,153.219100
1344.553435,6883.915261,-6439.791695,536.266849
1344.553764,7994.224174,-5107.421000,1532.190996
1344.554093,9400.615463,-5403.503377,2681.334243
1344.554422,8660.409521,-5329.482782,2068.457845
1344.554751,7254.018232,-5995.668130,1378.971896
1344.555080,6143.709319,-7031.956449,76.609550
1344.555409,5995.668130,-8808.450710,459.657299
1344.555738,5699.585753,-8882.471304,1149.143247
1344.556067,5921.647536,-8364.327145,1762.019645
1344.556396,6513.812290,-6735.874072,1455.581446
1344.556725,6365.771101,-5995.668130,689.485948
1344.557054,6365.771101,-5699.585753,306.438199
1344.557383,7105.977043,-5995.668130,919.314598
1344.557712,7920.203579,-6217.729913,1149.143247
1344.558042,7698.141797,-5403.503377,1762.019645
1344.558371,7105.977043,-5995.668130,1072.533697
1344.558700,6513.812290,-5995.668130,383.047749
1344.559029,6217.729913,-7254.018232,306.438199
1344.559358,7105.977043,-7179.997637,842.705048
1344.559687,8142.265362,-7105.977043,1915.238745
1344.560016,7920.203579,-7105.977043,2145.067394
1344.560345,6661.853478,-6513.812290,1225.752797
1344.560674,5699.585753,-6143.709319,0.000000
1344.561003,5847.626942,-6513.812290,229.828649
1344.561332,7550.100608,-6217.729913,1225.752797
1344.561661,8512.368333,-5847.626942,2528.115143
1344.561990,8882.471304,-4885.359217,2681.334243
1344.562319,8290.306550,-5773.606348,1762.019645
1344.562648,7105.977043,-5699.585753,1302.362347
1344.562977,5625.565159,-7254.018232,-153.219100
1344.563306,4737.318029,-8290.306550,76.609550
1344.563635,5255.462188,-8216.285956,1072.533697
1344.563964,5403.503377,-8142.265362,842.705048
1344.564293,5699.585753,-7105.977043,536.266849
1344.564622,6365.771101,-6661.853478,383.047749
1344.564951,7550.100608,-7179.997637,612.876398
1344.565280,8142.265362,-5847.626942,1532.190996
1344.565610,8290.306550,-4959.379811,2221.676944
1344.565939,8808.450710,-4145.153275,1302.362347
1344.566268,7179.997637,-4885.359217,842.705048
1344.566597,6809.894666,-6587.832884,612.876398
1344.566926,7179.997637,-7105.977043,919.314598
1344.567255,8068.244768,-7105.977043,1072.533697
1344.567584,7254.018232,-7179.997637,1838.629195
1344.567913,6365.771101,-6957.935855,1685.410096
1344.568242,5995.668130,-6439.791695,229.828649
1344.568571,5847.626942,-6217.729913,-229.828649
1344.568900,6661.853478,-5995.668130,459.657299
1344.569229,7624.121203,-5995.668130,1685.410096
1344.569558,8216.285956,-5551.544565,2068.457845
1344.569887,7772.162391,-5773.606348,1762.019645
1344.570216,6957.935855,-6587.832884,1608.800546
1344.570545,6439.791695,-7550.100608,766.095498
1344.570874,6143.709319,-8216.285956,1532.190996
1344.571203,6217.729913,-7550.100608,1532.190996
1344.571532,6365.771101,-7105.977043,919.314598
1344.571861,6143.709319,-6365.771101,1378.971896
1344.572190,5921.647536,-6661.853478,0.000000
1344.572519,6735.874072,-6587.832884,306.438199
1344.572848,7624.121203,-5847.626942,612.876398
1344.573177,8512.368333,-6809.894666,1685.410096
1344.573507,8512.368333,-6365.771101,1838.629195
1344.573836,7105.977043,-6365.771101,1149.143247
1344.574165,5773.606348,-7402.059420,-383.047749
1344.574494,5773.606348,-6735.874072,-383.047749
1344.574823,7254.018232,-6957.935855,1838.629195
1344.575152,8586.388927,-7772.162391,2528.115143
1344.575481,8216.285956,-5921.647536,2451.505594
1344.575810,6809.894666,-5773.606348,919.314598
1344.576139,5699.585753,-5107.421000,-306.438199
1344.576468,6217.729913,-4737.318029,153.219100
1344.576797,8438.347739,-5699.585753,1378.971896
1344.577126,9326.594869,-5033.400406,2681.334243
1344.577455,8808.450710,-5255.462188,2145.067394
1344.577784,7179.997637,-5995.668130,1302.362347
1344.578113,6513.812290,-6143.709319,383.047749
1344.578442,5699.585753,-8882.471304,0.000000
1344.578771,5847.626942,-8586.388927,383.047749
1344.579100,5255.462188,-9030.512492,1302.362347
1344.579429,5699.585753,-8290.306550,1225.752797
1344.579758,6291.750507,-6809.894666,153.219100
1344.580087,6439.791695,-6513.812290,612.876398
1344.580416,7550.100608,-5847.626942,383.047749
1344.580745,8882.471304,-5921.647536,1149.143247
1344.581074,8290.306550,-5329.482782,2068.457845
1344.581404,7550.100608,-5699.585753,766.095498
1344.581733,7105.977043,-5699.585753,229.828649
1344.582062,6513.812290,-7179.997637,153.219100
1344.582391,7105.977043,-8364.327145,689.485948
1344.582720,7328.038826,-7624.121203,1378.971896
1344.583049,7179.997637,-7920.203579,1302.362347
1344.583378,6513.812290,-7698.141797,919.314598
1344.583707,5847.626942,-6735.874072,0.000000
1344.584036,5995.668130,-6809.894666,-306.438199
1344.584365,7105.977043,-5921.647536,1072.533697
1344.584694,7920.203579,-6069.688724,1762.019645
1344.585023,7772.162391,-5551.544565,1915.238745
1344.585352,7920.203579,-5477.523971,1915.238745
1344.585681,6809.894666,-6143.709319,1532.190996
1344.586010,6217.729913,-7105.977043,536.266849
1344.586339,6217.729913,-7994.224174,1149.143247
1344.586668,6587.832884,-7698.141797,1685.410096
1344.586997,6809.894666,-7402.059420,1685.410096
1344.587326,6735.874072,-6735.874072,1455.581446
1344.587655,6513.812290,-5995.668130,306.438199
1344.587984,6809.894666,-5921.647536,0.000000
1344.588313,7698.141797,-6291.750507,1608.800546
1344.588642,8364.327145,-5995.668130,2145.067394
1344.588972,8290.306550,-5403.503377,2145.067394
1344.589301,7328.038826,-4811.338623,1455.581446
1344.589630,6217.729913,-6217.729913,-229.828649
1344.589959,6587.832884,-6439.791695,76.609550
1344.590288,7105.977043,-7698.141797,1762.019645
1344.590617,7476.080014,-7031.956449,1685.410096
1344.590946,6735.874072,-6291.750507,1608.800546
1344.591275,5921.647536,-6069.688724,919.314598
1344.591604,6735.874072,-6217.729913,76.609550
1344.591933,6883.915261,-6365.771101,1072.533697
1344.592262,7624.121203,-6143.709319,1225.752797
1344.592591,8438.347739,-6069.688724,2145.067394
1344.592920,8438.347739,-5995.668130,2374.896044
1344.593249,6513.812290,-7179.997637,919.314598
1344.593578,5551.544565,-7698.141797,536.266849
1344.593907,5329.482782,-7994.224174,229.828649
1344.594236,5847.626942,-8216.285956,842.705048
1344.594565,6143.709319,-7328.038826,1915.238745
1344.594894,7031.956449,-6957.935855,1302.362347
1344.595223,6661.853478,-5847.626942,766.095498
1344.595552,6883.915261,-6069.688724,536.266849
1344.595881,7550.100608,-5625.565159,536.266849
1344.596210,7920.203579,-5107.421000,1532.190996
1344.596539,8142.265362,-5255.462188,1991.848295
1344.596869,7624.121203,-5551.544565,766.095498
1344.597198,6883.915261,-5921.647536,229.828649
1344.597527,6365.771101,-7402.059420,1072.533697
1344.597856,7624.121203,-7698.141797,766.095498
1344.598185,7179.997637,-7328.038826,1455.581446
1344.598514,7031.956449,-7105.977043,1608.800546
1344.598843,6365.771101,-6365.771101,536.266849
1344.599172,5995.668130,-6513.812290,229.828649
1344.599501,6365.771101,-6439.791695,612.876398
1344.599830,7550.100608,-5995.668130,919.314598
1344.600159,8216.285956,-5847.626942,1991.848295
1344.600488,7846.182985,-5921.647536,2221.676944
1344.600817,6809.894666,-6291.750507,689.485948
1344.601146,6291.750507,-6809.894666,0.000000
1344.601475,5255.462188,-8734.430116,-612.876398
1344.601804,5403.503377,-8660.409521,766.095498
1344.602133,6291.750507,-7920.203579,1302.362347
1344.602462,6809.894666,-7624.121203,919.314598
1344.602791,6883.915261,-6735.874072,689.485948
1344.603120,6735.874072,-6291.750507,229.828649
1344.603449,7254.018232,-5995.668130,612.876398
1344.603778,8290.306550,-4885.359217,1455.581446
1344.604107,9030.512492,-4663.297435,1838.629195
1344.604437,8290.306550,-4811.338623,1838.629195
1344.604766,7179.997637,-5033.400406,1302.362347
1344.605095,7031.956449,-5847.626942,689.485948
1344.605424,7179.997637,-6217.729913,1149.143247
1344.605753,7179.997637,-6291.750507,1608.800546
1344.606082,7550.100608,-6809.894666,1608.800546
1344.606411,6587.832884,-7105.977043,2221.676944
1344.606740,6069.688724,-7105.977043,842.705048
1344.607069,5773.606348,-6365.771101,-153.219100
1344.607398,6513.812290,-5921.647536,612.876398
1344.607727,7846.182985,-6217.729913,1608.800546
1344.608056,8068.244768,-6439.791695,2681.334243
1344.608385,7698.141797,-6217.729913,1915.238745
1344.608714,6883.915261,-6217.729913,153.219100
1344.609043,6217.729913,-7105.977043,153.219100
1344.609372,6365.771101,-7402.059420,1149.143247
1344.609701,7105.977043,-6957.935855,1225.752797
1344.610030,6883.915261,-7105.977043,1762.019645
1344.610359,7031.956449,-6883.915261,1302.362347
1344.610688,6883.915261,-5921.647536,383.047749
1344.611017,7105.977043,-5551.544565,689.485948
1344.611346,7698.141797,-5403.503377,1225.752797
1344.611675,7772.162391,-5995.668130,1455.581446
1344.612004,7550.100608,-6587.832884,2068.457845
1344.612334,6735.874072,-6513.812290,1302.362347
1344.612663,6217.729913,-5921.647536,536.266849
1344.612992,5921.647536,-7105.977043,306.438199
1344.613321,6291.750507,-8364.327145,1072.533697
1344.613650,6957.935855,-7994.224174,1915.238745
1344.613979,7031.956449,-5921.647536,1378.971896
1344.614308,6587.832884,-5847.626942,612.876398
1344.614637,6143.709319,-5551.544565,536.266849
1344.614966,7031.956449,-5625.565159,919.314598
1344.615295,8068.244768,-6069.688724,1685.410096
1344.615624,8734.430116,-5773.606348,1915.238745
1344.615953,7772.162391,-6217.729913,1762.019645
1344.616282,6661.853478,-6809.894666,536.266849
1344.616611,6143.709319,-7402.059420,459.657299
1344.616940,6069.688724,-8660.409521,612.876398
1344.617269,6291.750507,-8438.347739,1608.800546
1344.617598,6217.729913,-7254.018232,1225.752797
1344.617927,6365.771101,-6809.894666,1225.752797
1344.618256,7031.956449,-5995.668130,1072.533697
1344.618585,6661.853478,-5625.565159,459.657299
1344.618914,6587.832884,-5773.606348,459.657299
1344.619243,7105.977043,-5329.482782,1378.971896
1344.619572,8068.244768,-5477.523971,1915.238745
1344.619902,7920.203579,-5329.482782,1762.019645
1344.620231,6587.832884,-5181.441594,1762.019645
1344.620560,7031.956449,-6883.915261,766.095498
1344.620889,7402.059420,-7698.141797,1072.533697
1344.621218,7402.059420,-7328.038826,2451.505594
1344.621547,7772.162391,-7105.977043,2374.896044
1344.621876,6957.935855,-6513.812290,919.314598
1344.622205,6143.709319,-6217.729913,536.266849
1344.622534,6365.771101,-6661.853478,153.219100
1344.622863,6809.894666,-6291.750507,383.047749
1344.623192,7105.977043,-6291.750507,2145.067394
1344.623521,7105.977043,-6809.894666,1302.362347
1344.623850,6587.832884,-6735.874072,842.705048
1344.624179,5847.626942,-7254.018232,229.828649
1344.624508,5329.482782,-8438.347739,0.000000
1344.624837,5625.565159,-7846.182985,1149.143247
1344.625166,6439.791695,-7920.203579,1072.533697
1344.625495,6809.894666,-7476.080014,1225.752797
1344.625824,7105.977043,-6291.750507,1149.143247
1344.626153,7328.038826,-6661.853478,229.828649
1344.626482,7402.059420,-5921.647536,0.000000
1344.626811,7772.162391,-5403.503377,1378.971896
1344.627140,8660.409521,-4811.338623,1455.581446
1344.627469,8364.327145,-4737.318029,1608.800546
1344.627799,7105.977043,-5181.441594,1072.533697
1344.628128,6809.894666,-5773.606348,0.000000
1344.628457,6735.874072,-6291.750507,766.095498
1344.628786,7179.997637,-6809.894666,1378.971896
1344.629115,7402.059420,-7105.977043,2145.067394
1344.629444,7550.100608,-6661.853478,1532.190996
1344.629773,6809.894666,-6883.915261,842.705048
1344.630102,6365.771101,-6365.771101,153.219100
1344.630431,7254.018232,-6291.750507,766.095498
1344.630760,8438.347739,-5699.585753,1149.143247
1344.631089,8438.347739,-5921.647536,1762.019645
1344.631418,7624.121203,-6365.771101,1532.190996
1344.631747,6735.874072,-7105.977043,383.047749
1344.632076,5477.523971,-8068.244768,76.609550
1344.632405,4959.379811,-9252.574275,459.657299
1344.632734,5625.565159,-8734.430116,689.485948
1344.633063,6365.771101,-7179.997637,1149.143247
1344.633392,6661.853478,-6661.853478,766.095498
1344.633721,7624.121203,-6143.709319,1149.143247
1344.634050,8142.265362,-5699.585753,1149.143247
1344.634379,8512.368333,-5181.441594,1072.533697
1344.634708,7994.224174,-5773.606348,1991.848295
1344.635037,7772.162391,-5329.482782,1762.019645
1344.635367,6735.874072,-5699.585753,1762.019645
1344.635696,6365.771101,-6587.832884,1072.533697
1344.636025,6439.791695,-6809.894666,1149.143247
1344.636354,7031.956449,-7179.997637,1455.581446
1344.636683,7254.018232,-6735.874072,2604.724693
1344.637012,6365.771101,-6365.771101,1225.752797
1344.637341,5773.606348,-6143.709319,612.876398
1344.637670,5847.626942,-6069.688724,0.000000
1344.637999,6661.853478,-6291.750507,0.000000
1344.638328,8068.244768,-5847.626942,1685.410096
1344.638657,8882.471304,-5847.626942,2604.724693
1344.638986,8586.388927,-6217.729913,1991.848295
1344.639315,7105.977043,-6587.832884,842.705048
1344.639644,5625.565159,-7476.080014,229.828649
1344.639973,5921.647536,-8808.450710,229.828649
1344.640302,5773.606348,-8882.471304,1149.143247
1344.640631,5847.626942,-8216.285956,1302.362347
1344.640960,5403.503377,-7476.080014,536.266849
1344.641289,5329.482782,-6735.874072,1378.971896
1344.641618,5995.668130,-6661.853478,306.438199
1344.641947,7031.956449,-5699.585753,459.657299
1344.642276,7698.141797,-5403.503377,1225.752797
1344.642606,7994.224174,-5181.441594,1685.410096
1344.642935,8142.265362,-4811.338623,1915.238745
1344.643264,7698.141797,-4663.297435,1378.971896
1344.643593,7402.059420,-5995.668130,842.705048
1344.643922,7476.080014,-6587.832884,1455.581446
1344.644251,8290.306550,-7105.977043,2298.286494
1344.644580,7920.203579,-7550.100608,2374.896044
1344.644910,6809.894666,-6069.688724,1608.800546
1344.645239,5625.565159,-6439.791695,229.828649
1344.645568,5625.565159,-6735.874072,-459.657299
1344.645897,7254.018232,-6069.688724,536.266849
1344.646226,8142.265362,-6587.832884,1685.410096
1344.646555,8216.285956,-5921.647536,1991.848295
1344.646884,7105.977043,-6883.915261,1149.143247
1344.647213,6365.771101,-6735.874072,536.266849
1344.647543,6143.709319,-8142.265362,0.000000
1344.647872,5773.606348,-8956.491898,536.266849
1344.648201,5921.647536,-7402.059420,536.266849
1344.648530,6439.791695,-7698.141797,919.314598
1344.648859,6809.894666,-6291.750507,1149.143247
1344.649188,6809.894666,-6661.853478,995.924147
1344.649517,7031.956449,-6217.729913,995.924147
1344.649847,7105.977043,-5255.462188,919.314598
1344.650176,7476.080014,-5329.482782,1378.971896
1344.650505,7846.182985,-5033.400406,1762.019645
1344.650834,7476.080014,-5847.626942,1608.800546
1344.651163,7105.977043,-6365.771101,1225.752797
1344.651492,7031.956449,-6291.750507,919.314598
1344.651821,7179.997637,-6661.853478,1455.581446
1344.652151,7105.977043,-6809.894666,1455.581446
1344.652480,6883.915261,-7031.956449,1378.971896
1344.652809,6587.832884,-6809.894666,459.657299
1344.653138,6513.812290,-6143.709319,0.000000
1344.653467,7772.162391,-5699.585753,0.000000
1344.653796,8068.244768,-5847.626942,1302.362347
1344.654125,8660.409521,-5921.647536,1838.629195
1344.654455,7698.141797,-6217.729913,1378.971896
1344.654784,6809.894666,-7254.018232,1302.362347
1344.655113,6291.750507,-7402.059420,842.705048
1344.655442,5773.606348,-8660.409521,689.485948
1344.655771,5921.647536,-8438.347739,1302.362347
1344.656100,5995.668130,-7550.100608,842.705048
1344.656429,5847.626942,-7105.977043,766.095498
1344.656759,5625.565159,-6809.894666,229.828649
1344.657088,6439.791695,-6365.771101,689.485948
1344.657417,7920.203579,-5773.606348,1225.752797
1344.657746,8068.244768,-5107.421000,1838.629195
1344.658075,8290.306550,-4737.318029,1991.848295
1344.658404,7698.141797,-4885.359217,1225.752797
1344.658733,6735.874072,-5847.626942,766.095498
1344.659063,6587.832884,-6661.853478,459.657299
1344.659392,7105.977043,-7328.038826,1378.971896
1344.659721,7105.977043,-7105.977043,1838.629195
1344.660050,7550.100608,-7402.059420,1685.410096
1344.660379,6661.853478,-7402.059420,1532.190996
1344.660708,6735.874072,-5847.626942,306.438199
1344.661037,7031.956449,-5847.626942,919.314598
1344.661367,7920.203579,-5773.606348,995.924147
1344.661696,8068.244768,-5773.606348,1608.800546
1344.662025,7624.121203,-6439.791695,1685.410096
1344.662354,6365.771101,-6365.771101,1302.362347
1344.662683,5403.503377,-7031.956449,0.000000
1344.663012,4959.379811,-8216.285956,0.000000
1344.663341,5625.565159,-8882.471304,1149.143247
1344.663670,6069.688724,-8734.430116,1455.581446
1344.664000,6365.771101,-7031.956449,1608.800546
1344.664329,6661.853478,-6735.874072,1149.143247
1344.664658,7254.018232,-6439.791695,612.876398
1344.664987,7254.018232,-6365.771101,995.924147
1344.665316,7846.182985,-5921.647536,1455.581446
1344.665645,7846.182985,-5403.503377,1072.533697
1344.665974,7550.100608,-5477.523971,1685.410096
1344.666304,6661.853478,-6143.709319,536.266849
1344.666633,5921.647536,-6883.915261,0.000000
1344.666962,5181.441594,-7476.080014,995.924147
1344.667291,6217.729913,-8142.265362,766.095498
1344.667620,5699.585753,-8808.450710,1072.533697
1344.667949,5625.565159,-7994.224174,842.705048
1344.668278,5477.523971,-7698.141797,306.438199
1344.668608,6513.812290,-7550.100608,229.828649
1344.668937,6883.915261,-7476.080014,995.924147
1344.669266,7846.182985,-6957.935855,1762.019645
1344.669595,8142.265362,-6069.688724,2374.896044
1344.669924,7624.121203,-6069.688724,1378.971896
1344.670253,5995.668130,-6957.935855,1302.362347
1344.670582,5329.482782,-7994.224174,766.095498
1344.670912,5181.441594,-8438.347739,383.047749
1344.671241,4885.359217,-7920.203579,536.266849
1344.671570,5107.421000,-8512.368333,766.095498
1344.671899,4811.338623,-8808.450710,689.485948
1344.672228,5033.400406,-8438.347739,919.314598
1344.672557,5847.626942,-7698.141797,536.266849
1344.672886,6587.832884,-6735.874072,842.705048
1344.673216,6883.915261,-6587.832884,2068.457845
1344.673545,7105.977043,-6735.874072,1915.238745
1344.673874,6809.894666,-7031.956449,1991.848295
1344.674203,6217.729913,-7402.059420,1378.971896
1344.674532,5773.606348,-7105.977043,1685.410096
1344.674861,5403.503377,-7698.141797,1378.971896
1344.675190,5107.421000,-7772.162391,1762.019645
1344.675520,4219.173869,-8882.471304,1455.581446
1344.675849,4219.173869,-9178.553681,1072.533697
1344.676178,3997.112087,-8956.491898,1072.533697
1344.676507,3627.009116,-9104.533087,1149.143247
1344.676836,4219.173869,-8290.306550,919.314598
1344.677165,5477.523971,-8068.244768,1072.533697
1344.677494,5773.606348,-7031.956449,1685.410096
1344.677824,5773.606348,-7550.100608,1762.019645
1344.678153,6735.874072,-8068.244768,2374.896044
1344.678482,6217.729913,-8290.306550,2221.676944
1344.678811,4959.379811,-8882.471304,1915.238745
1344.679140,3701.029710,-9252.574275,536.266849
1344.679469,1850.514855,-10140.821405,-306.438199
1344.679798,1110.308913,-11325.150913,-76.609550
1344.680128,1628.453072,-13249.686362,-153.219100
1344.680457,3034.844362,-13323.706956,842.705048
1344.680786,4367.215058,-11325.150913,1455.581446
1344.681115,4737.318029,-9992.780217,1608.800546
1344.681444,5107.421000,-7031.956449,1302.362347
1344.681773,5699.585753,-6735.874072,842.705048
1344.682102,6587.832884,-4959.379811,1378.971896
1344.682431,6661.853478,-5847.626942,1378.971896
1344.682761,6661.853478,-6809.894666,1302.362347
1344.683090,6143.709319,-7994.224174,1302.362347
1344.683419,4737.318029,-9992.780217,1149.143247
1344.683748,4071.132681,-10436.903782,919.314598
1344.684077,2664.741391,-11325.150913,76.609550
1344.684406,2738.761985,-10288.862594,-383.047749
1344.684735,3330.926739,-11029.068536,-612.876398
1344.685065,4663.297435,-10807.006753,229.828649
1344.685394,5329.482782,-9770.718434,842.705048
1344.685723,5773.606348,-8586.388927,1072.533697
1344.686052,6513.812290,-6735.874072,2451.505594
1344.686381,7105.977043,-5477.523971,2451.505594
1344.686710,7698.141797,-5033.400406,3217.601092
1344.687039,7328.038826,-4145.153275,2987.772442
1344.687369,6291.750507,-4219.173869,1455.581446
1344.687698,5329.482782,-4071.132681,0.000000
1344.688027,4959.379811,-5847.626942,0.000000
1344.688356,5329.482782,-8142.265362,229.828649
1344.688685,5477.523971,-10066.800811,536.266849
1344.689014,4959.379811,-11473.192101,1608.800546
1344.689343,4959.379811,-11991.336260,766.095498
1344.689673,4515.256246,-11399.171507,919.314598
1344.690002,4293.194464,-11103.089130,459.657299
1344.690331,3849.070898,-10732.986159,536.266849
1344.690660,4071.132681,-9992.780217,306.438199
1344.690989,3923.091493,-9622.677246,612.876398
1344.691318,4219.173869,-8734.430116,1838.629195
1344.691647,5033.400406,-6735.874072,919.314598
1344.691977,5773.606348,-4959.379811,1149.143247
1344.692306,6365.771101,-3775.050304,1608.800546
1344.692635,7550.100608,-4145.153275,1532.190996
1344.692964,7402.059420,-4737.318029,1991.848295
1344.693293,6143.709319,-7328.038826,1991.848295
1344.693622,5403.503377,-9252.574275,1378.971896
1344.693951,4589.276840,-11991.336260,1608.800546
1344.694281,4441.235652,-13545.768739,2145.067394
1344.694610,4071.132681,-12805.562797,2068.457845
1344.694939,4145.153275,-12139.377449,1838.629195
1344.695268,3997.112087,-9918.759623,1991.848295
1344.695597,3552.988522,-8142.265362,1072.533697
1344.695926,3330.926739,-5995.668130,0.000000
1344.696255,2886.803174,-5847.626942,0.000000
1344.696585,3404.947333,-6809.894666,-536.266849
1344.696914,4071.132681,-6587.832884,0.000000
1344.697243,4885.359217,-8512.368333,306.438199
1344.697572,5699.585753,-9252.574275,536.266849
1344.697901,5329.482782,-11103.089130,995.924147
1344.698230,4515.256246,-12287.418637,919.314598
1344.698559,4441.235652,-12879.583391,1072.533697
1344.698888,4737.318029,-11843.295072,1838.629195
1344.699218,4589.276840,-10658.965565,1991.848295
1344.699547,5107.421000,-9326.594869,2528.115143
1344.699876,5847.626942,-7550.100608,3447.429741
1344.700205,6217.729913,-6217.729913,3677.258390
1344.700534,6957.935855,-4663.297435,3677.258390
1344.700863,6143.709319,-3701.029710,2451.505594
1344.701192,5921.647536,-4515.256246,1838.629195
1344.701522,4737.318029,-5921.647536,995.924147
1344.701851,4367.215058,-7031.956449,536.266849
1344.702180,3997.112087,-9400.615463,0.000000
1344.702509,4145.153275,-10658.965565,842.705048
1344.702838,4737.318029,-12509.480420,1149.143247
1344.703167,5255.462188,-12879.583391,1762.019645
1344.703496,5551.544565,-12287.418637,2604.724693
1344.703826,6217.729913,-10510.924376,2681.334243
1344.704155,6809.894666,-7920.203579,3753.867940
1344.704484,6809.894666,-6513.812290,3983.696590
1344.704813,6957.935855,-3775.050304,4213.525239
1344.705142,7105.977043,-2812.782580,3294.210641
1344.705471,7994.224174,-2664.741391,3294.210641
1344.705800,7920.203579,-3627.009116,2987.772442
1344.706130,7105.977043,-4589.276840,3294.210641
1344.706459,6439.791695,-5551.544565,2757.943793
1344.706788,5995.668130,-7402.059420,1838.629195
1344.707117,6291.750507,-8882.471304,3753.867940
1344.707446,6957.935855,-9474.636058,3677.258390
1344.707775,7179.997637,-9252.574275,3983.696590
1344.708104,6217.729913,-8068.244768,4136.915689
1344.708434,6069.688724,-7402.059420,3753.867940
1344.708763,6587.832884,-5921.647536,3983.696590
1344.709092,6957.935855,-5329.482782,4519.963438
1344.709421,7105.977043,-4293.194464,4366.744339
1344.709750,7698.141797,-4441.235652,4903.011187
1344.710079,8364.327145,-3923.091493,4903.011187
1344.710408,7920.203579,-4293.194464,4136.915689
1344.710738,7698.141797,-4515.256246,4136.915689
1344.711067,7476.080014,-6513.812290,4060.306139
1344.711396,7105.977043,-8216.285956,3524.039291
1344.711725,6587.832884,-9252.574275,4136.915689
1344.712054,4811.338623,-10584.944971,3217.601092
1344.712383,4737.318029,-11251.130318,3907.087040
1344.712712,3923.091493,-11843.295072,3370.820191
1344.713042,3775.050304,-10436.903782,3524.039291
1344.713371,4367.215058,-8882.471304,4290.134789
1344.713700,5329.482782,-6439.791695,4443.353888
1344.714029,6365.771101,-5551.544565,5056.230287
1344.714358,7624.121203,-4737.318029,5745.716235
1344.714687,8438.347739,-3997.112087,5898.935335
1344.715016,9104.533087,-3182.885551,5822.325785
1344.715345,9400.615463,-2368.659014,5975.544884
1344.715675,9326.594869,-3034.844362,5209.449386
1344.716004,9252.574275,-4441.235652,4903.011187
1344.716333,9474.636058,-5551.544565,5515.887586
1344.716662,8290.306550,-6587.832884,4979.620737
1344.716991,7550.100608,-7254.018232,4826.401637
1344.717320,5847.626942,-8956.491898,4060.306139
1344.717649,4737.318029,-9548.656652,3753.867940
1344.717979,3849.070898,-10066.800811,3753.867940
1344.718308,2886.803174,-9844.739029,3983.696590
1344.718637,2442.679609,-9252.574275,2911.162892
1344.718966,2886.803174,-8660.409521,3524.039291
1344.719295,4441.235652,-7179.997637,3447.429741
1344.719624,6291.750507,-6365.771101,4519.963438
1344.719953,8364.327145,-5329.482782,5209.449386
1344.720283,9770.718434,-3923.091493,5362.668486
1344.720612,10362.883188,-2664.741391,6052.154434
1344.720941,10510.924376,-1924.535449,5439.278036
1344.721270,9548.656652,-2664.741391,4443.353888
1344.721599,8660.409521,-4293.194464,4213.525239
1344.721928,7402.059420,-6587.832884,3677.258390
1344.722257,6809.894666,-7994.224174,3294.210641
1344.722587,5625.565159,-8660.409521,2528.115143
1344.722916,4441.235652,-9030.512492,2528.115143
1344.723245,4367.215058,-9474.636058,2834.553343
1344.723574,5181.441594,-8660.409521,3524.039291
1344.723903,5847.626942,-7402.059420,3830.477490
1344.724232,7105.977043,-5329.482782,4136.915689
1344.724561,8956.491898,-4293.194464,3983.696590
1344.724891,9548.656652,-4293.194464,4136.915689
1344.725220,9326.594869,-4663.297435,3830.477490
1344.725549,8586.388927,-5551.544565,3294.210641
1344.725878,7105.977043,-6143.709319,2757.943793
1344.726207,5921.647536,-7698.141797,2528.115143
1344.726536,5477.523971,-8586.388927,3064.381992
1344.726865,5773.606348,-8660.409521,2681.334243
1344.727195,5773.606348,-8216.285956,3447.429741
1344.727524,6513.812290,-7105.977043,3677.258390
1344.727853,7624.121203,-6957.935855,4519.963438
1344.728182,8364.327145,-5699.585753,4596.572988
1344.728511,8142.265362,-5033.400406,4060.306139
1344.728840,7254.018232,-4367.215058,3830.477490
1344.729169,7698.141797,-3701.029710,3830.477490
1344.729499,8216.285956,-3849.070898,3524.039291
1344.729828,8882.471304,-3478.967927,3677.258390
1344.730157,9030.512492,-4515.256246,4213.525239
1344.730486,8512.368333,-5921.647536,4213.525239
1344.730815,6809.894666,-8438.347739,3600.648841
1344.731144,4811.338623,-10288.862594,2911.162892
1344.731473,3256.906145,-10807.006753,1991.848295
1344.731802,2960.823768,-11399.171507,2374.896044
1344.732132,3478.967927,-10214.842000,2298.286494
1344.732461,4441.235652,-8290.306550,2528.115143
1344.732790,5921.647536,-5551.544565,3217.601092
1344.733119,7624.121203,-4737.318029,3600.648841
1344.733448,8586.388927,-3923.091493,4673.182538
1344.733777,9178.553681,-2738.761985,4443.353888
1344.734106,9178.553681,-3034.844362,4060.306139
1344.734436,9770.718434,-2442.679609,4290.134789
1344.734765,9992.780217,-3404.947333,3753.867940
1344.735094,9474.636058,-4737.318029,3524.039291
1344.735423,8290.306550,-6809.894666,2834.553343
1344.735752,6513.812290,-8882.471304,1378.971896
1344.736081,4071.132681,-10214.842000,1225.752797
1344.736410,2812.782580,-12805.562797,1762.019645
1344.736740,3552.988522,-12139.377449,1991.848295
1344.737069,3404.947333,-10510.924376,1762.019645
1344.737398,3849.070898,-8364.327145,1762.019645
1344.737727,5329.482782,-5181.441594,1838.629195
1344.738056,8142.265362,-4145.153275,3677.258390
1344.738385,9326.594869,-3923.091493,4290.134789
1344.738714,9770.718434,-740.205942,3830.477490
1344.739044,10510.924376,-222.061783,3907.087040
1344.739373,11473.192101,-962.267725,3447.429741
1344.739702,10881.027347,-3849.070898,3983.696590
1344.740031,9178.553681,-6143.709319,3217.601092
1344.740360,7179.997637,-8216.285956,1838.629195
1344.740689,5551.544565,-9696.697840,1302.362347
1344.741018,4515.256246,-10955.047942,1455.581446
1344.741348,4663.297435,-11843.295072,919.314598
1344.741677,3997.112087,-10807.006753,383.047749
1344.742006,3256.906145,-8734.430116,536.266849
1344.742335,3923.091493,-5921.647536,-383.047749
1344.742664,6439.791695,-5255.462188,1838.629195
1344.742993,9178.553681,-3997.112087,2911.162892
1344.743322,10807.006753,-2960.823768,3294.210641
1344.743652,10288.862594,-2368.659014,2911.162892
1344.743981,9252.574275,-2368.659014,1991.848295
1344.744310,8068.244768,-4367.215058,919.314598
1344.744639,7105.977043,-5773.606348,995.924147
1344.744968,6735.874072,-7772.162391,1072.533697
1344.745297,6439.791695,-10510.924376,1455.581446
1344.745626,5995.668130,-11177.109724,1915.238745
1344.745955,4959.379811,-9992.780217,842.705048
1344.746284,4811.338623,-8586.388927,459.657299
1344.746614,5107.421000,-6883.915261,0.000000
1344.746943,6513.812290,-6217.729913,842.705048
1344.747272,7698.141797,-4589.276840,1225.752797
1344.747601,8216.285956,-4367.215058,1915.238745
1344.747930,7624.121203,-3849.070898,1455.581446
1344.748259,6735.874072,-3701.029710,612.876398
1344.748588,5921.647536,-4811.338623,306.438199
1344.748917,7254.018232,-5625.565159,306.438199
1344.749246,7920.203579,-6513.812290,612.876398
1344.749575,8290.306550,-7179.997637,612.876398
1344.749905,7254.018232,-9030.512492,536.266849
1344.750234,6587.832884,-9252.574275,612.876398
1344.750563,6291.750507,-9474.636058,536.266849
1344.750892,6365.771101,-9104.533087,842.705048
1344.751221,6735.874072,-8216.285956,995.924147
1344.751550,6661.853478,-7105.977043,1149.143247
1344.751879,6365.771101,-6143.709319,612.876398
1344.752208,6661.853478,-4737.318029,766.095498
1344.752537,6735.874072,-4811.338623,919.314598
1344.752866,7254.018232,-5329.482782,995.924147
1344.753196,7624.121203,-5477.523971,2145.067394
1344.753525,7254.018232,-5255.462188,1072.533697
1344.753854,7179.997637,-4811.338623,1225.752797
1344.754183,7476.080014,-5625.565159,1072.533697
1344.754512,7846.182985,-7105.977043,1072.533697
1344.754841,7846.182985,-7402.059420,1072.533697
1344.755170,7105.977043,-8808.450710,383.047749
1344.755499,6217.729913,-9326.594869,919.314598
1344.755828,5033.400406,-9104.533087,383.047749
1344.756157,5107.421000,-9252.574275,536.266849
1344.756487,5847.626942,-6735.874072,842.705048
1344.756816,7624.121203,-5403.503377,1149.143247
1344.757145,7772.162391,-5403.503377,1455.581446
1344.757474,6957.935855,-3330.926739,919.314598
1344.757803,6143.709319,-3404.947333,-612.876398
1344.758132,7105.977043,-4071.132681,306.438199
1344.758461,8734.430116,-4367.215058,1991.848295
1344.758790,9474.636058,-5921.647536,2451.505594
1344.759119,8512.368333,-6069.688724,2374.896044
1344.759448,7179.997637,-7402.059420,689.485948
1344.759778,5477.523971,-8290.306550,612.876398
1344.760107,5329.482782,-8734.430116,383.047749
1344.760436,5181.441594,-9474.636058,1532.190996
1344.760765,5477.523971,-7920.203579,1455.581446
1344.761094,5403.503377,-7105.977043,995.924147
1344.761423,5847.626942,-5477.523971,1302.362347
1344.761752,7254.018232,-4737.318029,1838.629195
1344.762081,8364.327145,-3849.070898,2451.505594
1344.762410,8660.409521,-4071.132681,1915.238745
1344.762739,9104.533087,-4441.235652,1532.190996
1344.763069,8586.388927,-4663.297435,1149.143247
1344.763398,7624.121203,-6587.832884,536.266849
1344.763727,7031.956449,-8142.265362,536.266849
1344.764056,6587.832884,-8882.471304,1149.143247
1344.764385,7328.038826,-9696.697840,842.705048
1344.764714,7254.018232,-9548.656652,1302.362347
1344.765043,7105.977043,-9474.636058,1072.533697
1344.765372,6513.812290,-7550.100608,-229.828649
1344.765701,5477.523971,-6143.709319,229.828649
1344.766030,6661.853478,-5107.421000,919.314598
1344.766360,7772.162391,-5107.421000,1991.848295
1344.766689,8364.327145,-4811.338623,2068.457845
1344.767018,7550.100608,-4737.318029,1762.019645
1344.767347,6587.832884,-5551.544565,1685.410096
1344.767676,6735.874072,-6661.853478,1455.581446
1344.768005,6661.853478,-7476.080014,1685.410096
1344.768334,6365.771101,-7772.162391,766.095498
1344.768663,5995.668130,-7402.059420,612.876398
1344.768992,5403.503377,-7476.080014,-229.828649
1344.769321,5181.441594,-7624.121203,536.266849
1344.769651,6809.894666,-7624.121203,1378.971896
1344.769980,7994.224174,-6809.894666,2068.457845
1344.770309,7772.162391,-5773.606348,2451.505594
1344.770638,7772.162391,-6291.750507,1991.848295
1344.770967,7105.977043,-6735.874072,1608.800546
1344.771296,5551.544565,-5921.647536,383.047749
1344.771625,4367.215058,-5699.585753,-306.438199
1344.771954,5403.503377,-4737.318029,0.000000
1344.772283,7179.997637,-5033.400406,229.828649
1344.772612,8142.265362,-6217.729913,995.924147
1344.772942,8364.327145,-6957.935855,1915.238745
1344.773271,8142.265362,-6661.853478,1685.410096
1344.773600,8068.244768,-5699.585753,1685.410096
1344.773929,7994.224174,-6291.750507,1915.238745
1344.774258,7698.141797,-6143.709319,1302.362347
1344.774587,7179.997637,-6513.812290,153.219100
1344.774916,5625.565159,-7254.018232,-383.047749
1344.775245,5403.503377,-7328.038826,-306.438199
1344.775574,6143.709319,-8068.244768,459.657299
1344.775903,6661.853478,-9400.615463,1838.629195
1344.776233,6735.874072,-8216.285956,1149.143247
1344.776562,6513.812290,-7550.100608,1149.143247
1344.776891,6883.915261,-6439.791695,612.876398
1344.777220,7624.121203,-4737.318029,1072.533697
1344.777549,8808.450710,-3330.926739,2145.067394
1344.777878,9770.718434,-4367.215058,1225.752797
1344.778207,8660.409521,-4959.379811,842.705048
1344.778536,6439.791695,-5995.668130,536.266849
1344.778865,5403.503377,-6217.729913,-689.485948
1344.779195,4959.379811,-7550.100608,0.000000
1344.779524,6069.688724,-8142.265362,766.095498
1344.779853,7328.038826,-8512.368333,842.705048
1344.780182,7994.224174,-8808.450710,1762.019645
1344.780511,7624.121203,-7105.977043,1072.533697
1344.780840,6587.832884,-5329.482782,-229.828649
1344.781169,6809.894666,-4811.338623,0.000000
1344.781498,7402.059420,-4589.276840,1225.752797
1344.781827,8290.306550,-4663.297435,1685.410096
1344.782156,8660.409521,-5329.482782,1991.848295
1344.782486,7698.141797,-5921.647536,919.314598
1344.782815,6365.771101,-8142.265362,1302.362347
1344.783144,5921.647536,-8512.368333,1762.019645
1344.783473,5477.523971,-7994.224174,1838.629195
1344.783802,5329.482782,-7624.121203,76.609550
1344.784131,4589.276840,-6735.874072,-612.876398
1344.784460,4885.359217,-7254.018232,-995.924147
1344.784789,5921.647536,-6217.729913,0.000000
1344.785118,7772.162391,-5329.482782,1225.752797
1344.785447,9400.615463,-5995.668130,1991.848295
1344.785777,9696.697840,-5995.668130,3294.210641
1344.786106,8956.491898,-7031.956449,2451.505594
1344.786435,7179.997637,-6661.853478,1838.629195
1344.786764,5773.606348,-6291.750507,459.657299
1344.787093,5033.400406,-6883.915261,0.000000
1344.787422,5699.585753,-6735.874072,229.828649
1344.787751,6143.709319,-6587.832884,536.266849
1344.788080,6217.729913,-6217.729913,76.609550
1344.788409,6365.771101,-7105.977043,842.705048
1344.788738,6883.915261,-6661.853478,1149.143247
1344.789068,7920.203579,-5921.647536,1915.238745
1344.789397,8734.430116,-6143.709319,1991.848295
1344.789726,7994.224174,-5847.626942,1915.238745
1344.790055,7105.977043,-6957.935855,1225.752797
1344.790384,6143.709319,-7254.018232,459.657299
1344.790713,5551.544565,-7179.997637,536.266849
