#time,accel_x,accel_y,accel_z
1398.563743,7105.977043,-6439.791695,1149.143247
1398.564073,7105.977043,-6883.915261,842.705048
1398.564403,6883.915261,-6587.832884,1149.143247
1398.564733,7105.977043,-6291.750507,919.314598
1398.565064,7179.997637,-6587.832884,1302.362347
1398.565394,7105.977043,-6587.832884,1302.362347
1398.565724,7105.977043,-6217.729913,919.314598
1398.566055,6735.874072,-6365.771101,995.924147
1398.566385,6883.915261,-6069.688724,766.095498
1398.566715,6661.853478,-6291.750507,689.485948
1398.567046,6587.832884,-6661.853478,995.924147
1398.567376,6735.874072,-6365.771101,1225.752797
1398.567706,7105.977043,-6809.894666,1072.533697
1398.568036,7105.977043,-6587.832884,995.924147
1398.568367,6809.894666,-6513.812290,1302.362347
1398.568697,6661.853478,-7105.977043,919.314598
1398.569027,6587.832884,-6809.894666,919.314598
1398.569358,6217.729913,-6587.832884,1072.533697
1398.569688,7031.956449,-6883.915261,1149.143247
1398.570018,7105.977043,-6439.791695,1302.362347
1398.570349,7328.038826,-6291.750507,919.314598
1398.570679,7328.038826,-6291.750507,995.924147
1398.571009,7254.018232,-6439.791695,766.095498
1398.571339,7105.977043,-6439.791695,842.705048
1398.571670,7179.997637,-6365.771101,919.314598
1398.572000,7179.997637,-6439.791695,842.705048
1398.572330,7105.977043,-6217.729913,1072.533697
1398.572661,6883.915261,-6143.709319,842.705048
1398.572991,6957.935855,-6365.771101,919.314598
1398.573321,7179.997637,-6365.771101,842.705048
1398.573652,7031.956449,-6587.832884,1149.143247
1398.573982,6883.915261,-6217.729913,1072.533697
1398.574312,6735.874072,-6513.812290,689.485948
1398.574643,6883.915261,-7031.956449,1378.971896
1398.574973,6957.935855,-6439.791695,919.314598
1398.575303,7105.977043,-6513.812290,842.705048
1398.575633,6439.791695,-6291.750507,1762.019645
1398.575964,6809.894666,-6957.935855,842.705048
1398.576294,6661.853478,-6883.915261,842.705048
1398.576624,6661.853478,-6957.935855,1149.143247
1398.576955,6735.874072,-6513.812290,919.314598
1398.577285,7105.977043,-6587.832884,1149.143247
1398.577615,7031.956449,-6513.812290,1072.533697
1398.577946,7328.038826,-6735.874072,1149.143247
1398.578276,7254.018232,-6365.771101,1378.971896
1398.578606,7031.956449,-6513.812290,1302.362347
1398.578936,7105.977043,-6291.750507,689.485948
1398.579267,6957.935855,-5921.647536,689.485948
1398.579597,7254.018232,-6513.812290,919.314598
1398.579927,7254.018232,-6439.791695,1685.410096
1398.580258,7328.038826,-6217.729913,1072.533697
1398.580588,6809.894666,-6439.791695,1225.752797
1398.580918,7105.977043,-6513.812290,689.485948
1398.581249,6661.853478,-6661.853478,995.924147
1398.581579,6735.874072,-6587.832884,1225.752797
1398.581909,6957.935855,-6735.874072,1149.143247
1398.582239,6957.935855,-6365.771101,1302.362347
1398.582570,7105.977043,-6809.894666,919.314598
1398.582900,6661.853478,-6439.791695,1378.971896
1398.583230,7254.018232,-6957.935855,995.924147
1398.583561,6735.874072,-6809.894666,766.095498
1398.583891,6809.894666,-6291.750507,995.924147
1398.584221,6957.935855,-7031.956449,612.876398
1398.584552,7179.997637,-6735.874072,919.314598
1398.584882,7476.080014,-6513.812290,995.924147
1398.585212,7254.018232,-6809.894666,919.314598
1398.585543,7179.997637,-6439.791695,995.924147
1398.585873,7031.956449,-7031.956449,842.705048
1398.586203,7254.018232,-6735.874072,1302.362347
1398.586533,6513.812290,-6217.729913,995.924147
1398.586864,7105.977043,-5921.647536,995.924147
1398.587194,7105.977043,-6069.688724,1072.533697
1398.587524,7105.977043,-6291.750507,919.314598
1398.587855,6587.832884,-5995.668130,842.705048
1398.588185,7105.977043,-6069.688724,919.314598
1398.588515,6587.832884,-5921.647536,1149.143247
1398.588846,6587.832884,-6365.771101,995.924147
1398.589176,6661.853478,-7031.956449,766.095498
1398.589506,6809.894666,-6587.832884,1225.752797
1398.589836,6661.853478,-6439.791695,919.314598
1398.590167,6661.853478,-7031.956449,1225.752797
1398.590497,6735.874072,-6735.874072,612.876398
1398.590827,7105.977043,-6809.894666,229.828649
1398.591158,6513.812290,-6735.874072,1225.752797
1398.591488,6661.853478,-7031.956449,612.876398
1398.591818,6883.915261,-6587.832884,536.266849
1398.592149,7254.018232,-6217.729913,1302.362347
1398.592479,7105.977043,-6587.832884,612.876398
1398.592809,7254.018232,-6587.832884,1302.362347
1398.593140,7179.997637,-6957.935855,995.924147
1398.593470,7105.977043,-6661.853478,842.705048
1398.593800,7105.977043,-6291.750507,1762.019645
1398.594130,7105.977043,-6365.771101,1225.752797
1398.594461,7550.100608,-6513.812290,1149.143247
1398.594791,7105.977043,-6513.812290,1915.238745
1398.595121,7105.977043,-5773.606348,1072.533697
1398.595452,7105.977043,-5921.647536,766.095498
1398.595782,6957.935855,-6365.771101,842.705048
1398.596112,6365.771101,-6439.791695,919.314598
1398.596443,6735.874072,-6661.853478,1149.143247
1398.596773,6883.915261,-6365.771101,1685.410096
1398.597103,6883.915261,-6587.832884,995.924147
1398.597433,6957.935855,-6809.894666,1072.533697
1398.597764,7105.977043,-6957.935855,1378.971896
1398.598094,7105.977043,-7105.977043,1302.362347
1398.598424,7031.956449,-6735.874072,1378.971896
1398.598755,6587.832884,-7105.977043,1072.533697
1398.599085,7105.977043,-6883.915261,689.485948
1398.599415,7328.038826,-6291.750507,1149.143247
1398.599746,7031.956449,-6439.791695,995.924147
1398.600076,7179.997637,-6217.729913,919.314598
1398.600406,7328.038826,-6217.729913,1149.143247
1398.600736,7105.977043,-6439.791695,995.924147
1398.601067,7105.977043,-6217.729913,1225.752797
1398.601397,7402.059420,-6143.709319,1225.752797
1398.601727,7105.977043,-6439.791695,612.876398
1398.602058,7105.977043,-6439.791695,995.924147
1398.602388,7179.997637,-6661.853478,1225.752797
1398.602718,7254.018232,-7105.977043,919.314598
1398.603049,7031.956449,-6439.791695,1225.752797
1398.603379,6439.791695,-6735.874072,995.924147
1398.603709,6439.791695,-6883.915261,842.705048
1398.604040,6587.832884,-6883.915261,1225.752797
1398.604370,6513.812290,-6809.894666,1225.752797
1398.604700,6957.935855,-6291.750507,995.924147
1398.605030,6809.894666,-6217.729913,1302.362347
1398.605361,6809.894666,-6809.894666,842.705048
1398.605691,6291.750507,-7031.956449,995.924147
1398.606021,6883.915261,-6957.935855,612.876398
1398.606352,6957.935855,-7105.977043,612.876398
1398.606682,7179.997637,-6957.935855,1302.362347
1398.607012,7179.997637,-6661.853478,995.924147
1398.607343,7254.018232,-6217.729913,919.314598
1398.607673,7105.977043,-6809.894666,1072.533697
1398.608003,7031.956449,-6513.812290,689.485948
1398.608333,6883.915261,-6291.750507,1072.533697
1398.608664,7105.977043,-6217.729913,1685.410096
1398.608994,6883.915261,-5773.606348,1455.581446
1398.609324,7105.977043,-6217.729913,1072.533697
1398.609655,6957.935855,-6143.709319,1149.143247
1398.609985,7179.997637,-6365.771101,919.314598
1398.610315,7105.977043,-6439.791695,1378.971896
1398.610646,7105.977043,-6365.771101,1072.533697
1398.610976,6957.935855,-6587.832884,842.705048
1398.611306,6957.935855,-6809.894666,1149.143247
1398.611636,6883.915261,-6809.894666,1149.143247
1398.611967,6957.935855,-6587.832884,1302.362347
1398.612297,6587.832884,-6661.853478,1302.362347
1398.612627,7031.956449,-6957.935855,536.266849
1398.612958,6735.874072,-6809.894666,766.095498
1398.613288,6883.915261,-6587.832884,842.705048
1398.613618,6883.915261,-6513.812290,842.705048
1398.613949,7031.956449,-6439.791695,842.705048
1398.614279,7328.038826,-6513.812290,1378.971896
1398.614609,7550.100608,-6587.832884,842.705048
1398.614940,7328.038826,-6661.853478,1991.848295
1398.615270,7254.018232,-6661.853478,1225.752797
1398.615600,7105.977043,-6735.874072,995.924147
1398.615930,7179.997637,-6365.771101,1225.752797
1398.616261,7105.977043,-6439.791695,995.924147
1398.616591,6957.935855,-5995.668130,1455.581446
1398.616921,6883.915261,-6513.812290,1225.752797
1398.617252,6883.915261,-6365.771101,995.924147
1398.617582,6883.915261,-6069.688724,1225.752797
1398.617912,6661.853478,-6069.688724,1149.143247
1398.618243,6661.853478,-6661.853478,1072.533697
1398.618573,6661.853478,-6735.874072,1225.752797
1398.618903,6883.915261,-6957.935855,1149.143247
1398.619233,6735.874072,-6809.894666,1149.143247
1398.619564,7031.956449,-6957.935855,1149.143247
1398.619894,6587.832884,-7328.038826,1302.362347
1398.620224,6661.853478,-7105.977043,689.485948
1398.620555,6439.791695,-7105.977043,995.924147
1398.620885,7031.956449,-6883.915261,1532.190996
1398.621215,7105.977043,-7031.956449,842.705048
1398.621546,6957.935855,-6439.791695,1149.143247
1398.621876,6957.935855,-6735.874072,1225.752797
1398.622206,7179.997637,-6661.853478,1225.752797
1398.622537,6735.874072,-6143.709319,1225.752797
1398.622867,7031.956449,-6809.894666,919.314598
1398.623197,7105.977043,-6439.791695,995.924147
1398.623527,7105.977043,-6365.771101,689.485948
1398.623858,7179.997637,-6587.832884,1072.533697
1398.624188,7031.956449,-6291.750507,1225.752797
1398.624518,7105.977043,-6291.750507,1072.533697
1398.624849,6957.935855,-6439.791695,842.705048
1398.625179,7031.956449,-6217.729913,1149.143247
1398.625509,6661.853478,-6809.894666,1072.533697
1398.625840,6957.935855,-6587.832884,1072.533697
1398.626170,6735.874072,-6735.874072,1149.143247
1398.626500,6957.935855,-6439.791695,919.314598
1398.626830,7105.977043,-6513.812290,919.314598
1398.627161,7105.977043,-6439.791695,1149.143247
1398.627491,7254.018232,-6883.915261,995.924147
1398.627821,6883.915261,-6809.894666,766.095498
1398.628152,7031.956449,-6439.791695,842.705048
1398.628482,7179.997637,-7031.956449,689.485948
1398.628812,7254.018232,-6587.832884,1378.971896
1398.629143,7328.038826,-6661.853478,995.924147
1398.629473,7402.059420,-6291.750507,919.314598
1398.629803,7402.059420,-6291.750507,1072.533697
1398.630133,7105.977043,-6365.771101,383.047749
1398.630464,6883.915261,-6439.791695,1378.971896
1398.630794,7254.018232,-6365.771101,1072.533697
1398.631124,7402.059420,-6291.750507,1072.533697
1398.631455,7254.018232,-6513.812290,1302.362347
1398.631785,6957.935855,-6809.894666,1149.143247
1398.632115,7105.977043,-6439.791695,1072.533697
1398.632446,6809.894666,-6513.812290,1072.533697
1398.632775,6735.874072,-6513.812290,689.485948
1398.633105,6883.915261,-6809.894666,1149.143247
1398.633435,6661.853478,-6883.915261,995.924147
1398.633765,6587.832884,-6883.915261,1072.533697
1398.634095,6735.874072,-6661.853478,689.485948
1398.634425,6809.894666,-6661.853478,1302.362347
1398.634755,6809.894666,-6587.832884,1149.143247
1398.635085,6513.812290,-6957.935855,919.314598
1398.635414,6439.791695,-7179.997637,995.924147
1398.635744,6809.894666,-7105.977043,919.314598
1398.636074,6883.915261,-6513.812290,1225.752797
1398.636404,6883.915261,-6661.853478,1532.190996
1398.636734,7254.018232,-6735.874072,995.924147
1398.637064,7328.038826,-6513.812290,1072.533697
1398.637394,6957.935855,-6735.874072,1149.143247
1398.637724,6957.935855,-6143.709319,1455.581446
1398.638053,7105.977043,-6217.729913,995.924147
1398.638383,7105.977043,-6513.812290,612.876398
1398.638713,7328.038826,-6143.709319,1378.971896
1398.639043,7105.977043,-6291.750507,1149.143247
1398.639373,7698.141797,-6291.750507,1072.533697
1398.639703,6883.915261,-6291.750507,919.314598
1398.640033,6809.894666,-6513.812290,919.314598
1398.640362,6587.832884,-6661.853478,995.924147
1398.640692,6883.915261,-6809.894666,1072.533697
1398.641022,7105.977043,-6291.750507,766.095498
1398.641352,7105.977043,-6735.874072,1072.533697
1398.641682,7105.977043,-6439.791695,1378.971896
1398.642012,6809.894666,-7105.977043,612.876398
1398.642342,7328.038826,-6883.915261,536.266849
1398.642672,6735.874072,-6513.812290,919.314598
1398.643001,6883.915261,-7031.956449,536.266849
1398.643331,7105.977043,-6735.874072,1149.143247
1398.643661,6883.915261,-6069.688724,1378.971896
1398.643991,7624.121203,-6143.709319,1302.362347
1398.644321,7402.059420,-6513.812290,1149.143247
1398.644651,7105.977043,-6365.771101,1072.533697
1398.644981,7105.977043,-6513.812290,536.266849
1398.645311,7254.018232,-5921.647536,1532.190996
1398.645640,7179.997637,-6143.709319,1072.533697
1398.645970,7254.018232,-6069.688724,1149.143247
1398.646300,7105.977043,-6587.832884,1608.800546
1398.646630,7105.977043,-6291.750507,1149.143247
1398.646960,6809.894666,-6143.709319,1302.362347
1398.647290,6587.832884,-6587.832884,995.924147
1398.647620,6365.771101,-6587.832884,1149.143247
1398.647949,6587.832884,-6883.915261,1072.533697
1398.648279,6291.750507,-6439.791695,1378.971896
1398.648609,6809.894666,-6957.935855,995.924147
1398.648939,6735.874072,-6809.894666,1302.362347
1398.649269,6513.812290,-6587.832884,1149.143247
1398.649599,6587.832884,-6809.894666,766.095498
1398.649929,6513.812290,-6439.791695,1149.143247
1398.650259,6809.894666,-7105.977043,766.095498
1398.650588,6957.935855,-6883.915261,842.705048
1398.650918,7031.956449,-6587.832884,1532.190996
1398.651248,6883.915261,-7105.977043,1149.143247
1398.651578,7105.977043,-6661.853478,842.705048
1398.651908,6957.935855,-6957.935855,995.924147
1398.652238,6883.915261,-6809.894666,689.485948
1398.652568,7105.977043,-6661.853478,842.705048
1398.652898,6957.935855,-5773.606348,1149.143247
1398.653227,7105.977043,-6217.729913,919.314598
1398.653557,7105.977043,-6439.791695,1149.143247
1398.653887,7031.956449,-6217.729913,919.314598
1398.654217,7105.977043,-6291.750507,766.095498
1398.654547,6883.915261,-5773.606348,1915.238745
1398.654877,6809.894666,-6661.853478,766.095498
1398.655207,6809.894666,-6661.853478,919.314598
1398.655536,7105.977043,-6809.894666,995.924147
1398.655866,7105.977043,-7105.977043,919.314598
1398.656196,7031.956449,-6661.853478,919.314598
1398.656526,6883.915261,-6661.853478,995.924147
1398.656856,6883.915261,-6809.894666,612.876398
1398.657186,6809.894666,-6661.853478,919.314598
1398.657516,6957.935855,-6513.812290,536.266849
1398.657846,7179.997637,-6661.853478,459.657299
1398.658175,7254.018232,-6291.750507,1225.752797
1398.658505,7179.997637,-6365.771101,919.314598
1398.658835,6661.853478,-5921.647536,1532.190996
1398.659165,7328.038826,-6217.729913,842.705048
1398.659495,7254.018232,-6365.771101,842.705048
1398.659825,7179.997637,-6439.791695,1149.143247
1398.660155,7402.059420,-6217.729913,919.314598
1398.660485,7624.121203,-6365.771101,1302.362347
1398.660814,7402.059420,-6217.729913,766.095498
1398.661144,6883.915261,-6439.791695,1608.800546
1398.661474,6883.915261,-6513.812290,919.314598
1398.661804,7031.956449,-6291.750507,842.705048
1398.662134,7031.956449,-6587.832884,919.314598
1398.662464,6809.894666,-6587.832884,1149.143247
1398.662794,6735.874072,-6587.832884,689.485948
1398.663123,6957.935855,-6735.874072,1072.533697
1398.663453,6957.935855,-6883.915261,1532.190996
1398.663783,7031.956449,-6587.832884,919.314598
1398.664113,6661.853478,-7179.997637,995.924147
1398.664443,6513.812290,-7328.038826,1149.143247
1398.664773,5995.668130,-7105.977043,919.314598
1398.665103,6587.832884,-6809.894666,842.705048
1398.665433,6809.894666,-6661.853478,1149.143247
1398.665762,6957.935855,-6661.853478,1149.143247
1398.666092,7254.018232,-6883.915261,995.924147
1398.666422,7328.038826,-6587.832884,995.924147
1398.666752,7476.080014,-6957.935855,995.924147
1398.667082,7031.956449,-6439.791695,1072.533697
1398.667412,6957.935855,-6217.729913,995.924147
1398.667742,7105.977043,-6513.812290,919.314598
1398.668072,7328.038826,-6735.874072,1149.143247
1398.668401,7031.956449,-7105.977043,1225.752797
1398.668731,7031.956449,-6291.750507,1072.533697
1398.669061,6957.935855,-6513.812290,995.924147
1398.669391,6439.791695,-6513.812290,766.095498
1398.669721,6957.935855,-6587.832884,766.095498
1398.670051,6883.915261,-6587.832884,1072.533697
1398.670381,7254.018232,-6291.750507,1685.410096
1398.670711,7031.956449,-5921.647536,1149.143247
1398.671040,7476.080014,-6587.832884,1072.533697
1398.671370,7031.956449,-6735.874072,612.876398
1398.671700,6883.915261,-7031.956449,689.485948
1398.672030,6513.812290,-6809.894666,995.924147
1398.672360,6809.894666,-7179.997637,536.266849
1398.672690,7698.141797,-6587.832884,766.095498
1398.673020,7179.997637,-6661.853478,1072.533697
1398.673349,7179.997637,-6735.874072,1072.533697
1398.673679,7328.038826,-5921.647536,919.314598
1398.674009,7328.038826,-6365.771101,995.924147
1398.674339,7105.977043,-6217.729913,1532.190996
1398.674669,7402.059420,-6069.688724,1302.362347
1398.674999,7624.121203,-5995.668130,1072.533697
1398.675329,7328.038826,-6217.729913,689.485948
1398.675659,7476.080014,-6217.729913,1149.143247
1398.675988,7031.956449,-6439.791695,689.485948
1398.676318,6809.894666,-6735.874072,919.314598
1398.676648,6661.853478,-6661.853478,842.705048
1398.676978,6291.750507,-6587.832884,689.485948
1398.677308,6735.874072,-6883.915261,766.095498
1398.677638,6661.853478,-6735.874072,1378.971896
1398.677968,6809.894666,-6513.812290,1072.533697
1398.678298,7031.956449,-6291.750507,1225.752797
1398.678627,7105.977043,-6587.832884,1455.581446
1398.678957,6957.935855,-6883.915261,995.924147
1398.679287,6439.791695,-6661.853478,919.314598
1398.679617,6513.812290,-7031.956449,842.705048
1398.679947,6883.915261,-7105.977043,842.705048
1398.680277,7031.956449,-6439.791695,1378.971896
1398.680607,7105.977043,-6883.915261,1072.533697
1398.680936,7105.977043,-6957.935855,1072.533697
1398.681266,6883.915261,-6661.853478,1225.752797
1398.681596,6587.832884,-6661.853478,1455.581446
1398.681926,6957.935855,-6365.771101,842.705048
1398.682256,7328.038826,-6217.729913,1072.533697
1398.682586,7476.080014,-5699.585753,1225.752797
1398.682916,7476.080014,-5033.400406,1149.143247
1398.683246,7994.224174,-4811.338623,1149.143247
1398.683575,8216.285956,-5403.503377,1378.971896
1398.683905,7994.224174,-5995.668130,1455.581446
1398.684235,7105.977043,-6587.832884,919.314598
1398.684565,6513.812290,-7402.059420,383.047749
1398.684895,5773.606348,-7550.100608,229.828649
1398.685225,6439.791695,-6809.894666,536.266849
1398.685555,7328.038826,-7031.956449,919.314598
1398.685885,7698.141797,-6513.812290,1608.800546
1398.686214,8216.285956,-5477.523971,1225.752797
1398.686544,7994.224174,-4293.194464,1149.143247
1398.686874,7550.100608,-4737.318029,1149.143247
1398.687204,8142.265362,-4811.338623,995.924147
1398.687534,8660.409521,-3923.091493,1149.143247
1398.687864,8956.491898,-4737.318029,1838.629195
1398.688194,8808.450710,-4441.235652,842.705048
1398.688523,8142.265362,-5255.462188,612.876398
1398.688853,8068.244768,-5477.523971,306.438199
1398.689183,8882.471304,-5403.503377,229.828649
1398.689513,9178.553681,-5847.626942,1455.581446
1398.689843,8956.491898,-5181.441594,842.705048
1398.690173,8142.265362,-5329.482782,612.876398
1398.690503,8216.285956,-5625.565159,995.924147
1398.690833,8364.327145,-4441.235652,1685.410096
1398.691162,8512.368333,-4515.256246,842.705048
1398.691492,8364.327145,-3923.091493,1225.752797
1398.691822,8586.388927,-4589.276840,995.924147
1398.692152,9400.615463,-3923.091493,1455.581446
1398.692482,9474.636058,-3478.967927,1608.800546
1398.692812,9474.636058,-3627.009116,1225.752797
1398.693142,9770.718434,-2664.741391,1225.752797
1398.693472,9474.636058,-3849.070898,1532.190996
1398.693801,9622.677246,-4145.153275,995.924147
1398.694131,9474.636058,-4737.318029,1302.362347
1398.694461,9104.533087,-5477.523971,919.314598
1398.694791,8808.450710,-5329.482782,1149.143247
1398.695121,8290.306550,-5699.585753,1302.362347
1398.695451,8290.306550,-5181.441594,536.266849
1398.695781,7698.141797,-5773.606348,842.705048
1398.696110,7698.141797,-5403.503377,1072.533697
1398.696440,7772.162391,-4811.338623,842.705048
1398.696770,8660.409521,-4145.153275,1072.533697
1398.697100,9178.553681,-3701.029710,995.924147
1398.697430,8956.491898,-4219.173869,1072.533697
1398.697760,9178.553681,-3627.009116,1072.533697
1398.698090,9622.677246,-3997.112087,459.657299
1398.698420,10140.821405,-3627.009116,383.047749
1398.698749,9770.718434,-4663.297435,842.705048
1398.699079,9252.574275,-5625.565159,536.266849
1398.699409,8660.409521,-5181.441594,536.266849
1398.699739,8586.388927,-5033.400406,689.485948
1398.700069,8882.471304,-5477.523971,766.095498
1398.700399,8956.491898,-4959.379811,1608.800546
1398.700729,8512.368333,-5773.606348,1378.971896
1398.701059,8216.285956,-4515.256246,1455.581446
1398.701388,8142.265362,-4071.132681,1762.019645
1398.701718,8512.368333,-4293.194464,1608.800546
1398.702048,9548.656652,-3330.926739,1838.629195
1398.702378,9696.697840,-3330.926739,2221.676944
1398.702708,9696.697840,-3034.844362,1302.362347
1398.703038,9548.656652,-2960.823768,919.314598
1398.703368,9178.553681,-3552.988522,689.485948
1398.703697,8882.471304,-4219.173869,0.000000
1398.704027,9030.512492,-4293.194464,-459.657299
1398.704357,9400.615463,-4885.359217,229.828649
1398.704687,8882.471304,-6143.709319,306.438199
1398.705017,8586.388927,-5995.668130,919.314598
1398.705347,8290.306550,-6439.791695,919.314598
1398.705677,8290.306550,-6365.771101,1072.533697
1398.706007,8216.285956,-5033.400406,1915.238745
1398.706336,8438.347739,-5625.565159,1915.238745
1398.706666,9104.533087,-4663.297435,2451.505594
1398.706996,9474.636058,-3627.009116,2451.505594
1398.707326,10066.800811,-2146.597232,1838.629195
1398.707656,9770.718434,-1184.329507,1532.190996
1398.707986,9844.739029,-1184.329507,766.095498
1398.708316,10066.800811,-1258.350101,306.438199
1398.708646,10214.842000,-2516.700203,0.000000
1398.708975,10288.862594,-3330.926739,459.657299
1398.709305,9992.780217,-4885.359217,76.609550
1398.709635,9104.533087,-6661.853478,153.219100
1398.709965,8290.306550,-7772.162391,76.609550
1398.710295,7328.038826,-9252.574275,995.924147
1398.710625,7179.997637,-9474.636058,1225.752797
1398.710955,6735.874072,-8586.388927,306.438199
1398.711284,6587.832884,-6661.853478,612.876398
1398.711614,7328.038826,-5033.400406,536.266849
1398.711944,8660.409521,-3404.947333,1378.971896
1398.712274,9326.594869,-2294.638420,1762.019645
1398.712604,10214.842000,-1702.473667,1915.238745
1398.712934,10510.924376,-222.061783,1685.410096
1398.713264,10288.862594,0.000000,1072.533697
1398.713594,10362.883188,-592.164754,1225.752797
1398.713923,12139.377449,-814.226536,1149.143247
1398.714253,13249.686362,-1702.473667,2068.457845
1398.714583,12657.521608,-2146.597232,1838.629195
1398.714913,10807.006753,-4663.297435,1991.848295
1398.715243,8956.491898,-6291.750507,1455.581446
1398.715573,7105.977043,-8808.450710,1225.752797
1398.715903,5033.400406,-9474.636058,306.438199
1398.716233,3552.988522,-8734.430116,-536.266849
1398.716562,3849.070898,-8734.430116,-1072.533697
1398.716892,5033.400406,-8216.285956,0.000000
1398.717222,7105.977043,-7031.956449,306.438199
1398.717552,9030.512492,-5847.626942,1838.629195
1398.717882,9918.759623,-2442.679609,1455.581446
1398.718212,10658.965565,-2220.617826,1378.971896
1398.718542,10584.944971,-814.226536,1149.143247
1398.718871,11325.150913,-370.102971,536.266849
1398.719201,11917.315666,-592.164754,919.314598
1398.719531,12731.542202,-666.185348,2681.334243
1398.719861,13101.645173,-1924.535449,2374.896044
1398.720191,13471.748144,-2664.741391,3064.381992
1398.720521,11473.192101,-3701.029710,2604.724693
1398.720851,8364.327145,-4663.297435,1455.581446
1398.721181,6143.709319,-6439.791695,383.047749
1398.721510,4811.338623,-7328.038826,0.000000
1398.721840,4737.318029,-7698.141797,-383.047749
1398.722170,4663.297435,-7772.162391,-612.876398
1398.722500,6513.812290,-7031.956449,229.828649
1398.722830,8364.327145,-4293.194464,0.000000
1398.723160,9770.718434,-3849.070898,229.828649
1398.723490,11103.089130,-2960.823768,1455.581446
1398.723820,11843.295072,-2442.679609,1455.581446
1398.724149,11473.192101,-2516.700203,1072.533697
1398.724479,10584.944971,-2812.782580,1455.581446
1398.724809,10362.883188,-4441.235652,1149.143247
1398.725139,9548.656652,-5847.626942,1455.581446
1398.725469,8438.347739,-7031.956449,1915.238745
1398.725799,8216.285956,-7624.121203,1838.629195
1398.726129,8586.388927,-6069.688724,1762.019645
1398.726458,8216.285956,-4367.215058,1149.143247
1398.726788,7920.203579,-2664.741391,153.219100
1398.727118,8586.388927,-2368.659014,229.828649
1398.727448,8956.491898,-2442.679609,536.266849
1398.727778,8512.368333,-2442.679609,459.657299
1398.728108,8216.285956,-2368.659014,229.828649
1398.728438,9252.574275,-2960.823768,76.609550
1398.728768,9770.718434,-5181.441594,1302.362347
1398.729097,10214.842000,-6513.812290,2298.286494
1398.729427,9918.759623,-7476.080014,1991.848295
1398.729757,8438.347739,-6809.894666,1762.019645
1398.730087,7105.977043,-6365.771101,0.000000
1398.730417,5625.565159,-6661.853478,-536.266849
1398.730747,5477.523971,-6439.791695,-306.438199
1398.731077,6513.812290,-9178.553681,995.924147
1398.731407,7402.059420,-7254.018232,2145.067394
1398.731736,7772.162391,-4293.194464,383.047749
1398.732066,7105.977043,-4737.318029,536.266849
1398.732396,6883.915261,-6661.853478,1302.362347
1398.732726,7328.038826,-6587.832884,766.095498
1398.733056,8068.244768,-3330.926739,1149.143247
1398.733386,8808.450710,-2738.761985,1149.143247
1398.733716,10807.006753,-1702.473667,919.314598
1398.734046,11251.130318,-3256.906145,1378.971896
1398.734375,10362.883188,-5625.565159,2221.676944
1398.734705,9548.656652,-6143.709319,2451.505594
1398.735035,7994.224174,-5995.668130,1302.362347
1398.735364,7550.100608,-4737.318029,536.266849
1398.735693,7031.956449,-7105.977043,1302.362347
1398.736023,7105.977043,-8364.327145,1532.190996
1398.736352,6809.894666,-6069.688724,1302.362347
1398.736681,5773.606348,-5625.565159,76.609550
1398.737011,7031.956449,-5477.523971,1225.752797
1398.737340,8290.306550,-6587.832884,1378.971896
1398.737669,7624.121203,-6809.894666,612.876398
1398.737999,5033.400406,-7031.956449,-229.828649
1398.738328,4737.318029,-7179.997637,-306.438199
1398.738657,6587.832884,-7402.059420,383.047749
1398.738987,7624.121203,-7031.956449,1302.362347
1398.739316,8142.265362,-6661.853478,1455.581446
1398.739645,7328.038826,-5551.544565,306.438199
1398.739975,7476.080014,-7402.059420,1225.752797
1398.740304,7772.162391,-7846.182985,1915.238745
1398.740633,7624.121203,-6291.750507,1915.238745
1398.740963,7402.059420,-4515.256246,-153.219100
1398.741292,6069.688724,-5255.462188,0.000000
1398.741621,7105.977043,-6735.874072,1685.410096
1398.741951,8808.450710,-6217.729913,2528.115143
1398.742280,9548.656652,-2516.700203,2298.286494
1398.742609,8438.347739,-1258.350101,689.485948
1398.742939,8882.471304,-3552.988522,2145.067394
1398.743268,9104.533087,-6365.771101,2681.334243
1398.743597,7254.018232,-7624.121203,2068.457845
1398.743927,5329.482782,-5699.585753,0.000000
1398.744256,3552.988522,-7624.121203,-842.705048
1398.744585,5033.400406,-10436.903782,1225.752797
1398.744915,6735.874072,-11177.109724,2987.772442
1398.745244,6291.750507,-9548.656652,1915.238745
1398.745573,5477.523971,-7179.997637,229.828649
1398.745903,5551.544565,-6883.915261,459.657299
1398.746232,5847.626942,-8068.244768,1455.581446
1398.746561,5847.626942,-7402.059420,2068.457845
1398.746891,6069.688724,-4145.153275,153.219100
1398.747220,5847.626942,-3256.906145,-766.095498
1398.747549,6587.832884,-5995.668130,1072.533697
1398.747879,8290.306550,-7550.100608,2987.772442
1398.748208,9622.677246,-5699.585753,2068.457845
1398.748537,9104.533087,-3923.091493,1149.143247
1398.748867,8142.265362,-5995.668130,1072.533697
1398.749196,7772.162391,-8882.471304,2911.162892
1398.749525,6587.832884,-8512.368333,1378.971896
1398.749855,4441.235652,-6587.832884,-612.876398
1398.750184,3552.988522,-6439.791695,-842.705048
1398.750513,5329.482782,-8882.471304,1532.190996
1398.750843,7624.121203,-9474.636058,3677.258390
1398.751172,7994.224174,-5403.503377,1302.362347
1398.751501,7846.182985,-3256.906145,0.000000
1398.751831,8216.285956,-4145.153275,1072.533697
1398.752160,8512.368333,-6217.729913,2451.505594
1398.752489,7772.162391,-6365.771101,1149.143247
1398.752819,6143.709319,-3775.050304,-766.095498
1398.753148,6365.771101,-5329.482782,-1149.143247
1398.753477,7846.182985,-7624.121203,1762.019645
1398.753807,8882.471304,-9548.656652,3294.210641
1398.754136,9104.533087,-7254.018232,1685.410096
1398.754466,7698.141797,-3775.050304,76.609550
1398.754795,6291.750507,-7476.080014,689.485948
1398.755124,6513.812290,-8956.491898,1762.019645
1398.755454,5181.441594,-8660.409521,383.047749
1398.755783,3997.112087,-5773.606348,-1608.800546
1398.756112,4885.359217,-4737.318029,-689.485948
1398.756442,7031.956449,-7105.977043,2068.457845
1398.756771,8586.388927,-6883.915261,2451.505594
1398.757100,8660.409521,-5033.400406,689.485948
1398.757430,7920.203579,-3552.988522,-153.219100
1398.757759,7402.059420,-5995.668130,1302.362347
1398.758088,7772.162391,-8068.244768,2451.505594
1398.758418,6809.894666,-6883.915261,1072.533697
1398.758747,5995.668130,-5551.544565,-1302.362347
1398.759076,6513.812290,-6069.688724,766.095498
1398.759406,7402.059420,-8956.491898,2528.115143
1398.759735,8290.306550,-7920.203579,2068.457845
1398.760064,7179.997637,-5921.647536,153.219100
1398.760394,6883.915261,-5403.503377,-229.828649
1398.760723,7105.977043,-6439.791695,995.924147
1398.761052,6661.853478,-8882.471304,2298.286494
1398.761382,5625.565159,-7698.141797,153.219100
1398.761711,4737.318029,-4737.318029,-1608.800546
1398.762040,5551.544565,-6365.771101,306.438199
1398.762370,7105.977043,-7254.018232,1991.848295
1398.762699,9030.512492,-6365.771101,2145.067394
1398.763028,9474.636058,-5477.523971,919.314598
1398.763358,9104.533087,-5329.482782,1532.190996
1398.763687,7624.121203,-6957.935855,2987.772442
1398.764016,7031.956449,-7624.121203,2911.162892
1398.764346,5773.606348,-5551.544565,536.266849
1398.764675,5181.441594,-4441.235652,0.000000
1398.765004,5699.585753,-5699.585753,1915.238745
1398.765334,6735.874072,-7179.997637,2451.505594
1398.765663,7624.121203,-6143.709319,2451.505594
1398.765992,7920.203579,-3923.091493,0.000000
1398.766322,7476.080014,-5551.544565,766.095498
1398.766651,6217.729913,-9030.512492,3830.477490
1398.766980,5625.565159,-10510.924376,1838.629195
1398.767310,4589.276840,-6513.812290,-1225.752797
1398.767639,4367.215058,-6439.791695,-995.924147
1398.767968,6883.915261,-8956.491898,1838.629195
1398.768298,9104.533087,-7994.224174,3830.477490
1398.768627,8956.491898,-6439.791695,2068.457845
1398.768956,7624.121203,-3701.029710,-306.438199
1398.769286,6957.935855,-5181.441594,536.266849
1398.769615,5921.647536,-7698.141797,1991.848295
1398.769944,5033.400406,-8216.285956,1532.190996
1398.770274,4885.359217,-5773.606348,-1378.971896
1398.770603,5477.523971,-5847.626942,-919.314598
1398.770932,7254.018232,-6291.750507,2145.067394
1398.771262,9770.718434,-7550.100608,3140.991542
1398.771591,9696.697840,-5847.626942,1608.800546
1398.771920,8290.306550,-4737.318029,383.047749
1398.772250,7105.977043,-5921.647536,383.047749
1398.772579,6143.709319,-8290.306550,1685.410096
1398.772908,5255.462188,-8586.388927,1225.752797
1398.773238,5477.523971,-6809.894666,-306.438199
1398.773567,6587.832884,-6587.832884,612.876398
1398.773896,7772.162391,-7105.977043,2987.772442
1398.774226,8660.409521,-6217.729913,2681.334243
1398.774555,7846.182985,-4737.318029,0.000000
1398.774884,6513.812290,-4515.256246,-612.876398
1398.775214,6513.812290,-6143.709319,612.876398
1398.775543,7031.956449,-7772.162391,2068.457845
1398.775872,6291.750507,-7179.997637,536.266849
1398.776202,6069.688724,-6587.832884,-919.314598
1398.776531,6513.812290,-6883.915261,306.438199
1398.776860,6883.915261,-8216.285956,1762.019645
1398.777190,7624.121203,-6735.874072,1991.848295
1398.777519,8290.306550,-4441.235652,0.000000
1398.777848,7772.162391,-5181.441594,-229.828649
1398.778178,6957.935855,-5403.503377,1838.629195
1398.778507,6143.709319,-8586.388927,2145.067394
1398.778836,6735.874072,-6661.853478,689.485948
1398.779166,6587.832884,-5773.606348,-306.438199
1398.779495,7031.956449,-7105.977043,1991.848295
1398.779824,8586.388927,-5773.606348,2528.115143
1398.780154,8512.368333,-6217.729913,1149.143247
1398.780483,7920.203579,-3997.112087,-306.438199
1398.780813,7328.038826,-4737.318029,153.219100
1398.781142,7328.038826,-6587.832884,2068.457845
1398.781471,6735.874072,-7179.997637,1608.800546
1398.781801,5329.482782,-7328.038826,-536.266849
1398.782130,5033.400406,-6883.915261,-919.314598
1398.782459,5329.482782,-8142.265362,612.876398
1398.782789,7624.121203,-7698.141797,2528.115143
1398.783118,8808.450710,-5477.523971,1532.190996
1398.783447,8364.327145,-5699.585753,0.000000
1398.783777,7328.038826,-6883.915261,1149.143247
1398.784106,6143.709319,-8068.244768,1762.019645
1398.784435,5477.523971,-8882.471304,995.924147
1398.784765,5033.400406,-6735.874072,-536.266849
1398.785094,5329.482782,-7105.977043,-153.219100
1398.785423,7179.997637,-7254.018232,2145.067394
1398.785753,8438.347739,-7254.018232,3370.820191
1398.786082,9104.533087,-4737.318029,1532.190996
1398.786411,7624.121203,-3552.988522,229.828649
1398.786741,6883.915261,-4737.318029,459.657299
1398.787070,6217.729913,-7550.100608,1915.238745
1398.787399,5329.482782,-7772.162391,1302.362347
1398.787729,4959.379811,-5847.626942,0.000000
1398.788058,5329.482782,-5921.647536,229.828649
1398.788387,7254.018232,-7254.018232,2374.896044
1398.788717,8882.471304,-7772.162391,3294.210641
1398.789046,9030.512492,-6513.812290,1225.752797
1398.789375,7179.997637,-4959.379811,612.876398
1398.789705,6439.791695,-7550.100608,919.314598
1398.790034,5921.647536,-8438.347739,1455.581446
1398.790363,5255.462188,-7105.977043,229.828649
1398.790693,5477.523971,-6587.832884,-1608.800546
1398.791022,6735.874072,-7402.059420,1072.533697
1398.791351,7994.224174,-7550.100608,2451.505594
1398.791681,8142.265362,-6365.771101,1762.019645
1398.792010,7105.977043,-4145.153275,-383.047749
1398.792339,6143.709319,-5699.585753,-842.705048
1398.792669,6365.771101,-7402.059420,1072.533697
1398.792998,6365.771101,-8586.388927,2987.772442
1398.793327,6735.874072,-6143.709319,842.705048
1398.793657,7402.059420,-5255.462188,0.000000
1398.793986,8142.265362,-6513.812290,2221.676944
1398.794315,8808.450710,-6883.915261,2911.162892
1398.794645,8882.471304,-6143.709319,2451.505594
1398.794974,7624.121203,-4589.276840,306.438199
1398.795303,7772.162391,-4737.318029,0.000000
1398.795633,8216.285956,-6883.915261,2145.067394
1398.795962,6513.812290,-8290.306550,2068.457845
1398.796291,4737.318029,-6661.853478,-689.485948
1398.796621,3923.091493,-5107.421000,-995.924147
1398.796950,6069.688724,-6883.915261,995.924147
1398.797279,8734.430116,-7550.100608,2604.724693
1398.797609,9030.512492,-6143.709319,2068.457845
1398.797938,7994.224174,-3775.050304,229.828649
1398.798267,8068.244768,-3404.947333,306.438199
1398.798597,8142.265362,-5995.668130,2451.505594
1398.798926,7105.977043,-7846.182985,2374.896044
1398.799255,6587.832884,-6069.688724,689.485948
1398.799585,5995.668130,-5625.565159,-459.657299
1398.799914,6143.709319,-7402.059420,1838.629195
1398.800243,7624.121203,-7328.038826,2757.943793
1398.800573,8882.471304,-5625.565159,1685.410096
1398.800902,8068.244768,-5921.647536,459.657299
1398.801231,6069.688724,-7550.100608,689.485948
1398.801561,4071.132681,-9622.677246,459.657299
1398.801890,3330.926739,-10066.800811,-229.828649
1398.802219,3552.988522,-8660.409521,-1302.362347
1398.802549,4959.379811,-8290.306550,-229.828649
1398.802878,7476.080014,-8882.471304,2145.067394
1398.803207,8882.471304,-7105.977043,3370.820191
1398.803537,9030.512492,-4737.318029,842.705048
1398.803866,7772.162391,-4441.235652,0.000000
1398.804195,7254.018232,-5773.606348,1302.362347
1398.804525,6809.894666,-7328.038826,1762.019645
1398.804854,6069.688724,-6735.874072,995.924147
1398.805183,5699.585753,-6291.750507,-536.266849
1398.805513,6883.915261,-6291.750507,306.438199
1398.805842,8068.244768,-7105.977043,2451.505594
1398.806172,8734.430116,-7105.977043,2451.505594
1398.806501,8216.285956,-6143.709319,766.095498
1398.806830,7476.080014,-5699.585753,76.609550
1398.807160,5995.668130,-7328.038826,306.438199
1398.807489,5181.441594,-8586.388927,1072.533697
1398.807818,5033.400406,-7105.977043,459.657299
1398.808148,5699.585753,-6069.688724,-459.657299
1398.808477,7031.956449,-5847.626942,1455.581446
1398.808806,8808.450710,-6069.688724,3600.648841
1398.809136,9992.780217,-4515.256246,2451.505594
1398.809465,8956.491898,-2516.700203,1072.533697
1398.809794,8290.306550,-3034.844362,842.705048
1398.810124,7550.100608,-4515.256246,1762.019645
1398.810453,6957.935855,-6735.874072,2451.505594
1398.810782,5921.647536,-6735.874072,0.000000
1398.811112,5847.626942,-6365.771101,-1149.143247
1398.811441,6513.812290,-8438.347739,766.095498
1398.811770,7254.018232,-9844.739029,2604.724693
1398.812100,8290.306550,-7698.141797,1915.238745
1398.812429,7550.100608,-4885.359217,0.000000
1398.812758,6143.709319,-5847.626942,383.047749
1398.813088,5699.585753,-8068.244768,1532.190996
1398.813417,4737.318029,-7920.203579,995.924147
1398.813746,4219.173869,-7550.100608,-919.314598
1398.814076,4737.318029,-6735.874072,-842.705048
1398.814405,6439.791695,-7254.018232,1302.362347
1398.814734,8216.285956,-7624.121203,2528.115143
1398.815064,9252.574275,-6513.812290,1915.238745
1398.815393,9252.574275,-4515.256246,459.657299
1398.815722,8068.244768,-5625.565159,919.314598
1398.816052,7105.977043,-6809.894666,1838.629195
1398.816381,6217.729913,-7328.038826,1072.533697
1398.816710,5773.606348,-6143.709319,-383.047749
1398.817040,5995.668130,-7105.977043,0.000000
1398.817369,6661.853478,-8808.450710,2221.676944
1398.817698,7476.080014,-7328.038826,3294.210641
1398.818028,7994.224174,-4811.338623,1072.533697
1398.818357,7031.956449,-4219.173869,229.828649
1398.818686,6143.709319,-6143.709319,1378.971896
1398.819016,5847.626942,-8142.265362,2221.676944
1398.819345,5995.668130,-7920.203579,1532.190996
1398.819674,5699.585753,-5403.503377,-536.266849
1398.820004,5625.565159,-6365.771101,153.219100
1398.820333,6587.832884,-7624.121203,2298.286494
1398.820662,8512.368333,-7846.182985,2528.115143
1398.820992,9252.574275,-4663.297435,995.924147
1398.821321,7920.203579,-4811.338623,459.657299
1398.821650,6809.894666,-6439.791695,1455.581446
1398.821980,7105.977043,-7328.038826,1225.752797
1398.822309,6883.915261,-6143.709319,306.438199
1398.822638,6365.771101,-5107.421000,-229.828649
1398.822968,6883.915261,-6809.894666,1378.971896
1398.823297,8216.285956,-6439.791695,2757.943793
1398.823626,7846.182985,-6291.750507,2374.896044
1398.823956,8068.244768,-4737.318029,766.095498
1398.824285,8142.265362,-5773.606348,1149.143247
1398.824614,6735.874072,-7476.080014,2068.457845
1398.824944,5847.626942,-8808.450710,1608.800546
1398.825273,5033.400406,-6957.935855,0.000000
1398.825602,5107.421000,-5995.668130,-995.924147
1398.825932,5699.585753,-7402.059420,1225.752797
1398.826261,7105.977043,-8068.244768,2451.505594
1398.826590,8734.430116,-6513.812290,1608.800546
1398.826920,8364.327145,-3923.091493,0.000000
1398.827249,7624.121203,-4589.276840,536.266849
1398.827578,8290.306550,-5181.441594,2528.115143
1398.827908,7846.182985,-5551.544565,1225.752797
1398.828237,7105.977043,-4293.194464,76.609550
1398.828566,6883.915261,-4663.297435,383.047749
1398.828896,7328.038826,-6513.812290,1915.238745
1398.829225,8438.347739,-7550.100608,3064.381992
1398.829554,8512.368333,-6217.729913,1762.019645
1398.829884,8660.409521,-5625.565159,536.266849
1398.830213,6809.894666,-6735.874072,1225.752797
1398.830542,5255.462188,-9622.677246,1838.629195
1398.830872,3997.112087,-9474.636058,0.000000
1398.831201,2590.720797,-8586.388927,-1685.410096
1398.831531,2442.679609,-8882.471304,-995.924147
1398.831860,4589.276840,-9252.574275,1072.533697
1398.832189,6587.832884,-8364.327145,1838.629195
1398.832519,7624.121203,-5329.482782,1072.533697
1398.832848,8660.409521,-4145.153275,306.438199
1398.833177,8438.347739,-4663.297435,1608.800546
1398.833507,8734.430116,-6291.750507,2604.724693
1398.833836,7920.203579,-6365.771101,766.095498
1398.834165,6957.935855,-4885.359217,-536.266849
1398.834495,7105.977043,-6661.853478,766.095498
1398.834824,8438.347739,-7846.182985,2911.162892
1398.835153,8882.471304,-7402.059420,2451.505594
1398.835483,7624.121203,-5625.565159,459.657299
1398.835812,6587.832884,-5921.647536,-459.657299
1398.836141,5847.626942,-7476.080014,842.705048
1398.836471,5181.441594,-8734.430116,1455.581446
1398.836800,4811.338623,-7254.018232,0.000000
1398.837129,5181.441594,-5551.544565,-842.705048
1398.837458,5995.668130,-5921.647536,766.095498
1398.837787,7772.162391,-6883.915261,2451.505594
1398.838116,9030.512492,-4589.276840,2068.457845
1398.838445,9326.594869,-2738.761985,-153.219100
1398.838774,9178.553681,-3478.967927,766.095498
1398.839103,9326.594869,-6291.750507,2987.772442
1398.839432,8438.347739,-7550.100608,2298.286494
1398.839762,7402.059420,-5329.482782,612.876398
1398.840091,6217.729913,-5551.544565,-919.314598
1398.840420,6661.853478,-7550.100608,1072.533697
1398.840749,6883.915261,-7402.059420,3217.601092
1398.841078,7402.059420,-7476.080014,1378.971896
1398.841407,7105.977043,-4811.338623,0.000000
1398.841736,6883.915261,-5995.668130,306.438199
1398.842065,6069.688724,-7550.100608,1302.362347
1398.842394,5255.462188,-8512.368333,1455.581446
1398.842723,4589.276840,-7772.162391,-919.314598
1398.843052,4811.338623,-6513.812290,-1225.752797
1398.843381,5995.668130,-7772.162391,842.705048
1398.843710,8512.368333,-8290.306550,2911.162892
1398.844040,9104.533087,-6069.688724,1838.629195
1398.844369,8586.388927,-4663.297435,76.609550
1398.844698,7994.224174,-5625.565159,842.705048
1398.845027,7698.141797,-7105.977043,1838.629195
1398.845356,7105.977043,-7476.080014,1608.800546
1398.845685,5551.544565,-6365.771101,-612.876398
1398.846014,5329.482782,-7105.977043,-229.828649
1398.846343,6439.791695,-8364.327145,1685.410096
1398.846672,7402.059420,-7846.182985,2681.334243
1398.847001,8216.285956,-5107.421000,1685.410096
1398.847330,8364.327145,-4071.132681,153.219100
1398.847659,7994.224174,-6291.750507,1225.752797
1398.847988,6809.894666,-7476.080014,2681.334243
1398.848317,5403.503377,-7550.100608,612.876398
1398.848647,5255.462188,-6957.935855,-842.705048
1398.848976,5181.441594,-6809.894666,0.000000
1398.849305,6365.771101,-8586.388927,1685.410096
1398.849634,8142.265362,-7846.182985,2681.334243
1398.849963,8808.450710,-5403.503377,766.095498
1398.850292,7846.182985,-4811.338623,0.000000
1398.850621,7105.977043,-5625.565159,1378.971896
1398.850950,6069.688724,-7179.997637,1838.629195
1398.851279,5625.565159,-6587.832884,-306.438199
1398.851608,5625.565159,-5107.421000,-536.266849
1398.851937,7402.059420,-6365.771101,1455.581446
1398.852266,9326.594869,-6365.771101,3447.429741
1398.852595,9992.780217,-5033.400406,3140.991542
1398.852925,9030.512492,-2886.803174,1455.581446
1398.853254,7772.162391,-4219.173869,229.828649
1398.853583,6735.874072,-6513.812290,1608.800546
1398.853912,5847.626942,-8808.450710,1915.238745
1398.854241,5329.482782,-8068.244768,306.438199
1398.854570,5255.462188,-6809.894666,-612.876398
1398.854899,5625.565159,-8586.388927,766.095498
1398.855228,6291.750507,-8808.450710,2451.505594
1398.855557,7105.977043,-7105.977043,1455.581446
1398.855886,7105.977043,-5551.544565,-383.047749
1398.856215,7031.956449,-4737.318029,306.438199
1398.856544,6661.853478,-6587.832884,1991.848295
1398.856873,6661.853478,-7179.997637,1532.190996
1398.857202,6587.832884,-5921.647536,229.828649
1398.857532,7179.997637,-5107.421000,-153.219100
1398.857861,7772.162391,-6143.709319,1532.190996
1398.858190,8586.388927,-6883.915261,2834.553343
1398.858519,8808.450710,-5477.523971,1149.143247
1398.858848,7698.141797,-5107.421000,536.266849
1398.859177,7402.059420,-6439.791695,1378.971896
1398.859506,6957.935855,-8586.388927,1915.238745
1398.859835,4959.379811,-9474.636058,1302.362347
1398.860164,3923.091493,-8216.285956,-536.266849
1398.860493,4663.297435,-8068.244768,-612.876398
1398.860822,5699.585753,-8586.388927,1915.238745
1398.861151,6957.935855,-7994.224174,2757.943793
1398.861480,7402.059420,-6069.688724,995.924147
1398.861810,7179.997637,-3256.906145,0.000000
1398.862139,7105.977043,-5329.482782,919.314598
1398.862468,6439.791695,-6365.771101,1532.190996
1398.862797,6587.832884,-6661.853478,995.924147
1398.863126,7105.977043,-6883.915261,383.047749
1398.863455,7550.100608,-5329.482782,612.876398
1398.863784,8142.265362,-7179.997637,2221.676944
1398.864113,8512.368333,-6957.935855,2451.505594
1398.864442,8216.285956,-5255.462188,536.266849
1398.864771,7994.224174,-5551.544565,0.000000
1398.865100,7994.224174,-7105.977043,2068.457845
1398.865429,6661.853478,-8364.327145,2221.676944
1398.865758,5403.503377,-8142.265362,766.095498
1398.866087,4885.359217,-6883.915261,-459.657299
1398.866417,5551.544565,-6587.832884,383.047749
1398.866746,7105.977043,-6957.935855,2681.334243
1398.867075,8142.265362,-5403.503377,2374.896044
1398.867404,7624.121203,-2294.638420,0.000000
1398.867733,7105.977043,-3701.029710,-536.266849
1398.868062,7179.997637,-5551.544565,1532.190996
1398.868391,7179.997637,-7254.018232,2068.457845
1398.868720,6883.915261,-7179.997637,766.095498
1398.869049,6735.874072,-6291.750507,229.828649
1398.869378,7698.141797,-7550.100608,689.485948
1398.869707,8142.265362,-7772.162391,2451.505594
1398.870036,7476.080014,-7254.018232,1608.800546
1398.870365,7254.018232,-5403.503377,-383.047749
1398.870695,7105.977043,-5403.503377,-383.047749
1398.871024,6439.791695,-7624.121203,1532.190996
1398.871353,6143.709319,-9326.594869,1685.410096
1398.871682,5551.544565,-7254.018232,76.609550
1398.872011,4885.359217,-6661.853478,-1378.971896
1398.872340,5921.647536,-6809.894666,1455.581446
1398.872669,8290.306550,-6217.729913,2374.896044
1398.872998,8660.409521,-5847.626942,919.314598
1398.873327,8068.244768,-3997.112087,153.219100
1398.873656,7624.121203,-4737.318029,153.219100
1398.873985,7920.203579,-6883.915261,995.924147
1398.874314,6735.874072,-8808.450710,2068.457845
1398.874643,6365.771101,-7476.080014,0.000000
1398.874972,7105.977043,-7550.100608,0.000000
1398.875302,6809.894666,-9400.615463,2068.457845
1398.875631,7179.997637,-8660.409521,3447.429741
1398.875960,7402.059420,-5847.626942,612.876398
1398.876289,7402.059420,-3997.112087,0.000000
1398.876618,7105.977043,-5847.626942,995.924147
1398.876947,7105.977043,-8290.306550,2911.162892
1398.877276,6143.709319,-7328.038826,1608.800546
1398.877605,5033.400406,-6069.688724,-1225.752797
1398.877934,5033.400406,-6809.894666,0.000000
1398.878263,6735.874072,-7402.059420,2451.505594
1398.878592,7994.224174,-7105.977043,2298.286494
1398.878921,8660.409521,-4737.318029,766.095498
1398.879250,8068.244768,-4145.153275,0.000000
1398.879580,7624.121203,-5699.585753,1225.752797
1398.879909,7179.997637,-7846.182985,2374.896044
1398.880238,6957.935855,-7179.997637,1225.752797
1398.880567,6217.729913,-6069.688724,0.000000
1398.880896,6069.688724,-5699.585753,459.657299
1398.881225,7179.997637,-7179.997637,2451.505594
1398.881554,8660.409521,-5625.565159,2757.943793
1398.881883,8734.430116,-3404.947333,766.095498
1398.882212,8142.265362,-3775.050304,689.485948
1398.882541,7254.018232,-6217.729913,2374.896044
1398.882870,6809.894666,-7179.997637,2681.334243
1398.883199,5255.462188,-6587.832884,76.609550
1398.883528,4515.256246,-6365.771101,-536.266849
1398.883857,5329.482782,-8142.265362,383.047749
1398.884187,6587.832884,-9030.512492,2221.676944
1398.884516,6883.915261,-6661.853478,1302.362347
1398.884845,7624.121203,-5551.544565,383.047749
1398.885174,7550.100608,-4663.297435,-536.266849
1398.885503,6957.935855,-6735.874072,1608.800546
1398.885832,6439.791695,-8364.327145,2221.676944
1398.886161,7328.038826,-6809.894666,1302.362347
1398.886490,7105.977043,-5329.482782,-612.876398
1398.886819,6883.915261,-6809.894666,1378.971896
1398.887148,7698.141797,-7179.997637,2451.505594
1398.887477,7846.182985,-5995.668130,1225.752797
1398.887806,7328.038826,-3923.091493,0.000000
1398.888135,7624.121203,-5773.606348,689.485948
1398.888465,7772.162391,-7698.141797,2298.286494
1398.888794,6291.750507,-9622.677246,1608.800546
1398.889123,4589.276840,-7476.080014,-536.266849
1398.889452,4441.235652,-7550.100608,-1378.971896
1398.889781,5329.482782,-9326.594869,1762.019645
1398.890110,7254.018232,-7772.162391,2528.115143
1398.890439,7328.038826,-5921.647536,612.876398
1398.890768,7105.977043,-4589.276840,0.000000
1398.891097,6513.812290,-6069.688724,459.657299
1398.891426,6291.750507,-7920.203579,2145.067394
1398.891755,6587.832884,-6883.915261,1685.410096
1398.892084,6217.729913,-5921.647536,-306.438199
1398.892413,6513.812290,-6365.771101,0.000000
1398.892742,7254.018232,-7624.121203,2451.505594
1398.893072,9030.512492,-6735.874072,2681.334243
1398.893401,9104.533087,-5033.400406,995.924147
1398.893730,8660.409521,-4737.318029,0.000000
1398.894059,7550.100608,-6809.894666,1532.190996
1398.894388,6809.894666,-7698.141797,2221.676944
1398.894717,4737.318029,-8586.388927,0.000000
1398.895046,4589.276840,-5921.647536,-1225.752797
1398.895375,5403.503377,-7179.997637,229.828649
1398.895704,7402.059420,-7624.121203,2374.896044
1398.896033,9326.594869,-5033.400406,3524.039291
1398.896362,8586.388927,-4515.256246,1838.629195
1398.896691,7550.100608,-2072.576638,-612.876398
1398.897020,6439.791695,-5033.400406,842.705048
1398.897350,6809.894666,-7550.100608,2145.067394
1398.897679,7105.977043,-6291.750507,1072.533697
1398.898008,7179.997637,-5699.585753,76.609550
1398.898337,7105.977043,-7105.977043,2374.896044
1398.898666,8512.368333,-6735.874072,2451.505594
1398.898995,9104.533087,-5699.585753,2145.067394
1398.899324,8216.285956,-4219.173869,229.828649
1398.899653,6883.915261,-5995.668130,153.219100
1398.899982,6365.771101,-7105.977043,1225.752797
1398.900311,5551.544565,-8512.368333,842.705048
1398.900640,5477.523971,-8660.409521,0.000000
1398.900969,5181.441594,-7105.977043,-919.314598
1398.901298,5699.585753,-8364.327145,0.000000
1398.901627,7105.977043,-8142.265362,1915.238745
1398.901957,8586.388927,-5329.482782,1455.581446
1398.902286,8438.347739,-4885.359217,-229.828649
1398.902615,7105.977043,-6365.771101,229.828649
1398.902944,6365.771101,-7772.162391,1378.971896
1398.903273,6661.853478,-8364.327145,842.705048
1398.903602,6735.874072,-6809.894666,0.000000
1398.903931,6513.812290,-7031.956449,76.609550
1398.904260,6883.915261,-8068.244768,766.095498
1398.904589,7254.018232,-8438.347739,2221.676944
1398.904918,7698.141797,-5625.565159,919.314598
1398.905247,7402.059420,-5255.462188,0.000000
1398.905576,6883.915261,-6069.688724,1072.533697
1398.905905,6809.894666,-8068.244768,1455.581446
1398.906235,5403.503377,-8438.347739,612.876398
1398.906564,5847.626942,-5477.523971,0.000000
1398.906893,7179.997637,-6365.771101,689.485948
1398.907222,8438.347739,-6809.894666,2834.553343
1398.907551,9400.615463,-5847.626942,2987.772442
1398.907880,8660.409521,-4145.153275,306.438199
1398.908209,7179.997637,-3701.029710,0.000000
1398.908538,6809.894666,-6587.832884,995.924147
1398.908867,7031.956449,-8068.244768,2145.067394
1398.909196,5773.606348,-7105.977043,383.047749
1398.909525,5403.503377,-6291.750507,-919.314598
1398.909854,6069.688724,-7105.977043,689.485948
1398.910183,6809.894666,-8216.285956,2451.505594
1398.910512,7994.224174,-5995.668130,2528.115143
1398.910842,8216.285956,-3478.967927,536.266849
1398.911171,8290.306550,-3997.112087,612.876398
1398.911500,7698.141797,-6883.915261,2298.286494
1398.911829,7105.977043,-8438.347739,3294.210641
1398.912158,6143.709319,-7031.956449,536.266849
1398.912487,5329.482782,-5995.668130,-766.095498
1398.912816,5847.626942,-7846.182985,1455.581446
1398.913145,7328.038826,-8068.244768,2987.772442
1398.913474,8068.244768,-6809.894666,1838.629195
1398.913803,6883.915261,-4959.379811,0.000000
1398.914132,5773.606348,-5699.585753,-689.485948
1398.914461,6069.688724,-7105.977043,1378.971896
1398.914790,6587.832884,-7698.141797,2451.505594
1398.915120,6809.894666,-6217.729913,383.047749
1398.915449,7402.059420,-5699.585753,459.657299
1398.915778,7328.038826,-6143.709319,1762.019645
1398.916107,7920.203579,-7105.977043,2451.505594
1398.916436,8068.244768,-4441.235652,919.314598
1398.916765,7698.141797,-5181.441594,153.219100
1398.917094,7328.038826,-6883.915261,1378.971896
1398.917423,6735.874072,-8068.244768,2757.943793
1398.917752,5847.626942,-8882.471304,1532.190996
1398.918081,5255.462188,-6661.853478,76.609550
1398.918410,5403.503377,-6883.915261,76.609550
1398.918739,6957.935855,-7994.224174,2068.457845
1398.919068,8290.306550,-7179.997637,2987.772442
1398.919397,8142.265362,-5551.544565,2298.286494
1398.919727,6809.894666,-3849.070898,-536.266849
1398.920056,6217.729913,-5107.421000,0.000000
1398.920385,6513.812290,-7550.100608,1991.848295
1398.920714,6735.874072,-8216.285956,1915.238745
1398.921043,6661.853478,-7105.977043,383.047749
1398.921372,5255.462188,-6365.771101,0.000000
1398.921701,5995.668130,-7698.141797,1532.190996
1398.922030,7772.162391,-6883.915261,2451.505594
1398.922359,8364.327145,-4959.379811,383.047749
1398.922688,8512.368333,-5699.585753,689.485948
1398.923017,7994.224174,-7031.956449,2374.896044
1398.923346,6957.935855,-8660.409521,1915.238745
1398.923675,5921.647536,-8216.285956,612.876398
1398.924005,4663.297435,-6143.709319,-842.705048
1398.924334,5255.462188,-7031.956449,0.000000
1398.924663,7328.038826,-7105.977043,1838.629195
1398.924992,9178.553681,-5773.606348,2911.162892
1398.925321,9548.656652,-3108.864956,1149.143247
1398.925650,9104.533087,-3108.864956,383.047749
1398.925979,7254.018232,-4663.297435,766.095498
1398.926308,6217.729913,-7402.059420,1608.800546
1398.926637,6587.832884,-7105.977043,842.705048
1398.926966,7254.018232,-5329.482782,229.828649
1398.927295,7254.018232,-6809.894666,1149.143247
1398.927624,8068.244768,-7328.038826,2987.772442
1398.927953,8364.327145,-7105.977043,2145.067394
1398.928282,7254.018232,-5625.565159,76.609550
1398.928612,4811.338623,-5477.523971,-459.657299
1398.928941,5403.503377,-8068.244768,229.828649
1398.929270,5847.626942,-9104.533087,1378.971896
1398.929599,5033.400406,-8660.409521,-153.219100
1398.929928,4811.338623,-7772.162391,-383.047749
1398.930257,6217.729913,-7105.977043,459.657299
1398.930586,8142.265362,-7550.100608,1455.581446
1398.930915,8290.306550,-5477.523971,1378.971896
1398.931244,8734.430116,-4219.173869,459.657299
1398.931573,8512.368333,-4737.318029,383.047749
1398.931902,7402.059420,-7031.956449,1455.581446
1398.932231,6661.853478,-7994.224174,1762.019645
1398.932560,6957.935855,-5995.668130,76.609550
1398.932890,6143.709319,-7031.956449,0.000000
1398.933219,5551.544565,-8364.327145,1378.971896
1398.933548,6143.709319,-8290.306550,1532.190996
1398.933877,7031.956449,-6587.832884,689.485948
1398.934206,7105.977043,-4885.359217,-306.438199
1398.934535,5995.668130,-6365.771101,536.266849
1398.934864,5921.647536,-8068.244768,766.095498
1398.935193,5255.462188,-9400.615463,842.705048
1398.935522,4959.379811,-6957.935855,-612.876398
1398.935851,6069.688724,-5773.606348,153.219100
1398.936180,7920.203579,-5995.668130,2221.676944
1398.936509,9474.636058,-6069.688724,2911.162892
1398.936838,9178.553681,-3923.091493,1608.800546
1398.937167,8586.388927,-2442.679609,0.000000
1398.937496,7772.162391,-4441.235652,842.705048
1398.937825,7105.977043,-5995.668130,1991.848295
1398.938154,6957.935855,-7105.977043,995.924147
1398.938483,6291.750507,-6217.729913,76.609550
1398.938812,6069.688724,-6735.874072,689.485948
1398.939141,7105.977043,-8660.409521,1991.848295
1398.939470,7624.121203,-6883.915261,1762.019645
1398.939799,7772.162391,-5107.421000,0.000000
1398.940128,7105.977043,-5625.565159,229.828649
1398.940457,7550.100608,-6957.935855,1685.410096
1398.940786,7105.977043,-8512.368333,1685.410096
1398.941115,5921.647536,-7476.080014,612.876398
1398.941444,4959.379811,-7105.977043,-459.657299
1398.941773,6143.709319,-7698.141797,536.266849
1398.942102,7105.977043,-6809.894666,3524.039291
1398.942431,8734.430116,-6439.791695,2451.505594
1398.942760,8512.368333,-3701.029710,383.047749
1398.943089,8142.265362,-4071.132681,383.047749
1398.943418,7550.100608,-6957.935855,1302.362347
1398.943747,5847.626942,-7624.121203,1608.800546
1398.944076,5255.462188,-7402.059420,459.657299
1398.944405,5847.626942,-6365.771101,-689.485948
1398.944734,7105.977043,-8586.388927,1685.410096
1398.945063,7476.080014,-7105.977043,2221.676944
1398.945392,7179.997637,-8216.285956,1532.190996
1398.945721,6883.915261,-4959.379811,-383.047749
1398.946050,6439.791695,-5625.565159,0.000000
1398.946379,6143.709319,-8586.388927,1762.019645
1398.946708,6143.709319,-9030.512492,1838.629195
1398.947037,5773.606348,-7476.080014,306.438199
1398.947366,5625.565159,-6883.915261,459.657299
1398.947695,7105.977043,-6587.832884,1838.629195
1398.948024,8290.306550,-6217.729913,2528.115143
1398.948353,7476.080014,-5107.421000,612.876398
1398.948682,7772.162391,-3923.091493,612.876398
1398.949011,8364.327145,-5699.585753,1378.971896
1398.949340,7402.059420,-6513.812290,2068.457845
1398.949669,5699.585753,-6291.750507,2145.067394
1398.949998,5921.647536,-5773.606348,76.609550
1398.950327,6143.709319,-7031.956449,-306.438199
1398.950656,6513.812290,-7624.121203,2145.067394
1398.950985,7624.121203,-8438.347739,2451.505594
1398.951314,8882.471304,-4367.215058,1762.019645
1398.951643,7846.182985,-4737.318029,459.657299
1398.951972,6587.832884,-7105.977043,1455.581446
1398.952301,6069.688724,-8142.265362,1915.238745
1398.952630,5403.503377,-8956.491898,689.485948
1398.952959,4589.276840,-7402.059420,-612.876398
1398.953288,5773.606348,-7105.977043,229.828649
1398.953617,7920.203579,-7402.059420,2451.505594
1398.953946,8734.430116,-6587.832884,2451.505594
1398.954275,8586.388927,-4293.194464,229.828649
1398.954604,7846.182985,-3108.864956,-383.047749
1398.954933,7105.977043,-6143.709319,1532.190996
1398.955262,7105.977043,-7402.059420,2298.286494
1398.955591,6735.874072,-6661.853478,766.095498
1398.955920,6735.874072,-6143.709319,76.609550
1398.956249,7031.956449,-6439.791695,766.095498
1398.956578,7179.997637,-7698.141797,2451.505594
1398.956907,7920.203579,-6587.832884,2451.505594
1398.957236,7846.182985,-4589.276840,306.438199
1398.957565,6957.935855,-5033.400406,229.828649
1398.957894,6439.791695,-8142.265362,1838.629195
1398.958223,6069.688724,-9252.574275,1838.629195
1398.958552,5255.462188,-7846.182985,383.047749
1398.958881,4811.338623,-6291.750507,-995.924147
1398.959210,5995.668130,-7846.182985,383.047749
1398.959539,7550.100608,-6513.812290,2068.457845
1398.959868,7698.141797,-5773.606348,1072.533697
1398.960197,7772.162391,-3404.947333,-459.657299
1398.960526,7772.162391,-3923.091493,0.000000
1398.960855,8068.244768,-6735.874072,2528.115143
1398.961184,7402.059420,-7031.956449,1608.800546
1398.961513,6439.791695,-6365.771101,612.876398
1398.961842,7031.956449,-5477.523971,383.047749
1398.962171,8216.285956,-7624.121203,1915.238745
1398.962500,8438.347739,-7624.121203,3140.991542
1398.962829,7328.038826,-6661.853478,1838.629195
1398.963158,6809.894666,-5921.647536,-689.485948
1398.963487,5921.647536,-6291.750507,0.000000
1398.963816,4737.318029,-8882.471304,1225.752797
1398.964145,5625.565159,-9918.759623,1532.190996
1398.964474,5921.647536,-7698.141797,-536.266849
1398.964803,5329.482782,-7476.080014,-459.657299
1398.965132,5847.626942,-7476.080014,1532.190996
1398.965461,7402.059420,-6217.729913,1378.971896
1398.965790,7846.182985,-4441.235652,153.219100
1398.966119,7624.121203,-3552.988522,-153.219100
1398.966448,9178.553681,-4885.359217,536.266849
1398.966777,9400.615463,-6513.812290,3140.991542
1398.967106,8438.347739,-7105.977043,2451.505594
1398.967435,7179.997637,-5625.565159,0.000000
1398.967764,6809.894666,-5329.482782,0.000000
1398.968093,6587.832884,-8068.244768,1685.410096
1398.968422,7698.141797,-7476.080014,2757.943793
1398.968751,7402.059420,-4959.379811,766.095498
1398.969080,7624.121203,-4663.297435,0.000000
1398.969409,7179.997637,-6587.832884,1378.971896
1398.969738,5921.647536,-8290.306550,2451.505594
1398.970067,5921.647536,-7550.100608,842.705048
1398.970396,5181.441594,-6809.894666,-229.828649
1398.970725,5551.544565,-6439.791695,76.609550
1398.971054,7105.977043,-6957.935855,1685.410096
1398.971383,7994.224174,-7105.977043,2604.724693
1398.971712,8438.347739,-4589.276840,459.657299
1398.972041,7698.141797,-4515.256246,0.000000
1398.972370,7179.997637,-6143.709319,1838.629195
1398.972699,6735.874072,-8142.265362,2068.457845
1398.973028,6365.771101,-7476.080014,459.657299
1398.973357,5625.565159,-6439.791695,-536.266849
1398.973686,6365.771101,-7328.038826,383.047749
1398.974015,7846.182985,-7476.080014,2757.943793
1398.974344,8660.409521,-6143.709319,2451.505594
1398.974673,7994.224174,-4811.338623,536.266849
1398.975002,7105.977043,-5255.462188,612.876398
1398.975331,5847.626942,-7550.100608,1072.533697
1398.975660,5477.523971,-9400.615463,1532.190996
1398.975989,5181.441594,-7328.038826,0.000000
1398.976318,5773.606348,-6883.915261,0.000000
1398.976647,7105.977043,-7402.059420,1378.971896
1398.976976,8290.306550,-6513.812290,2681.334243
1398.977305,8512.368333,-5329.482782,1225.752797
1398.977634,8660.409521,-3849.070898,0.000000
1398.977963,8142.265362,-4959.379811,1302.362347
1398.978292,7254.018232,-6735.874072,2068.457845
1398.978621,5625.565159,-7772.162391,919.314598
1398.978950,4959.379811,-7105.977043,-306.438199
1398.979279,5107.421000,-7031.956449,-459.657299
1398.979608,5625.565159,-7624.121203,2068.457845
1398.979937,7994.224174,-7698.141797,3370.820191
1398.980266,8734.430116,-4737.318029,1455.581446
1398.980595,7920.203579,-4515.256246,536.266849
1398.980924,7550.100608,-6809.894666,1149.143247
1398.981253,7179.997637,-7698.141797,2068.457845
1398.981582,5625.565159,-8512.368333,842.705048
1398.981911,5403.503377,-7105.977043,-383.047749
1398.982240,5699.585753,-7254.018232,0.000000
1398.982569,7105.977043,-8068.244768,2298.286494
1398.982898,7328.038826,-7328.038826,3064.381992
1398.983227,7328.038826,-4367.215058,0.000000
1398.983556,7105.977043,-3330.926739,-536.266849
1398.983885,7328.038826,-5995.668130,1378.971896
1398.984214,6957.935855,-6809.894666,2298.286494
1398.984543,6809.894666,-5477.523971,919.314598
1398.984872,6883.915261,-4663.297435,0.000000
1398.985201,7328.038826,-5625.565159,919.314598
1398.985530,8290.306550,-7402.059420,2987.772442
1398.985859,8882.471304,-6439.791695,2757.943793
1398.986188,8586.388927,-3701.029710,766.095498
1398.986517,7328.038826,-5329.482782,229.828649
1398.986846,6809.894666,-7698.141797,1532.190996
1398.987175,5329.482782,-9252.574275,1378.971896
1398.987504,4515.256246,-8956.491898,-612.876398
1398.987833,3404.947333,-8068.244768,-842.705048
1398.988162,4885.359217,-8438.347739,306.438199
1398.988491,7105.977043,-8068.244768,1532.190996
1398.988820,7179.997637,-6365.771101,1378.971896
1398.989149,7772.162391,-3330.926739,-612.876398
1398.989478,8216.285956,-3701.029710,0.000000
1398.989807,7846.182985,-5625.565159,1455.581446
1398.990136,7328.038826,-7105.977043,2298.286494
1398.990465,8586.388927,-5699.585753,919.314598
1398.990794,7846.182985,-5329.482782,76.609550
1398.991123,8438.347739,-7624.121203,2221.676944
1398.991452,9474.636058,-7328.038826,2911.162892
1398.991781,8956.491898,-5551.544565,1608.800546
1398.992110,7328.038826,-5329.482782,-306.438199
1398.992439,5699.585753,-7476.080014,0.000000
1398.992768,5033.400406,-9178.553681,1302.362347
1398.993097,4589.276840,-10140.821405,842.705048
1398.993426,4589.276840,-7846.182985,-383.047749
1398.993755,4959.379811,-7328.038826,0.000000
1398.994084,5921.647536,-8216.285956,1685.410096
1398.994413,7698.141797,-6587.832884,2451.505594
1398.994742,7550.100608,-5551.544565,459.657299
1398.995071,7994.224174,-2738.761985,-689.485948
1398.995400,8216.285956,-4515.256246,995.924147
1398.995729,8956.491898,-6513.812290,2451.505594
1398.996058,8586.388927,-6365.771101,2298.286494
1398.996387,8512.368333,-5255.462188,919.314598
1398.996716,8068.244768,-5921.647536,306.438199
1398.997045,7031.956449,-7031.956449,1915.238745
1398.997374,7550.100608,-7476.080014,2604.724693
1398.997703,7698.141797,-5033.400406,689.485948
1398.998032,6883.915261,-4737.318029,995.924147
1398.998361,5477.523971,-7476.080014,1149.143247
1398.998690,5255.462188,-8290.306550,1838.629195
1398.999019,4515.256246,-9474.636058,919.314598
1398.999348,4367.215058,-6291.750507,-1302.362347
1398.999677,4885.359217,-6883.915261,1225.752797
1399.000006,7031.956449,-8364.327145,2987.772442
1399.000335,8216.285956,-5847.626942,1991.848295
1399.000664,8290.306550,-3849.070898,1072.533697
1399.000993,8808.450710,-3627.009116,0.000000
1399.001322,7994.224174,-5847.626942,1378.971896
1399.001651,7105.977043,-7328.038826,2451.505594
1399.001980,6735.874072,-7698.141797,1225.752797
1399.002309,7105.977043,-6143.709319,0.000000
1399.002638,6735.874072,-6291.750507,919.314598
1399.002967,7031.956449,-7772.162391,2681.334243
1399.003296,7846.182985,-6809.894666,1455.581446
1399.003625,6957.935855,-4959.379811,-76.609550
1399.003954,6809.894666,-5995.668130,0.000000
1399.004283,7105.977043,-7624.121203,1915.238745
1399.004612,6365.771101,-9770.718434,1991.848295
1399.004941,4737.318029,-8882.471304,0.000000
1399.005270,4811.338623,-7031.956449,-459.657299
1399.005599,6365.771101,-7328.038826,1302.362347
1399.005928,8216.285956,-7105.977043,2451.505594
1399.006257,9104.533087,-5995.668130,2298.286494
1399.006586,8068.244768,-3627.009116,-229.828649
1399.006915,6809.894666,-5625.565159,-229.828649
1399.007244,5847.626942,-7624.121203,2068.457845
1399.007573,5551.544565,-8512.368333,1302.362347
1399.007902,5921.647536,-6587.832884,-229.828649
1399.008231,6513.812290,-5699.585753,229.828649
1399.008560,7994.224174,-7402.059420,1532.190996
1399.008889,8956.491898,-6291.750507,3217.601092
1399.009218,8586.388927,-5033.400406,1532.190996
1399.009547,7846.182985,-3627.009116,229.828649
1399.009876,7105.977043,-4959.379811,842.705048
1399.010205,6069.688724,-8290.306550,2374.896044
1399.010534,5773.606348,-8808.450710,1455.581446
1399.010863,4737.318029,-7254.018232,229.828649
1399.011192,5477.523971,-7402.059420,0.000000
1399.011521,6661.853478,-7328.038826,1532.190996
1399.011850,7772.162391,-6735.874072,2681.334243
1399.012179,7550.100608,-4367.215058,229.828649
1399.012508,6661.853478,-3627.009116,-612.876398
1399.012837,6661.853478,-5773.606348,689.485948
1399.013166,7105.977043,-7550.100608,1915.238745
1399.013495,7254.018232,-7550.100608,1915.238745
1399.013824,6661.853478,-5773.606348,76.609550
1399.014153,6809.894666,-5995.668130,306.438199
1399.014482,7624.121203,-6661.853478,2451.505594
1399.014811,9030.512492,-5773.606348,2757.943793
1399.015140,8956.491898,-3997.112087,919.314598
1399.015469,7994.224174,-4589.276840,1072.533697
1399.015798,6883.915261,-7476.080014,1225.752797
1399.016127,5107.421000,-9252.574275,2298.286494
1399.016456,4293.194464,-8512.368333,689.485948
1399.016785,5403.503377,-8216.285956,-153.219100
1399.017114,6069.688724,-7698.141797,1149.143247
1399.017443,7031.956449,-7476.080014,2145.067394
1399.017772,7254.018232,-5921.647536,1072.533697
1399.018101,7328.038826,-3849.070898,-459.657299
1399.018430,7105.977043,-4737.318029,-612.876398
1399.018759,6883.915261,-6587.832884,842.705048
1399.019088,6439.791695,-9400.615463,1378.971896
1399.019417,7031.956449,-7179.997637,536.266849
1399.019746,7476.080014,-6587.832884,153.219100
1399.020075,7698.141797,-7550.100608,1608.800546
1399.020404,8512.368333,-7031.956449,2987.772442
1399.020733,8882.471304,-5477.523971,1608.800546
1399.021062,7994.224174,-3478.967927,0.000000
1399.021391,7550.100608,-5773.606348,1072.533697
1399.021720,7105.977043,-7846.182985,2221.676944
1399.022049,5773.606348,-9030.512492,1991.848295
1399.022378,4959.379811,-7328.038826,0.000000
1399.022707,5107.421000,-6809.894666,153.219100
1399.023036,6217.729913,-7105.977043,1302.362347
1399.023365,7105.977043,-6291.750507,1915.238745
1399.023694,7328.038826,-5181.441594,919.314598
1399.024023,7254.018232,-4293.194464,-919.314598
1399.024352,7105.977043,-5625.565159,383.047749
1399.024681,7328.038826,-7624.121203,2451.505594
1399.025010,7772.162391,-8438.347739,2221.676944
1399.025339,8068.244768,-6143.709319,995.924147
1399.025668,7550.100608,-6143.709319,1072.533697
1399.025997,7550.100608,-7772.162391,2528.115143
1399.026326,8216.285956,-5551.544565,2528.115143
1399.026655,7698.141797,-3701.029710,1072.533697
1399.026984,7328.038826,-3256.906145,-229.828649
1399.027313,6957.935855,-6365.771101,1072.533697
1399.027642,6217.729913,-9474.636058,1991.848295
1399.027971,4959.379811,-8068.244768,1149.143247
1399.028300,5033.400406,-6217.729913,-689.485948
1399.028629,5181.441594,-7402.059420,76.609550
1399.028958,6365.771101,-6883.915261,1455.581446
1399.029287,7476.080014,-7031.956449,1991.848295
1399.029616,8216.285956,-4737.318029,842.705048
1399.029945,9104.533087,-3849.070898,306.438199
1399.030274,8512.368333,-5995.668130,1991.848295
1399.030603,7772.162391,-7105.977043,2757.943793
1399.030932,7105.977043,-7550.100608,1302.362347
1399.031261,6365.771101,-5033.400406,0.000000
1399.031590,5699.585753,-6957.935855,689.485948
1399.031919,6661.853478,-7254.018232,1991.848295
1399.032248,7476.080014,-6143.709319,1685.410096
1399.032577,7476.080014,-5255.462188,0.000000
1399.032906,7254.018232,-5329.482782,0.000000
1399.033235,6513.812290,-8068.244768,842.705048
1399.033564,6069.688724,-9696.697840,1608.800546
1399.033893,5551.544565,-7624.121203,-229.828649
1399.034222,6143.709319,-7920.203579,0.000000
1399.034551,7254.018232,-7698.141797,1378.971896
1399.034880,7994.224174,-7254.018232,2757.943793
1399.035209,8364.327145,-5847.626942,1532.190996
1399.035538,8438.347739,-3182.885551,383.047749
1399.035867,7476.080014,-4589.276840,919.314598
1399.036196,6069.688724,-7179.997637,1378.971896
1399.036525,4737.318029,-8660.409521,1302.362347
1399.036854,5699.585753,-7179.997637,-842.705048
1399.037183,5921.647536,-7031.956449,153.219100
1399.037512,6661.853478,-7179.997637,2221.676944
1399.037841,8290.306550,-7105.977043,2374.896044
1399.038170,8216.285956,-4737.318029,995.924147
1399.038499,7698.141797,-4441.235652,-459.657299
1399.038829,7846.182985,-6069.688724,536.266849
1399.039158,7105.977043,-7846.182985,2145.067394
1399.039487,6439.791695,-9252.574275,1378.971896
1399.039816,6143.709319,-6587.832884,76.609550
1399.040145,6143.709319,-6143.709319,306.438199
1399.040474,7105.977043,-6735.874072,1685.410096
1399.040803,7624.121203,-5181.441594,2374.896044
1399.041132,7772.162391,-4145.153275,306.438199
1399.041461,7846.182985,-3923.091493,0.000000
1399.041790,6587.832884,-5329.482782,689.485948
1399.042119,6439.791695,-7994.224174,2068.457845
1399.042448,5477.523971,-8438.347739,1072.533697
1399.042777,6365.771101,-6439.791695,-689.485948
1399.043106,6809.894666,-6143.709319,0.000000
1399.043435,7624.121203,-7328.038826,1991.848295
1399.043764,8512.368333,-5995.668130,2451.505594
1399.044093,8882.471304,-4219.173869,459.657299
1399.044422,8586.388927,-4145.153275,766.095498
1399.044751,8216.285956,-5921.647536,2374.896044
1399.045080,7105.977043,-8660.409521,2145.067394
1399.045409,5033.400406,-7772.162391,306.438199
1399.045738,4441.235652,-7105.977043,-919.314598
1399.046067,5921.647536,-7402.059420,76.609550
1399.046396,7476.080014,-7624.121203,1915.238745
1399.046725,8142.265362,-7105.977043,2068.457845
1399.047055,7846.182985,-4367.215058,0.000000
1399.047384,7254.018232,-5107.421000,0.000000
1399.047713,6957.935855,-6809.894666,1838.629195
1399.048042,6957.935855,-8364.327145,1608.800546
1399.048371,6587.832884,-6809.894666,0.000000
1399.048700,6217.729913,-6587.832884,-536.266849
1399.049029,7254.018232,-7402.059420,1225.752797
1399.049358,8290.306550,-7105.977043,2757.943793
1399.049687,8660.409521,-5699.585753,1608.800546
1399.050016,8068.244768,-4219.173869,229.828649
1399.050345,7476.080014,-6291.750507,612.876398
1399.050674,6069.688724,-8438.347739,1991.848295
1399.051003,4959.379811,-8586.388927,1302.362347
1399.051332,4515.256246,-7254.018232,-689.485948
1399.051661,5403.503377,-6661.853478,-612.876398
1399.051990,7105.977043,-7772.162391,2221.676944
1399.052319,8290.306550,-7624.121203,3140.991542
1399.052648,7550.100608,-4811.338623,1685.410096
1399.052977,6291.750507,-3034.844362,-1072.533697
1399.053306,6143.709319,-4959.379811,0.000000
1399.053635,6661.853478,-7254.018232,2681.334243
1399.053964,7846.182985,-7550.100608,1991.848295
1399.054293,7994.224174,-5847.626942,306.438199
1399.054622,7105.977043,-5625.565159,612.876398
1399.054951,7105.977043,-7698.141797,1838.629195
1399.055281,7994.224174,-7031.956449,2451.505594
1399.055610,7550.100608,-4663.297435,1072.533697
1399.055939,7031.956449,-4885.359217,-536.266849
1399.056268,5847.626942,-6957.935855,1072.533697
1399.056597,6513.812290,-8660.409521,2451.505594
1399.056926,7105.977043,-7920.203579,1915.238745
1399.057255,6365.771101,-5773.606348,0.000000
1399.057584,5995.668130,-6365.771101,612.876398
1399.057913,6883.915261,-6957.935855,1915.238745
1399.058242,8068.244768,-6365.771101,2451.505594
1399.058571,8364.327145,-2960.823768,1072.533697
1399.058900,7920.203579,-3627.009116,0.000000
1399.059229,6883.915261,-6365.771101,1685.410096
1399.059558,6069.688724,-8882.471304,1991.848295
1399.059887,6217.729913,-8068.244768,383.047749
1399.060216,6735.874072,-6143.709319,-229.828649
1399.060545,6143.709319,-7105.977043,459.657299
1399.060874,7254.018232,-7402.059420,2834.553343
1399.061203,7994.224174,-7105.977043,1915.238745
1399.061532,8586.388927,-3923.091493,76.609550
1399.061861,7624.121203,-5255.462188,459.657299
1399.062190,6883.915261,-8068.244768,1532.190996
1399.062519,6439.791695,-8734.430116,2221.676944
1399.062848,6069.688724,-7402.059420,842.705048
1399.063177,5921.647536,-5699.585753,0.000000
1399.063507,7031.956449,-7105.977043,1455.581446
1399.063836,7772.162391,-8068.244768,3370.820191
1399.064165,8290.306550,-5847.626942,1762.019645
1399.064494,7624.121203,-3108.864956,-229.828649
1399.064823,5995.668130,-5107.421000,612.876398
1399.065152,5107.421000,-8290.306550,995.924147
1399.065481,4959.379811,-8364.327145,995.924147
1399.065810,5551.544565,-7031.956449,229.828649
1399.066139,6069.688724,-6735.874072,459.657299
1399.066468,7402.059420,-7550.100608,2221.676944
1399.066797,7772.162391,-7772.162391,2681.334243
1399.067126,8438.347739,-6587.832884,1762.019645
1399.067455,8364.327145,-4737.318029,842.705048
1399.067784,7476.080014,-5625.565159,1072.533697
1399.068113,6957.935855,-8142.265362,2068.457845
1399.068442,5847.626942,-8512.368333,1302.362347
1399.068771,5255.462188,-6143.709319,-383.047749
1399.069100,5551.544565,-6513.812290,0.000000
1399.069429,6883.915261,-6661.853478,2068.457845
1399.069758,7698.141797,-6217.729913,2374.896044
1399.070087,7254.018232,-4811.338623,766.095498
1399.070416,7328.038826,-3627.009116,-536.266849
1399.070745,7402.059420,-5995.668130,383.047749
1399.071074,6661.853478,-7698.141797,2068.457845
1399.071404,6957.935855,-7254.018232,919.314598
1399.071733,7476.080014,-5773.606348,0.000000
1399.072062,7698.141797,-5773.606348,1149.143247
1399.072391,8290.306550,-7179.997637,2834.553343
1399.072720,8808.450710,-5699.585753,2374.896044
1399.073049,8068.244768,-4441.235652,766.095498
1399.073378,6957.935855,-4589.276840,0.000000
1399.073707,6069.688724,-6439.791695,1685.410096
1399.074036,5403.503377,-9030.512492,2298.286494
1399.074365,5773.606348,-8068.244768,76.609550
1399.074694,5033.400406,-6291.750507,-689.485948
1399.075023,5921.647536,-7698.141797,842.705048
1399.075352,7402.059420,-7550.100608,2298.286494
1399.075681,8512.368333,-6217.729913,1532.190996
1399.076010,7846.182985,-4145.153275,-536.266849
1399.076339,7920.203579,-4811.338623,-229.828649
1399.076668,7994.224174,-7402.059420,1838.629195
1399.076997,7254.018232,-8660.409521,2068.457845
1399.077326,6587.832884,-7328.038826,229.828649
1399.077655,6217.729913,-6069.688724,-689.485948
1399.077984,6069.688724,-7179.997637,153.219100
1399.078313,6143.709319,-8364.327145,2221.676944
1399.078642,7031.956449,-6809.894666,1302.362347
1399.078971,7772.162391,-5181.441594,0.000000
1399.079300,7105.977043,-6513.812290,919.314598
1399.079630,5773.606348,-7550.100608,1532.190996
1399.079959,5329.482782,-9030.512492,1302.362347
1399.080288,5329.482782,-6587.832884,-229.828649
1399.080617,6217.729913,-6069.688724,-306.438199
1399.080946,7846.182985,-7105.977043,2451.505594
1399.081275,9400.615463,-6365.771101,3907.087040
1399.081604,8660.409521,-5329.482782,1455.581446
1399.081933,7550.100608,-3404.947333,-689.485948
1399.082262,6735.874072,-4293.194464,383.047749
1399.082591,7105.977043,-7476.080014,2298.286494
1399.082920,7328.038826,-8660.409521,2451.505594
1399.083249,6809.894666,-5255.462188,612.876398
1399.083578,6735.874072,-5255.462188,-153.219100
1399.083907,6365.771101,-7624.121203,2068.457845
1399.084236,6365.771101,-7772.162391,2911.162892
1399.084565,7328.038826,-6217.729913,842.705048
1399.084894,7402.059420,-4737.318029,-842.705048
1399.085223,6809.894666,-7031.956449,1149.143247
1399.085552,6291.750507,-8882.471304,2068.457845
1399.085881,5773.606348,-9104.533087,1072.533697
1399.086210,5255.462188,-6883.915261,-689.485948
1399.086539,5995.668130,-6291.750507,536.266849
1399.086868,7994.224174,-6587.832884,2068.457845
1399.087197,8660.409521,-5847.626942,2604.724693
1399.087526,8512.368333,-4071.132681,689.485948
1399.087856,7994.224174,-3552.988522,0.000000
1399.088185,7550.100608,-5773.606348,1685.410096
1399.088514,7105.977043,-7624.121203,2987.772442
1399.088843,6957.935855,-7031.956449,1608.800546
1399.089172,6291.750507,-5625.565159,-1455.581446
1399.089501,5699.585753,-6735.874072,459.657299
1399.089830,6957.935855,-8660.409521,2298.286494
1399.090159,8290.306550,-7624.121203,2834.553343
1399.090488,8142.265362,-5033.400406,306.438199
1399.090817,7624.121203,-5699.585753,0.000000
1399.091146,6365.771101,-7550.100608,1225.752797
1399.091475,5773.606348,-10584.944971,1608.800546
1399.091804,6291.750507,-7698.141797,306.438199
1399.092133,6587.832884,-5329.482782,-536.266849
1399.092462,6587.832884,-6365.771101,1072.533697
1399.092791,7031.956449,-6439.791695,2451.505594
1399.093120,7920.203579,-7105.977043,1608.800546
1399.093449,7624.121203,-3404.947333,-459.657299
1399.093778,6883.915261,-4737.318029,0.000000
1399.094107,7105.977043,-6217.729913,2145.067394
1399.094436,7624.121203,-7402.059420,2221.676944
1399.094765,7624.121203,-7031.956449,995.924147
1399.095094,6143.709319,-5551.544565,229.828649
1399.095423,6143.709319,-7105.977043,1072.533697
1399.095752,7402.059420,-7402.059420,2604.724693
1399.096082,7994.224174,-6883.915261,1762.019645
1399.096411,8068.244768,-5329.482782,-306.438199
1399.096740,6513.812290,-6883.915261,306.438199
1399.097069,4959.379811,-9326.594869,1072.533697
1399.097398,4663.297435,-8956.491898,766.095498
1399.097727,5033.400406,-7179.997637,-306.438199
1399.098056,5477.523971,-6069.688724,76.609550
1399.098385,6439.791695,-6957.935855,1838.629195
1399.098714,7698.141797,-6735.874072,2451.505594
1399.099043,8512.368333,-5107.421000,995.924147
1399.099372,8142.265362,-3775.050304,1149.143247
1399.099701,7846.182985,-4885.359217,1532.190996
1399.100030,7772.162391,-6587.832884,2681.334243
1399.100359,7402.059420,-7105.977043,1838.629195
1399.100688,7476.080014,-5107.421000,229.828649
1399.101017,7105.977043,-5403.503377,306.438199
1399.101346,7179.997637,-6587.832884,2068.457845
1399.101675,8068.244768,-6957.935855,1915.238745
1399.102004,7402.059420,-5921.647536,536.266849
1399.102333,7254.018232,-4737.318029,536.266849
1399.102662,5403.503377,-8068.244768,612.876398
1399.102991,4811.338623,-10066.800811,1532.190996
1399.103320,5255.462188,-9030.512492,536.266849
1399.103649,5921.647536,-7105.977043,-536.266849
1399.103979,6069.688724,-7846.182985,1302.362347
1399.104308,6957.935855,-7328.038826,2298.286494
1399.104637,7994.224174,-6883.915261,1608.800546
1399.104966,8734.430116,-4737.318029,459.657299
1399.105295,8142.265362,-5847.626942,383.047749
1399.105624,7402.059420,-5921.647536,1991.848295
1399.105953,6735.874072,-7402.059420,1762.019645
1399.106282,6291.750507,-7179.997637,76.609550
1399.106611,6365.771101,-5329.482782,-459.657299
1399.106940,6661.853478,-6365.771101,612.876398
1399.107269,7254.018232,-6957.935855,2145.067394
1399.107598,7994.224174,-6439.791695,1838.629195
1399.107927,8216.285956,-4219.173869,459.657299
1399.108256,7254.018232,-5107.421000,919.314598
1399.108585,7105.977043,-8586.388927,2298.286494
1399.108914,6291.750507,-9030.512492,2298.286494
1399.109243,5773.606348,-6809.894666,153.219100
1399.109572,5699.585753,-7328.038826,229.828649
1399.109901,6365.771101,-7105.977043,2145.067394
1399.110230,7772.162391,-6809.894666,2681.334243
1399.110559,7846.182985,-5477.523971,1302.362347
1399.110888,7402.059420,-3923.091493,229.828649
1399.111217,6883.915261,-4589.276840,383.047749
1399.111546,6587.832884,-5625.565159,1532.190996
1399.111875,5921.647536,-7624.121203,1455.581446
1399.112205,6365.771101,-6143.709319,459.657299
1399.112534,7476.080014,-5921.647536,383.047749
1399.112863,6291.750507,-7550.100608,1302.362347
1399.113192,7031.956449,-6661.853478,2451.505594
1399.113521,7105.977043,-5921.647536,459.657299
1399.113850,7994.224174,-5847.626942,0.000000
1399.114179,6957.935855,-6439.791695,1532.190996
1399.114508,7254.018232,-9400.615463,2451.505594
1399.114837,6809.894666,-8216.285956,1072.533697
1399.115166,5033.400406,-6217.729913,0.000000
1399.115495,4885.359217,-7402.059420,-229.828649
1399.115824,6291.750507,-7105.977043,229.828649
1399.116153,7179.997637,-6883.915261,1378.971896
1399.116482,6735.874072,-5033.400406,153.219100
1399.116811,7105.977043,-4071.132681,-153.219100
1399.117140,7698.141797,-6365.771101,1455.581446
1399.117469,7105.977043,-7624.121203,3217.601092
1399.117798,6513.812290,-7254.018232,1302.362347
1399.118127,6143.709319,-5773.606348,-766.095498
1399.118456,6587.832884,-7031.956449,459.657299
1399.118785,7105.977043,-9178.553681,2681.334243
1399.119114,7624.121203,-7698.141797,2681.334243
1399.119443,6365.771101,-6957.935855,383.047749
1399.119772,5255.462188,-7624.121203,-383.047749
1399.120101,4663.297435,-9844.739029,995.924147
1399.120431,4589.276840,-11325.150913,1685.410096
1399.120760,4293.194464,-9474.636058,0.000000
1399.121089,3923.091493,-7624.121203,-1532.190996
1399.121418,4737.318029,-8216.285956,-536.266849
1399.121747,5921.647536,-8290.306550,1072.533697
1399.122076,7624.121203,-6957.935855,1455.581446
1399.122405,7920.203579,-5921.647536,536.266849
1399.122734,8216.285956,-5181.441594,1455.581446
1399.123063,7624.121203,-7624.121203,3370.820191
1399.123392,6735.874072,-7920.203579,3217.601092
1399.123721,6291.750507,-5107.421000,1302.362347
1399.124050,5773.606348,-4885.359217,-306.438199
1399.124379,5551.544565,-6809.894666,1072.533697
1399.124708,6217.729913,-9326.594869,3524.039291
1399.125037,7476.080014,-7624.121203,1608.800546
1399.125366,6069.688724,-4663.297435,-229.828649
1399.125695,4589.276840,-7476.080014,0.000000
1399.126024,4145.153275,-10732.986159,1991.848295
1399.126353,3478.967927,-11325.150913,919.314598
1399.126682,2220.617826,-10436.903782,-1762.019645
1399.127011,2220.617826,-9030.512492,-1838.629195
1399.127340,3478.967927,-11621.233289,383.047749
1399.127669,4367.215058,-12953.603985,2987.772442
1399.127998,4293.194464,-9252.574275,2604.724693
1399.128327,5625.565159,-6143.709319,306.438199
1399.128657,5255.462188,-4959.379811,995.924147
1399.128986,5477.523971,-7031.956449,3600.648841
1399.129315,7031.956449,-7179.997637,3983.696590
1399.129644,7179.997637,-4515.256246,1685.410096
1399.129973,5551.544565,-4367.215058,459.657299
1399.130302,5181.441594,-6735.874072,1225.752797
1399.130631,6365.771101,-9918.759623,2834.553343
1399.130960,6143.709319,-11547.212695,2221.676944
1399.131289,4219.173869,-9474.636058,0.000000
1399.131618,2146.597232,-8586.388927,-919.314598
1399.131947,3404.947333,-9770.718434,229.828649
1399.132276,5625.565159,-10584.944971,1838.629195
1399.132605,5773.606348,-9992.780217,1838.629195
1399.132934,4219.173869,-9548.656652,76.609550
1399.133263,2442.679609,-9252.574275,383.047749
1399.133592,2664.741391,-9918.759623,612.876398
1399.133921,4515.256246,-10955.047942,766.095498
1399.134250,4885.359217,-9326.594869,842.705048
1399.134579,4293.194464,-9474.636058,1915.238745
1399.134908,5255.462188,-8290.306550,1455.581446
1399.135237,7179.997637,-6513.812290,1532.190996
1399.135566,8512.368333,-4885.359217,459.657299
1399.135895,7476.080014,-5255.462188,995.924147
1399.136224,7105.977043,-7105.977043,2068.457845
1399.136554,6809.894666,-9252.574275,2757.943793
1399.136883,5921.647536,-8364.327145,1915.238745
1399.137212,4219.173869,-7105.977043,842.705048
1399.137541,2738.761985,-8956.491898,-383.047749
1399.137870,2590.720797,-11621.233289,229.828649
1399.138199,3108.864956,-11621.233289,919.314598
1399.138528,4293.194464,-10140.821405,-153.219100
1399.138857,4959.379811,-7772.162391,995.924147
1399.139186,4737.318029,-7105.977043,459.657299
1399.139515,5181.441594,-7920.203579,459.657299
1399.139844,6143.709319,-7476.080014,842.705048
1399.140173,7105.977043,-6809.894666,1608.800546
1399.140502,7105.977043,-6587.832884,2374.896044
1399.140831,6957.935855,-6069.688724,1378.971896
1399.141160,6143.709319,-8142.265362,459.657299
1399.141490,5033.400406,-9252.574275,306.438199
1399.141819,3552.988522,-11325.150913,689.485948
1399.142148,3034.844362,-10955.047942,0.000000
1399.142477,2960.823768,-11399.171507,-306.438199
1399.142806,2738.761985,-12805.562797,0.000000
1399.143135,2368.659014,-12139.377449,1302.362347
1399.143464,3330.926739,-10584.944971,1762.019645
1399.143793,4367.215058,-7476.080014,1378.971896
1399.144122,6217.729913,-4811.338623,2145.067394
1399.144451,7698.141797,-3182.885551,2451.505594
1399.144780,8142.265362,-2590.720797,1762.019645
1399.145109,7031.956449,-4515.256246,1302.362347
1399.145438,5995.668130,-7105.977043,1225.752797
1399.145767,5403.503377,-8956.491898,689.485948
1399.146096,4441.235652,-10584.944971,1762.019645
1399.146426,3404.947333,-10955.047942,1608.800546
1399.146755,2886.803174,-12435.459826,536.266849
1399.147084,2664.741391,-12953.603985,0.000000
1399.147413,2442.679609,-13175.665768,0.000000
1399.147742,2738.761985,-11843.295072,0.000000
1399.148071,2590.720797,-10955.047942,76.609550
1399.148400,2220.617826,-11843.295072,689.485948
1399.148729,2072.576638,-10362.883188,919.314598
1399.149058,3701.029710,-6735.874072,2528.115143
1399.149387,7402.059420,-4811.338623,2604.724693
1399.149716,9770.718434,-2368.659014,3677.258390
1399.150045,9474.636058,-2516.700203,3370.820191
1399.150374,8142.265362,-2294.638420,1608.800546
1399.150703,5995.668130,-3923.091493,612.876398
1399.151032,5255.462188,-8290.306550,0.000000
1399.151362,4367.215058,-11695.253884,229.828649
1399.151691,3997.112087,-12879.583391,1302.362347
1399.152020,4959.379811,-12657.521608,1838.629195
1399.152349,5995.668130,-11177.109724,1762.019645
1399.152678,6143.709319,-9696.697840,1532.190996
1399.153007,4589.276840,-9622.677246,689.485948
1399.153336,3182.885551,-8808.450710,0.000000
1399.153665,2146.597232,-9178.553681,-153.219100
1399.153994,1998.556043,-9030.512492,0.000000
1399.154323,2738.761985,-8882.471304,919.314598
1399.154652,5625.565159,-7772.162391,1991.848295
1399.154981,6735.874072,-6661.853478,1685.410096
1399.155310,6661.853478,-5181.441594,2298.286494
1399.155639,6883.915261,-5995.668130,919.314598
1399.155968,6513.812290,-6883.915261,842.705048
1399.156298,5847.626942,-9548.656652,1072.533697
1399.156627,5551.544565,-10584.944971,1455.581446
1399.156956,5921.647536,-11251.130318,2451.505594
1399.157285,6069.688724,-10436.903782,2374.896044
1399.157614,5847.626942,-10066.800811,2221.676944
1399.157943,5403.503377,-7550.100608,1455.581446
1399.158272,4145.153275,-7031.956449,0.000000
1399.158601,3182.885551,-7624.121203,-229.828649
1399.158930,1924.535449,-7254.018232,-995.924147
1399.159259,2664.741391,-7624.121203,-1225.752797
1399.159588,4145.153275,-7698.141797,0.000000
1399.159917,5699.585753,-8734.430116,1378.971896
1399.160246,6365.771101,-9844.739029,1838.629195
1399.160575,6513.812290,-9548.656652,1608.800546
1399.160904,5773.606348,-9622.677246,1838.629195
1399.161234,5699.585753,-9474.636058,1685.410096
1399.161563,5847.626942,-9548.656652,2451.505594
1399.161892,5477.523971,-9844.739029,2757.943793
1399.162221,5329.482782,-8216.285956,2145.067394
1399.162550,5329.482782,-7402.059420,2451.505594
1399.162879,5921.647536,-6439.791695,2451.505594
1399.163208,6217.729913,-7105.977043,2604.724693
1399.163537,5255.462188,-7031.956449,2145.067394
1399.163866,4145.153275,-6809.894666,689.485948
1399.164195,3627.009116,-7698.141797,76.609550
1399.164524,3923.091493,-8660.409521,383.047749
1399.164853,4441.235652,-9474.636058,842.705048
1399.165182,4737.318029,-10362.883188,1608.800546
1399.165511,4885.359217,-10658.965565,2604.724693
1399.165840,5403.503377,-10510.924376,3524.039291
1399.166170,5847.626942,-9696.697840,3983.696590
1399.166499,7031.956449,-7920.203579,4290.134789
1399.166828,7550.100608,-6069.688724,4673.182538
1399.167157,7402.059420,-4811.338623,4136.915689
1399.167486,7105.977043,-4293.194464,3677.258390
1399.167815,6957.935855,-5181.441594,3524.039291
1399.168144,6587.832884,-5625.565159,2451.505594
1399.168473,4737.318029,-6957.935855,1762.019645
1399.168802,4663.297435,-8142.265362,1762.019645
1399.169131,5255.462188,-8808.450710,2374.896044
1399.169460,5921.647536,-9474.636058,3064.381992
1399.169789,5995.668130,-8586.388927,3524.039291
1399.170118,5773.606348,-8142.265362,3217.601092
1399.170447,5403.503377,-7994.224174,3370.820191
1399.170776,5699.585753,-7328.038826,3217.601092
1399.171106,6513.812290,-6809.894666,3983.696590
1399.171435,7550.100608,-5551.544565,4596.572988
1399.171764,8734.430116,-3849.070898,5209.449386
1399.172093,9548.656652,-2960.823768,4903.011187
1399.172422,9918.759623,-3256.906145,5439.278036
1399.172751,9474.636058,-3182.885551,4826.401637
1399.173080,8142.265362,-4515.256246,4443.353888
1399.173409,6809.894666,-5107.421000,4136.915689
1399.173738,6957.935855,-6735.874072,3140.991542
1399.174067,6587.832884,-8512.368333,3830.477490
1399.174396,5921.647536,-9770.718434,3983.696590
1399.174725,4959.379811,-10214.842000,3677.258390
1399.175054,4737.318029,-9844.739029,3294.210641
1399.175383,3775.050304,-9918.759623,3370.820191
1399.175712,3256.906145,-9770.718434,3753.867940
1399.176042,4071.132681,-8882.471304,3907.087040
1399.176371,5329.482782,-7031.956449,4519.963438
1399.176700,6957.935855,-5551.544565,5132.839837
1399.177029,9030.512492,-4367.215058,5822.325785
1399.177358,9992.780217,-3849.070898,6435.202183
1399.177687,9548.656652,-3627.009116,5439.278036
1399.178016,9474.636058,-3404.947333,4903.011187
1399.178345,8808.450710,-4145.153275,4519.963438
1399.178674,8438.347739,-5255.462188,4213.525239
1399.179003,7994.224174,-6069.688724,4826.401637
1399.179332,7179.997637,-6957.935855,4290.134789
1399.179661,6513.812290,-7624.121203,4673.182538
1399.179990,6069.688724,-8734.430116,4519.963438
1399.180319,5403.503377,-9030.512492,4060.306139
1399.180648,4145.153275,-9104.533087,3524.039291
1399.180978,2812.782580,-8956.491898,3600.648841
1399.181307,2886.803174,-8882.471304,3064.381992
1399.181636,3997.112087,-8734.430116,3677.258390
1399.181965,5255.462188,-6809.894666,4290.134789
1399.182294,7105.977043,-5699.585753,5362.668486
1399.182623,9252.574275,-4145.153275,5592.497135
1399.182952,9844.739029,-3478.967927,6511.811733
1399.183281,9770.718434,-2368.659014,5592.497135
1399.183610,8956.491898,-2146.597232,4519.963438
1399.183939,8290.306550,-3923.091493,4443.353888
1399.184268,7772.162391,-5995.668130,3294.210641
1399.184597,6439.791695,-7698.141797,3907.087040
1399.184926,5773.606348,-8512.368333,2911.162892
1399.185255,5181.441594,-9474.636058,2451.505594
1399.185584,5033.400406,-9326.594869,2987.772442
1399.185914,5477.523971,-9252.574275,3294.210641
1399.186243,5847.626942,-8068.244768,3447.429741
1399.186572,6217.729913,-6291.750507,3677.258390
1399.186901,7994.224174,-4959.379811,4136.915689
1399.187230,9548.656652,-4219.173869,5209.449386
1399.187559,10584.944971,-4145.153275,5056.230287
1399.187888,9696.697840,-3997.112087,4366.744339
1399.188217,8142.265362,-4811.338623,3064.381992
1399.188546,6513.812290,-5921.647536,2221.676944
1399.188875,5625.565159,-7254.018232,2604.724693
1399.189204,5255.462188,-8364.327145,2451.505594
1399.189533,5181.441594,-8364.327145,2911.162892
1399.189862,5921.647536,-8882.471304,3677.258390
1399.190191,7105.977043,-7179.997637,4749.792088
1399.190520,8142.265362,-6661.853478,4443.353888
1399.190850,8068.244768,-6365.771101,4596.572988
1399.191179,8216.285956,-5033.400406,3983.696590
1399.191508,7476.080014,-5033.400406,3217.601092
1399.191837,6661.853478,-3108.864956,2911.162892
1399.192166,7920.203579,-3478.967927,3064.381992
1399.192495,9030.512492,-4367.215058,3907.087040
1399.192824,9178.553681,-4515.256246,3830.477490
1399.193153,7624.121203,-6661.853478,3217.601092
1399.193482,6883.915261,-9104.533087,3447.429741
1399.193811,4959.379811,-10584.944971,2987.772442
1399.194140,3997.112087,-11621.233289,2604.724693
1399.194469,2664.741391,-10807.006753,2604.724693
1399.194798,3182.885551,-9104.533087,1991.848295
1399.195127,4219.173869,-6513.812290,1838.629195
1399.195456,6143.709319,-5921.647536,3447.429741
1399.195786,7846.182985,-5329.482782,5362.668486
1399.196115,9400.615463,-4515.256246,5669.106685
1399.196444,9326.594869,-3701.029710,6281.983084
1399.196773,9326.594869,-2072.576638,5822.325785
1399.197102,9844.739029,-2738.761985,4903.011187
1399.197431,9696.697840,-3627.009116,5056.230287
1399.197760,8882.471304,-4293.194464,3753.867940
1399.198089,7698.141797,-6957.935855,3370.820191
1399.198418,5995.668130,-8512.368333,2987.772442
1399.198747,3997.112087,-11325.150913,2604.724693
1399.199076,2886.803174,-13027.624579,3370.820191
1399.199405,3182.885551,-12213.398043,3677.258390
1399.199734,3034.844362,-10066.800811,2987.772442
1399.200063,3849.070898,-7105.977043,3370.820191
1399.200392,6365.771101,-5033.400406,4290.134789
1399.200722,9326.594869,-3849.070898,5975.544884
1399.201051,10436.903782,-2368.659014,6358.592633
1399.201380,10732.986159,-1258.350101,5515.887586
1399.201709,10732.986159,-1036.288319,5132.839837
1399.202038,9844.739029,-2738.761985,4979.620737
1399.202367,8660.409521,-5477.523971,4903.011187
1399.202696,7772.162391,-7920.203579,4903.011187
1399.203025,7846.182985,-9178.553681,4136.915689
1399.203354,6661.853478,-9696.697840,4290.134789
1399.203683,6143.709319,-9474.636058,4366.744339
1399.204012,5181.441594,-9326.594869,3524.039291
1399.204341,3552.988522,-7476.080014,2528.115143
1399.204670,3627.009116,-7179.997637,3677.258390
1399.204999,5921.647536,-5921.647536,4060.306139
1399.205328,7624.121203,-5033.400406,5669.106685
1399.205658,7994.224174,-4515.256246,5439.278036
1399.205987,7624.121203,-4367.215058,4060.306139
1399.206316,7328.038826,-4737.318029,4290.134789
1399.206645,7698.141797,-5403.503377,4673.182538
1399.206974,8660.409521,-4811.338623,3907.087040
1399.207303,8290.306550,-5329.482782,3370.820191
1399.207632,7105.977043,-6809.894666,3217.601092
1399.207961,6365.771101,-9622.677246,3677.258390
1399.208290,6587.832884,-9326.594869,3753.867940
1399.208619,6587.832884,-7328.038826,2987.772442
1399.208948,5403.503377,-7476.080014,2528.115143
1399.209277,4959.379811,-6587.832884,2374.896044
1399.209606,5181.441594,-6957.935855,2145.067394
1399.209935,6217.729913,-6883.915261,3064.381992
1399.210264,7105.977043,-4663.297435,3370.820191
1399.210594,7624.121203,-3404.947333,2528.115143
1399.210923,7328.038826,-4293.194464,2298.286494
1399.211252,7105.977043,-6069.688724,2681.334243
1399.211581,7920.203579,-6735.874072,2451.505594
1399.211910,8290.306550,-6587.832884,2298.286494
1399.212239,7698.141797,-7550.100608,2145.067394
1399.212568,6957.935855,-7846.182985,1991.848295
1399.212897,5921.647536,-9474.636058,1149.143247
1399.213226,5403.503377,-9770.718434,2374.896044
1399.213555,5847.626942,-7772.162391,2068.457845
1399.213884,7328.038826,-4885.359217,1225.752797
1399.214213,8216.285956,-5033.400406,1225.752797
1399.214542,8142.265362,-5329.482782,1608.800546
1399.214871,7476.080014,-4737.318029,1072.533697
1399.215200,6957.935855,-5625.565159,842.705048
1399.215530,7105.977043,-5181.441594,536.266849
1399.215859,7402.059420,-6735.874072,689.485948
1399.216188,7772.162391,-7550.100608,1532.190996
1399.216517,7550.100608,-7105.977043,1838.629195
1399.216846,7772.162391,-7105.977043,1149.143247
1399.217175,7624.121203,-7031.956449,689.485948
1399.217504,7179.997637,-7994.224174,536.266849
1399.217833,6587.832884,-7105.977043,1225.752797
1399.218162,5181.441594,-7550.100608,689.485948
1399.218491,4293.194464,-7920.203579,689.485948
1399.218820,4589.276840,-6883.915261,1608.800546
1399.219149,5773.606348,-5921.647536,1302.362347
1399.219478,7179.997637,-3627.009116,1608.800546
1399.219807,8364.327145,-4441.235652,2451.505594
1399.220136,9326.594869,-4737.318029,1608.800546
1399.220466,8660.409521,-4515.256246,1838.629195
1399.220795,8216.285956,-5329.482782,919.314598
1399.221124,7328.038826,-3997.112087,-459.657299
1399.221453,5995.668130,-7179.997637,-1532.190996
1399.221782,5403.503377,-10140.821405,-459.657299
1399.222111,6809.894666,-10362.883188,842.705048
1399.222440,8290.306550,-8882.471304,1072.533697
1399.222769,7328.038826,-7179.997637,919.314598
1399.223098,6735.874072,-7994.224174,1072.533697
1399.223427,6513.812290,-8364.327145,995.924147
1399.223756,6661.853478,-5921.647536,1225.752797
1399.224085,6365.771101,-3997.112087,306.438199
1399.224414,6439.791695,-4663.297435,689.485948
1399.224743,5847.626942,-6957.935855,1302.362347
1399.225072,7402.059420,-6143.709319,2145.067394
1399.225402,9326.594869,-4293.194464,2604.724693
1399.225731,10066.800811,-4441.235652,2834.553343
1399.226060,9252.574275,-6735.874072,2681.334243
1399.226389,7698.141797,-7846.182985,3217.601092
1399.226718,6143.709319,-7772.162391,1608.800546
1399.227047,5625.565159,-6143.709319,-306.438199
1399.227376,4367.215058,-8438.347739,-995.924147
1399.227705,4145.153275,-10066.800811,536.266849
1399.228034,5773.606348,-8586.388927,383.047749
1399.228363,7179.997637,-6069.688724,1302.362347
1399.228692,7624.121203,-5403.503377,1225.752797
1399.229021,7328.038826,-7476.080014,1991.848295
1399.229350,7254.018232,-7254.018232,2757.943793
1399.229679,7550.100608,-5033.400406,1991.848295
1399.230008,7254.018232,-3775.050304,1455.581446
1399.230338,6143.709319,-5699.585753,766.095498
1399.230667,5847.626942,-8660.409521,1455.581446
1399.230996,6439.791695,-6809.894666,1455.581446
1399.231325,7698.141797,-4811.338623,1532.190996
1399.231654,8364.327145,-4811.338623,1838.629195
1399.231983,7550.100608,-7698.141797,2681.334243
1399.232312,6661.853478,-7846.182985,2145.067394
1399.232641,6291.750507,-5773.606348,1532.190996
1399.232970,6217.729913,-4737.318029,383.047749
1399.233299,6365.771101,-6661.853478,459.657299
1399.233628,7179.997637,-8660.409521,1762.019645
1399.233957,7328.038826,-6217.729913,689.485948
1399.234286,7254.018232,-3478.967927,0.000000
1399.234615,7550.100608,-3997.112087,536.266849
1399.234944,7772.162391,-7105.977043,1915.238745
1399.235274,7624.121203,-7994.224174,2145.067394
1399.235603,6661.853478,-7105.977043,1455.581446
1399.235932,6069.688724,-6809.894666,1149.143247
1399.236261,6365.771101,-9400.615463,1225.752797
1399.236590,6587.832884,-9252.574275,1915.238745
1399.236919,7994.224174,-6439.791695,1532.190996
1399.237248,8438.347739,-3997.112087,0.000000
1399.237577,7772.162391,-4293.194464,76.609550
1399.237906,7476.080014,-6661.853478,612.876398
1399.238235,7328.038826,-7105.977043,1072.533697
1399.238564,6809.894666,-5107.421000,1072.533697
1399.238893,6735.874072,-5847.626942,76.609550
1399.239223,6735.874072,-9178.553681,1072.533697
1399.239552,7772.162391,-9992.780217,1762.019645
1399.239881,8216.285956,-6143.709319,306.438199
1399.240210,7105.977043,-4293.194464,-306.438199
1399.240539,6735.874072,-6513.812290,-229.828649
1399.240868,6365.771101,-8512.368333,612.876398
1399.241197,6143.709319,-8290.306550,1838.629195
1399.241526,6439.791695,-5255.462188,153.219100
1399.241855,5847.626942,-5921.647536,536.266849
1399.242185,5551.544565,-9030.512492,2298.286494
1399.242514,6809.894666,-7772.162391,2451.505594
1399.242843,7476.080014,-4367.215058,842.705048
1399.243172,7476.080014,-3034.844362,0.000000
1399.243501,6587.832884,-5477.523971,0.000000
1399.243830,6143.709319,-7698.141797,995.924147
1399.244159,6143.709319,-6513.812290,842.705048
1399.244488,5551.544565,-4959.379811,-1378.971896
1399.244818,5921.647536,-6883.915261,0.000000
1399.245147,6069.688724,-9770.718434,995.924147
1399.245476,7920.203579,-9474.636058,1915.238745
1399.245805,8956.491898,-4885.359217,1302.362347
1399.246134,8364.327145,-3404.947333,-229.828649
1399.246463,7476.080014,-5995.668130,536.266849
1399.246792,7179.997637,-6809.894666,1762.019645
1399.247121,6957.935855,-6291.750507,1378.971896
1399.247451,6365.771101,-5033.400406,0.000000
1399.247780,6291.750507,-7105.977043,536.266849
1399.248109,5847.626942,-9178.553681,1378.971896
1399.248438,7254.018232,-8216.285956,2528.115143
1399.248767,8808.450710,-5329.482782,2221.676944
1399.249096,8216.285956,-4293.194464,995.924147
1399.249425,7031.956449,-6735.874072,612.876398
1399.249754,6143.709319,-7550.100608,1302.362347
1399.250083,7031.956449,-5625.565159,689.485948
1399.250413,6661.853478,-4589.276840,-306.438199
1399.250742,6365.771101,-6735.874072,689.485948
1399.251071,7550.100608,-9178.553681,1608.800546
1399.251400,8808.450710,-6587.832884,2374.896044
1399.251729,8808.450710,-4515.256246,842.705048
1399.252058,7772.162391,-4515.256246,76.609550
1399.252387,7105.977043,-7920.203579,766.095498
1399.252716,6883.915261,-8808.450710,1455.581446
1399.253046,6365.771101,-7254.018232,1072.533697
1399.253375,5773.606348,-6217.729913,306.438199
1399.253704,5107.421000,-8512.368333,689.485948
1399.254033,5107.421000,-8956.491898,2145.067394
1399.254362,7254.018232,-5699.585753,2451.505594
1399.254691,8512.368333,-3701.029710,2221.676944
1399.255020,7772.162391,-5329.482782,1762.019645
1399.255349,5773.606348,-5699.585753,1608.800546
1399.255679,5403.503377,-5921.647536,1455.581446
1399.256008,6587.832884,-4737.318029,383.047749
1399.256337,6661.853478,-4663.297435,383.047749
1399.256666,6661.853478,-8586.388927,1532.190996
1399.256995,7698.141797,-8956.491898,1915.238745
1399.257324,7402.059420,-7105.977043,1455.581446
1399.257653,7031.956449,-5625.565159,76.609550
1399.257982,6291.750507,-8586.388927,0.000000
1399.258311,6513.812290,-10584.944971,2068.457845
1399.258641,6217.729913,-8142.265362,1302.362347
1399.258970,5255.462188,-5255.462188,-612.876398
1399.259299,4885.359217,-5699.585753,0.000000
1399.259628,6143.709319,-6957.935855,1149.143247
1399.259957,8290.306550,-7179.997637,2757.943793
1399.260286,9474.636058,-3849.070898,3677.258390
1399.260615,9474.636058,-2368.659014,1455.581446
1399.260944,8068.244768,-5181.441594,1608.800546
1399.261274,7772.162391,-6809.894666,2221.676944
1399.261603,7328.038826,-4959.379811,995.924147
1399.261932,7179.997637,-4885.359217,-612.876398
1399.262261,6587.832884,-7254.018232,0.000000
1399.262590,6365.771101,-9326.594869,383.047749
1399.262919,7772.162391,-8512.368333,1455.581446
1399.263248,8290.306550,-7105.977043,919.314598
1399.263577,7328.038826,-5551.544565,0.000000
1399.263907,5921.647536,-8586.388927,76.609550
1399.264236,6439.791695,-7402.059420,2145.067394
1399.264565,7031.956449,-5699.585753,1072.533697
1399.264894,7105.977043,-5551.544565,536.266849
1399.265223,5995.668130,-7031.956449,689.485948
1399.265552,5921.647536,-7994.224174,1455.581446
1399.265881,7698.141797,-4663.297435,1762.019645
1399.266210,8586.388927,-2886.803174,919.314598
1399.266540,8882.471304,-3997.112087,1149.143247
1399.266869,7402.059420,-7254.018232,1302.362347
1399.267198,6587.832884,-8586.388927,1838.629195
1399.267527,6513.812290,-6513.812290,0.000000
1399.267856,6143.709319,-6291.750507,-1072.533697
1399.268185,5477.523971,-9252.574275,0.000000
1399.268514,6069.688724,-9844.739029,612.876398
1399.268843,6883.915261,-7105.977043,1072.533697
1399.269172,7179.997637,-4145.153275,153.219100
1399.269502,6735.874072,-5625.565159,306.438199
1399.269831,6069.688724,-6883.915261,1302.362347
1399.270160,6587.832884,-6513.812290,1378.971896
1399.270489,6809.894666,-5847.626942,1378.971896
1399.270818,7105.977043,-5477.523971,1072.533697
1399.271147,6439.791695,-7920.203579,1991.848295
1399.271476,7105.977043,-7920.203579,2298.286494
1399.271805,7920.203579,-4811.338623,1762.019645
1399.272135,7328.038826,-3923.091493,-383.047749
1399.272464,6291.750507,-7105.977043,0.000000
1399.272793,5921.647536,-9030.512492,612.876398
1399.273122,6587.832884,-7846.182985,536.266849
1399.273451,6661.853478,-5403.503377,-383.047749
1399.273780,6661.853478,-7920.203579,0.000000
1399.274109,6587.832884,-10214.842000,1762.019645
1399.274438,7698.141797,-7772.162391,1455.581446
1399.274768,7994.224174,-3701.029710,383.047749
1399.275097,8438.347739,-2072.576638,153.219100
1399.275426,8290.306550,-5033.400406,919.314598
1399.275755,7698.141797,-7179.997637,2604.724693
1399.276084,7476.080014,-6143.709319,2068.457845
1399.276413,8142.265362,-5403.503377,1455.581446
1399.276742,7031.956449,-7254.018232,1532.190996
1399.277071,5995.668130,-10288.862594,2681.334243
1399.277400,6809.894666,-8364.327145,2298.286494
1399.277730,7846.182985,-4885.359217,459.657299
1399.278059,7031.956449,-4071.132681,-153.219100
1399.278388,5847.626942,-6365.771101,612.876398
1399.278717,5995.668130,-6883.915261,1378.971896
1399.279046,6957.935855,-5551.544565,536.266849
1399.279375,6587.832884,-5255.462188,76.609550
1399.279704,6291.750507,-7105.977043,1149.143247
1399.280033,7402.059420,-9326.594869,2374.896044
1399.280363,9104.533087,-7031.956449,2451.505594
1399.280692,8882.471304,-4071.132681,1608.800546
1399.281021,7698.141797,-4219.173869,0.000000
1399.281350,6365.771101,-7105.977043,383.047749
1399.281679,5625.565159,-7698.141797,842.705048
1399.282008,6217.729913,-6587.832884,689.485948
1399.282337,7328.038826,-6143.709319,1149.143247
1399.282666,6587.832884,-8512.368333,2068.457845
1399.282996,6365.771101,-9844.739029,3600.648841
1399.283325,7772.162391,-6143.709319,2911.162892
1399.283654,8216.285956,-3182.885551,1608.800546
1399.283983,7179.997637,-4441.235652,995.924147
1399.284312,5477.523971,-5699.585753,1378.971896
1399.284641,5625.565159,-5329.482782,842.705048
1399.284970,6069.688724,-4737.318029,0.000000
1399.285299,6143.709319,-5699.585753,383.047749
1399.285629,6291.750507,-9992.780217,1532.190996
1399.285958,7550.100608,-10214.842000,2911.162892
1399.286287,8364.327145,-7476.080014,2604.724693
1399.286616,7624.121203,-5477.523971,536.266849
1399.286945,6217.729913,-5921.647536,383.047749
1399.287274,5921.647536,-8216.285956,689.485948
1399.287603,6883.915261,-7920.203579,842.705048
1399.287932,7328.038826,-5625.565159,383.047749
1399.288261,6809.894666,-5847.626942,536.266849
1399.288591,6365.771101,-8364.327145,1762.019645
1399.288920,7328.038826,-7254.018232,2451.505594
1399.289249,9030.512492,-5033.400406,2145.067394
1399.289578,9030.512492,-3182.885551,1225.752797
1399.289907,7105.977043,-4663.297435,1762.019645
1399.290236,7105.977043,-6883.915261,1072.533697
1399.290565,7254.018232,-6217.729913,383.047749
1399.290894,7105.977043,-5699.585753,-306.438199
1399.291224,6069.688724,-7698.141797,0.000000
1399.291553,6217.729913,-8660.409521,1225.752797
1399.291882,6735.874072,-7179.997637,919.314598
1399.292211,7624.121203,-4737.318029,612.876398
1399.292540,8068.244768,-3701.029710,306.438199
1399.292869,7624.121203,-6587.832884,1072.533697
1399.293198,7402.059420,-7698.141797,1455.581446
1399.293527,7550.100608,-6883.915261,1762.019645
1399.293857,7105.977043,-5107.421000,0.000000
1399.294186,4811.338623,-7105.977043,-306.438199
1399.294515,5255.462188,-9326.594869,689.485948
1399.294844,7105.977043,-6735.874072,1302.362347
1399.295173,8512.368333,-4071.132681,1149.143247
1399.295502,7920.203579,-4885.359217,1378.971896
1399.295831,7698.141797,-6883.915261,1455.581446
1399.296160,6735.874072,-7254.018232,842.705048
1399.296489,6809.894666,-5921.647536,153.219100
1399.296819,5625.565159,-5551.544565,-153.219100
1399.297148,5625.565159,-7402.059420,-306.438199
1399.297477,6291.750507,-7550.100608,459.657299
1399.297806,7105.977043,-7105.977043,919.314598
1399.298135,7624.121203,-4219.173869,0.000000
1399.298464,7624.121203,-6587.832884,383.047749
1399.298793,7328.038826,-8882.471304,1455.581446
1399.299122,6735.874072,-6735.874072,1532.190996
1399.299452,7105.977043,-6587.832884,1149.143247
1399.299781,6735.874072,-5921.647536,1149.143247
1399.300110,5921.647536,-8216.285956,1378.971896
1399.300439,6365.771101,-8142.265362,1762.019645
1399.300768,7254.018232,-4663.297435,1072.533697
1399.301097,7698.141797,-3552.988522,76.609550
1399.301426,6735.874072,-5255.462188,229.828649
1399.301755,6143.709319,-8068.244768,1532.190996
1399.302085,7179.997637,-8216.285956,1072.533697
1399.302414,6809.894666,-5403.503377,0.000000
1399.302743,5921.647536,-7105.977043,153.219100
1399.303072,6439.791695,-9622.677246,689.485948
1399.303401,7698.141797,-7476.080014,1225.752797
1399.303730,7994.224174,-4663.297435,459.657299
1399.304059,7994.224174,-3182.885551,306.438199
1399.304388,7846.182985,-5921.647536,1302.362347
1399.304718,8216.285956,-8290.306550,2757.943793
1399.305047,7698.141797,-5995.668130,3064.381992
1399.305376,7402.059420,-5033.400406,1532.190996
1399.305705,6735.874072,-6365.771101,919.314598
1399.306034,5255.462188,-8142.265362,1225.752797
1399.306363,6513.812290,-6883.915261,1915.238745
1399.306692,8734.430116,-3478.967927,1225.752797
1399.307021,8068.244768,-4219.173869,1225.752797
1399.307350,6735.874072,-7328.038826,1915.238745
1399.307680,5773.606348,-7920.203579,1685.410096
1399.308009,6143.709319,-6513.812290,1149.143247
1399.308338,5995.668130,-5033.400406,229.828649
1399.308667,6365.771101,-7476.080014,919.314598
1399.308996,6513.812290,-8216.285956,1915.238745
1399.309325,7624.121203,-6069.688724,995.924147
1399.309654,7920.203579,-3034.844362,0.000000
1399.309983,7476.080014,-3775.050304,0.000000
1399.310313,7105.977043,-7476.080014,689.485948
1399.310642,7105.977043,-8068.244768,2145.067394
1399.310971,7624.121203,-6735.874072,919.314598
1399.311300,7254.018232,-6883.915261,306.438199
1399.311629,6217.729913,-9104.533087,1225.752797
1399.311958,6217.729913,-11103.089130,1991.848295
1399.312287,7254.018232,-7105.977043,2298.286494
1399.312616,7105.977043,-3182.885551,1149.143247
1399.312946,6291.750507,-4663.297435,76.609550
1399.313275,5847.626942,-6661.853478,1072.533697
1399.313604,6513.812290,-6587.832884,1991.848295
1399.313933,7105.977043,-4737.318029,689.485948
1399.314262,7179.997637,-5921.647536,1072.533697
1399.314591,6217.729913,-8290.306550,1455.581446
1399.314920,6365.771101,-8512.368333,1149.143247
1399.315249,6809.894666,-6291.750507,842.705048
1399.315578,7105.977043,-3923.091493,-842.705048
1399.315908,6513.812290,-7328.038826,-995.924147
1399.316237,6143.709319,-9474.636058,1225.752797
1399.316566,7105.977043,-9030.512492,1378.971896
1399.316895,7402.059420,-7920.203579,995.924147
1399.317224,6809.894666,-7698.141797,1991.848295
1399.317553,6365.771101,-9252.574275,1838.629195
1399.317882,7031.956449,-7031.956449,2068.457845
1399.318211,8364.327145,-3552.988522,1838.629195
1399.318541,8956.491898,-1702.473667,153.219100
1399.318870,7550.100608,-3330.926739,459.657299
1399.319199,6439.791695,-6365.771101,1225.752797
1399.319528,6217.729913,-5625.565159,689.485948
1399.319857,6217.729913,-5477.523971,-76.609550
1399.320186,6439.791695,-7254.018232,229.828649
1399.320515,6661.853478,-10510.924376,1838.629195
1399.320844,7920.203579,-8438.347739,1608.800546
1399.321174,7994.224174,-5995.668130,229.828649
1399.321503,6809.894666,-4959.379811,0.000000
1399.321832,6735.874072,-5995.668130,612.876398
1399.322161,7179.997637,-7846.182985,1225.752797
1399.322490,7402.059420,-6069.688724,1302.362347
1399.322819,7624.121203,-5033.400406,1072.533697
1399.323148,6809.894666,-7031.956449,1455.581446
1399.323477,5403.503377,-7920.203579,1608.800546
1399.323807,6513.812290,-6217.729913,1838.629195
1399.324136,8290.306550,-4441.235652,842.705048
1399.324465,7994.224174,-4293.194464,383.047749
1399.324794,6291.750507,-7105.977043,1378.971896
1399.325123,6143.709319,-8808.450710,842.705048
1399.325452,6661.853478,-6439.791695,306.438199
1399.325781,5773.606348,-6439.791695,-306.438199
1399.326110,5329.482782,-8882.471304,842.705048
1399.326439,7179.997637,-8956.491898,2145.067394
1399.326769,8734.430116,-7476.080014,2451.505594
1399.327098,9030.512492,-3923.091493,1302.362347
1399.327427,7772.162391,-5033.400406,919.314598
1399.327756,7031.956449,-6291.750507,1455.581446
1399.328085,5699.585753,-5625.565159,0.000000
1399.328414,5255.462188,-6069.688724,459.657299
1399.328743,6291.750507,-6291.750507,0.000000
1399.329072,5773.606348,-9474.636058,1762.019645
1399.329402,6439.791695,-8956.491898,3294.210641
1399.329731,8142.265362,-7105.977043,2911.162892
1399.330060,9326.594869,-4737.318029,1608.800546
1399.330389,7920.203579,-5995.668130,1378.971896
1399.330718,5921.647536,-7476.080014,1455.581446
1399.331047,6217.729913,-6291.750507,612.876398
1399.331376,6365.771101,-5181.441594,-306.438199
1399.331705,5995.668130,-5847.626942,-459.657299
1399.332035,6735.874072,-8586.388927,1762.019645
1399.332364,8142.265362,-9178.553681,2298.286494
1399.332693,7920.203579,-5181.441594,1762.019645
1399.333022,7105.977043,-3923.091493,229.828649
1399.333351,7550.100608,-7031.956449,1149.143247
1399.333680,8068.244768,-7031.956449,2145.067394
1399.334009,7328.038826,-8068.244768,1608.800546
1399.334338,6883.915261,-5477.523971,842.705048
1399.334667,5551.544565,-6439.791695,229.828649
1399.334997,5699.585753,-8734.430116,1608.800546
1399.335326,6513.812290,-6513.812290,2451.505594
1399.335655,8808.450710,-5625.565159,2528.115143
1399.335984,9030.512492,-3923.091493,1378.971896
1399.336313,6661.853478,-6957.935855,2221.676944
1399.336642,6883.915261,-7254.018232,2145.067394
1399.336971,6513.812290,-5255.462188,229.828649
1399.337297,5181.441594,-5033.400406,-306.438199
1399.337626,4515.256246,-6735.874072,-459.657299
1399.337955,5773.606348,-9400.615463,612.876398
1399.338285,7550.100608,-7254.018232,1838.629195
1399.338614,8068.244768,-5403.503377,536.266849
1399.338943,7105.977043,-5699.585753,612.876398
1399.339272,6365.771101,-7994.224174,1455.581446
1399.339601,7031.956449,-8660.409521,1991.848295
1399.339930,7920.203579,-5921.647536,2451.505594
1399.340259,7402.059420,-6143.709319,612.876398
1399.340589,6143.709319,-7550.100608,612.876398
1399.340918,6069.688724,-7402.059420,2221.676944
1399.341247,8142.265362,-5107.421000,2068.457845
1399.341576,8956.491898,-2294.638420,1072.533697
1399.341905,7698.141797,-5107.421000,995.924147
1399.342234,7254.018232,-7476.080014,919.314598
1399.342563,7179.997637,-6809.894666,1302.362347
1399.342892,7179.997637,-6513.812290,229.828649
1399.343222,6365.771101,-6661.853478,0.000000
1399.343551,5033.400406,-10140.821405,459.657299
1399.343880,5847.626942,-9252.574275,612.876398
1399.344209,6883.915261,-6217.729913,536.266849
1399.344538,8216.285956,-4885.359217,383.047749
1399.344867,7328.038826,-5995.668130,536.266849
1399.345196,6439.791695,-8364.327145,1762.019645
1399.345525,7402.059420,-6587.832884,2145.067394
1399.345855,7105.977043,-4515.256246,842.705048
1399.346184,6809.894666,-6291.750507,919.314598
1399.346513,6513.812290,-8216.285956,1685.410096
1399.346842,7402.059420,-7920.203579,1838.629195
1399.347171,8142.265362,-4441.235652,1149.143247
1399.347500,7846.182985,-2738.761985,-383.047749
1399.347829,6957.935855,-6735.874072,153.219100
1399.348159,6661.853478,-7772.162391,1225.752797
1399.348488,6735.874072,-6661.853478,689.485948
1399.348817,6661.853478,-5403.503377,153.219100
1399.349146,6217.729913,-7031.956449,76.609550
1399.349475,6143.709319,-9326.594869,1302.362347
1399.349804,7772.162391,-7476.080014,2221.676944
1399.350133,8068.244768,-4293.194464,995.924147
1399.350462,7698.141797,-2590.720797,766.095498
1399.350792,6735.874072,-6365.771101,1225.752797
1399.351121,6439.791695,-6735.874072,1532.190996
1399.351450,7179.997637,-5255.462188,1302.362347
1399.351779,6809.894666,-5921.647536,1225.752797
1399.352108,5255.462188,-7179.997637,995.924147
1399.352437,5403.503377,-10436.903782,1225.752797
1399.352766,6883.915261,-8142.265362,2451.505594
1399.353095,8216.285956,-4071.132681,919.314598
1399.353425,7402.059420,-5255.462188,153.219100
1399.353754,6439.791695,-6883.915261,1149.143247
1399.354083,6883.915261,-6513.812290,306.438199
1399.354412,7624.121203,-5921.647536,612.876398
1399.354741,7402.059420,-4663.297435,612.876398
1399.355070,7105.977043,-8512.368333,1072.533697
1399.355399,7476.080014,-9474.636058,2298.286494
1399.355729,8216.285956,-6513.812290,1378.971896
1399.356058,8068.244768,-4589.276840,0.000000
1399.356387,7105.977043,-4589.276840,766.095498
1399.356716,6291.750507,-8364.327145,1072.533697
1399.357045,7031.956449,-7624.121203,1455.581446
1399.357374,6809.894666,-6217.729913,842.705048
1399.357703,5773.606348,-6809.894666,76.609550
1399.358032,5107.421000,-9622.677246,1608.800546
1399.358362,6069.688724,-9030.512492,2451.505594
1399.358691,8364.327145,-5773.606348,1915.238745
1399.359020,9252.574275,-3552.988522,1608.800546
1399.359349,8512.368333,-5477.523971,2298.286494
1399.359678,7254.018232,-7031.956449,1838.629195
1399.360007,6365.771101,-5921.647536,1532.190996
1399.360336,5255.462188,-3478.967927,-1455.581446
1399.360665,4663.297435,-6291.750507,-1225.752797
1399.360995,5551.544565,-7920.203579,459.657299
1399.361324,7624.121203,-8734.430116,1685.410096
1399.361653,9178.553681,-6513.812290,1378.971896
1399.361982,8216.285956,-4293.194464,536.266849
1399.362311,6661.853478,-7254.018232,612.876398
1399.362640,6735.874072,-8142.265362,1762.019645
1399.362969,5995.668130,-6069.688724,1149.143247
1399.363299,6587.832884,-5107.421000,76.609550
1399.363628,7105.977043,-5847.626942,1149.143247
1399.363957,7105.977043,-7846.182985,2834.553343
1399.364286,8586.388927,-6291.750507,3064.381992
1399.364615,9030.512492,-3849.070898,2451.505594
1399.364944,8142.265362,-3997.112087,1378.971896
1399.365273,7772.162391,-5847.626942,1532.190996
1399.365602,7254.018232,-7994.224174,2374.896044
1399.365932,7105.977043,-5255.462188,919.314598
1399.366261,6069.688724,-5255.462188,-995.924147
1399.366590,5625.565159,-8068.244768,-229.828649
1399.366919,6439.791695,-9918.759623,0.000000
1399.367248,7031.956449,-8956.491898,612.876398
1399.367577,7624.121203,-6143.709319,536.266849
1399.367906,7254.018232,-6365.771101,842.705048
1399.368235,7105.977043,-8586.388927,1455.581446
1399.368565,7031.956449,-6661.853478,1685.410096
1399.368894,6957.935855,-5995.668130,1685.410096
1399.369223,7031.956449,-5403.503377,612.876398
1399.369552,6069.688724,-7624.121203,1455.581446
1399.369881,6069.688724,-8438.347739,2221.676944
1399.370210,7698.141797,-5329.482782,1991.848295
1399.370539,9104.533087,-3997.112087,1608.800546
1399.370869,8586.388927,-5403.503377,1762.019645
1399.371198,6883.915261,-8364.327145,1915.238745
1399.371527,6143.709319,-7105.977043,842.705048
1399.371856,5403.503377,-4811.338623,-459.657299
1399.372185,5477.523971,-6217.729913,-919.314598
1399.372514,4885.359217,-9474.636058,153.219100
1399.372843,5625.565159,-9474.636058,842.705048
1399.373172,7105.977043,-5773.606348,0.000000
1399.373502,7179.997637,-4367.215058,689.485948
1399.373831,7328.038826,-7031.956449,1915.238745
1399.374160,7476.080014,-8808.450710,3064.381992
1399.374489,6587.832884,-6809.894666,2374.896044
1399.374818,6439.791695,-4663.297435,383.047749
1399.375147,5921.647536,-5403.503377,919.314598
1399.375476,6217.729913,-7772.162391,1302.362347
1399.375805,7031.956449,-7105.977043,1378.971896
1399.376135,8290.306550,-4293.194464,1608.800546
1399.376464,8586.388927,-4515.256246,1072.533697
1399.376793,7328.038826,-7105.977043,536.266849
1399.377122,6809.894666,-7476.080014,1302.362347
