#time,accel_x,accel_y,accel_z
1370.791011,6809.894666,-6661.853478,1072.533697
1370.791341,6735.874072,-6883.915261,766.095498
1370.791671,6957.935855,-7254.018232,536.266849
1370.792001,6439.791695,-6735.874072,995.924147
1370.792331,6661.853478,-6661.853478,995.924147
1370.792661,7031.956449,-5995.668130,1302.362347
1370.792991,6883.915261,-6661.853478,1455.581446
1370.793321,7105.977043,-6661.853478,1149.143247
1370.793651,7254.018232,-6513.812290,1149.143247
1370.793982,6957.935855,-6513.812290,766.095498
1370.794312,6513.812290,-6587.832884,1149.143247
1370.794642,6883.915261,-6291.750507,919.314598
1370.794972,7328.038826,-6439.791695,1149.143247
1370.795302,7254.018232,-6439.791695,995.924147
1370.795632,6883.915261,-6513.812290,1072.533697
1370.795962,7105.977043,-6217.729913,612.876398
1370.796292,7031.956449,-6883.915261,1302.362347
1370.796622,6365.771101,-6587.832884,612.876398
1370.796952,6513.812290,-6587.832884,766.095498
1370.797282,6809.894666,-6809.894666,1149.143247
1370.797612,7254.018232,-6587.832884,1302.362347
1370.797942,7179.997637,-6587.832884,842.705048
1370.798272,6957.935855,-6291.750507,919.314598
1370.798602,6587.832884,-7105.977043,689.485948
1370.798932,6957.935855,-6661.853478,612.876398
1370.799262,6439.791695,-6809.894666,536.266849
1370.799593,7031.956449,-6587.832884,766.095498
1370.799923,7402.059420,-6587.832884,1072.533697
1370.800253,7328.038826,-6587.832884,1455.581446
1370.800583,7328.038826,-6069.688724,1685.410096
1370.800913,7179.997637,-6291.750507,459.657299
1370.801243,7179.997637,-6883.915261,842.705048
1370.801573,7105.977043,-6439.791695,995.924147
1370.801903,7105.977043,-6217.729913,1378.971896
1370.802233,7920.203579,-5995.668130,919.314598
1370.802563,7402.059420,-5995.668130,1072.533697
1370.802893,7105.977043,-6439.791695,995.924147
1370.803223,7179.997637,-6217.729913,1072.533697
1370.803553,7179.997637,-6291.750507,1225.752797
1370.803883,6661.853478,-6513.812290,459.657299
1370.804213,6291.750507,-6735.874072,842.705048
1370.804543,6587.832884,-6809.894666,1072.533697
1370.804874,6513.812290,-6735.874072,1378.971896
1370.805204,6957.935855,-6587.832884,1072.533697
1370.805534,6587.832884,-6735.874072,919.314598
1370.805864,6809.894666,-7031.956449,919.314598
1370.806194,6587.832884,-6883.915261,919.314598
1370.806524,6217.729913,-6217.729913,383.047749
1370.806854,6809.894666,-7105.977043,842.705048
1370.807184,7105.977043,-6661.853478,1225.752797
1370.807514,7105.977043,-6365.771101,1225.752797
1370.807844,7105.977043,-6883.915261,1302.362347
1370.808174,7254.018232,-6587.832884,1302.362347
1370.808504,7105.977043,-6809.894666,919.314598
1370.808834,7031.956449,-6809.894666,919.314598
1370.809164,6661.853478,-6513.812290,1072.533697
1370.809494,6957.935855,-6291.750507,995.924147
1370.809824,7328.038826,-6883.915261,1302.362347
1370.810154,7031.956449,-6661.853478,1302.362347
1370.810485,7105.977043,-5921.647536,1149.143247
1370.810815,6883.915261,-6291.750507,919.314598
1370.811145,7179.997637,-6217.729913,1149.143247
1370.811475,6513.812290,-6587.832884,612.876398
1370.811805,6809.894666,-7105.977043,995.924147
1370.812135,6957.935855,-6809.894666,1225.752797
1370.812465,7105.977043,-6439.791695,995.924147
1370.812795,6661.853478,-6439.791695,1302.362347
1370.813125,6735.874072,-6883.915261,842.705048
1370.813455,6957.935855,-7031.956449,689.485948
1370.813785,6735.874072,-6809.894666,766.095498
1370.814115,6735.874072,-7031.956449,842.705048
1370.814445,7105.977043,-6661.853478,995.924147
1370.814775,7031.956449,-6587.832884,1072.533697
1370.815105,7328.038826,-6291.750507,1072.533697
1370.815435,7402.059420,-5995.668130,1302.362347
1370.815765,7476.080014,-5773.606348,1378.971896
1370.816096,7402.059420,-6439.791695,842.705048
1370.816426,7328.038826,-5995.668130,995.924147
1370.816756,7179.997637,-5995.668130,1149.143247
1370.817086,7179.997637,-6217.729913,1072.533697
1370.817416,7254.018232,-6439.791695,1302.362347
1370.817746,7031.956449,-6291.750507,1072.533697
1370.818076,6735.874072,-5995.668130,1378.971896
1370.818406,7105.977043,-6291.750507,1455.581446
1370.818736,6957.935855,-6439.791695,766.095498
1370.819066,6883.915261,-6587.832884,919.314598
1370.819396,6809.894666,-6661.853478,1455.581446
1370.819726,6809.894666,-6809.894666,1072.533697
1370.820056,7105.977043,-6661.853478,1072.533697
1370.820386,6809.894666,-6365.771101,1532.190996
1370.820716,6735.874072,-6883.915261,842.705048
1370.821046,6809.894666,-6661.853478,612.876398
1370.821377,6513.812290,-6883.915261,1455.581446
1370.821707,7179.997637,-6809.894666,995.924147
1370.822037,7105.977043,-6439.791695,1225.752797
1370.822367,7328.038826,-7105.977043,1149.143247
1370.822697,6809.894666,-6661.853478,995.924147
1370.823027,7031.956449,-6513.812290,1149.143247
1370.823357,6809.894666,-6957.935855,1225.752797
1370.823687,6735.874072,-6439.791695,919.314598
1370.824017,7031.956449,-6661.853478,1149.143247
1370.824347,7179.997637,-5995.668130,919.314598
1370.824677,7402.059420,-6291.750507,1072.533697
1370.825007,7105.977043,-5847.626942,766.095498
1370.825337,7105.977043,-6439.791695,995.924147
1370.825667,6883.915261,-6217.729913,919.314598
1370.825997,6735.874072,-6809.894666,459.657299
1370.826327,6439.791695,-7179.997637,689.485948
1370.826657,6809.894666,-6883.915261,842.705048
1370.826988,7105.977043,-6809.894666,1149.143247
1370.827318,6883.915261,-6957.935855,1149.143247
1370.827648,6957.935855,-6587.832884,1302.362347
1370.827978,7031.956449,-6513.812290,383.047749
1370.828308,6661.853478,-6513.812290,1072.533697
1370.828638,6513.812290,-6439.791695,919.314598
1370.828968,6883.915261,-6735.874072,612.876398
1370.829298,7328.038826,-6439.791695,1455.581446
1370.829628,7402.059420,-6143.709319,1302.362347
1370.829958,7476.080014,-6217.729913,919.314598
1370.830288,7254.018232,-6365.771101,1149.143247
1370.830618,7105.977043,-6291.750507,766.095498
1370.830948,7105.977043,-6513.812290,1225.752797
1370.831278,7105.977043,-6217.729913,919.314598
1370.831608,7254.018232,-6291.750507,766.095498
1370.831938,7402.059420,-6069.688724,1225.752797
1370.832269,7105.977043,-6439.791695,1072.533697
1370.832599,7402.059420,-6069.688724,1072.533697
1370.832929,6957.935855,-6365.771101,1455.581446
1370.833259,6735.874072,-6291.750507,995.924147
1370.833589,6735.874072,-6365.771101,689.485948
1370.833919,6809.894666,-7031.956449,1608.800546
1370.834249,6587.832884,-7105.977043,1455.581446
1370.834579,7031.956449,-6513.812290,689.485948
1370.834909,6809.894666,-6735.874072,1302.362347
1370.835239,6809.894666,-6809.894666,1072.533697
1370.835569,6735.874072,-6365.771101,1149.143247
1370.835899,6513.812290,-6957.935855,1149.143247
1370.836229,6883.915261,-6809.894666,1149.143247
1370.836559,7031.956449,-6957.935855,1072.533697
1370.836889,7254.018232,-6735.874072,1532.190996
1370.837219,7105.977043,-6439.791695,1149.143247
1370.837549,7105.977043,-6439.791695,536.266849
1370.837880,7031.956449,-7031.956449,1149.143247
1370.838210,7031.956449,-6735.874072,919.314598
1370.838540,7105.977043,-5995.668130,919.314598
1370.838870,7105.977043,-6735.874072,689.485948
1370.839200,7105.977043,-6365.771101,919.314598
1370.839530,6957.935855,-6587.832884,1378.971896
1370.839860,7105.977043,-6587.832884,1149.143247
1370.840190,6883.915261,-6291.750507,1225.752797
1370.840520,6809.894666,-6513.812290,1149.143247
1370.840850,6513.812290,-6735.874072,383.047749
1370.841180,6661.853478,-6735.874072,1149.143247
1370.841510,6957.935855,-6513.812290,995.924147
1370.841840,7031.956449,-6957.935855,1225.752797
1370.842170,6957.935855,-6883.915261,1225.752797
1370.842500,7105.977043,-6957.935855,1072.533697
1370.842830,6587.832884,-7254.018232,766.095498
1370.843161,6735.874072,-6661.853478,1532.190996
1370.843491,6661.853478,-6883.915261,766.095498
1370.843821,6883.915261,-6513.812290,612.876398
1370.844151,7105.977043,-6143.709319,1149.143247
1370.844481,7105.977043,-6439.791695,995.924147
1370.844811,7254.018232,-6217.729913,1532.190996
1370.845141,7328.038826,-6069.688724,1302.362347
1370.845471,6883.915261,-6439.791695,842.705048
1370.845801,6957.935855,-6365.771101,842.705048
1370.846131,7105.977043,-6217.729913,459.657299
1370.846461,7402.059420,-6143.709319,1225.752797
1370.846791,7105.977043,-6291.750507,1149.143247
1370.847121,7105.977043,-6291.750507,995.924147
1370.847451,7179.997637,-5921.647536,1225.752797
1370.847781,6957.935855,-5921.647536,919.314598
1370.848111,6809.894666,-6143.709319,995.924147
1370.848441,6809.894666,-6809.894666,1302.362347
1370.848772,6513.812290,-6661.853478,1685.410096
1370.849102,6809.894666,-6513.812290,1532.190996
1370.849432,6883.915261,-6439.791695,1149.143247
1370.849762,6661.853478,-6365.771101,1149.143247
1370.850092,6957.935855,-6809.894666,766.095498
1370.850422,6365.771101,-6735.874072,995.924147
1370.850752,6883.915261,-6957.935855,919.314598
1370.851082,6883.915261,-6957.935855,919.314598
1370.851412,6957.935855,-6735.874072,1225.752797
1370.851742,7105.977043,-6661.853478,995.924147
1370.852072,7550.100608,-6217.729913,919.314598
1370.852402,7031.956449,-6883.915261,1302.362347
1370.852732,7105.977043,-6809.894666,919.314598
1370.853062,6957.935855,-6439.791695,919.314598
1370.853392,7031.956449,-6439.791695,995.924147
1370.853722,7179.997637,-6217.729913,1302.362347
1370.854053,6883.915261,-6217.729913,1072.533697
1370.854383,6957.935855,-6365.771101,1149.143247
1370.854713,7328.038826,-6291.750507,1072.533697
1370.855043,6957.935855,-6661.853478,919.314598
1370.855373,6661.853478,-6439.791695,1225.752797
1370.855703,6735.874072,-6587.832884,919.314598
1370.856033,6735.874072,-7105.977043,1225.752797
1370.856363,6809.894666,-6809.894666,1072.533697
1370.856693,6957.935855,-6291.750507,689.485948
1370.857023,6957.935855,-6439.791695,842.705048
1370.857353,6809.894666,-6587.832884,689.485948
1370.857683,6661.853478,-6513.812290,766.095498
1370.858013,6513.812290,-6661.853478,1302.362347
1370.858343,7031.956449,-6957.935855,842.705048
1370.858673,7031.956449,-6439.791695,842.705048
1370.859003,7328.038826,-6735.874072,1149.143247
1370.859333,7328.038826,-6513.812290,1072.533697
1370.859663,7994.224174,-5921.647536,1762.019645
1370.859992,7179.997637,-6439.791695,689.485948
1370.860322,7254.018232,-6587.832884,1072.533697
1370.860651,7550.100608,-6291.750507,1072.533697
1370.860981,7254.018232,-6513.812290,1072.533697
1370.861310,7550.100608,-6217.729913,1378.971896
1370.861640,7179.997637,-5995.668130,1149.143247
1370.861970,7105.977043,-6143.709319,995.924147
1370.862299,7105.977043,-6587.832884,1302.362347
1370.862629,6957.935855,-5847.626942,1072.533697
1370.862958,6439.791695,-6439.791695,766.095498
1370.863288,6661.853478,-6735.874072,1072.533697
1370.863617,6735.874072,-6587.832884,995.924147
1370.863947,6809.894666,-6957.935855,919.314598
1370.864276,7105.977043,-6883.915261,1838.629195
1370.864606,7105.977043,-6883.915261,1455.581446
1370.864936,6809.894666,-7105.977043,842.705048
1370.865265,6439.791695,-6883.915261,766.095498
1370.865595,6735.874072,-6661.853478,1149.143247
1370.865924,7031.956449,-6883.915261,459.657299
1370.866254,6957.935855,-6365.771101,919.314598
1370.866583,6957.935855,-6217.729913,919.314598
1370.866913,7105.977043,-6365.771101,919.314598
1370.867243,6513.812290,-5921.647536,919.314598
1370.867572,6883.915261,-6439.791695,229.828649
1370.867902,7105.977043,-6587.832884,766.095498
1370.868231,7179.997637,-6365.771101,919.314598
1370.868561,7179.997637,-6661.853478,1072.533697
1370.868890,6883.915261,-5995.668130,1915.238745
1370.869220,7105.977043,-6217.729913,1149.143247
1370.869550,7179.997637,-6439.791695,1225.752797
1370.869879,6957.935855,-6291.750507,995.924147
1370.870209,6735.874072,-6513.812290,1072.533697
1370.870538,6661.853478,-6661.853478,689.485948
1370.870868,6661.853478,-6661.853478,1149.143247
1370.871197,6735.874072,-6587.832884,1149.143247
1370.871527,7105.977043,-6661.853478,919.314598
1370.871857,6809.894666,-7105.977043,2068.457845
1370.872186,7031.956449,-6883.915261,1072.533697
1370.872516,6809.894666,-6809.894666,689.485948
1370.872845,6809.894666,-6809.894666,766.095498
1370.873175,7105.977043,-6883.915261,1149.143247
1370.873504,7328.038826,-6143.709319,1455.581446
1370.873834,7254.018232,-6587.832884,995.924147
1370.874164,7402.059420,-6143.709319,1225.752797
1370.874493,7031.956449,-6143.709319,689.485948
1370.874823,7105.977043,-6661.853478,842.705048
1370.875152,6957.935855,-6291.750507,1455.581446
1370.875482,7179.997637,-6365.771101,1225.752797
1370.875811,7031.956449,-6069.688724,919.314598
1370.876141,7031.956449,-5921.647536,842.705048
1370.876470,7105.977043,-6291.750507,459.657299
1370.876800,7105.977043,-6439.791695,1072.533697
1370.877130,7105.977043,-6143.709319,1072.533697
1370.877459,6513.812290,-6513.812290,1149.143247
1370.877789,6513.812290,-6291.750507,536.266849
1370.878118,6957.935855,-6809.894666,1302.362347
1370.878448,6809.894666,-6661.853478,1532.190996
1370.878777,6883.915261,-6439.791695,919.314598
1370.879107,6513.812290,-6439.791695,1072.533697
1370.879437,6735.874072,-7105.977043,689.485948
1370.879766,6661.853478,-7031.956449,1072.533697
1370.880096,6587.832884,-6735.874072,766.095498
1370.880425,7031.956449,-6957.935855,1149.143247
1370.880755,7105.977043,-6735.874072,919.314598
1370.881084,7031.956449,-6513.812290,1455.581446
1370.881414,7328.038826,-7031.956449,1072.533697
1370.881744,7254.018232,-6439.791695,1072.533697
1370.882073,7031.956449,-6661.853478,766.095498
1370.882403,7105.977043,-6883.915261,612.876398
1370.882732,6957.935855,-6439.791695,995.924147
1370.883062,7105.977043,-6291.750507,995.924147
1370.883391,6883.915261,-6439.791695,1072.533697
1370.883721,7105.977043,-6439.791695,1072.533697
1370.884051,7031.956449,-6217.729913,1225.752797
1370.884380,6883.915261,-6439.791695,1378.971896
1370.884710,6735.874072,-6661.853478,919.314598
1370.885039,6809.894666,-6661.853478,1149.143247
1370.885369,6883.915261,-7031.956449,919.314598
1370.885698,7402.059420,-6513.812290,1072.533697
1370.886028,6809.894666,-6439.791695,842.705048
1370.886358,6809.894666,-6587.832884,919.314598
1370.886687,6957.935855,-6587.832884,919.314598
1370.887017,7031.956449,-6735.874072,689.485948
1370.887346,6735.874072,-6883.915261,766.095498
1370.887676,7105.977043,-6809.894666,689.485948
1370.888005,7179.997637,-6661.853478,689.485948
1370.888335,6883.915261,-6439.791695,1378.971896
1370.888664,6883.915261,-6661.853478,995.924147
1370.888994,7328.038826,-6365.771101,1225.752797
1370.889324,7254.018232,-6439.791695,995.924147
1370.889653,7105.977043,-6217.729913,995.924147
1370.889983,7254.018232,-6217.729913,1455.581446
1370.890312,7105.977043,-6291.750507,995.924147
1370.890642,7624.121203,-6217.729913,1302.362347
1370.890971,6957.935855,-6365.771101,1455.581446
1370.891301,7254.018232,-5921.647536,995.924147
1370.891631,7105.977043,-5995.668130,842.705048
1370.891960,6809.894666,-6587.832884,1225.752797
1370.892290,6513.812290,-6735.874072,842.705048
1370.892619,6735.874072,-6735.874072,919.314598
1370.892949,6439.791695,-6809.894666,1149.143247
1370.893278,6957.935855,-6735.874072,1072.533697
1370.893608,6661.853478,-6809.894666,1225.752797
1370.893938,6513.812290,-6957.935855,1378.971896
1370.894267,6809.894666,-7031.956449,1225.752797
1370.894597,6957.935855,-6439.791695,1762.019645
1370.894926,6661.853478,-6957.935855,919.314598
1370.895256,7105.977043,-7031.956449,766.095498
1370.895585,7105.977043,-6513.812290,1149.143247
1370.895915,6957.935855,-6661.853478,995.924147
1370.896245,6883.915261,-6291.750507,1149.143247
1370.896574,6735.874072,-6513.812290,1149.143247
1370.896904,6809.894666,-6809.894666,919.314598
1370.897233,7105.977043,-7105.977043,1072.533697
1370.897563,7031.956449,-6217.729913,1149.143247
1370.897892,6957.935855,-6217.729913,766.095498
1370.898222,7105.977043,-6217.729913,995.924147
1370.898552,6809.894666,-7105.977043,1608.800546
1370.898881,7179.997637,-6587.832884,1149.143247
1370.899211,6809.894666,-5847.626942,1685.410096
1370.899540,6587.832884,-6439.791695,919.314598
1370.899870,6587.832884,-6883.915261,995.924147
1370.900199,6957.935855,-6809.894666,1072.533697
1370.900529,7328.038826,-6809.894666,689.485948
1370.900858,7328.038826,-6513.812290,1149.143247
1370.901188,7031.956449,-6291.750507,842.705048
1370.901518,7031.956449,-6661.853478,919.314598
1370.901847,6883.915261,-6883.915261,766.095498
1370.902177,7031.956449,-6587.832884,612.876398
1370.902506,6513.812290,-7105.977043,612.876398
1370.902836,7105.977043,-6661.853478,995.924147
1370.903165,7105.977043,-6513.812290,1072.533697
1370.903495,7254.018232,-6735.874072,766.095498
1370.903825,7105.977043,-6439.791695,1149.143247
1370.904154,7550.100608,-6143.709319,842.705048
1370.904484,7105.977043,-6513.812290,1072.533697
1370.904813,7105.977043,-6143.709319,766.095498
1370.905143,7476.080014,-6143.709319,1225.752797
1370.905472,7105.977043,-6143.709319,1225.752797
1370.905802,7105.977043,-6365.771101,1455.581446
1370.906132,7328.038826,-6217.729913,1072.533697
1370.906461,7105.977043,-6143.709319,612.876398
1370.906791,7031.956449,-6217.729913,1149.143247
1370.907120,6883.915261,-6587.832884,919.314598
1370.907450,6735.874072,-6883.915261,689.485948
1370.907779,6439.791695,-7105.977043,919.314598
1370.908109,6661.853478,-6809.894666,1225.752797
1370.908439,7105.977043,-6809.894666,1608.800546
1370.908768,6883.915261,-6217.729913,995.924147
1370.909098,6957.935855,-5847.626942,842.705048
1370.909427,7254.018232,-5625.565159,995.924147
1370.909757,8216.285956,-5255.462188,1149.143247
1370.910086,8438.347739,-6143.709319,1225.752797
1370.910416,7476.080014,-5995.668130,842.705048
1370.910746,6809.894666,-6957.935855,0.000000
1370.911075,6365.771101,-7254.018232,0.000000
1370.911405,6513.812290,-7105.977043,689.485948
1370.911734,7179.997637,-6957.935855,995.924147
1370.912064,7920.203579,-6217.729913,1455.581446
1370.912393,8216.285956,-5699.585753,1302.362347
1370.912723,8364.327145,-4219.173869,689.485948
1370.913052,7994.224174,-4737.318029,1608.800546
1370.913382,8290.306550,-4885.359217,1608.800546
1370.913712,8808.450710,-3923.091493,1378.971896
1370.914041,8586.388927,-4441.235652,1455.581446
1370.914371,8512.368333,-4145.153275,76.609550
1370.914700,7846.182985,-5995.668130,459.657299
1370.915030,7994.224174,-5699.585753,842.705048
1370.915359,8290.306550,-5699.585753,459.657299
1370.915689,8512.368333,-5551.544565,1378.971896
1370.916019,8364.327145,-5625.565159,1225.752797
1370.916348,8364.327145,-5995.668130,459.657299
1370.916678,7846.182985,-5625.565159,995.924147
1370.917007,7624.121203,-5477.523971,689.485948
1370.917337,8068.244768,-4663.297435,0.000000
1370.917666,7920.203579,-4293.194464,995.924147
1370.917996,8882.471304,-4737.318029,995.924147
1370.918326,9622.677246,-3034.844362,1532.190996
1370.918655,9844.739029,-3404.947333,1608.800546
1370.918985,10288.862594,-2664.741391,1455.581446
1370.919314,10140.821405,-2220.617826,1378.971896
1370.919644,10140.821405,-3330.926739,1532.190996
1370.919973,9992.780217,-3256.906145,1225.752797
1370.920303,9548.656652,-4515.256246,2298.286494
1370.920633,9548.656652,-4885.359217,1608.800546
1370.920962,9326.594869,-4737.318029,1685.410096
1370.921292,8586.388927,-5107.421000,1532.190996
1370.921621,8512.368333,-4737.318029,919.314598
1370.921951,8364.327145,-5403.503377,995.924147
1370.922280,7624.121203,-5329.482782,995.924147
1370.922610,7624.121203,-5329.482782,459.657299
1370.922940,7328.038826,-5255.462188,383.047749
1370.923269,7846.182985,-5699.585753,306.438199
1370.923599,7476.080014,-6513.812290,-76.609550
1370.923928,8290.306550,-4885.359217,0.000000
1370.924258,9622.677246,-4737.318029,76.609550
1370.924587,10658.965565,-4663.297435,919.314598
1370.924917,10066.800811,-4515.256246,1762.019645
1370.925246,9992.780217,-3701.029710,766.095498
1370.925576,9992.780217,-3404.947333,1072.533697
1370.925906,9770.718434,-3034.844362,1072.533697
1370.926235,9696.697840,-3923.091493,689.485948
1370.926565,9104.533087,-4293.194464,2145.067394
1370.926894,9252.574275,-3552.988522,1302.362347
1370.927224,9030.512492,-3701.029710,1532.190996
1370.927553,9104.533087,-4293.194464,2221.676944
1370.927883,8882.471304,-3997.112087,2221.676944
1370.928213,9104.533087,-3849.070898,1225.752797
1370.928542,9252.574275,-3923.091493,1072.533697
1370.928872,8734.430116,-4293.194464,689.485948
1370.929201,8882.471304,-4663.297435,536.266849
1370.929531,9104.533087,-4737.318029,536.266849
1370.929860,9252.574275,-4959.379811,306.438199
1370.930190,9030.512492,-4737.318029,536.266849
1370.930520,8808.450710,-4959.379811,76.609550
1370.930849,8956.491898,-5255.462188,0.000000
1370.931179,8216.285956,-5625.565159,383.047749
1370.931508,7920.203579,-5551.544565,689.485948
1370.931838,7772.162391,-5773.606348,842.705048
1370.932167,7920.203579,-5477.523971,1608.800546
1370.932497,8586.388927,-5773.606348,2374.896044
1370.932827,9252.574275,-4811.338623,2068.457845
1370.933156,9252.574275,-3552.988522,2145.067394
1370.933486,9474.636058,-3034.844362,1378.971896
1370.933815,9696.697840,-1554.432478,536.266849
1370.934145,9844.739029,-1554.432478,536.266849
1370.934474,10066.800811,-1776.494261,0.000000
1370.934804,10140.821405,-2368.659014,0.000000
1370.935134,9992.780217,-3108.864956,383.047749
1370.935463,9992.780217,-4219.173869,76.609550
1370.935793,9252.574275,-5477.523971,612.876398
1370.936122,8364.327145,-7031.956449,612.876398
1370.936452,7550.100608,-8068.244768,919.314598
1370.936781,7254.018232,-8882.471304,1302.362347
1370.937111,7105.977043,-7550.100608,1608.800546
1370.937440,6069.688724,-7031.956449,306.438199
1370.937770,6661.853478,-6069.688724,536.266849
1370.938100,8068.244768,-4737.318029,1225.752797
1370.938429,9400.615463,-3108.864956,1455.581446
1370.938759,9992.780217,-1850.514855,1838.629195
1370.939088,10066.800811,-1480.411884,1455.581446
1370.939418,10362.883188,-1036.288319,1072.533697
1370.939747,10955.047942,0.000000,995.924147
1370.940077,11991.336260,-444.123565,689.485948
1370.940407,12361.439231,-1406.391290,1762.019645
1370.940736,11991.336260,-3404.947333,1532.190996
1370.941066,11029.068536,-4811.338623,1532.190996
1370.941395,9252.574275,-5403.503377,1608.800546
1370.941725,7624.121203,-7328.038826,1225.752797
1370.942054,5847.626942,-8364.327145,536.266849
1370.942384,4589.276840,-8660.409521,0.000000
1370.942714,5107.421000,-7846.182985,-612.876398
1370.943043,6143.709319,-7402.059420,-306.438199
1370.943373,7476.080014,-6217.729913,1149.143247
1370.943702,9548.656652,-4145.153275,1608.800546
1370.944032,10807.006753,-2738.761985,1838.629195
1370.944361,10955.047942,-962.267725,1762.019645
1370.944691,10658.965565,-888.247130,995.924147
1370.945021,10732.986159,-370.102971,842.705048
1370.945350,11547.212695,-222.061783,995.924147
1370.945680,11991.336260,-2220.617826,1762.019645
1370.946009,12435.459826,-2886.803174,2298.286494
1370.946339,11547.212695,-4071.132681,2987.772442
1370.946668,10140.821405,-6365.771101,2145.067394
1370.946998,8068.244768,-6883.915261,1762.019645
1370.947328,5699.585753,-7179.997637,76.609550
1370.947657,4441.235652,-8364.327145,-1072.533697
1370.947987,3478.967927,-8586.388927,-919.314598
1370.948316,4737.318029,-7402.059420,-612.876398
1370.948646,7254.018232,-5181.441594,-306.438199
1370.948975,8956.491898,-3701.029710,459.657299
1370.949305,10955.047942,-2664.741391,1608.800546
1370.949634,11621.233289,-2294.638420,1455.581446
1370.949964,10807.006753,-2886.803174,1455.581446
1370.950294,10584.944971,-2738.761985,1455.581446
1370.950623,10362.883188,-3478.967927,1532.190996
1370.950953,9622.677246,-5033.400406,1302.362347
1370.951282,8586.388927,-6439.791695,1455.581446
1370.951612,8142.265362,-7994.224174,1838.629195
1370.951941,7254.018232,-7846.182985,1532.190996
1370.952271,7031.956449,-8290.306550,1072.533697
1370.952601,5403.503377,-6143.709319,229.828649
1370.952930,5403.503377,-4959.379811,-383.047749
1370.953260,6809.894666,-5107.421000,-459.657299
1370.953589,7328.038826,-4737.318029,459.657299
1370.953919,8216.285956,-5329.482782,1149.143247
1370.954248,9252.574275,-2738.761985,766.095498
1370.954578,9326.594869,-2516.700203,459.657299
1370.954908,9474.636058,-4737.318029,689.485948
1370.955237,9474.636058,-6217.729913,1455.581446
1370.955567,8808.450710,-8734.430116,1532.190996
1370.955896,7624.121203,-8364.327145,1532.190996
1370.956226,6439.791695,-7105.977043,383.047749
1370.956555,6291.750507,-6513.812290,-229.828649
1370.956885,6143.709319,-7772.162391,76.609550
1370.957215,6365.771101,-9400.615463,2068.457845
1370.957544,7105.977043,-7105.977043,1915.238745
1370.957874,5773.606348,-6957.935855,766.095498
1370.958203,4145.153275,-4959.379811,0.000000
1370.958533,4367.215058,-6143.709319,-459.657299
1370.958862,6291.750507,-7698.141797,689.485948
1370.959192,7402.059420,-6809.894666,1838.629195
1370.959522,8290.306550,-4811.338623,1762.019645
1370.959851,9178.553681,-2294.638420,2528.115143
1370.960181,9474.636058,-2886.803174,1608.800546
1370.960510,9696.697840,-4737.318029,1302.362347
1370.960840,8586.388927,-6735.874072,2911.162892
1370.961169,8068.244768,-7328.038826,2451.505594
1370.961499,7550.100608,-5107.421000,2451.505594
1370.961828,6661.853478,-3478.967927,689.485948
1370.962157,6957.935855,-5329.482782,919.314598
1370.962486,6957.935855,-7402.059420,1608.800546
1370.962816,6809.894666,-7698.141797,1455.581446
1370.963145,6217.729913,-5181.441594,0.000000
1370.963474,6291.750507,-4663.297435,0.000000
1370.963803,7105.977043,-5551.544565,76.609550
1370.964133,7254.018232,-8438.347739,1149.143247
1370.964462,6513.812290,-9474.636058,1762.019645
1370.964791,6661.853478,-8216.285956,1072.533697
1370.965120,6513.812290,-6661.853478,229.828649
1370.965450,5995.668130,-7476.080014,995.924147
1370.965779,6217.729913,-10214.842000,2068.457845
1370.966108,6143.709319,-9770.718434,1991.848295
1370.966437,5551.544565,-7328.038826,1532.190996
1370.966767,5921.647536,-4663.297435,766.095498
1370.967096,7105.977043,-3404.947333,612.876398
1370.967425,7920.203579,-4663.297435,1762.019645
1370.967754,7105.977043,-6735.874072,1608.800546
1370.968084,6143.709319,-6439.791695,1225.752797
1370.968413,6143.709319,-5773.606348,229.828649
1370.968742,6809.894666,-5847.626942,0.000000
1370.969071,7846.182985,-6587.832884,1991.848295
1370.969401,8216.285956,-8142.265362,1762.019645
1370.969730,8068.244768,-7254.018232,2145.067394
1370.970059,7328.038826,-5477.523971,995.924147
1370.970388,8216.285956,-3701.029710,536.266849
1370.970718,8364.327145,-4885.359217,1608.800546
1370.971047,7550.100608,-7402.059420,1762.019645
1370.971376,6069.688724,-8364.327145,1378.971896
1370.971705,5181.441594,-6735.874072,536.266849
1370.972035,5255.462188,-5921.647536,0.000000
1370.972364,5995.668130,-6957.935855,766.095498
1370.972693,6661.853478,-8216.285956,1991.848295
1370.973022,7254.018232,-7105.977043,1532.190996
1370.973352,7772.162391,-5255.462188,1072.533697
1370.973681,7994.224174,-4589.276840,383.047749
1370.974010,8290.306550,-4885.359217,0.000000
1370.974339,7772.162391,-7624.121203,766.095498
1370.974669,6513.812290,-8808.450710,1149.143247
1370.974998,5403.503377,-9030.512492,842.705048
1370.975327,5477.523971,-7402.059420,76.609550
1370.975656,5921.647536,-7772.162391,306.438199
1370.975986,6735.874072,-8956.491898,1302.362347
1370.976315,6661.853478,-7550.100608,1149.143247
1370.976644,5773.606348,-5995.668130,842.705048
1370.976973,7031.956449,-3330.926739,76.609550
1370.977303,8364.327145,-3330.926739,919.314598
1370.977632,8808.450710,-6069.688724,1378.971896
1370.977961,8068.244768,-6217.729913,1455.581446
1370.978290,7328.038826,-6217.729913,919.314598
1370.978620,7254.018232,-5403.503377,76.609550
1370.978949,7624.121203,-6365.771101,1302.362347
1370.979278,7624.121203,-7476.080014,1685.410096
1370.979607,7105.977043,-7105.977043,1072.533697
1370.979937,6143.709319,-6143.709319,766.095498
1370.980266,6439.791695,-5181.441594,153.219100
1370.980595,7698.141797,-4737.318029,919.314598
1370.980924,7328.038826,-7105.977043,1762.019645
1370.981254,6365.771101,-8364.327145,1762.019645
1370.981583,5847.626942,-6661.853478,612.876398
1370.981912,5847.626942,-6217.729913,306.438199
1370.982241,6809.894666,-6365.771101,919.314598
1370.982571,7772.162391,-7179.997637,1532.190996
1370.982900,7550.100608,-7550.100608,1685.410096
1370.983229,6735.874072,-6365.771101,459.657299
1370.983558,6587.832884,-5255.462188,229.828649
1370.983887,7698.141797,-6587.832884,766.095498
1370.984217,8142.265362,-5255.462188,1072.533697
1370.984546,6957.935855,-8808.450710,1915.238745
1370.984875,5625.565159,-8216.285956,1149.143247
1370.985204,5773.606348,-5551.544565,76.609550
1370.985534,6735.874072,-7031.956449,1915.238745
1370.985863,7254.018232,-7179.997637,1378.971896
1370.986192,7402.059420,-6735.874072,1762.019645
1370.986521,7031.956449,-5477.523971,1762.019645
1370.986851,6587.832884,-4737.318029,0.000000
1370.987180,7476.080014,-4737.318029,995.924147
1370.987509,7846.182985,-6069.688724,1608.800546
1370.987838,7846.182985,-7402.059420,1302.362347
1370.988168,6513.812290,-7105.977043,1225.752797
1370.988497,6661.853478,-5551.544565,1225.752797
1370.988826,8068.244768,-6587.832884,842.705048
1370.989155,7254.018232,-7624.121203,2374.896044
1370.989485,6735.874072,-8364.327145,995.924147
1370.989814,5773.606348,-7328.038826,383.047749
1370.990143,5255.462188,-5625.565159,612.876398
1370.990472,6291.750507,-6069.688724,459.657299
1370.990802,7772.162391,-6587.832884,1608.800546
1370.991131,7179.997637,-7550.100608,2298.286494
1370.991460,6587.832884,-7031.956449,1378.971896
1370.991789,5921.647536,-6735.874072,383.047749
1370.992119,5699.585753,-6069.688724,0.000000
1370.992448,6513.812290,-7550.100608,383.047749
1370.992777,7179.997637,-7920.203579,1455.581446
1370.993106,7402.059420,-6661.853478,1149.143247
1370.993436,7624.121203,-5329.482782,1149.143247
1370.993765,8512.368333,-4367.215058,842.705048
1370.994094,8216.285956,-6069.688724,1072.533697
1370.994423,6809.894666,-6957.935855,1685.410096
1370.994753,6513.812290,-6513.812290,1302.362347
1370.995082,6217.729913,-5625.565159,689.485948
1370.995411,6809.894666,-5625.565159,919.314598
1370.995740,7920.203579,-6661.853478,1762.019645
1370.996070,7624.121203,-7105.977043,1991.848295
1370.996399,5921.647536,-7624.121203,842.705048
1370.996728,5773.606348,-5329.482782,612.876398
1370.997057,7105.977043,-5107.421000,-229.828649
1370.997387,8734.430116,-5699.585753,1378.971896
1370.997716,8290.306550,-6883.915261,2068.457845
1370.998045,7105.977043,-7624.121203,689.485948
1370.998374,6365.771101,-6217.729913,612.876398
1370.998704,5995.668130,-7031.956449,76.609550
1370.999033,7105.977043,-7772.162391,1149.143247
1370.999362,7402.059420,-8290.306550,1838.629195
1370.999691,6439.791695,-7254.018232,842.705048
1371.000021,6735.874072,-4959.379811,306.438199
1371.000350,7550.100608,-4441.235652,229.828649
1371.000679,8512.368333,-4811.338623,919.314598
1371.001008,7772.162391,-7105.977043,1608.800546
1371.001338,6957.935855,-6809.894666,1532.190996
1371.001667,6439.791695,-6217.729913,153.219100
1371.001996,6809.894666,-5773.606348,1072.533697
1371.002325,8068.244768,-6217.729913,1302.362347
1371.002655,7254.018232,-7846.182985,1378.971896
1371.002984,6809.894666,-7105.977043,1302.362347
1371.003313,5773.606348,-6069.688724,153.219100
1371.003642,6957.935855,-4959.379811,1072.533697
1371.003972,7994.224174,-5403.503377,1455.581446
1371.004301,8290.306550,-7772.162391,2068.457845
1371.004630,6735.874072,-7624.121203,1455.581446
1371.004959,5403.503377,-7031.956449,459.657299
1371.005289,5181.441594,-7031.956449,-383.047749
1371.005618,5625.565159,-7550.100608,459.657299
1371.005947,6809.894666,-8364.327145,1225.752797
1371.006276,7772.162391,-7698.141797,1685.410096
1371.006606,7550.100608,-5995.668130,1685.410096
1371.006935,7624.121203,-5033.400406,842.705048
1371.007264,7772.162391,-4663.297435,919.314598
1371.007593,7624.121203,-5921.647536,1072.533697
1371.007923,6735.874072,-6957.935855,919.314598
1371.008252,5699.585753,-7105.977043,0.000000
1371.008581,5625.565159,-7402.059420,612.876398
1371.008910,5995.668130,-7179.997637,689.485948
1371.009240,6143.709319,-7994.224174,1302.362347
1371.009569,5773.606348,-7402.059420,1685.410096
1371.009898,6513.812290,-5625.565159,995.924147
1371.010227,7698.141797,-5107.421000,1302.362347
1371.010557,8808.450710,-5033.400406,2145.067394
1371.010886,8808.450710,-6069.688724,2451.505594
1371.011215,7772.162391,-6661.853478,2298.286494
1371.011544,5847.626942,-5773.606348,536.266849
1371.011874,4959.379811,-6291.750507,-536.266849
1371.012203,5699.585753,-7105.977043,766.095498
1371.012532,7105.977043,-7920.203579,1838.629195
1371.012861,7476.080014,-7402.059420,1378.971896
1371.013191,6883.915261,-5921.647536,1149.143247
1371.013520,7179.997637,-5329.482782,459.657299
1371.013849,7920.203579,-5255.462188,536.266849
1371.014178,7550.100608,-6587.832884,1455.581446
1371.014508,6883.915261,-7476.080014,1608.800546
1371.014837,6365.771101,-6735.874072,766.095498
1371.015166,6661.853478,-5847.626942,0.000000
1371.015495,7402.059420,-6217.729913,842.705048
1371.015825,8586.388927,-7402.059420,2221.676944
1371.016154,8290.306550,-7624.121203,2068.457845
1371.016483,6735.874072,-6513.812290,1149.143247
1371.016812,6143.709319,-4885.359217,306.438199
1371.017142,6735.874072,-4441.235652,-612.876398
1371.017471,6587.832884,-7254.018232,766.095498
1371.017800,6365.771101,-8068.244768,1225.752797
1371.018129,5921.647536,-7994.224174,919.314598
1371.018459,5921.647536,-7476.080014,536.266849
1371.018788,6513.812290,-7254.018232,612.876398
1371.019117,6809.894666,-8438.347739,1225.752797
1371.019446,6735.874072,-7994.224174,1455.581446
1371.019776,6883.915261,-6735.874072,842.705048
1371.020105,6883.915261,-4441.235652,229.828649
1371.020434,8808.450710,-3552.988522,459.657299
1371.020763,9030.512492,-5551.544565,1149.143247
1371.021093,8364.327145,-6735.874072,1838.629195
1371.021422,7105.977043,-6587.832884,1149.143247
1371.021751,6883.915261,-5699.585753,76.609550
1371.022080,6957.935855,-5995.668130,229.828649
1371.022410,7476.080014,-7476.080014,1455.581446
1371.022739,7402.059420,-7846.182985,1685.410096
1371.023068,5921.647536,-7254.018232,842.705048
1371.023397,5107.421000,-5107.421000,0.000000
1371.023727,6809.894666,-5033.400406,0.000000
1371.024056,7920.203579,-6069.688724,1225.752797
1371.024385,7476.080014,-7179.997637,1762.019645
1371.024714,6439.791695,-7476.080014,1532.190996
1371.025044,5699.585753,-6883.915261,536.266849
1371.025373,5921.647536,-6661.853478,0.000000
1371.025702,6439.791695,-7624.121203,1378.971896
1371.026031,7402.059420,-7624.121203,1762.019645
1371.026361,7105.977043,-7031.956449,1608.800546
1371.026690,5921.647536,-5995.668130,612.876398
1371.027019,6809.894666,-4663.297435,306.438199
1371.027348,8068.244768,-4959.379811,612.876398
1371.027678,8216.285956,-6513.812290,2068.457845
1371.028007,7698.141797,-7254.018232,2068.457845
1371.028336,6735.874072,-6809.894666,1149.143247
1371.028665,6439.791695,-5403.503377,306.438199
1371.028995,5921.647536,-6217.729913,153.219100
1371.029324,6291.750507,-7402.059420,1991.848295
1371.029653,6291.750507,-7550.100608,919.314598
1371.029982,6513.812290,-5847.626942,689.485948
1371.030312,7402.059420,-4885.359217,1378.971896
1371.030641,8438.347739,-5921.647536,1915.238745
1371.030970,8882.471304,-6661.853478,2374.896044
1371.031299,7254.018232,-6957.935855,1915.238745
1371.031629,5403.503377,-7550.100608,306.438199
1371.031958,4885.359217,-7031.956449,459.657299
1371.032287,5181.441594,-7402.059420,536.266849
1371.032616,6735.874072,-8216.285956,1225.752797
1371.032946,7402.059420,-7105.977043,1532.190996
1371.033275,7402.059420,-5921.647536,1762.019645
1371.033604,7698.141797,-4737.318029,1378.971896
1371.033933,8586.388927,-4367.215058,995.924147
1371.034263,7994.224174,-5773.606348,1302.362347
1371.034592,5921.647536,-6883.915261,689.485948
1371.034921,5847.626942,-6883.915261,689.485948
1371.035250,5847.626942,-6661.853478,229.828649
1371.035580,7179.997637,-7031.956449,612.876398
1371.035909,7476.080014,-7772.162391,1915.238745
1371.036238,7402.059420,-7846.182985,1455.581446
1371.036567,6661.853478,-6957.935855,1455.581446
1371.036897,6735.874072,-4737.318029,306.438199
1371.037226,7994.224174,-4145.153275,612.876398
1371.037555,8808.450710,-5625.565159,1991.848295
1371.037884,8438.347739,-6809.894666,2374.896044
1371.038214,6883.915261,-6809.894666,995.924147
1371.038543,5625.565159,-7179.997637,229.828649
1371.038872,5329.482782,-7179.997637,0.000000
1371.039201,5773.606348,-9030.512492,459.657299
1371.039531,5625.565159,-9548.656652,1532.190996
1371.039860,6143.709319,-7772.162391,1302.362347
1371.040189,6587.832884,-5551.544565,0.000000
1371.040518,6883.915261,-5033.400406,766.095498
1371.040848,8216.285956,-5847.626942,1149.143247
1371.041177,8290.306550,-7105.977043,1455.581446
1371.041506,6883.915261,-6587.832884,1762.019645
1371.041835,6513.812290,-5921.647536,612.876398
1371.042164,6735.874072,-6143.709319,229.828649
1371.042494,7476.080014,-6587.832884,1762.019645
1371.042823,7624.121203,-7698.141797,1915.238745
1371.043152,7402.059420,-6143.709319,1455.581446
1371.043481,7402.059420,-4737.318029,995.924147
1371.043811,7328.038826,-4515.256246,229.828649
1371.044140,7476.080014,-5625.565159,1225.752797
1371.044469,7179.997637,-8142.265362,1532.190996
1371.044798,5995.668130,-7920.203579,1532.190996
1371.045128,4811.338623,-6661.853478,383.047749
1371.045457,5033.400406,-5921.647536,383.047749
1371.045786,7179.997637,-7402.059420,1838.629195
1371.046115,8216.285956,-7105.977043,2298.286494
1371.046445,7105.977043,-6217.729913,1532.190996
1371.046774,6217.729913,-4885.359217,689.485948
1371.047103,7179.997637,-4441.235652,536.266849
1371.047432,8142.265362,-5329.482782,1455.581446
1371.047762,7550.100608,-7254.018232,2451.505594
1371.048091,6735.874072,-7105.977043,1762.019645
1371.048420,6809.894666,-6735.874072,536.266849
1371.048749,6439.791695,-6069.688724,612.876398
1371.049079,7328.038826,-7402.059420,1991.848295
1371.049408,7772.162391,-7698.141797,1991.848295
1371.049737,6217.729913,-6513.812290,766.095498
1371.050066,5033.400406,-5921.647536,0.000000
1371.050396,6809.894666,-4515.256246,76.609550
1371.050725,8808.450710,-6587.832884,842.705048
1371.051054,7846.182985,-8586.388927,1762.019645
1371.051383,6439.791695,-8142.265362,1762.019645
1371.051713,5625.565159,-7105.977043,0.000000
1371.052042,5773.606348,-7476.080014,459.657299
1371.052371,6439.791695,-8586.388927,1378.971896
1371.052700,8068.244768,-8586.388927,1991.848295
1371.053030,7698.141797,-7254.018232,1225.752797
1371.053359,6217.729913,-5255.462188,919.314598
1371.053688,6587.832884,-4219.173869,-536.266849
1371.054017,8068.244768,-5255.462188,306.438199
1371.054347,8216.285956,-7031.956449,1608.800546
1371.054676,6883.915261,-6809.894666,1532.190996
1371.055005,6587.832884,-5403.503377,229.828649
1371.055334,6809.894666,-5329.482782,689.485948
1371.055664,7550.100608,-6883.915261,842.705048
1371.055993,7254.018232,-7624.121203,1532.190996
1371.056322,6587.832884,-7698.141797,1378.971896
1371.056651,6883.915261,-6809.894666,459.657299
1371.056981,6735.874072,-5033.400406,842.705048
1371.057310,7994.224174,-6143.709319,1072.533697
1371.057639,8290.306550,-7772.162391,1915.238745
1371.057968,6365.771101,-7179.997637,766.095498
1371.058298,4737.318029,-7179.997637,459.657299
1371.058627,5477.523971,-6069.688724,842.705048
1371.058956,6735.874072,-6661.853478,536.266849
1371.059285,6957.935855,-8142.265362,1608.800546
1371.059615,6883.915261,-6883.915261,1455.581446
1371.059944,6883.915261,-5625.565159,383.047749
1371.060273,7179.997637,-4293.194464,76.609550
1371.060602,8216.285956,-4959.379811,1149.143247
1371.060932,8364.327145,-6661.853478,1455.581446
1371.061261,7994.224174,-6661.853478,1991.848295
1371.061590,6513.812290,-7328.038826,1225.752797
1371.061919,6809.894666,-5995.668130,1532.190996
1371.062249,8068.244768,-5921.647536,1225.752797
1371.062578,8290.306550,-7476.080014,2145.067394
1371.062907,7105.977043,-6365.771101,1762.019645
1371.063236,5625.565159,-6143.709319,459.657299
1371.063566,6217.729913,-4589.276840,459.657299
1371.063895,7698.141797,-4737.318029,612.876398
1371.064224,8068.244768,-6587.832884,1915.238745
1371.064553,6735.874072,-7328.038826,2068.457845
1371.064883,6291.750507,-7105.977043,459.657299
1371.065212,5847.626942,-6661.853478,0.000000
1371.065541,6217.729913,-7846.182985,612.876398
1371.065870,7550.100608,-8290.306550,1072.533697
1371.066199,7624.121203,-8068.244768,1532.190996
1371.066529,6513.812290,-7254.018232,689.485948
1371.066858,6513.812290,-5995.668130,459.657299
1371.067187,7254.018232,-5403.503377,689.485948
1371.067516,7105.977043,-6735.874072,1072.533697
1371.067846,6513.812290,-7402.059420,1455.581446
1371.068175,5773.606348,-5921.647536,919.314598
1371.068504,6217.729913,-6143.709319,306.438199
1371.068833,6957.935855,-5551.544565,1685.410096
1371.069162,7698.141797,-7105.977043,2298.286494
1371.069492,8142.265362,-6587.832884,1762.019645
1371.069821,7328.038826,-4811.338623,1455.581446
1371.070150,7328.038826,-4737.318029,995.924147
1371.070479,8290.306550,-4811.338623,995.924147
1371.070809,8364.327145,-6291.750507,1455.581446
1371.071138,7624.121203,-7772.162391,1838.629195
1371.071467,6217.729913,-7476.080014,995.924147
1371.071796,5477.523971,-7920.203579,536.266849
1371.072125,5181.441594,-7994.224174,229.828649
1371.072455,5551.544565,-8808.450710,919.314598
1371.072784,6143.709319,-8586.388927,842.705048
1371.073113,5921.647536,-6809.894666,459.657299
1371.073442,5847.626942,-5255.462188,229.828649
1371.073772,7920.203579,-4441.235652,536.266849
1371.074101,9252.574275,-4959.379811,1302.362347
1371.074430,9178.553681,-5995.668130,2374.896044
1371.074759,7994.224174,-6513.812290,1991.848295
1371.075089,7476.080014,-5403.503377,1149.143247
1371.075418,6809.894666,-5551.544565,612.876398
1371.075747,6587.832884,-6365.771101,842.705048
1371.076076,6735.874072,-7550.100608,1915.238745
1371.076405,6661.853478,-7402.059420,1608.800546
1371.076735,5551.544565,-6217.729913,612.876398
1371.077064,6587.832884,-5329.482782,383.047749
1371.077393,7402.059420,-6587.832884,1455.581446
1371.077722,7402.059420,-7402.059420,1838.629195
1371.078052,5625.565159,-7624.121203,1149.143247
1371.078381,5107.421000,-6735.874072,0.000000
1371.078710,5255.462188,-6735.874072,-306.438199
1371.079039,7031.956449,-6809.894666,1608.800546
1371.079368,8364.327145,-8068.244768,2068.457845
1371.079698,7772.162391,-7254.018232,1378.971896
1371.080027,7254.018232,-4959.379811,612.876398
1371.080356,8068.244768,-3997.112087,229.828649
1371.080685,8956.491898,-4663.297435,1225.752797
1371.081015,9030.512492,-5625.565159,2068.457845
1371.081344,8216.285956,-6587.832884,1302.362347
1371.081673,6365.771101,-6217.729913,919.314598
1371.082002,6069.688724,-5107.421000,306.438199
1371.082331,7105.977043,-6513.812290,1685.410096
1371.082661,8290.306550,-7179.997637,2451.505594
1371.082990,6957.935855,-6957.935855,1378.971896
1371.083319,6069.688724,-5625.565159,766.095498
1371.083648,6735.874072,-4737.318029,536.266849
1371.083978,8438.347739,-5329.482782,1302.362347
1371.084307,8142.265362,-7105.977043,2068.457845
1371.084636,6809.894666,-7550.100608,1762.019645
1371.084965,5181.441594,-7476.080014,0.000000
1371.085294,5181.441594,-7994.224174,0.000000
1371.085624,5995.668130,-9252.574275,689.485948
1371.085953,7105.977043,-9252.574275,1378.971896
1371.086282,6587.832884,-8216.285956,1455.581446
1371.086611,5921.647536,-6957.935855,306.438199
1371.086941,6809.894666,-5477.523971,536.266849
1371.087270,7920.203579,-6217.729913,536.266849
1371.087599,8512.368333,-7476.080014,1378.971896
1371.087928,7624.121203,-7550.100608,1838.629195
1371.088257,6661.853478,-6809.894666,919.314598
1371.088587,5995.668130,-5477.523971,0.000000
1371.088916,7031.956449,-6217.729913,1149.143247
1371.089245,8216.285956,-7105.977043,2451.505594
1371.089574,8068.244768,-6069.688724,1532.190996
1371.089904,7105.977043,-5699.585753,919.314598
1371.090233,7031.956449,-3775.050304,383.047749
1371.090562,7994.224174,-4145.153275,536.266849
1371.090891,8660.409521,-6217.729913,2068.457845
1371.091221,7328.038826,-7402.059420,2068.457845
1371.091550,6217.729913,-7698.141797,842.705048
1371.091879,5773.606348,-6809.894666,153.219100
1371.092208,5847.626942,-7328.038826,689.485948
1371.092537,5921.647536,-8512.368333,919.314598
1371.092867,6143.709319,-8068.244768,1685.410096
1371.093196,6217.729913,-6957.935855,842.705048
1371.093525,7031.956449,-4737.318029,689.485948
1371.093854,7698.141797,-4219.173869,766.095498
1371.094184,8364.327145,-5699.585753,1149.143247
1371.094513,7846.182985,-6513.812290,1455.581446
1371.094842,6365.771101,-7105.977043,995.924147
1371.095171,6217.729913,-6143.709319,229.828649
1371.095500,6809.894666,-6069.688724,919.314598
1371.095830,7994.224174,-6735.874072,1455.581446
1371.096159,8290.306550,-7105.977043,1838.629195
1371.096488,7179.997637,-6513.812290,1608.800546
1371.096817,7476.080014,-4293.194464,612.876398
1371.097147,7920.203579,-4515.256246,1072.533697
1371.097476,8142.265362,-5255.462188,1532.190996
1371.097805,7105.977043,-7624.121203,1378.971896
1371.098134,6513.812290,-7254.018232,919.314598
1371.098463,5477.523971,-7402.059420,766.095498
1371.098793,6217.729913,-7031.956449,766.095498
1371.099122,6661.853478,-7698.141797,1532.190996
1371.099451,7105.977043,-7846.182985,1378.971896
1371.099780,6439.791695,-7328.038826,689.485948
1371.100110,6365.771101,-6143.709319,766.095498
1371.100439,7254.018232,-5995.668130,153.219100
1371.100768,7772.162391,-5921.647536,1072.533697
1371.101097,7994.224174,-6957.935855,1532.190996
1371.101426,7920.203579,-7105.977043,1225.752797
1371.101756,6957.935855,-6587.832884,919.314598
1371.102085,7105.977043,-6143.709319,383.047749
1371.102414,7846.182985,-6291.750507,919.314598
1371.102743,7624.121203,-6291.750507,1762.019645
1371.103073,6513.812290,-6143.709319,842.705048
1371.103402,6365.771101,-5477.523971,76.609550
1371.103731,7031.956449,-5329.482782,-76.609550
1371.104060,7105.977043,-6587.832884,842.705048
1371.104390,7105.977043,-7920.203579,1762.019645
1371.104719,6143.709319,-7846.182985,1302.362347
1371.105048,5181.441594,-7698.141797,153.219100
1371.105377,5477.523971,-7698.141797,612.876398
1371.105706,6661.853478,-8438.347739,1532.190996
1371.106036,7550.100608,-8290.306550,1991.848295
1371.106365,7105.977043,-6883.915261,1532.190996
1371.106694,6735.874072,-6143.709319,842.705048
1371.107023,6587.832884,-5107.421000,306.438199
1371.107353,7105.977043,-5255.462188,459.657299
1371.107682,7179.997637,-6587.832884,842.705048
1371.108011,6513.812290,-7105.977043,1225.752797
1371.108340,5995.668130,-7031.956449,459.657299
1371.108669,6291.750507,-6735.874072,0.000000
1371.108999,6883.915261,-6809.894666,1378.971896
1371.109328,7772.162391,-7105.977043,2145.067394
1371.109657,7846.182985,-6365.771101,1991.848295
1371.109986,6957.935855,-4515.256246,459.657299
1371.110316,7772.162391,-3627.009116,306.438199
1371.110645,9548.656652,-4367.215058,1225.752797
1371.110974,9622.677246,-6439.791695,2374.896044
1371.111303,7698.141797,-6513.812290,1991.848295
1371.111632,6587.832884,-6217.729913,919.314598
1371.111962,6439.791695,-6217.729913,689.485948
1371.112291,6217.729913,-7698.141797,1149.143247
1371.112620,5625.565159,-7624.121203,1455.581446
1371.112949,5551.544565,-6809.894666,536.266849
1371.113279,5551.544565,-6217.729913,0.000000
1371.113608,6809.894666,-5995.668130,306.438199
1371.113937,8216.285956,-6217.729913,1072.533697
1371.114266,8142.265362,-6883.915261,1838.629195
1371.114595,6957.935855,-7698.141797,1149.143247
1371.114925,5625.565159,-7550.100608,995.924147
1371.115254,6365.771101,-6735.874072,229.828649
1371.115583,7179.997637,-6587.832884,1072.533697
1371.115912,7328.038826,-6661.853478,1455.581446
1371.116242,7550.100608,-6661.853478,1608.800546
1371.116571,7698.141797,-5403.503377,1378.971896
1371.116900,7846.182985,-4515.256246,842.705048
1371.117229,8142.265362,-4441.235652,1302.362347
1371.117559,8142.265362,-6439.791695,1608.800546
1371.117888,7105.977043,-7254.018232,1302.362347
1371.118217,5477.523971,-7402.059420,153.219100
1371.118546,5255.462188,-7031.956449,842.705048
1371.118875,6513.812290,-7402.059420,842.705048
1371.119205,6291.750507,-9178.553681,1455.581446
1371.119534,5403.503377,-8216.285956,1532.190996
1371.119863,4811.338623,-7846.182985,383.047749
1371.120192,5847.626942,-5329.482782,1072.533697
1371.120522,7105.977043,-5847.626942,919.314598
1371.120851,8586.388927,-6217.729913,1838.629195
1371.121180,8216.285956,-6217.729913,2528.115143
1371.121509,7476.080014,-6661.853478,1149.143247
1371.121838,7105.977043,-5329.482782,1608.800546
1371.122168,7179.997637,-5625.565159,995.924147
1371.122497,7624.121203,-7476.080014,995.924147
1371.122826,6735.874072,-7476.080014,1685.410096
1371.123155,5625.565159,-7402.059420,536.266849
1371.123485,6291.750507,-5921.647536,-153.219100
1371.123814,7179.997637,-5625.565159,689.485948
1371.124143,7772.162391,-6439.791695,1685.410096
1371.124472,7254.018232,-7105.977043,1608.800546
1371.124801,5403.503377,-6661.853478,1378.971896
1371.125131,5107.421000,-7031.956449,0.000000
1371.125460,5995.668130,-7402.059420,995.924147
1371.125789,7402.059420,-7846.182985,1762.019645
1371.126118,7328.038826,-7402.059420,1838.629195
1371.126448,6661.853478,-6217.729913,1915.238745
1371.126777,7105.977043,-5773.606348,919.314598
1371.127106,7846.182985,-4515.256246,689.485948
1371.127435,8068.244768,-5403.503377,995.924147
1371.127764,7476.080014,-6439.791695,1302.362347
1371.128094,6513.812290,-7105.977043,919.314598
1371.128423,5921.647536,-6883.915261,612.876398
1371.128752,6439.791695,-6439.791695,536.266849
1371.129081,7105.977043,-6957.935855,1149.143247
1371.129411,7328.038826,-6809.894666,1608.800546
1371.129740,6217.729913,-5847.626942,842.705048
1371.130069,7105.977043,-4811.338623,842.705048
1371.130398,8512.368333,-3997.112087,1378.971896
1371.130727,9474.636058,-5477.523971,2374.896044
1371.131057,8512.368333,-6439.791695,2528.115143
1371.131386,6957.935855,-6809.894666,1149.143247
1371.131715,5699.585753,-6883.915261,153.219100
1371.132044,5477.523971,-6661.853478,76.609550
1371.132374,6809.894666,-6883.915261,842.705048
1371.132703,7772.162391,-7402.059420,1685.410096
1371.133032,7105.977043,-6883.915261,689.485948
1371.133361,6957.935855,-6587.832884,536.266849
1371.133691,7550.100608,-5329.482782,612.876398
1371.134020,7698.141797,-5773.606348,766.095498
1371.134349,6587.832884,-7179.997637,1072.533697
1371.134678,6069.688724,-7994.224174,1225.752797
1371.135007,5773.606348,-7846.182985,766.095498
1371.135337,6217.729913,-6513.812290,459.657299
1371.135666,6735.874072,-7105.977043,1149.143247
1371.135995,7031.956449,-7105.977043,1455.581446
1371.136324,6513.812290,-7328.038826,766.095498
1371.136654,5847.626942,-6957.935855,383.047749
1371.136983,7254.018232,-4885.359217,766.095498
1371.137312,8364.327145,-6069.688724,536.266849
1371.137641,8068.244768,-6513.812290,1685.410096
1371.137970,7105.977043,-7328.038826,1302.362347
1371.138300,7031.956449,-7476.080014,76.609550
1371.138629,6291.750507,-6661.853478,0.000000
1371.138958,5995.668130,-7402.059420,536.266849
1371.139287,6513.812290,-8068.244768,842.705048
1371.139617,6661.853478,-7179.997637,766.095498
1371.139946,6143.709319,-6365.771101,1072.533697
1371.140275,7105.977043,-5181.441594,1302.362347
1371.140604,7402.059420,-4737.318029,1225.752797
1371.140933,8512.368333,-5995.668130,1838.629195
1371.141263,7698.141797,-6365.771101,1838.629195
1371.141592,6809.894666,-6513.812290,1149.143247
1371.141921,6883.915261,-6069.688724,689.485948
1371.142250,6587.832884,-7105.977043,919.314598
1371.142580,6735.874072,-7105.977043,1149.143247
1371.142909,6217.729913,-7402.059420,766.095498
1371.143238,5847.626942,-6809.894666,1378.971896
1371.143567,6809.894666,-5551.544565,306.438199
1371.143896,7772.162391,-5551.544565,1149.143247
1371.144226,7624.121203,-6439.791695,1991.848295
1371.144555,7254.018232,-7402.059420,1225.752797
1371.144884,5625.565159,-6809.894666,1072.533697
1371.145213,5773.606348,-6143.709319,459.657299
1371.145543,6513.812290,-6069.688724,995.924147
1371.145872,7328.038826,-7402.059420,1915.238745
1371.146201,7772.162391,-6957.935855,1532.190996
1371.146530,7328.038826,-6661.853478,1378.971896
1371.146860,7105.977043,-4959.379811,383.047749
1371.147189,8142.265362,-4515.256246,459.657299
1371.147518,8512.368333,-5625.565159,1838.629195
1371.147847,7550.100608,-7550.100608,2374.896044
1371.148176,6291.750507,-7550.100608,995.924147
1371.148506,5699.585753,-6957.935855,383.047749
1371.148835,5551.544565,-5699.585753,306.438199
1371.149164,6883.915261,-7105.977043,1608.800546
1371.149493,6957.935855,-7476.080014,1685.410096
1371.149823,6069.688724,-6439.791695,1225.752797
1371.150152,6809.894666,-5329.482782,383.047749
1371.150481,8142.265362,-4071.132681,1915.238745
1371.150810,8512.368333,-5699.585753,1838.629195
1371.151139,7624.121203,-7105.977043,1455.581446
1371.151469,5551.544565,-7105.977043,536.266849
1371.151798,5773.606348,-7698.141797,0.000000
1371.152127,6439.791695,-7105.977043,766.095498
1371.152456,6957.935855,-8660.409521,1149.143247
1371.152786,6809.894666,-8068.244768,995.924147
1371.153115,6587.832884,-7328.038826,919.314598
1371.153444,6957.935855,-6217.729913,536.266849
1371.153773,7550.100608,-4811.338623,536.266849
1371.154102,7698.141797,-5995.668130,1302.362347
1371.154432,7698.141797,-5995.668130,1302.362347
1371.154761,7031.956449,-6587.832884,1302.362347
1371.155090,6069.688724,-5995.668130,1455.581446
1371.155419,7105.977043,-5847.626942,919.314598
1371.155749,7550.100608,-6661.853478,1532.190996
1371.156078,7550.100608,-7031.956449,1455.581446
1371.156407,6291.750507,-6957.935855,1149.143247
1371.156736,6217.729913,-6069.688724,766.095498
1371.157065,6809.894666,-5699.585753,306.438199
1371.157395,7105.977043,-6809.894666,1455.581446
1371.157724,7105.977043,-7624.121203,1762.019645
1371.158053,6439.791695,-8068.244768,1532.190996
1371.158382,5181.441594,-7179.997637,842.705048
1371.158712,5329.482782,-6513.812290,-383.047749
1371.159041,6291.750507,-7402.059420,766.095498
1371.159370,7254.018232,-7550.100608,1608.800546
1371.159699,7772.162391,-6365.771101,1455.581446
1371.160029,7624.121203,-5255.462188,1532.190996
1371.160358,8438.347739,-4071.132681,689.485948
1371.160687,8808.450710,-4589.276840,1072.533697
1371.161016,7476.080014,-7105.977043,536.266849
1371.161345,6735.874072,-7105.977043,1072.533697
1371.161675,6809.894666,-7179.997637,689.485948
1371.162004,6365.771101,-6439.791695,383.047749
1371.162333,6439.791695,-7179.997637,919.314598
1371.162662,7031.956449,-7994.224174,1302.362347
1371.162991,6513.812290,-7550.100608,919.314598
1371.163320,5847.626942,-6217.729913,306.438199
1371.163650,6735.874072,-4367.215058,306.438199
1371.163979,8364.327145,-5033.400406,842.705048
1371.164308,8216.285956,-6365.771101,2451.505594
1371.164637,7254.018232,-6809.894666,2145.067394
1371.164966,6587.832884,-6809.894666,1072.533697
1371.165295,6957.935855,-5551.544565,689.485948
1371.165624,7105.977043,-6883.915261,842.705048
1371.165954,7476.080014,-7550.100608,1455.581446
1371.166283,6883.915261,-7402.059420,1072.533697
1371.166612,6439.791695,-6587.832884,153.219100
1371.166941,6587.832884,-5033.400406,459.657299
1371.167270,7402.059420,-5107.421000,459.657299
1371.167599,7846.182985,-6809.894666,842.705048
1371.167928,7031.956449,-7254.018232,1302.362347
1371.168258,5699.585753,-7402.059420,306.438199
1371.168587,6291.750507,-6957.935855,76.609550
1371.168916,7105.977043,-6365.771101,689.485948
1371.169245,7846.182985,-7698.141797,1225.752797
1371.169574,7179.997637,-7550.100608,1991.848295
1371.169903,6217.729913,-6217.729913,919.314598
1371.170232,7105.977043,-4811.338623,689.485948
1371.170562,8586.388927,-4589.276840,1455.581446
1371.170891,8808.450710,-6439.791695,1838.629195
1371.171220,7254.018232,-8068.244768,2145.067394
1371.171549,5699.585753,-7328.038826,612.876398
1371.171878,5329.482782,-7476.080014,306.438199
1371.172207,5625.565159,-7550.100608,536.266849
1371.172536,6587.832884,-8290.306550,1608.800546
1371.172866,7179.997637,-7698.141797,1685.410096
1371.173195,6957.935855,-6883.915261,1455.581446
1371.173524,6365.771101,-5329.482782,229.828649
1371.173853,6513.812290,-5403.503377,229.828649
1371.174182,6883.915261,-6513.812290,919.314598
1371.174511,6513.812290,-7476.080014,1149.143247
1371.174840,7254.018232,-7254.018232,842.705048
1371.175169,7698.141797,-5847.626942,1378.971896
1371.175499,8364.327145,-5699.585753,1072.533697
1371.175828,8438.347739,-6587.832884,1685.410096
1371.176157,7550.100608,-7254.018232,2374.896044
1371.176486,6365.771101,-6069.688724,383.047749
1371.176815,6291.750507,-4737.318029,0.000000
1371.177144,7328.038826,-5625.565159,1378.971896
1371.177473,8956.491898,-6069.688724,2145.067394
1371.177803,8512.368333,-6291.750507,2221.676944
1371.178132,5403.503377,-6957.935855,995.924147
1371.178461,4219.173869,-6809.894666,-306.438199
1371.178790,5033.400406,-7476.080014,153.219100
1371.179119,6217.729913,-7846.182985,459.657299
1371.179448,6587.832884,-7698.141797,1225.752797
1371.179777,6957.935855,-7031.956449,1378.971896
1371.180107,7254.018232,-5033.400406,919.314598
1371.180436,7994.224174,-4811.338623,1072.533697
1371.180765,8364.327145,-5551.544565,2145.067394
1371.181094,8142.265362,-6439.791695,1608.800546
1371.181423,6587.832884,-7624.121203,995.924147
1371.181752,5773.606348,-6883.915261,383.047749
1371.182081,6513.812290,-6365.771101,0.000000
1371.182411,7698.141797,-7402.059420,1225.752797
1371.182740,7105.977043,-7772.162391,1991.848295
1371.183069,6661.853478,-7031.956449,1378.971896
1371.183398,6735.874072,-5329.482782,229.828649
1371.183727,7179.997637,-5477.523971,306.438199
1371.184056,8142.265362,-5773.606348,1455.581446
1371.184385,7624.121203,-7254.018232,1225.752797
1371.184715,6143.709319,-7476.080014,919.314598
1371.185044,5255.462188,-6883.915261,766.095498
1371.185373,6661.853478,-6661.853478,919.314598
1371.185702,7624.121203,-7402.059420,1532.190996
1371.186031,7105.977043,-8586.388927,2298.286494
1371.186360,6291.750507,-6809.894666,1455.581446
1371.186689,6291.750507,-5107.421000,153.219100
1371.187019,7105.977043,-3997.112087,0.000000
1371.187348,7550.100608,-4885.359217,1225.752797
1371.187677,8142.265362,-6809.894666,1302.362347
1371.188006,6957.935855,-7105.977043,1762.019645
1371.188335,6143.709319,-7476.080014,1455.581446
1371.188664,6513.812290,-6809.894666,612.876398
1371.188993,6809.894666,-6439.791695,689.485948
1371.189323,6291.750507,-7920.203579,1072.533697
1371.189652,6439.791695,-6661.853478,919.314598
1371.189981,7031.956449,-7031.956449,1378.971896
1371.190310,7105.977043,-5329.482782,306.438199
1371.190639,7550.100608,-5329.482782,1685.410096
1371.190968,7624.121203,-6883.915261,1378.971896
1371.191297,7698.141797,-7254.018232,1838.629195
1371.191627,5403.503377,-7254.018232,383.047749
1371.191956,5329.482782,-6809.894666,459.657299
1371.192285,6439.791695,-5995.668130,383.047749
1371.192614,7105.977043,-7105.977043,1378.971896
1371.192943,7105.977043,-5847.626942,1915.238745
1371.193272,7402.059420,-6217.729913,1225.752797
1371.193601,7846.182985,-4515.256246,1608.800546
1371.193931,8216.285956,-4737.318029,1225.752797
1371.194260,7994.224174,-5551.544565,1838.629195
1371.194589,7624.121203,-5995.668130,1378.971896
1371.194918,6809.894666,-7179.997637,1302.362347
1371.195247,6957.935855,-6513.812290,1302.362347
1371.195576,7179.997637,-6587.832884,919.314598
1371.195905,7031.956449,-7402.059420,1149.143247
1371.196235,6439.791695,-7476.080014,1762.019645
1371.196564,5551.544565,-6291.750507,-76.609550
1371.196893,6439.791695,-5921.647536,-229.828649
1371.197222,7179.997637,-5921.647536,306.438199
1371.197551,8364.327145,-6735.874072,919.314598
1371.197880,7920.203579,-7254.018232,1915.238745
1371.198209,6291.750507,-6883.915261,459.657299
1371.198539,5477.523971,-7105.977043,-306.438199
1371.198868,6439.791695,-6809.894666,689.485948
1371.199197,7105.977043,-8512.368333,1532.190996
1371.199526,7328.038826,-7550.100608,1838.629195
1371.199855,7105.977043,-5699.585753,919.314598
1371.200184,7105.977043,-5181.441594,842.705048
1371.200513,8068.244768,-4293.194464,1072.533697
1371.200843,8068.244768,-5699.585753,1838.629195
1371.201172,7402.059420,-6735.874072,1762.019645
1371.201501,6439.791695,-6513.812290,612.876398
1371.201830,5995.668130,-6217.729913,1149.143247
1371.202159,7402.059420,-6365.771101,995.924147
1371.202488,7772.162391,-6883.915261,1762.019645
1371.202817,7179.997637,-6735.874072,1608.800546
1371.203146,7105.977043,-6291.750507,919.314598
1371.203476,7476.080014,-4737.318029,1149.143247
1371.203805,8364.327145,-4737.318029,842.705048
1371.204134,8808.450710,-6661.853478,1838.629195
1371.204463,7179.997637,-7624.121203,1685.410096
1371.204792,4737.318029,-8734.430116,1149.143247
1371.205121,4367.215058,-7476.080014,383.047749
1371.205450,5329.482782,-7179.997637,0.000000
1371.205780,6439.791695,-8438.347739,1072.533697
1371.206109,6661.853478,-8660.409521,1915.238745
1371.206438,7179.997637,-6587.832884,1378.971896
1371.206767,7105.977043,-5107.421000,306.438199
1371.207096,7179.997637,-4367.215058,689.485948
1371.207425,7179.997637,-5477.523971,1378.971896
1371.207754,6957.935855,-6513.812290,1532.190996
1371.208084,5995.668130,-6883.915261,1302.362347
1371.208413,6439.791695,-7105.977043,1455.581446
1371.208742,7254.018232,-6291.750507,995.924147
1371.209071,7476.080014,-6883.915261,1838.629195
1371.209400,7105.977043,-7846.182985,2068.457845
1371.209729,6513.812290,-6957.935855,383.047749
1371.210058,5995.668130,-5921.647536,76.609550
1371.210388,6661.853478,-5477.523971,689.485948
1371.210717,7402.059420,-6513.812290,1149.143247
1371.211046,7920.203579,-6513.812290,1302.362347
1371.211375,6439.791695,-8216.285956,1149.143247
1371.211704,5477.523971,-8142.265362,536.266849
1371.212033,5921.647536,-6587.832884,306.438199
1371.212362,6809.894666,-7031.956449,919.314598
1371.212692,7624.121203,-6809.894666,459.657299
1371.213021,7105.977043,-6291.750507,1149.143247
1371.213350,7328.038826,-5773.606348,766.095498
1371.213679,8290.306550,-4737.318029,1455.581446
1371.214008,8956.491898,-4515.256246,1608.800546
1371.214337,8512.368333,-6291.750507,1762.019645
1371.214666,7698.141797,-6883.915261,1685.410096
1371.214996,6217.729913,-6587.832884,1072.533697
1371.215325,6365.771101,-5847.626942,459.657299
1371.215654,7179.997637,-6587.832884,919.314598
1371.215983,6957.935855,-7254.018232,1532.190996
1371.216312,6291.750507,-7476.080014,995.924147
1371.216641,5773.606348,-6661.853478,76.609550
1371.216970,6883.915261,-5625.565159,229.828649
1371.217300,6957.935855,-6809.894666,995.924147
1371.217629,7624.121203,-6587.832884,1378.971896
1371.217958,6291.750507,-9252.574275,1072.533697
1371.218287,6143.709319,-7105.977043,459.657299
1371.218616,6957.935855,-6587.832884,0.000000
1371.218945,7402.059420,-7772.162391,1378.971896
1371.219274,7994.224174,-7476.080014,1762.019645
1371.219604,7772.162391,-7031.956449,1455.581446
1371.219933,6809.894666,-5403.503377,919.314598
1371.220262,6069.688724,-4885.359217,0.000000
1371.220591,7476.080014,-5181.441594,766.095498
1371.220920,8142.265362,-5921.647536,1608.800546
1371.221249,7846.182985,-6661.853478,1991.848295
1371.221578,7402.059420,-6217.729913,2298.286494
1371.221908,8216.285956,-5329.482782,919.314598
1371.222237,7920.203579,-5181.441594,1225.752797
1371.222566,7105.977043,-5699.585753,842.705048
1371.222895,6735.874072,-6735.874072,689.485948
1371.223224,6661.853478,-5551.544565,0.000000
1371.223553,7179.997637,-6365.771101,1378.971896
1371.223882,8808.450710,-5847.626942,1838.629195
1371.224212,8438.347739,-7254.018232,1838.629195
1371.224541,6217.729913,-8512.368333,1685.410096
1371.224870,4293.194464,-8290.306550,229.828649
1371.225199,4293.194464,-7846.182985,-842.705048
1371.225528,5181.441594,-7476.080014,0.000000
1371.225857,6291.750507,-8586.388927,995.924147
1371.226186,7179.997637,-7772.162391,1455.581446
1371.226516,7031.956449,-6809.894666,995.924147
1371.226845,7624.121203,-5773.606348,459.657299
1371.227174,8216.285956,-3701.029710,459.657299
1371.227503,8438.347739,-5033.400406,1072.533697
1371.227832,8142.265362,-6217.729913,919.314598
1371.228161,7105.977043,-6143.709319,1302.362347
1371.228490,6587.832884,-6217.729913,612.876398
1371.228820,7624.121203,-5625.565159,1149.143247
1371.229149,7846.182985,-6587.832884,2068.457845
1371.229478,7624.121203,-7105.977043,2068.457845
1371.229807,6587.832884,-6143.709319,995.924147
1371.230136,6439.791695,-5255.462188,229.828649
1371.230465,6883.915261,-5107.421000,229.828649
1371.230794,7550.100608,-6735.874072,1608.800546
1371.231123,7624.121203,-8068.244768,2298.286494
1371.231453,5995.668130,-8216.285956,1072.533697
1371.231782,4515.256246,-7476.080014,-153.219100
1371.232111,4737.318029,-6217.729913,229.828649
1371.232440,6661.853478,-7402.059420,612.876398
1371.232769,7772.162391,-7624.121203,1838.629195
1371.233098,7105.977043,-6217.729913,1378.971896
1371.233427,7031.956449,-5551.544565,306.438199
1371.233757,7254.018232,-5181.441594,766.095498
1371.234086,7550.100608,-5921.647536,689.485948
1371.234415,7698.141797,-7402.059420,1455.581446
1371.234744,7402.059420,-7105.977043,1225.752797
1371.235073,6883.915261,-7031.956449,1378.971896
1371.235402,6957.935855,-6809.894666,766.095498
1371.235731,6883.915261,-6957.935855,919.314598
1371.236061,7105.977043,-6587.832884,1455.581446
1371.236390,6661.853478,-6439.791695,842.705048
1371.236719,6735.874072,-5255.462188,612.876398
1371.237048,7254.018232,-4885.359217,1149.143247
1371.237377,8142.265362,-5477.523971,1455.581446
1371.237706,7550.100608,-6513.812290,1838.629195
1371.238035,6143.709319,-7698.141797,1685.410096
1371.238365,5403.503377,-7402.059420,1072.533697
1371.238694,5625.565159,-7105.977043,766.095498
1371.239023,6291.750507,-7402.059420,766.095498
1371.239352,7105.977043,-7920.203579,1685.410096
1371.239681,7031.956449,-7846.182985,1838.629195
1371.240010,6587.832884,-6291.750507,689.485948
1371.240339,7179.997637,-4515.256246,536.266849
1371.240669,7698.141797,-5255.462188,612.876398
1371.240998,7994.224174,-6735.874072,1915.238745
1371.241327,7254.018232,-6809.894666,1762.019645
1371.241656,6365.771101,-6513.812290,459.657299
1371.241985,6439.791695,-5107.421000,229.828649
1371.242314,7105.977043,-6217.729913,995.924147
1371.242643,7328.038826,-7476.080014,1915.238745
1371.242973,7105.977043,-6809.894666,1455.581446
1371.243302,6735.874072,-5255.462188,689.485948
1371.243631,8068.244768,-4959.379811,383.047749
1371.243960,9104.533087,-5033.400406,2145.067394
1371.244289,8142.265362,-6513.812290,1838.629195
1371.244618,6661.853478,-7328.038826,1378.971896
1371.244947,4811.338623,-7328.038826,229.828649
1371.245277,4811.338623,-7550.100608,0.000000
1371.245606,5847.626942,-7772.162391,842.705048
1371.245935,6883.915261,-8290.306550,2068.457845
1371.246264,6735.874072,-7550.100608,689.485948
1371.246593,6513.812290,-5921.647536,612.876398
1371.246922,6661.853478,-5107.421000,306.438199
1371.247251,8216.285956,-5403.503377,229.828649
1371.247581,8808.450710,-5921.647536,1991.848295
1371.247910,7994.224174,-6365.771101,1838.629195
1371.248239,7105.977043,-6587.832884,995.924147
1371.248568,7254.018232,-5551.544565,612.876398
1371.248897,8216.285956,-5921.647536,842.705048
1371.249226,8364.327145,-6957.935855,1685.410096
1371.249555,7402.059420,-6587.832884,1302.362347
1371.249885,6809.894666,-6291.750507,536.266849
1371.250214,6439.791695,-5699.585753,1149.143247
1371.250543,7105.977043,-5033.400406,919.314598
1371.250872,7105.977043,-6661.853478,1302.362347
1371.251201,6513.812290,-7105.977043,1225.752797
1371.251530,5033.400406,-8290.306550,459.657299
1371.251859,5699.585753,-7328.038826,229.828649
1371.252189,6217.729913,-7550.100608,766.095498
1371.252518,6883.915261,-8068.244768,1149.143247
1371.252847,6661.853478,-7476.080014,1225.752797
1371.253176,7031.956449,-7328.038826,1225.752797
1371.253505,7550.100608,-6069.688724,536.266849
1371.253834,7105.977043,-4885.359217,536.266849
1371.254163,7698.141797,-6365.771101,1225.752797
1371.254493,7846.182985,-6957.935855,1685.410096
1371.254822,6809.894666,-6661.853478,919.314598
1371.255151,6069.688724,-6291.750507,306.438199
1371.255480,6957.935855,-6069.688724,1149.143247
1371.255809,8290.306550,-6439.791695,1302.362347
1371.256138,7772.162391,-6513.812290,2068.457845
1371.256467,7550.100608,-5477.523971,1302.362347
1371.256797,7328.038826,-4663.297435,766.095498
1371.257126,7624.121203,-4737.318029,766.095498
1371.257455,7550.100608,-5921.647536,1378.971896
1371.257784,7698.141797,-6883.915261,1685.410096
1371.258113,5995.668130,-7920.203579,1149.143247
1371.258442,4737.318029,-7105.977043,459.657299
1371.258771,4737.318029,-7328.038826,306.438199
1371.259100,6439.791695,-7254.018232,536.266849
1371.259430,6587.832884,-8142.265362,2068.457845
1371.259759,6069.688724,-8068.244768,1762.019645
1371.260088,7328.038826,-5403.503377,459.657299
1371.260417,8142.265362,-4515.256246,919.314598
1371.260746,8734.430116,-5995.668130,2068.457845
1371.261075,7920.203579,-6291.750507,1685.410096
1371.261404,6587.832884,-6513.812290,995.924147
1371.261734,5477.523971,-6883.915261,229.828649
1371.262063,6439.791695,-6291.750507,919.314598
1371.262392,7624.121203,-6661.853478,1455.581446
1371.262721,7994.224174,-7105.977043,1532.190996
1371.263050,6809.894666,-6069.688724,995.924147
1371.263379,6587.832884,-5033.400406,229.828649
1371.263708,7476.080014,-4737.318029,383.047749
1371.264038,8216.285956,-5329.482782,1532.190996
1371.264363,8216.285956,-7031.956449,1991.848295
1371.264692,7328.038826,-7179.997637,1608.800546
1371.265021,5329.482782,-7698.141797,536.266849
1371.265350,5403.503377,-6587.832884,-76.609550
1371.265679,6069.688724,-7846.182985,1149.143247
1371.266009,6809.894666,-8290.306550,1072.533697
1371.266338,6513.812290,-6883.915261,459.657299
1371.266667,6069.688724,-6587.832884,536.266849
1371.266996,7920.203579,-5477.523971,612.876398
1371.267325,7994.224174,-5255.462188,1149.143247
1371.267654,7402.059420,-7031.956449,1608.800546
1371.267984,6809.894666,-6883.915261,1302.362347
1371.268313,6291.750507,-6883.915261,306.438199
1371.268642,6069.688724,-6217.729913,689.485948
1371.268971,6957.935855,-6513.812290,612.876398
1371.269300,7402.059420,-7328.038826,1685.410096
1371.269629,7476.080014,-6291.750507,1302.362347
1371.269959,6513.812290,-5921.647536,689.485948
1371.270288,7179.997637,-5329.482782,689.485948
1371.270617,8216.285956,-5699.585753,612.876398
1371.270946,7846.182985,-7328.038826,1838.629195
1371.271275,7328.038826,-7550.100608,1838.629195
1371.271604,6809.894666,-7328.038826,153.219100
1371.271934,5625.565159,-7698.141797,306.438199
1371.272263,5625.565159,-7402.059420,536.266849
1371.272592,5847.626942,-7994.224174,612.876398
1371.272921,6957.935855,-7772.162391,1685.410096
1371.273250,6587.832884,-6069.688724,995.924147
1371.273579,7254.018232,-4663.297435,383.047749
1371.273909,8068.244768,-4959.379811,842.705048
1371.274238,7920.203579,-6735.874072,1685.410096
1371.274567,7254.018232,-7031.956449,1991.848295
1371.274896,5921.647536,-6883.915261,766.095498
1371.275225,5403.503377,-6809.894666,612.876398
1371.275554,6365.771101,-6365.771101,459.657299
1371.275884,7105.977043,-7476.080014,1838.629195
1371.276213,7550.100608,-6957.935855,1532.190996
1371.276542,6957.935855,-5921.647536,0.000000
1371.276871,7624.121203,-4293.194464,612.876398
1371.277200,8586.388927,-5255.462188,1149.143247
1371.277529,9252.574275,-6661.853478,2298.286494
1371.277858,7772.162391,-7179.997637,2145.067394
1371.278188,5773.606348,-7772.162391,689.485948
1371.278517,4885.359217,-6587.832884,153.219100
1371.278846,5625.565159,-6809.894666,229.828649
1371.279175,6661.853478,-7772.162391,1225.752797
1371.279504,6661.853478,-8068.244768,1685.410096
1371.279833,6735.874072,-7179.997637,1072.533697
1371.280163,6513.812290,-5625.565159,229.828649
1371.280492,6883.915261,-4737.318029,0.000000
1371.280821,7698.141797,-5625.565159,612.876398
1371.281150,7105.977043,-7550.100608,1302.362347
1371.281479,6439.791695,-7698.141797,1762.019645
1371.281808,7031.956449,-5995.668130,689.485948
1371.282138,7550.100608,-5255.462188,1149.143247
1371.282467,8512.368333,-5699.585753,2221.676944
1371.282796,7624.121203,-6735.874072,1378.971896
1371.283125,5995.668130,-5847.626942,612.876398
1371.283454,5699.585753,-5995.668130,0.000000
1371.283783,7031.956449,-5403.503377,842.705048
1371.284113,7328.038826,-6439.791695,1532.190996
1371.284442,6957.935855,-8364.327145,1762.019645
1371.284771,6365.771101,-7698.141797,536.266849
1371.285100,6661.853478,-7254.018232,1378.971896
1371.285429,7031.956449,-6735.874072,689.485948
1371.285758,7105.977043,-7920.203579,1302.362347
1371.286088,6587.832884,-8882.471304,1685.410096
1371.286417,6587.832884,-5773.606348,536.266849
1371.286746,7105.977043,-6883.915261,612.876398
1371.287075,7105.977043,-5921.647536,1302.362347
1371.287404,8438.347739,-4811.338623,1378.971896
1371.287733,8438.347739,-6069.688724,2068.457845
1371.288063,6957.935855,-5699.585753,1532.190996
1371.288392,5625.565159,-6957.935855,153.219100
1371.288721,6291.750507,-6661.853478,1608.800546
1371.289050,7105.977043,-6661.853478,919.314598
1371.289379,7328.038826,-7105.977043,1838.629195
1371.289708,7179.997637,-5995.668130,2451.505594
1371.290038,7846.182985,-6069.688724,919.314598
1371.290367,8216.285956,-4737.318029,995.924147
1371.290696,7698.141797,-6291.750507,1378.971896
1371.291025,7476.080014,-6217.729913,1302.362347
1371.291354,5995.668130,-7105.977043,1608.800546
1371.291683,5107.421000,-8142.265362,919.314598
1371.292013,5773.606348,-7105.977043,383.047749
1371.292342,6661.853478,-7402.059420,1378.971896
1371.292671,6217.729913,-8216.285956,1378.971896
1371.293000,5847.626942,-7179.997637,919.314598
1371.293329,6587.832884,-5995.668130,612.876398
1371.293658,8290.306550,-6069.688724,689.485948
1371.293988,8660.409521,-5551.544565,1838.629195
1371.294317,8216.285956,-6365.771101,1762.019645
1371.294646,7179.997637,-6735.874072,1302.362347
1371.294975,6069.688724,-6809.894666,842.705048
1371.295304,5921.647536,-5773.606348,306.438199
1371.295633,6957.935855,-6735.874072,689.485948
1371.295962,7402.059420,-7476.080014,2145.067394
1371.296292,6809.894666,-7105.977043,1532.190996
1371.296621,6217.729913,-5477.523971,1225.752797
1371.296950,7994.224174,-4367.215058,1608.800546
1371.297279,9104.533087,-4885.359217,1685.410096
1371.297608,8956.491898,-5995.668130,1991.848295
1371.297937,7328.038826,-6291.750507,1225.752797
1371.298267,5921.647536,-6735.874072,153.219100
1371.298596,7031.956449,-7328.038826,1149.143247
1371.298925,6513.812290,-7698.141797,1302.362347
1371.299254,6587.832884,-8290.306550,1532.190996
1371.299583,6143.709319,-7624.121203,1149.143247
1371.299912,5551.544565,-7254.018232,459.657299
1371.300242,6365.771101,-6069.688724,842.705048
1371.300571,7328.038826,-5551.544565,76.609550
1371.300900,7402.059420,-6661.853478,919.314598
1371.301229,6661.853478,-6957.935855,1225.752797
1371.301558,6365.771101,-7624.121203,995.924147
1371.301887,7254.018232,-6143.709319,689.485948
1371.302217,8512.368333,-5921.647536,1685.410096
1371.302546,8586.388927,-7105.977043,2374.896044
1371.302875,7624.121203,-5625.565159,1455.581446
1371.303204,6439.791695,-6365.771101,919.314598
1371.303533,7031.956449,-4959.379811,1149.143247
1371.303862,7550.100608,-4737.318029,689.485948
1371.304192,7846.182985,-6365.771101,1608.800546
1371.304521,6883.915261,-7254.018232,1378.971896
1371.304850,5625.565159,-8216.285956,536.266849
1371.305179,4663.297435,-7254.018232,306.438199
1371.305508,5033.400406,-7772.162391,229.828649
1371.305837,6439.791695,-7772.162391,842.705048
1371.306167,7105.977043,-6439.791695,995.924147
1371.306496,6957.935855,-6365.771101,919.314598
1371.306825,8364.327145,-5477.523971,1532.190996
1371.307154,9030.512492,-4811.338623,995.924147
1371.307483,7994.224174,-6069.688724,766.095498
1371.307812,6513.812290,-6883.915261,1149.143247
1371.308142,5477.523971,-7698.141797,76.609550
1371.308471,5921.647536,-7994.224174,383.047749
1371.308800,6513.812290,-7328.038826,1455.581446
1371.309129,7402.059420,-6513.812290,1455.581446
1371.309458,7994.224174,-6883.915261,1762.019645
1371.309787,6513.812290,-5995.668130,689.485948
1371.310117,5847.626942,-5773.606348,0.000000
1371.310446,6957.935855,-5403.503377,612.876398
1371.310775,7402.059420,-5477.523971,1685.410096
1371.311104,7994.224174,-6661.853478,2068.457845
1371.311433,7328.038826,-7105.977043,1608.800546
1371.311762,7105.977043,-6661.853478,1608.800546
1371.312092,7105.977043,-6883.915261,766.095498
1371.312421,7105.977043,-7328.038826,842.705048
1371.312750,6513.812290,-6661.853478,1225.752797
1371.313079,6143.709319,-6661.853478,76.609550
1371.313408,6513.812290,-5773.606348,459.657299
1371.313737,7624.121203,-4737.318029,995.924147
1371.314067,9030.512492,-6291.750507,1991.848295
1371.314396,8512.368333,-5847.626942,2298.286494
1371.314725,6883.915261,-5995.668130,1225.752797
1371.315054,6217.729913,-6809.894666,766.095498
1371.315383,6957.935855,-5329.482782,229.828649
1371.315712,6291.750507,-8734.430116,1455.581446
1371.316041,6809.894666,-6513.812290,1072.533697
1371.316371,6439.791695,-6735.874072,536.266849
1371.316700,6957.935855,-6809.894666,919.314598
1371.317029,7698.141797,-5329.482782,1608.800546
1371.317358,8290.306550,-5625.565159,1225.752797
1371.317687,7328.038826,-6143.709319,1532.190996
1371.318016,5699.585753,-7624.121203,459.657299
1371.318346,5921.647536,-7105.977043,536.266849
1371.318675,5403.503377,-7624.121203,229.828649
1371.319004,6365.771101,-7846.182985,1991.848295
1371.319333,6883.915261,-7105.977043,919.314598
1371.319662,6661.853478,-6809.894666,995.924147
1371.319991,6365.771101,-5699.585753,1915.238745
1371.320321,7105.977043,-5699.585753,766.095498
1371.320650,7920.203579,-5551.544565,842.705048
1371.320979,7105.977043,-5995.668130,842.705048
1371.321308,6735.874072,-8216.285956,612.876398
1371.321637,6809.894666,-6143.709319,995.924147
1371.321966,7179.997637,-6957.935855,459.657299
1371.322296,7698.141797,-6809.894666,919.314598
1371.322625,7698.141797,-7254.018232,1608.800546
1371.322954,7328.038826,-6587.832884,995.924147
1371.323283,6513.812290,-6291.750507,229.828649
1371.323612,6735.874072,-4959.379811,612.876398
1371.323941,7920.203579,-5033.400406,842.705048
1371.324271,8216.285956,-6439.791695,1762.019645
1371.324600,7254.018232,-6587.832884,2374.896044
1371.324929,6365.771101,-7550.100608,766.095498
1371.325258,6217.729913,-7772.162391,612.876398
1371.325587,5847.626942,-7105.977043,842.705048
1371.325916,6069.688724,-7402.059420,1225.752797
1371.326246,6809.894666,-6809.894666,1225.752797
1371.326575,6735.874072,-5995.668130,689.485948
1371.326904,7402.059420,-5847.626942,612.876398
1371.327233,8512.368333,-5255.462188,1378.971896
1371.327562,8956.491898,-6735.874072,1302.362347
1371.327891,7402.059420,-7328.038826,1302.362347
1371.328221,5625.565159,-6439.791695,459.657299
1371.328550,5921.647536,-5921.647536,-76.609550
1371.328879,6735.874072,-7550.100608,1302.362347
1371.329208,7772.162391,-7624.121203,1455.581446
1371.329537,7254.018232,-6957.935855,1378.971896
1371.329866,6587.832884,-5403.503377,689.485948
1371.330196,6587.832884,-5033.400406,76.609550
1371.330525,7550.100608,-4589.276840,1072.533697
1371.330854,8364.327145,-5921.647536,1532.190996
1371.331183,8216.285956,-6883.915261,1915.238745
1371.331512,6883.915261,-6957.935855,1225.752797
1371.331841,5995.668130,-7105.977043,766.095498
1371.332171,6587.832884,-6587.832884,919.314598
1371.332500,6735.874072,-8142.265362,1225.752797
1371.332829,6069.688724,-7254.018232,1455.581446
1371.333158,6069.688724,-6735.874072,766.095498
1371.333487,7179.997637,-4959.379811,766.095498
1371.333816,8364.327145,-4367.215058,842.705048
1371.334145,7994.224174,-5995.668130,1225.752797
1371.334475,7179.997637,-5995.668130,1608.800546
1371.334804,6069.688724,-7105.977043,536.266849
1371.335133,6217.729913,-6439.791695,766.095498
1371.335462,6809.894666,-5255.462188,536.266849
1371.335791,7920.203579,-7179.997637,1532.190996
1371.336120,7920.203579,-7550.100608,1455.581446
1371.336450,6809.894666,-7920.203579,1072.533697
1371.336779,6439.791695,-6439.791695,919.314598
1371.337108,7179.997637,-5329.482782,536.266849
1371.337437,7994.224174,-6735.874072,1455.581446
1371.337766,7402.059420,-7402.059420,1685.410096
1371.338095,6291.750507,-6883.915261,1608.800546
1371.338425,5995.668130,-6735.874072,0.000000
1371.338754,6291.750507,-6735.874072,766.095498
1371.339083,7402.059420,-7105.977043,2068.457845
1371.339412,7550.100608,-7402.059420,1685.410096
1371.339741,5773.606348,-5995.668130,612.876398
1371.340070,5995.668130,-5995.668130,842.705048
1371.340400,7624.121203,-5477.523971,536.266849
1371.340729,8290.306550,-5255.462188,1149.143247
1371.341058,6809.894666,-7105.977043,1991.848295
1371.341387,6735.874072,-7550.100608,689.485948
1371.341716,6291.750507,-7105.977043,76.609550
1371.342045,6069.688724,-7772.162391,766.095498
1371.342375,7031.956449,-8142.265362,1378.971896
1371.342704,7476.080014,-7994.224174,1455.581446
1371.343033,6291.750507,-7105.977043,536.266849
1371.343362,6069.688724,-5329.482782,306.438199
1371.343691,7772.162391,-5181.441594,842.705048
1371.344020,8808.450710,-5107.421000,1532.190996
1371.344350,7698.141797,-6587.832884,1991.848295
1371.344679,6439.791695,-6587.832884,1302.362347
1371.345008,5995.668130,-6587.832884,459.657299
1371.345337,5699.585753,-7105.977043,842.705048
1371.345666,6957.935855,-7402.059420,1378.971896
1371.345995,7550.100608,-7846.182985,1838.629195
1371.346325,7328.038826,-6661.853478,1838.629195
1371.346654,6587.832884,-5699.585753,842.705048
1371.346983,7105.977043,-4663.297435,612.876398
1371.347312,7476.080014,-5255.462188,1302.362347
1371.347641,7328.038826,-6661.853478,1378.971896
1371.347970,6513.812290,-6883.915261,2068.457845
1371.348300,6365.771101,-6513.812290,1532.190996
1371.348629,6513.812290,-5699.585753,919.314598
1371.348958,6661.853478,-7031.956449,766.095498
1371.349287,6661.853478,-6883.915261,1378.971896
1371.349616,6439.791695,-7105.977043,689.485948
1371.349945,6809.894666,-6513.812290,689.485948
1371.350275,8142.265362,-3997.112087,766.095498
1371.350604,9178.553681,-6439.791695,1378.971896
1371.350933,9474.636058,-6809.894666,1991.848295
1371.351262,7402.059420,-7476.080014,1455.581446
1371.351591,5773.606348,-7254.018232,229.828649
1371.351920,5329.482782,-5551.544565,-612.876398
1371.352250,6587.832884,-7328.038826,1072.533697
1371.352579,7846.182985,-7994.224174,2145.067394
1371.352908,7031.956449,-7179.997637,1608.800546
1371.353237,6143.709319,-6661.853478,1302.362347
1371.353566,5773.606348,-5477.523971,306.438199
1371.353895,7031.956449,-5181.441594,536.266849
1371.354224,7105.977043,-6217.729913,1225.752797
1371.354554,6513.812290,-7624.121203,1685.410096
1371.354883,6735.874072,-7772.162391,689.485948
1371.355212,5995.668130,-6513.812290,306.438199
1371.355541,7254.018232,-6883.915261,1225.752797
1371.355870,8364.327145,-7550.100608,1762.019645
1371.356199,7846.182985,-6365.771101,1302.362347
1371.356529,6365.771101,-6291.750507,1072.533697
1371.356858,6735.874072,-5551.544565,229.828649
1371.357187,7624.121203,-5329.482782,919.314598
1371.357516,7846.182985,-6291.750507,1685.410096
1371.357845,7105.977043,-7254.018232,1838.629195
1371.358174,5477.523971,-7624.121203,842.705048
1371.358504,5033.400406,-7179.997637,76.609550
1371.358833,5699.585753,-7105.977043,383.047749
1371.359162,7105.977043,-7328.038826,1991.848295
1371.359491,7624.121203,-7624.121203,995.924147
1371.359820,7105.977043,-6513.812290,1225.752797
1371.360149,7105.977043,-5181.441594,459.657299
1371.360479,7846.182985,-4885.359217,612.876398
1371.360808,8512.368333,-5403.503377,1455.581446
1371.361137,8290.306550,-5921.647536,1532.190996
1371.361466,7105.977043,-6291.750507,1072.533697
1371.361795,6587.832884,-7105.977043,766.095498
1371.362124,6587.832884,-6809.894666,612.876398
1371.362454,6883.915261,-7179.997637,536.266849
1371.362783,6809.894666,-8068.244768,1838.629195
1371.363112,6587.832884,-6809.894666,1072.533697
1371.363441,6587.832884,-5699.585753,306.438199
1371.363770,7772.162391,-5107.421000,1378.971896
1371.364099,8512.368333,-5847.626942,1455.581446
1371.364429,7105.977043,-6957.935855,1302.362347
1371.364758,5773.606348,-7105.977043,842.705048
1371.365087,5551.544565,-7624.121203,-76.609550
1371.365416,6365.771101,-7328.038826,1149.143247
1371.365745,7550.100608,-7920.203579,1455.581446
1371.366074,7402.059420,-6957.935855,1455.581446
1371.366404,7105.977043,-5699.585753,459.657299
1371.366733,6883.915261,-4811.338623,383.047749
1371.367062,7772.162391,-4515.256246,459.657299
1371.367391,8438.347739,-5699.585753,1302.362347
1371.367720,8364.327145,-6809.894666,2451.505594
1371.368050,7698.141797,-6957.935855,1685.410096
1371.368379,6291.750507,-6439.791695,1378.971896
1371.368708,5995.668130,-6439.791695,689.485948
1371.369037,6809.894666,-7105.977043,1455.581446
1371.369366,6661.853478,-7402.059420,1608.800546
1371.369696,6069.688724,-6439.791695,919.314598
1371.370025,6365.771101,-6661.853478,766.095498
1371.370354,7328.038826,-5551.544565,995.924147
1371.370683,7550.100608,-6291.750507,842.705048
1371.371012,7031.956449,-7254.018232,1378.971896
1371.371342,5699.585753,-7105.977043,306.438199
1371.371671,4811.338623,-8290.306550,383.047749
1371.372000,5773.606348,-6957.935855,536.266849
1371.372329,6587.832884,-7031.956449,919.314598
1371.372658,7328.038826,-7550.100608,1838.629195
1371.372988,7994.224174,-6439.791695,1532.190996
1371.373317,7698.141797,-5181.441594,1072.533697
1371.373646,8438.347739,-4737.318029,1225.752797
1371.373975,8956.491898,-4959.379811,1532.190996
1371.374304,8956.491898,-6439.791695,3064.381992
1371.374634,7328.038826,-6735.874072,1762.019645
1371.374963,6143.709319,-6439.791695,1302.362347
1371.375292,5995.668130,-6291.750507,536.266849
1371.375621,5847.626942,-7031.956449,459.657299
1371.375950,5995.668130,-6809.894666,1608.800546
1371.376280,5995.668130,-7105.977043,919.314598
1371.376609,5773.606348,-7179.997637,536.266849
1371.376938,6735.874072,-5625.565159,689.485948
1371.377267,7105.977043,-6735.874072,766.095498
1371.377596,7179.997637,-7105.977043,1608.800546
1371.377926,5921.647536,-8142.265362,1378.971896
1371.378255,4811.338623,-7624.121203,459.657299
1371.378584,4737.318029,-7105.977043,-229.828649
1371.378913,7254.018232,-7624.121203,766.095498
1371.379242,7920.203579,-6957.935855,2451.505594
1371.379572,7920.203579,-5921.647536,1225.752797
1371.379901,7476.080014,-5625.565159,536.266849
1371.380230,7624.121203,-4589.276840,919.314598
1371.380559,7846.182985,-5773.606348,689.485948
1371.380888,7920.203579,-5625.565159,536.266849
1371.381218,6735.874072,-6439.791695,766.095498
1371.381547,6069.688724,-7920.203579,919.314598
1371.381876,6217.729913,-6143.709319,842.705048
1371.382205,7031.956449,-6735.874072,1378.971896
1371.382534,7772.162391,-7476.080014,1225.752797
1371.382864,7550.100608,-6661.853478,1532.190996
1371.383193,7105.977043,-5625.565159,1302.362347
1371.383522,7772.162391,-3997.112087,612.876398
1371.383851,8512.368333,-4589.276840,1685.410096
1371.384180,8438.347739,-5403.503377,1762.019645
1371.384510,7179.997637,-6513.812290,1302.362347
1371.384839,5773.606348,-6661.853478,1302.362347
1371.385168,5847.626942,-7328.038826,0.000000
1371.385497,6143.709319,-8142.265362,766.095498
1371.385826,6365.771101,-8438.347739,1532.190996
1371.386156,6439.791695,-7920.203579,612.876398
1371.386485,6513.812290,-5847.626942,842.705048
1371.386814,6957.935855,-5329.482782,612.876398
1371.387143,7920.203579,-5033.400406,536.266849
1371.387472,7698.141797,-6661.853478,1072.533697
1371.387802,7328.038826,-7550.100608,1149.143247
1371.388131,6439.791695,-7179.997637,1225.752797
1371.388460,5995.668130,-6735.874072,306.438199
1371.388789,6957.935855,-6661.853478,842.705048
1371.389118,7624.121203,-7031.956449,1378.971896
1371.389448,8216.285956,-6735.874072,2068.457845
1371.389777,7402.059420,-5773.606348,1225.752797
1371.390106,7031.956449,-4811.338623,919.314598
1371.390435,7772.162391,-4811.338623,919.314598
1371.390764,7772.162391,-5847.626942,1149.143247
1371.391094,6735.874072,-7920.203579,1838.629195
1371.391423,5403.503377,-8364.327145,383.047749
1371.391752,4811.338623,-8734.430116,306.438199
1371.392081,5033.400406,-8438.347739,919.314598
1371.392410,6365.771101,-8586.388927,1455.581446
1371.392740,6513.812290,-7920.203579,1302.362347
1371.393069,6143.709319,-6217.729913,689.485948
1371.393398,7105.977043,-6217.729913,766.095498
1371.393727,8808.450710,-4145.153275,1149.143247
1371.394056,9770.718434,-4441.235652,1762.019645
1371.394386,9030.512492,-5921.647536,1991.848295
1371.394715,7920.203579,-6587.832884,1915.238745
1371.395044,7105.977043,-6365.771101,1149.143247
1371.395373,6439.791695,-5625.565159,459.657299
1371.395702,6809.894666,-6439.791695,842.705048
1371.396032,7105.977043,-6809.894666,1225.752797
1371.396361,6143.709319,-6735.874072,766.095498
1371.396690,6069.688724,-6513.812290,306.438199
1371.397019,6883.915261,-5699.585753,1302.362347
1371.397348,7698.141797,-7031.956449,1532.190996
1371.397678,7402.059420,-7476.080014,1685.410096
1371.398007,5921.647536,-7476.080014,1225.752797
1371.398336,5329.482782,-7624.121203,0.000000
1371.398665,5995.668130,-6957.935855,995.924147
1371.398994,6957.935855,-8142.265362,1608.800546
1371.399324,7254.018232,-7624.121203,1991.848295
1371.399653,6291.750507,-5995.668130,1149.143247
1371.399982,6143.709319,-6439.791695,536.266849
1371.400311,7179.997637,-5033.400406,842.705048
1371.400640,8216.285956,-4737.318029,919.314598
1371.400970,7994.224174,-5699.585753,1455.581446
1371.401299,7402.059420,-5625.565159,1225.752797
1371.401628,7031.956449,-6069.688724,459.657299
1371.401957,7031.956449,-6365.771101,459.657299
1371.402286,7179.997637,-7254.018232,1455.581446
1371.402616,6735.874072,-8364.327145,1378.971896
1371.402945,6069.688724,-7328.038826,766.095498
1371.403274,5995.668130,-6587.832884,459.657299
1371.403603,7624.121203,-6439.791695,1225.752797
1371.403932,8882.471304,-5847.626942,1532.190996
1371.404262,7476.080014,-7031.956449,1762.019645
1371.404591,6587.832884,-6439.791695,1225.752797
1371.404920,5847.626942,-6735.874072,-153.219100
1371.405249,5773.606348,-7402.059420,383.047749
1371.405578,6291.750507,-7624.121203,1302.362347
1371.405908,6883.915261,-8438.347739,1608.800546
1371.406237,6809.894666,-6661.853478,689.485948
1371.406566,5773.606348,-5699.585753,229.828649
1371.406895,7328.038826,-5107.421000,1072.533697
1371.407224,8660.409521,-4737.318029,842.705048
1371.407554,7698.141797,-6143.709319,995.924147
1371.407883,5847.626942,-6513.812290,1149.143247
1371.408212,5847.626942,-7179.997637,459.657299
1371.408541,6661.853478,-7550.100608,1455.581446
1371.408870,7179.997637,-7476.080014,1455.581446
1371.409200,8364.327145,-7920.203579,2298.286494
1371.409529,7254.018232,-7254.018232,1915.238745
1371.409858,6439.791695,-6661.853478,689.485948
1371.410187,7105.977043,-5033.400406,689.485948
1371.410516,8142.265362,-4367.215058,612.876398
1371.410846,8068.244768,-6883.915261,1149.143247
1371.411175,5847.626942,-7846.182985,1149.143247
1371.411504,4293.194464,-9252.574275,536.266849
1371.411833,4293.194464,-9548.656652,0.000000
1371.412162,4219.173869,-9252.574275,0.000000
1371.412492,4441.235652,-9918.759623,76.609550
1371.412821,4219.173869,-10362.883188,612.876398
1371.413150,4145.153275,-9696.697840,766.095498
1371.413479,4811.338623,-7920.203579,229.828649
1371.413808,6143.709319,-6809.894666,76.609550
1371.414138,7105.977043,-6661.853478,536.266849
1371.414467,6587.832884,-7476.080014,1685.410096
1371.414796,7105.977043,-8586.388927,3294.210641
1371.415125,7105.977043,-6883.915261,2681.334243
1371.415454,7254.018232,-4145.153275,2451.505594
1371.415784,7920.203579,-3552.988522,1762.019645
1371.416113,6883.915261,-5847.626942,2221.676944
1371.416442,5329.482782,-7031.956449,1685.410096
1371.416771,5107.421000,-6587.832884,153.219100
1371.417100,5625.565159,-5847.626942,-919.314598
1371.417430,5477.523971,-9326.594869,0.000000
1371.417759,6365.771101,-10658.965565,2068.457845
1371.418088,5329.482782,-11547.212695,1608.800546
1371.418417,4219.173869,-10807.006753,459.657299
1371.418746,3256.906145,-9030.512492,-306.438199
1371.419076,3552.988522,-8512.368333,-689.485948
1371.419405,3775.050304,-10955.047942,689.485948
1371.419734,3256.906145,-11547.212695,2068.457845
1371.420063,3552.988522,-10955.047942,1149.143247
1371.420392,3849.070898,-8216.285956,1915.238745
1371.420722,5625.565159,-5921.647536,2374.896044
1371.421051,7179.997637,-4811.338623,2374.896044
1371.421380,6365.771101,-5477.523971,2987.772442
1371.421709,5107.421000,-6439.791695,1915.238745
1371.422038,5181.441594,-7179.997637,1225.752797
1371.422368,5403.503377,-6883.915261,1302.362347
1371.422697,5033.400406,-8660.409521,1302.362347
1371.423026,4441.235652,-11177.109724,842.705048
1371.423355,3404.947333,-12583.501014,1149.143247
1371.423684,3478.967927,-12805.562797,383.047749
1371.424014,4367.215058,-9770.718434,919.314598
1371.424343,4663.297435,-8068.244768,689.485948
1371.424672,4145.153275,-8512.368333,0.000000
1371.425001,4071.132681,-8142.265362,76.609550
1371.425330,4959.379811,-8290.306550,306.438199
1371.425660,7105.977043,-7105.977043,2068.457845
1371.425989,7772.162391,-6217.729913,2451.505594
1371.426318,7698.141797,-7772.162391,2681.334243
1371.426647,6439.791695,-9178.553681,2145.067394
1371.426976,4367.215058,-9844.739029,1608.800546
1371.427306,3256.906145,-8586.388927,383.047749
1371.427635,2738.761985,-9178.553681,459.657299
1371.427964,3256.906145,-9474.636058,766.095498
1371.428293,3997.112087,-11103.089130,1762.019645
1371.428622,4293.194464,-10066.800811,2221.676944
1371.428952,4589.276840,-8956.491898,1838.629195
1371.429281,4515.256246,-6883.915261,1532.190996
1371.429610,4737.318029,-4663.297435,766.095498
1371.429939,5625.565159,-5329.482782,383.047749
1371.430268,6883.915261,-4663.297435,612.876398
1371.430598,7698.141797,-5995.668130,1455.581446
1371.430927,7920.203579,-7476.080014,1378.971896
1371.431256,7550.100608,-8438.347739,2068.457845
1371.431585,6217.729913,-10362.883188,1225.752797
1371.431914,3997.112087,-10955.047942,1685.410096
1371.432244,2442.679609,-12731.542202,-306.438199
1371.432573,2146.597232,-12731.542202,-689.485948
1371.432902,1702.473667,-12213.398043,-995.924147
1371.433231,2368.659014,-12139.377449,-689.485948
1371.433560,2960.823768,-10955.047942,612.876398
1371.433890,3108.864956,-11399.171507,1991.848295
1371.434219,3552.988522,-8364.327145,1991.848295
1371.434548,5329.482782,-4367.215058,2451.505594
1371.434877,8216.285956,-2886.803174,2528.115143
1371.435206,9696.697840,-1480.411884,3524.039291
1371.435536,9474.636058,-2738.761985,3370.820191
1371.435865,8808.450710,-2812.782580,1762.019645
1371.436194,7254.018232,-4885.359217,229.828649
1371.436523,5847.626942,-8956.491898,919.314598
1371.436852,3923.091493,-12657.521608,612.876398
1371.437182,3034.844362,-13915.871710,76.609550
1371.437511,3108.864956,-13397.727550,459.657299
1371.437840,3849.070898,-11991.336260,842.705048
1371.438169,4071.132681,-11325.150913,383.047749
1371.438498,2886.803174,-11547.212695,0.000000
1371.438828,1480.411884,-10362.883188,-1149.143247
1371.439157,740.205942,-10214.842000,-2221.676944
1371.439486,1184.329507,-11547.212695,153.219100
1371.439815,3627.009116,-10732.986159,1378.971896
1371.440144,5403.503377,-8068.244768,1378.971896
1371.440474,6735.874072,-5551.544565,1915.238745
1371.440803,8734.430116,-1998.556043,3217.601092
1371.441132,10288.862594,-2294.638420,3064.381992
1371.441461,9696.697840,-3108.864956,3524.039291
1371.441790,7179.997637,-6069.688724,2298.286494
1371.442120,5921.647536,-7846.182985,919.314598
1371.442449,3997.112087,-10658.965565,1608.800546
1371.442778,2812.782580,-13841.851115,2145.067394
1371.443107,3108.864956,-13545.768739,1532.190996
1371.443437,2886.803174,-11769.274478,919.314598
1371.443766,2220.617826,-10658.965565,76.609550
1371.444095,2368.659014,-8512.368333,-229.828649
1371.444424,2886.803174,-8882.471304,-536.266849
1371.444753,3404.947333,-7920.203579,-1072.533697
1371.445083,4071.132681,-6809.894666,-612.876398
1371.445412,5477.523971,-7105.977043,1225.752797
1371.445741,8068.244768,-8734.430116,2681.334243
1371.446070,8364.327145,-9030.512492,3140.991542
1371.446399,7550.100608,-7402.059420,2604.724693
1371.446729,6143.709319,-7550.100608,1532.190996
1371.447058,5625.565159,-7550.100608,2221.676944
1371.447387,5329.482782,-8808.450710,1838.629195
1371.447716,5181.441594,-9104.533087,2451.505594
1371.448045,5403.503377,-8364.327145,2757.943793
1371.448375,5847.626942,-8438.347739,2451.505594
1371.448704,5403.503377,-7624.121203,2987.772442
1371.449033,5181.441594,-7402.059420,2145.067394
1371.449362,5181.441594,-6809.894666,1762.019645
1371.449691,4367.215058,-6143.709319,1149.143247
1371.450021,4219.173869,-7698.141797,1302.362347
1371.450350,4441.235652,-7994.224174,1685.410096
1371.450679,4737.318029,-8956.491898,1838.629195
1371.451008,4885.359217,-10066.800811,2221.676944
1371.451337,4663.297435,-9918.759623,2451.505594
1371.451667,5773.606348,-10214.842000,3140.991542
1371.451996,6957.935855,-9326.594869,3983.696590
1371.452325,7105.977043,-7920.203579,4290.134789
1371.452654,6809.894666,-6883.915261,3907.087040
1371.452983,6957.935855,-5773.606348,3064.381992
1371.453313,6513.812290,-5477.523971,3064.381992
1371.453642,6809.894666,-5995.668130,2451.505594
1371.453971,6513.812290,-6439.791695,2298.286494
1371.454300,5329.482782,-6513.812290,1915.238745
1371.454629,5699.585753,-8068.244768,1608.800546
1371.454959,5181.441594,-8808.450710,2681.334243
1371.455288,5625.565159,-8216.285956,3140.991542
1371.455617,6143.709319,-7920.203579,3217.601092
1371.455946,6365.771101,-7476.080014,3600.648841
1371.456275,6883.915261,-7994.224174,4903.011187
1371.456605,7328.038826,-6513.812290,4290.134789
1371.456934,7994.224174,-5625.565159,4903.011187
1371.457263,8290.306550,-4367.215058,4979.620737
1371.457592,9030.512492,-4219.173869,5209.449386
1371.457921,9030.512492,-4145.153275,5132.839837
1371.458251,8586.388927,-3775.050304,4903.011187
1371.458580,7179.997637,-4589.276840,4060.306139
1371.458909,6957.935855,-4959.379811,3753.867940
1371.459238,6365.771101,-7105.977043,3140.991542
1371.459567,5699.585753,-8882.471304,3294.210641
1371.459897,4737.318029,-9474.636058,3370.820191
1371.460226,4293.194464,-10732.986159,2987.772442
1371.460555,4441.235652,-10066.800811,3600.648841
1371.460884,4145.153275,-10214.842000,3907.087040
1371.461213,4367.215058,-10140.821405,4366.744339
1371.461543,4959.379811,-8660.409521,4519.963438
1371.461872,5773.606348,-7179.997637,4213.525239
1371.462201,6735.874072,-5329.482782,5209.449386
1371.462530,8660.409521,-5551.544565,6128.763984
1371.462859,10140.821405,-3997.112087,6665.030833
1371.463189,10214.842000,-2664.741391,5975.544884
1371.463518,9770.718434,-1850.514855,5439.278036
1371.463847,9030.512492,-1554.432478,4749.792088
1371.464176,8216.285956,-4219.173869,4673.182538
1371.464505,7772.162391,-4663.297435,4366.744339
1371.464835,7328.038826,-5921.647536,4366.744339
1371.465164,8364.327145,-7920.203579,4596.572988
1371.465493,7105.977043,-8956.491898,5286.058936
1371.465822,5995.668130,-9992.780217,4903.011187
1371.466151,4367.215058,-10214.842000,4060.306139
1371.466480,2442.679609,-11029.068536,2911.162892
1371.466809,1776.494261,-10881.027347,2681.334243
1371.467138,1998.556043,-9104.533087,2604.724693
1371.467467,4441.235652,-7624.121203,3753.867940
1371.467797,6735.874072,-5921.647536,4443.353888
1371.468126,8882.471304,-4145.153275,5515.887586
1371.468455,9992.780217,-2664.741391,5669.106685
1371.468784,10881.027347,-2220.617826,5592.497135
1371.469113,10658.965565,-1776.494261,4979.620737
1371.469442,9326.594869,-3108.864956,4213.525239
1371.469771,8364.327145,-5329.482782,4213.525239
1371.470100,6957.935855,-7254.018232,3217.601092
1371.470430,6217.729913,-9474.636058,2987.772442
1371.470759,5921.647536,-10140.821405,3140.991542
1371.471088,5625.565159,-10584.944971,3447.429741
1371.471417,4959.379811,-10140.821405,3677.258390
1371.471746,4367.215058,-8364.327145,3524.039291
1371.472075,5033.400406,-6217.729913,3447.429741
1371.472404,7105.977043,-4293.194464,4136.915689
1371.472733,8734.430116,-3478.967927,5132.839837
1371.473063,9696.697840,-3478.967927,4136.915689
1371.473392,9474.636058,-3701.029710,3907.087040
1371.473721,8216.285956,-4515.256246,2987.772442
1371.474050,7254.018232,-6217.729913,2298.286494
1371.474379,7031.956449,-6661.853478,2834.553343
1371.474708,6809.894666,-8512.368333,2604.724693
1371.475037,6439.791695,-9178.553681,3140.991542
1371.475366,6439.791695,-9326.594869,3830.477490
1371.475696,7105.977043,-9030.512492,4136.915689
1371.476025,7105.977043,-8586.388927,4596.572988
1371.476354,7105.977043,-6957.935855,4519.963438
1371.476683,7179.997637,-5699.585753,3830.477490
1371.477012,7402.059420,-3997.112087,3600.648841
1371.477341,8142.265362,-2886.803174,3447.429741
1371.477670,8142.265362,-1480.411884,3370.820191
1371.477999,8734.430116,-2590.720797,3447.429741
1371.478328,8512.368333,-4737.318029,3753.867940
1371.478658,7550.100608,-5107.421000,3370.820191
1371.478987,6217.729913,-8364.327145,2757.943793
1371.479316,5847.626942,-10214.842000,2987.772442
1371.479645,4959.379811,-11621.233289,3294.210641
1371.479974,4515.256246,-11177.109724,3677.258390
1371.480303,4737.318029,-8956.491898,3294.210641
1371.480632,4441.235652,-7105.977043,2834.553343
1371.480961,4663.297435,-5699.585753,2834.553343
1371.481291,5847.626942,-4885.359217,3524.039291
1371.481620,7920.203579,-5255.462188,5286.058936
1371.481949,9104.533087,-5181.441594,5822.325785
1371.482278,9844.739029,-3775.050304,5439.278036
1371.482607,9770.718434,-3849.070898,5822.325785
1371.482936,9622.677246,-3849.070898,4749.792088
1371.483265,8512.368333,-5107.421000,3447.429741
1371.483594,6513.812290,-6587.832884,2757.943793
1371.483924,5255.462188,-8586.388927,2068.457845
1371.484253,4885.359217,-9696.697840,2987.772442
1371.484582,5107.421000,-11399.171507,3907.087040
1371.484911,5329.482782,-10436.903782,4366.744339
1371.485240,4885.359217,-8438.347739,3753.867940
1371.485569,4663.297435,-6661.853478,2681.334243
1371.485898,6069.688724,-4737.318029,3600.648841
1371.486227,8586.388927,-3330.926739,4979.620737
1371.486556,9844.739029,-3108.864956,5286.058936
1371.486886,9474.636058,-1776.494261,4749.792088
1371.487215,8734.430116,-2516.700203,4366.744339
1371.487544,8216.285956,-3701.029710,3294.210641
1371.487873,7550.100608,-6513.812290,3907.087040
1371.488202,7105.977043,-8364.327145,4060.306139
1371.488531,7920.203579,-10066.800811,3447.429741
1371.488860,6883.915261,-10510.924376,3064.381992
1371.489189,4959.379811,-10510.924376,2451.505594
1371.489519,4071.132681,-8956.491898,1225.752797
1371.489848,3404.947333,-7105.977043,1225.752797
1371.490177,3849.070898,-5773.606348,1455.581446
1371.490506,6957.935855,-4959.379811,3140.991542
1371.490835,9844.739029,-4293.194464,4903.011187
1371.491164,10140.821405,-4441.235652,3907.087040
1371.491493,8808.450710,-3478.967927,3907.087040
1371.491822,8586.388927,-4293.194464,2911.162892
1371.492152,9030.512492,-4811.338623,2451.505594
1371.492481,7994.224174,-5625.565159,2528.115143
1371.492810,7920.203579,-6587.832884,2298.286494
1371.493139,7254.018232,-7179.997637,1225.752797
1371.493468,5921.647536,-8808.450710,1532.190996
1371.493797,5107.421000,-9252.574275,1838.629195
1371.494126,6365.771101,-9400.615463,1762.019645
1371.494455,6513.812290,-8882.471304,1762.019645
1371.494785,5773.606348,-8068.244768,1072.533697
1371.495114,5181.441594,-7846.182985,1072.533697
1371.495443,6291.750507,-6143.709319,1149.143247
1371.495772,6143.709319,-5329.482782,1378.971896
1371.496101,7105.977043,-3923.091493,1455.581446
1371.496430,7624.121203,-2812.782580,1149.143247
1371.496759,7994.224174,-4441.235652,689.485948
1371.497088,7994.224174,-5625.565159,1455.581446
1371.497417,8808.450710,-6883.915261,2221.676944
1371.497747,9326.594869,-7920.203579,2145.067394
1371.498076,7772.162391,-7846.182985,1455.581446
1371.498405,5847.626942,-9030.512492,-229.828649
1371.498734,3478.967927,-10140.821405,-995.924147
1371.499063,2960.823768,-9326.594869,-229.828649
1371.499392,4737.318029,-8586.388927,229.828649
1371.499721,6587.832884,-6439.791695,842.705048
1371.500050,7624.121203,-4367.215058,536.266849
1371.500380,7105.977043,-4515.256246,536.266849
1371.500709,7179.997637,-4737.318029,1302.362347
1371.501038,8586.388927,-4293.194464,1532.190996
1371.501367,9326.594869,-3552.988522,2145.067394
1371.501696,9030.512492,-4071.132681,1455.581446
1371.502025,7105.977043,-5995.668130,689.485948
1371.502354,5921.647536,-8660.409521,0.000000
1371.502683,5847.626942,-9104.533087,-229.828649
1371.503013,7105.977043,-7994.224174,306.438199
1371.503342,7179.997637,-8512.368333,0.000000
1371.503671,6513.812290,-7254.018232,-229.828649
1371.504000,5255.462188,-8882.471304,-306.438199
1371.504329,6439.791695,-7920.203579,612.876398
1371.504658,7550.100608,-5107.421000,919.314598
1371.504987,7994.224174,-4959.379811,1455.581446
1371.505316,6957.935855,-5329.482782,1225.752797
1371.505645,5551.544565,-6291.750507,995.924147
1371.505975,6439.791695,-7402.059420,1455.581446
1371.506304,7994.224174,-4737.318029,1915.238745
1371.506633,9622.677246,-3849.070898,2068.457845
1371.506962,9844.739029,-4219.173869,1608.800546
1371.507291,7994.224174,-6069.688724,1455.581446
1371.507620,6809.894666,-7402.059420,1378.971896
1371.507949,7105.977043,-7994.224174,1072.533697
1371.508278,7031.956449,-7846.182985,1302.362347
1371.508608,6365.771101,-7846.182985,842.705048
1371.508937,5181.441594,-8512.368333,459.657299
1371.509266,4737.318029,-9030.512492,612.876398
1371.509595,6661.853478,-7179.997637,919.314598
1371.509924,7105.977043,-5255.462188,76.609550
1371.510253,7179.997637,-4071.132681,383.047749
1371.510582,7772.162391,-4959.379811,1378.971896
1371.510911,7994.224174,-6439.791695,2145.067394
1371.511241,7994.224174,-5921.647536,2604.724693
1371.511570,8068.244768,-6143.709319,2374.896044
1371.511899,7105.977043,-5255.462188,1838.629195
1371.512228,5255.462188,-8290.306550,919.314598
1371.512557,4737.318029,-9548.656652,2528.115143
1371.512886,5847.626942,-7179.997637,1608.800546
1371.513215,6661.853478,-6217.729913,1072.533697
1371.513544,7031.956449,-4071.132681,1225.752797
1371.513874,7105.977043,-5033.400406,1608.800546
1371.514203,7105.977043,-6365.771101,1608.800546
1371.514532,6735.874072,-6069.688724,1762.019645
1371.514861,7105.977043,-5477.523971,1532.190996
1371.515190,8068.244768,-5107.421000,842.705048
1371.515519,7254.018232,-7105.977043,1302.362347
1371.515848,6587.832884,-8438.347739,1838.629195
1371.516177,6661.853478,-8142.265362,919.314598
1371.516506,6883.915261,-7846.182985,1302.362347
1371.516836,6735.874072,-5699.585753,306.438199
1371.517165,6143.709319,-6809.894666,383.047749
1371.517494,6957.935855,-8068.244768,1378.971896
1371.517823,6957.935855,-7920.203579,1378.971896
1371.518152,7031.956449,-6365.771101,1532.190996
1371.518481,7031.956449,-5625.565159,1149.143247
1371.518810,6883.915261,-6735.874072,536.266849
1371.519139,6365.771101,-8290.306550,1532.190996
1371.519469,6291.750507,-7254.018232,1455.581446
1371.519798,7624.121203,-6069.688724,689.485948
1371.520127,8290.306550,-3701.029710,766.095498
1371.520456,8216.285956,-3627.009116,76.609550
1371.520785,7698.141797,-6217.729913,1149.143247
1371.521114,7476.080014,-7105.977043,2068.457845
1371.521443,7328.038826,-7550.100608,995.924147
1371.521772,6883.915261,-6217.729913,229.828649
1371.522102,6291.750507,-6735.874072,689.485948
1371.522431,6291.750507,-8512.368333,689.485948
1371.522760,6365.771101,-6883.915261,842.705048
1371.523089,6439.791695,-6587.832884,612.876398
1371.523418,7105.977043,-4367.215058,229.828649
1371.523747,7698.141797,-3775.050304,536.266849
1371.524076,7846.182985,-6513.812290,842.705048
1371.524405,7254.018232,-6587.832884,1072.533697
1371.524734,7698.141797,-5921.647536,842.705048
1371.525064,7328.038826,-7105.977043,536.266849
1371.525393,6365.771101,-7402.059420,766.095498
1371.525722,6217.729913,-8438.347739,919.314598
1371.526051,5921.647536,-8660.409521,536.266849
1371.526380,5551.544565,-6809.894666,842.705048
1371.526709,6143.709319,-5107.421000,153.219100
1371.527038,7254.018232,-4293.194464,383.047749
1371.527367,7402.059420,-5329.482782,612.876398
1371.527697,7624.121203,-7105.977043,2068.457845
1371.528026,8142.265362,-6661.853478,2221.676944
1371.528355,8142.265362,-6365.771101,1378.971896
1371.528684,7105.977043,-5625.565159,306.438199
1371.529013,5847.626942,-6365.771101,0.000000
1371.529342,6143.709319,-7105.977043,-153.219100
1371.529671,6291.750507,-6513.812290,-306.438199
1371.530000,6365.771101,-6291.750507,0.000000
1371.530330,7624.121203,-6439.791695,1072.533697
1371.530659,7550.100608,-7846.182985,1838.629195
1371.530988,7105.977043,-8364.327145,2374.896044
1371.531317,6661.853478,-7254.018232,1685.410096
1371.531646,6661.853478,-6217.729913,229.828649
1371.531975,6365.771101,-6217.729913,76.609550
1371.532304,5773.606348,-7402.059420,612.876398
1371.532633,5921.647536,-7994.224174,612.876398
1371.532963,5921.647536,-6143.709319,995.924147
1371.533292,7254.018232,-5921.647536,766.095498
1371.533621,8142.265362,-4737.318029,689.485948
1371.533950,8512.368333,-6217.729913,2145.067394
1371.534279,8364.327145,-7402.059420,1991.848295
1371.534608,8438.347739,-6809.894666,1378.971896
1371.534937,7550.100608,-6513.812290,689.485948
1371.535266,6587.832884,-6883.915261,153.219100
1371.535595,5403.503377,-7105.977043,0.000000
1371.535925,5329.482782,-7920.203579,306.438199
1371.536254,6735.874072,-7550.100608,536.266849
1371.536583,6661.853478,-5773.606348,1378.971896
1371.536912,7624.121203,-4737.318029,1378.971896
1371.537241,7550.100608,-5329.482782,1455.581446
1371.537570,7550.100608,-6439.791695,2528.115143
1371.537899,7698.141797,-6069.688724,1915.238745
1371.538228,7624.121203,-6217.729913,2221.676944
1371.538558,7698.141797,-4737.318029,1455.581446
1371.538887,6291.750507,-6143.709319,153.219100
1371.539216,5107.421000,-7920.203579,766.095498
1371.539545,6143.709319,-7328.038826,1072.533697
1371.539874,7105.977043,-6439.791695,536.266849
1371.540203,7846.182985,-5329.482782,1225.752797
1371.540532,8290.306550,-5551.544565,1225.752797
1371.540861,8512.368333,-7031.956449,2681.334243
1371.541191,8068.244768,-7550.100608,2451.505594
1371.541520,7179.997637,-5773.606348,1378.971896
1371.541849,6957.935855,-4811.338623,229.828649
1371.542178,6883.915261,-5773.606348,612.876398
1371.542507,7105.977043,-7698.141797,1838.629195
1371.542836,7328.038826,-7105.977043,1532.190996
1371.543165,7476.080014,-5773.606348,1225.752797
1371.543494,7476.080014,-5107.421000,689.485948
1371.543823,7920.203579,-6069.688724,1302.362347
1371.544153,7254.018232,-7105.977043,1838.629195
1371.544482,6735.874072,-7476.080014,1608.800546
1371.544811,6217.729913,-7105.977043,689.485948
1371.545140,5625.565159,-7328.038826,306.438199
1371.545469,5403.503377,-8364.327145,229.828649
1371.545798,5625.565159,-8216.285956,1225.752797
1371.546127,5625.565159,-8290.306550,766.095498
1371.546456,5847.626942,-6439.791695,1072.533697
1371.546786,6513.812290,-5255.462188,1532.190996
1371.547115,7550.100608,-5773.606348,1225.752797
1371.547444,7994.224174,-6143.709319,1991.848295
1371.547773,7698.141797,-6661.853478,1685.410096
1371.548102,7254.018232,-7179.997637,1149.143247
1371.548431,6735.874072,-6291.750507,689.485948
1371.548760,6439.791695,-6661.853478,153.219100
1371.549089,6217.729913,-7624.121203,76.609550
1371.549419,6069.688724,-7402.059420,0.000000
1371.549748,5847.626942,-6809.894666,0.000000
1371.550077,6217.729913,-6291.750507,76.609550
1371.550406,7402.059420,-5995.668130,995.924147
1371.550735,7994.224174,-6661.853478,1378.971896
1371.551064,8142.265362,-7105.977043,2221.676944
1371.551393,7994.224174,-6809.894666,2145.067394
1371.551722,7402.059420,-4811.338623,153.219100
1371.552051,6439.791695,-4811.338623,0.000000
1371.552381,5847.626942,-7031.956449,612.876398
1371.552710,6069.688724,-7920.203579,1225.752797
1371.553039,7105.977043,-5995.668130,1685.410096
1371.553368,7328.038826,-5329.482782,842.705048
1371.553697,7550.100608,-5255.462188,536.266849
1371.554026,7179.997637,-6883.915261,766.095498
1371.554355,7476.080014,-7772.162391,536.266849
1371.554684,7105.977043,-7179.997637,1149.143247
1371.555014,7328.038826,-5995.668130,689.485948
1371.555343,7254.018232,-6587.832884,0.000000
1371.555672,6587.832884,-6217.729913,306.438199
1371.556001,6661.853478,-7105.977043,459.657299
1371.556330,8142.265362,-6365.771101,1302.362347
1371.556659,8660.409521,-4737.318029,1378.971896
1371.556988,8290.306550,-3849.070898,1149.143247
1371.557317,7772.162391,-5329.482782,1608.800546
1371.557647,8216.285956,-7105.977043,1685.410096
1371.557976,7624.121203,-7105.977043,1532.190996
1371.558305,6439.791695,-7031.956449,766.095498
1371.558634,5625.565159,-6587.832884,306.438199
1371.558963,5255.462188,-7920.203579,0.000000
1371.559292,5107.421000,-9548.656652,1149.143247
1371.559621,5847.626942,-8586.388927,2145.067394
1371.559950,7698.141797,-6661.853478,1685.410096
1371.560280,8068.244768,-4589.276840,1532.190996
1371.560609,7105.977043,-5107.421000,1378.971896
1371.560938,7105.977043,-6291.750507,1302.362347
1371.561267,6809.894666,-5699.585753,1149.143247
1371.561596,6143.709319,-5551.544565,612.876398
1371.561925,6365.771101,-5995.668130,76.609550
1371.562254,5995.668130,-7031.956449,1225.752797
1371.562583,6291.750507,-9770.718434,1608.800546
1371.562912,6291.750507,-8660.409521,1608.800546
1371.563242,6883.915261,-6439.791695,842.705048
1371.563571,6809.894666,-6735.874072,306.438199
1371.563900,6439.791695,-6069.688724,919.314598
1371.564229,6735.874072,-6957.935855,1685.410096
1371.564558,7031.956449,-6513.812290,1072.533697
1371.564887,7328.038826,-5329.482782,2221.676944
1371.565216,7105.977043,-5773.606348,1072.533697
1371.565545,6809.894666,-6957.935855,1378.971896
1371.565875,5847.626942,-7328.038826,1915.238745
1371.566204,6217.729913,-6365.771101,1455.581446
1371.566533,6957.935855,-4811.338623,612.876398
1371.566862,7846.182985,-4885.359217,995.924147
1371.567191,8142.265362,-5699.585753,1302.362347
1371.567520,7698.141797,-7105.977043,1685.410096
1371.567849,7402.059420,-7179.997637,1762.019645
1371.568179,6661.853478,-7476.080014,459.657299
1371.568508,6587.832884,-7550.100608,229.828649
1371.568837,7179.997637,-7846.182985,842.705048
1371.569166,7179.997637,-8586.388927,536.266849
1371.569495,7254.018232,-6735.874072,1455.581446
1371.569824,7624.121203,-5773.606348,1072.533697
1371.570154,8216.285956,-4441.235652,536.266849
1371.570483,7402.059420,-3849.070898,766.095498
1371.570812,7105.977043,-5403.503377,995.924147
1371.571141,8364.327145,-5477.523971,1762.019645
1371.571470,8216.285956,-5625.565159,1608.800546
1371.571799,7698.141797,-6365.771101,1762.019645
1371.572128,6587.832884,-7031.956449,919.314598
1371.572458,5847.626942,-8364.327145,1378.971896
1371.572787,6069.688724,-8734.430116,1302.362347
1371.573116,6069.688724,-6661.853478,842.705048
1371.573445,6809.894666,-5477.523971,842.705048
1371.573774,7179.997637,-5551.544565,919.314598
1371.574103,7328.038826,-5921.647536,1378.971896
1371.574433,7179.997637,-6661.853478,2068.457845
1371.574762,7624.121203,-6291.750507,1455.581446
1371.575091,7179.997637,-5699.585753,1762.019645
1371.575420,6809.894666,-5995.668130,0.000000
1371.575749,6143.709319,-7402.059420,766.095498
1371.576078,5921.647536,-7179.997637,383.047749
1371.576408,6143.709319,-6883.915261,229.828649
1371.576737,6513.812290,-6291.750507,0.000000
1371.577066,7550.100608,-5773.606348,306.438199
1371.577395,7624.121203,-7476.080014,995.924147
1371.577724,7698.141797,-8512.368333,2068.457845
1371.578053,7550.100608,-8216.285956,1838.629195
1371.578383,7031.956449,-7105.977043,766.095498
1371.578712,6365.771101,-5625.565159,-153.219100
1371.579041,5921.647536,-6661.853478,536.266849
1371.579370,6291.750507,-6661.853478,1149.143247
1371.579699,6809.894666,-5995.668130,1225.752797
1371.580028,7624.121203,-4737.318029,1378.971896
1371.580358,7698.141797,-3330.926739,919.314598
1371.580687,7105.977043,-5995.668130,766.095498
1371.581016,7105.977043,-7772.162391,1838.629195
1371.581345,7254.018232,-7179.997637,1455.581446
1371.581674,6809.894666,-7920.203579,612.876398
1371.582003,6143.709319,-7698.141797,919.314598
1371.582332,6143.709319,-8586.388927,229.828649
1371.582662,6661.853478,-9104.533087,536.266849
1371.582991,5995.668130,-7105.977043,766.095498
1371.583320,5773.606348,-5699.585753,229.828649
1371.583649,7105.977043,-4737.318029,0.000000
1371.583978,7402.059420,-5329.482782,1302.362347
1371.584307,7994.224174,-6217.729913,2374.896044
1371.584637,8660.409521,-5329.482782,2911.162892
1371.584966,7402.059420,-5921.647536,1378.971896
1371.585295,6217.729913,-5107.421000,76.609550
1371.585624,5625.565159,-6883.915261,689.485948
1371.585953,6439.791695,-7846.182985,842.705048
1371.586282,7105.977043,-6587.832884,1149.143247
1371.586612,7550.100608,-6365.771101,1225.752797
1371.586941,8068.244768,-5477.523971,1072.533697
1371.587270,7846.182985,-5625.565159,1455.581446
1371.587599,7179.997637,-6735.874072,1838.629195
1371.587928,7254.018232,-6365.771101,2068.457845
1371.588257,7402.059420,-6439.791695,1072.533697
1371.588587,7254.018232,-5699.585753,1532.190996
1371.588916,6291.750507,-5773.606348,612.876398
1371.589245,6069.688724,-6957.935855,842.705048
1371.589574,6661.853478,-5107.421000,229.828649
1371.589903,6883.915261,-5329.482782,0.000000
1371.590232,7476.080014,-5403.503377,536.266849
1371.590561,8216.285956,-5921.647536,1378.971896
1371.590891,7920.203579,-8364.327145,2221.676944
1371.591220,7846.182985,-8068.244768,2298.286494
1371.591549,7105.977043,-6957.935855,766.095498
1371.591878,6809.894666,-6439.791695,0.000000
1371.592207,6291.750507,-6883.915261,383.047749
1371.592536,5329.482782,-8068.244768,689.485948
1371.592866,6439.791695,-7179.997637,1302.362347
1371.593195,7031.956449,-5551.544565,995.924147
1371.593524,7846.182985,-4663.297435,1149.143247
1371.593853,7994.224174,-4811.338623,1991.848295
1371.594182,7920.203579,-6809.894666,2374.896044
1371.594511,7476.080014,-6365.771101,1915.238745
1371.594841,7105.977043,-6217.729913,1149.143247
1371.595170,6735.874072,-6661.853478,383.047749
1371.595499,6143.709319,-7624.121203,0.000000
1371.595828,5107.421000,-9178.553681,612.876398
1371.596157,5551.544565,-8438.347739,919.314598
1371.596486,5995.668130,-6513.812290,0.000000
1371.596816,6143.709319,-6069.688724,536.266849
1371.597145,6883.915261,-6069.688724,1149.143247
1371.597474,7624.121203,-7254.018232,1685.410096
1371.597803,7179.997637,-6735.874072,2298.286494
1371.598132,6883.915261,-5921.647536,1915.238745
1371.598461,7550.100608,-5773.606348,842.705048
1371.598790,6735.874072,-5625.565159,612.876398
1371.599120,5699.585753,-7254.018232,153.219100
1371.599449,6069.688724,-7254.018232,383.047749
1371.599778,7105.977043,-5625.565159,612.876398
1371.600107,7624.121203,-5329.482782,306.438199
1371.600436,8142.265362,-5477.523971,1149.143247
1371.600765,8290.306550,-7105.977043,1762.019645
1371.601095,7698.141797,-7698.141797,1762.019645
1371.601424,6957.935855,-6661.853478,1149.143247
1371.601753,6365.771101,-6291.750507,0.000000
1371.602082,6513.812290,-6957.935855,459.657299
1371.602411,6735.874072,-7105.977043,689.485948
1371.602740,6513.812290,-7328.038826,1149.143247
1371.603070,6957.935855,-5921.647536,842.705048
1371.603399,7476.080014,-4959.379811,919.314598
1371.603728,7920.203579,-4441.235652,536.266849
1371.604057,7920.203579,-6365.771101,1608.800546
1371.604386,8142.265362,-6513.812290,2068.457845
1371.604715,7550.100608,-7476.080014,1685.410096
