#time,accel_x,accel_y,accel_z
1191.316293,6735.874072,-6365.771101,689.485948
1191.316623,7031.956449,-6809.894666,1149.143247
1191.316953,7254.018232,-6735.874072,995.924147
1191.317283,7105.977043,-6587.832884,919.314598
1191.317613,6661.853478,-6365.771101,1072.533697
1191.317943,6809.894666,-6809.894666,995.924147
1191.318273,6883.915261,-6365.771101,689.485948
1191.318603,6957.935855,-6661.853478,1149.143247
1191.318933,6957.935855,-6661.853478,1072.533697
1191.319263,7105.977043,-6661.853478,1072.533697
1191.319593,6809.894666,-6513.812290,1302.362347
1191.319922,6809.894666,-6143.709319,1532.190996
1191.320252,7031.956449,-6587.832884,842.705048
1191.320582,6957.935855,-6661.853478,1072.533697
1191.320912,7031.956449,-6957.935855,842.705048
1191.321242,7031.956449,-6439.791695,995.924147
1191.321572,6957.935855,-6217.729913,1149.143247
1191.321902,6957.935855,-6661.853478,995.924147
1191.322232,6957.935855,-6587.832884,995.924147
1191.322562,6957.935855,-6809.894666,1072.533697
1191.322892,6883.915261,-6809.894666,153.219100
1191.323221,6587.832884,-6513.812290,1225.752797
1191.323551,7179.997637,-6661.853478,919.314598
1191.323881,7179.997637,-6661.853478,1072.533697
1191.324211,7031.956449,-6957.935855,1072.533697
1191.324541,6809.894666,-6661.853478,1149.143247
1191.324871,6957.935855,-6661.853478,1072.533697
1191.325201,7105.977043,-6513.812290,1072.533697
1191.325531,7105.977043,-6513.812290,1072.533697
1191.325861,7254.018232,-6217.729913,1455.581446
1191.326191,6883.915261,-6365.771101,612.876398
1191.326520,6809.894666,-6587.832884,1072.533697
1191.326850,6513.812290,-6365.771101,995.924147
1191.327180,6957.935855,-6735.874072,1225.752797
1191.327510,6809.894666,-6439.791695,1685.410096
1191.327840,6957.935855,-6439.791695,1072.533697
1191.328170,6883.915261,-6513.812290,1149.143247
1191.328500,6957.935855,-6661.853478,919.314598
1191.328830,7031.956449,-6365.771101,1072.533697
1191.329160,6809.894666,-6143.709319,995.924147
1191.329490,7031.956449,-6217.729913,689.485948
1191.329819,6957.935855,-6661.853478,919.314598
1191.330149,7105.977043,-6587.832884,1149.143247
1191.330479,7105.977043,-5995.668130,766.095498
1191.330809,6809.894666,-6439.791695,1149.143247
1191.331139,7105.977043,-6809.894666,919.314598
1191.331469,7031.956449,-6661.853478,1149.143247
1191.331799,7105.977043,-6735.874072,766.095498
1191.332129,7105.977043,-6587.832884,1072.533697
1191.332459,6957.935855,-6439.791695,1149.143247
1191.332789,6957.935855,-6661.853478,919.314598
1191.333119,6883.915261,-6587.832884,995.924147
1191.333448,7179.997637,-6513.812290,1532.190996
1191.333778,7254.018232,-6439.791695,1072.533697
1191.334108,7105.977043,-6735.874072,1149.143247
1191.334438,6883.915261,-6439.791695,1149.143247
1191.334768,7031.956449,-6587.832884,919.314598
1191.335098,7105.977043,-6587.832884,1608.800546
1191.335428,6957.935855,-6661.853478,1149.143247
1191.335758,6809.894666,-6587.832884,1149.143247
1191.336088,6735.874072,-6661.853478,919.314598
1191.336418,6809.894666,-6809.894666,1532.190996
1191.336747,7105.977043,-6513.812290,766.095498
1191.337077,7105.977043,-6587.832884,1455.581446
1191.337407,7031.956449,-6439.791695,766.095498
1191.337737,7031.956449,-6513.812290,919.314598
1191.338067,7179.997637,-6587.832884,919.314598
1191.338397,7031.956449,-6661.853478,766.095498
1191.338727,6957.935855,-6365.771101,995.924147
1191.339057,7031.956449,-6661.853478,1072.533697
1191.339387,6809.894666,-6587.832884,1072.533697
1191.339717,7105.977043,-6809.894666,919.314598
1191.340046,7105.977043,-6809.894666,1072.533697
1191.340376,7105.977043,-6809.894666,1072.533697
1191.340706,6957.935855,-6587.832884,995.924147
1191.341036,7254.018232,-6513.812290,995.924147
1191.341366,6809.894666,-6513.812290,1225.752797
1191.341696,7105.977043,-6513.812290,1149.143247
1191.342026,7105.977043,-6661.853478,919.314598
1191.342356,7031.956449,-6291.750507,919.314598
1191.342686,7031.956449,-6143.709319,995.924147
1191.343016,6809.894666,-6661.853478,995.924147
1191.343345,7031.956449,-6661.853478,766.095498
1191.343675,7105.977043,-6439.791695,766.095498
1191.344005,7105.977043,-6291.750507,1149.143247
1191.344335,7105.977043,-6513.812290,995.924147
1191.344665,6883.915261,-6513.812290,1149.143247
1191.344995,7105.977043,-6661.853478,1072.533697
1191.345325,7031.956449,-6439.791695,995.924147
1191.345655,7105.977043,-6439.791695,1302.362347
1191.345985,6883.915261,-6513.812290,995.924147
1191.346315,6809.894666,-6439.791695,919.314598
1191.346644,6957.935855,-6587.832884,689.485948
1191.346974,6809.894666,-6809.894666,1608.800546
1191.347304,7402.059420,-6809.894666,1149.143247
1191.347634,6735.874072,-6735.874072,1072.533697
1191.347964,6957.935855,-6661.853478,919.314598
1191.348294,6735.874072,-6883.915261,919.314598
1191.348624,7328.038826,-6365.771101,1149.143247
1191.348954,6735.874072,-6439.791695,995.924147
1191.349284,6809.894666,-6513.812290,1072.533697
1191.349614,6809.894666,-6735.874072,919.314598
1191.349944,6809.894666,-6883.915261,1072.533697
1191.350273,6661.853478,-6587.832884,1532.190996
1191.350603,6957.935855,-6735.874072,536.266849
1191.350933,6735.874072,-6809.894666,1149.143247
1191.351263,6809.894666,-6809.894666,919.314598
1191.351593,6957.935855,-6957.935855,1302.362347
1191.351923,6809.894666,-6735.874072,919.314598
1191.352253,7105.977043,-6661.853478,919.314598
1191.352583,6957.935855,-6661.853478,995.924147
1191.352913,7031.956449,-6661.853478,995.924147
1191.353243,6809.894666,-6291.750507,995.924147
1191.353572,7105.977043,-6735.874072,1149.143247
1191.353902,7105.977043,-6513.812290,919.314598
1191.354232,7105.977043,-6587.832884,1149.143247
1191.354562,7105.977043,-6587.832884,766.095498
1191.354892,7550.100608,-6513.812290,1072.533697
1191.355222,6957.935855,-6661.853478,919.314598
1191.355552,6809.894666,-6587.832884,919.314598
1191.355882,7105.977043,-6365.771101,995.924147
1191.356212,7179.997637,-6439.791695,1225.752797
1191.356542,7031.956449,-7031.956449,995.924147
1191.356871,7105.977043,-6217.729913,919.314598
1191.357201,6883.915261,-6365.771101,1072.533697
1191.357531,6883.915261,-6513.812290,919.314598
1191.357861,7031.956449,-6735.874072,766.095498
1191.358191,7105.977043,-6291.750507,1149.143247
1191.358521,7105.977043,-6439.791695,919.314598
1191.358851,7105.977043,-6143.709319,766.095498
1191.359181,6809.894666,-6365.771101,919.314598
1191.359511,6883.915261,-6809.894666,1072.533697
1191.359841,6735.874072,-6735.874072,1378.971896
1191.360170,6957.935855,-6809.894666,1072.533697
1191.360500,7031.956449,-6291.750507,842.705048
1191.360830,6513.812290,-5847.626942,995.924147
1191.361160,6809.894666,-6661.853478,919.314598
1191.361490,6883.915261,-6587.832884,1072.533697
1191.361820,6883.915261,-6957.935855,919.314598
1191.362150,6957.935855,-6661.853478,766.095498
1191.362480,7105.977043,-6883.915261,1072.533697
1191.362810,6661.853478,-6587.832884,919.314598
1191.363140,6957.935855,-6587.832884,995.924147
1191.363470,7031.956449,-6735.874072,995.924147
1191.363799,7105.977043,-6587.832884,459.657299
1191.364129,7105.977043,-6883.915261,995.924147
1191.364459,6883.915261,-6661.853478,919.314598
1191.364789,7031.956449,-6587.832884,1149.143247
1191.365119,6883.915261,-6883.915261,1149.143247
1191.365449,6661.853478,-5921.647536,919.314598
1191.365779,7031.956449,-7105.977043,1302.362347
1191.366109,6883.915261,-6883.915261,1072.533697
1191.366439,7105.977043,-6809.894666,1149.143247
1191.366769,6957.935855,-6513.812290,536.266849
1191.367098,6365.771101,-6291.750507,1072.533697
1191.367428,6957.935855,-6439.791695,919.314598
1191.367758,7179.997637,-6587.832884,766.095498
1191.368088,7328.038826,-6661.853478,919.314598
1191.368418,7698.141797,-7031.956449,995.924147
1191.368748,6883.915261,-6587.832884,1072.533697
1191.369078,6957.935855,-6809.894666,919.314598
1191.369408,6809.894666,-6587.832884,995.924147
1191.369738,6957.935855,-6587.832884,919.314598
1191.370068,6957.935855,-5995.668130,612.876398
1191.370397,7105.977043,-6291.750507,995.924147
1191.370727,7105.977043,-6661.853478,842.705048
1191.371057,7105.977043,-6513.812290,1072.533697
1191.371387,7179.997637,-6587.832884,1378.971896
1191.371717,7105.977043,-6587.832884,919.314598
1191.372047,7031.956449,-6513.812290,1149.143247
1191.372377,7105.977043,-6439.791695,842.705048
1191.372707,7179.997637,-6587.832884,1149.143247
1191.373037,6883.915261,-6217.729913,766.095498
1191.373367,7031.956449,-6587.832884,1225.752797
1191.373696,7179.997637,-6291.750507,1072.533697
1191.374026,7105.977043,-6809.894666,1072.533697
1191.374356,7328.038826,-6587.832884,1225.752797
1191.374686,7105.977043,-6661.853478,1225.752797
1191.375016,7031.956449,-6439.791695,1149.143247
1191.375346,6883.915261,-6513.812290,919.314598
1191.375676,6735.874072,-6587.832884,842.705048
1191.376006,7105.977043,-6513.812290,1072.533697
1191.376336,6883.915261,-6735.874072,995.924147
1191.376666,6809.894666,-6513.812290,842.705048
1191.376996,7031.956449,-6661.853478,919.314598
1191.377325,6883.915261,-6439.791695,919.314598
1191.377655,6957.935855,-6883.915261,1225.752797
1191.377985,7105.977043,-6735.874072,919.314598
1191.378315,6957.935855,-6809.894666,842.705048
1191.378645,6883.915261,-6587.832884,1225.752797
1191.378975,6587.832884,-6069.688724,1225.752797
1191.379305,6883.915261,-6809.894666,612.876398
1191.379635,6957.935855,-6809.894666,1072.533697
1191.379965,6809.894666,-6439.791695,919.314598
1191.380295,7105.977043,-6291.750507,1149.143247
1191.380624,7179.997637,-6365.771101,995.924147
1191.380954,7105.977043,-6587.832884,919.314598
1191.381284,7105.977043,-6661.853478,919.314598
1191.381614,7031.956449,-6883.915261,842.705048
1191.381943,6957.935855,-6587.832884,766.095498
1191.382272,6957.935855,-6735.874072,766.095498
1191.382602,7031.956449,-7105.977043,919.314598
1191.382931,7254.018232,-6661.853478,1149.143247
1191.383261,6883.915261,-6587.832884,1225.752797
1191.383590,7402.059420,-6439.791695,1225.752797
1191.383919,7105.977043,-6587.832884,612.876398
1191.384249,6883.915261,-6365.771101,1149.143247
1191.384578,7105.977043,-6587.832884,1378.971896
1191.384908,7105.977043,-6291.750507,1225.752797
1191.385237,7254.018232,-6439.791695,1378.971896
1191.385566,6957.935855,-6439.791695,995.924147
1191.385896,7105.977043,-6365.771101,612.876398
1191.386225,7105.977043,-6883.915261,995.924147
1191.386555,7402.059420,-6735.874072,1762.019645
1191.386884,7105.977043,-6439.791695,1225.752797
1191.387213,7031.956449,-6735.874072,995.924147
1191.387543,6587.832884,-6513.812290,919.314598
1191.387872,7179.997637,-6217.729913,1608.800546
1191.388202,7105.977043,-6217.729913,1149.143247
1191.388531,6957.935855,-6439.791695,1149.143247
1191.388860,6957.935855,-6143.709319,766.095498
1191.389190,6957.935855,-6439.791695,1072.533697
1191.389519,6883.915261,-6291.750507,1378.971896
1191.389849,7254.018232,-6587.832884,995.924147
1191.390178,7031.956449,-6735.874072,842.705048
1191.390507,7105.977043,-6809.894666,842.705048
1191.390837,7328.038826,-6883.915261,1225.752797
1191.391166,7254.018232,-6661.853478,1455.581446
1191.391496,7105.977043,-6439.791695,995.924147
1191.391825,7105.977043,-6291.750507,1072.533697
1191.392154,6735.874072,-6809.894666,689.485948
1191.392484,6809.894666,-6587.832884,1072.533697
1191.392813,6809.894666,-6291.750507,1378.971896
1191.393143,6735.874072,-6513.812290,689.485948
1191.393472,6809.894666,-6587.832884,995.924147
1191.393801,6809.894666,-6735.874072,919.314598
1191.394131,6809.894666,-6883.915261,1072.533697
1191.394460,7105.977043,-6809.894666,995.924147
1191.394790,7105.977043,-6735.874072,1149.143247
1191.395119,6883.915261,-6735.874072,1072.533697
1191.395448,6883.915261,-6513.812290,919.314598
1191.395778,6735.874072,-6365.771101,1149.143247
1191.396107,6957.935855,-6661.853478,995.924147
1191.396437,6883.915261,-6809.894666,995.924147
1191.396766,6661.853478,-6661.853478,1072.533697
1191.397095,6957.935855,-7031.956449,1302.362347
1191.397425,7105.977043,-6661.853478,842.705048
1191.397754,6883.915261,-6439.791695,1072.533697
1191.398084,6809.894666,-6513.812290,1225.752797
1191.398413,6809.894666,-6513.812290,689.485948
1191.398742,7031.956449,-6661.853478,1532.190996
1191.399072,6809.894666,-6587.832884,919.314598
1191.399401,7105.977043,-6587.832884,1072.533697
1191.399731,7105.977043,-6513.812290,842.705048
1191.400060,6735.874072,-6513.812290,766.095498
1191.400389,6957.935855,-6291.750507,995.924147
1191.400719,7105.977043,-6661.853478,766.095498
1191.401048,7105.977043,-6587.832884,1072.533697
1191.401378,7031.956449,-6587.832884,1149.143247
1191.401707,7105.977043,-6513.812290,1378.971896
1191.402036,6735.874072,-6587.832884,1149.143247
1191.402366,6883.915261,-6365.771101,383.047749
1191.402695,7105.977043,-6735.874072,995.924147
1191.403025,7328.038826,-6587.832884,1302.362347
1191.403354,7254.018232,-6143.709319,1455.581446
1191.403683,7105.977043,-6809.894666,919.314598
1191.404013,6957.935855,-6661.853478,842.705048
1191.404342,7179.997637,-6735.874072,995.924147
1191.404672,7328.038826,-6883.915261,1072.533697
1191.405001,7105.977043,-6587.832884,1149.143247
1191.405330,6957.935855,-6439.791695,919.314598
1191.405660,6957.935855,-6883.915261,919.314598
1191.405989,7031.956449,-6439.791695,919.314598
1191.406319,6883.915261,-6809.894666,536.266849
1191.406648,6883.915261,-6291.750507,919.314598
1191.406977,6513.812290,-6587.832884,919.314598
1191.407307,6809.894666,-6513.812290,1225.752797
1191.407636,6809.894666,-6513.812290,1685.410096
1191.407966,6957.935855,-6217.729913,1225.752797
1191.408295,6883.915261,-6513.812290,995.924147
1191.408624,7105.977043,-6957.935855,1072.533697
1191.408954,6809.894666,-6735.874072,1072.533697
1191.409283,6957.935855,-6883.915261,1762.019645
1191.409613,7179.997637,-6661.853478,1149.143247
1191.409942,6957.935855,-6365.771101,995.924147
1191.410271,6883.915261,-6735.874072,1149.143247
1191.410601,6513.812290,-6883.915261,919.314598
1191.410930,6957.935855,-5847.626942,1072.533697
1191.411260,6809.894666,-6365.771101,1149.143247
1191.411589,7031.956449,-6439.791695,919.314598
1191.411918,6513.812290,-6957.935855,995.924147
1191.412248,7031.956449,-6735.874072,995.924147
1191.412577,7031.956449,-6809.894666,689.485948
1191.412907,7031.956449,-6661.853478,1072.533697
1191.413236,6957.935855,-6513.812290,919.314598
1191.413565,7031.956449,-6439.791695,842.705048
1191.413895,7328.038826,-6143.709319,536.266849
1191.414224,7031.956449,-6365.771101,1072.533697
1191.414554,7031.956449,-6587.832884,919.314598
1191.414883,6883.915261,-6587.832884,995.924147
1191.415212,7031.956449,-6439.791695,1072.533697
1191.415542,7402.059420,-6513.812290,1225.752797
1191.415871,6809.894666,-6143.709319,689.485948
1191.416201,7031.956449,-6439.791695,766.095498
1191.416530,6957.935855,-6217.729913,919.314598
1191.416859,7105.977043,-7105.977043,1149.143247
1191.417189,7105.977043,-6735.874072,1225.752797
1191.417518,7105.977043,-6513.812290,1302.362347
1191.417848,7105.977043,-6661.853478,1302.362347
1191.418177,6957.935855,-6365.771101,1072.533697
1191.418506,7105.977043,-6069.688724,766.095498
1191.418836,7031.956449,-6365.771101,1225.752797
1191.419165,7105.977043,-6439.791695,1072.533697
1191.419495,7402.059420,-6143.709319,1225.752797
1191.419824,6957.935855,-6661.853478,536.266849
1191.420153,6957.935855,-6365.771101,612.876398
1191.420483,7105.977043,-6513.812290,995.924147
1191.420812,7179.997637,-6735.874072,1072.533697
1191.421142,7105.977043,-6661.853478,1302.362347
1191.421471,7031.956449,-6513.812290,842.705048
1191.421800,7031.956449,-6883.915261,1225.752797
1191.422130,7031.956449,-6735.874072,1072.533697
1191.422459,7105.977043,-6735.874072,1149.143247
1191.422789,7031.956449,-6291.750507,995.924147
1191.423118,6661.853478,-6291.750507,1149.143247
1191.423447,6883.915261,-6291.750507,919.314598
1191.423777,6809.894666,-6809.894666,1225.752797
1191.424106,6957.935855,-6661.853478,766.095498
1191.424436,6735.874072,-6365.771101,766.095498
1191.424765,6957.935855,-6513.812290,1149.143247
1191.425094,6809.894666,-6809.894666,1072.533697
1191.425424,6883.915261,-6809.894666,995.924147
1191.425753,7105.977043,-6883.915261,1302.362347
1191.426083,7179.997637,-6217.729913,919.314598
1191.426412,6513.812290,-6513.812290,1225.752797
1191.426741,6661.853478,-6883.915261,1149.143247
1191.427071,6735.874072,-6883.915261,766.095498
1191.427400,6883.915261,-6365.771101,919.314598
1191.427730,6735.874072,-6735.874072,995.924147
1191.428059,6661.853478,-6439.791695,1149.143247
1191.428388,6661.853478,-6365.771101,842.705048
1191.428718,7031.956449,-6587.832884,1072.533697
1191.429047,7105.977043,-6439.791695,1302.362347
1191.429377,7105.977043,-6365.771101,1072.533697
1191.429706,7328.038826,-6291.750507,766.095498
1191.430035,7105.977043,-6217.729913,919.314598
1191.430365,7105.977043,-6217.729913,1455.581446
1191.430694,7105.977043,-5107.421000,1149.143247
1191.431024,7698.141797,-5477.523971,1149.143247
1191.431353,8364.327145,-5403.503377,1072.533697
1191.431682,8364.327145,-5847.626942,1302.362347
1191.432012,7846.182985,-6143.709319,1225.752797
1191.432341,6809.894666,-6365.771101,306.438199
1191.432671,5847.626942,-7328.038826,0.000000
1191.433000,6143.709319,-7105.977043,459.657299
1191.433329,7031.956449,-7179.997637,383.047749
1191.433659,8512.368333,-6735.874072,1302.362347
1191.433988,8290.306550,-6143.709319,1455.581446
1191.434318,8364.327145,-4589.276840,1225.752797
1191.434647,8512.368333,-4589.276840,1149.143247
1191.434976,8586.388927,-4367.215058,1302.362347
1191.435306,8586.388927,-4145.153275,1378.971896
1191.435635,8512.368333,-4219.173869,1532.190996
1191.435965,8808.450710,-3849.070898,766.095498
1191.436294,8216.285956,-4441.235652,1225.752797
1191.436623,7772.162391,-4293.194464,1455.581446
1191.436953,8290.306550,-4589.276840,689.485948
1191.437282,8734.430116,-5773.606348,1072.533697
1191.437612,8290.306550,-5477.523971,1072.533697
1191.437941,8068.244768,-5551.544565,306.438199
1191.438270,7624.121203,-5773.606348,383.047749
1191.438600,7624.121203,-5625.565159,919.314598
1191.438929,7846.182985,-5995.668130,612.876398
1191.439259,8364.327145,-5181.441594,1225.752797
1191.439588,8586.388927,-4663.297435,1685.410096
1191.439917,9030.512492,-3997.112087,1378.971896
1191.440247,8956.491898,-3627.009116,1532.190996
1191.440576,9548.656652,-3478.967927,1072.533697
1191.440906,9992.780217,-2516.700203,1685.410096
1191.441235,9548.656652,-2960.823768,1915.238745
1191.441564,9696.697840,-3627.009116,1072.533697
1191.441894,9104.533087,-4441.235652,1455.581446
1191.442223,8956.491898,-5847.626942,1225.752797
1191.442553,8364.327145,-5995.668130,766.095498
1191.442882,7994.224174,-6587.832884,919.314598
1191.443211,7550.100608,-6291.750507,536.266849
1191.443541,7105.977043,-6587.832884,689.485948
1191.443870,7846.182985,-6587.832884,689.485948
1191.444200,7772.162391,-5773.606348,1072.533697
1191.444529,7624.121203,-5033.400406,919.314598
1191.444858,7920.203579,-5181.441594,459.657299
1191.445188,7994.224174,-4885.359217,689.485948
1191.445517,9104.533087,-4737.318029,459.657299
1191.445847,8956.491898,-4219.173869,995.924147
1191.446176,9474.636058,-4663.297435,689.485948
1191.446505,9770.718434,-4885.359217,919.314598
1191.446835,9474.636058,-5107.421000,919.314598
1191.447164,9030.512492,-5255.462188,919.314598
1191.447494,8808.450710,-5181.441594,612.876398
1191.447823,8290.306550,-5773.606348,1455.581446
1191.448152,7920.203579,-6143.709319,919.314598
1191.448482,7550.100608,-5921.647536,1149.143247
1191.448811,7920.203579,-5625.565159,1149.143247
1191.449141,6957.935855,-5625.565159,1072.533697
1191.449470,7105.977043,-5625.565159,1072.533697
1191.449799,7550.100608,-5329.482782,1455.581446
1191.450129,8512.368333,-4959.379811,2374.896044
1191.450458,8808.450710,-4663.297435,1915.238745
1191.450788,8364.327145,-4663.297435,1685.410096
1191.451117,8290.306550,-5255.462188,1302.362347
1191.451446,8290.306550,-5551.544565,1072.533697
1191.451776,8216.285956,-6291.750507,919.314598
1191.452105,7624.121203,-6883.915261,842.705048
1191.452435,7105.977043,-6661.853478,76.609550
1191.452764,6587.832884,-6809.894666,-229.828649
1191.453093,6735.874072,-6735.874072,0.000000
1191.453423,6587.832884,-7402.059420,0.000000
1191.453752,6217.729913,-7476.080014,0.000000
1191.454082,5995.668130,-7994.224174,306.438199
1191.454411,6143.709319,-7476.080014,76.609550
1191.454740,6217.729913,-7254.018232,1378.971896
1191.455070,7328.038826,-7920.203579,1532.190996
1191.455399,7772.162391,-7254.018232,1685.410096
1191.455729,7772.162391,-6883.915261,2068.457845
1191.456058,7624.121203,-6587.832884,1225.752797
1191.456387,7254.018232,-6217.729913,1225.752797
1191.456717,7105.977043,-6217.729913,1225.752797
1191.457046,6735.874072,-5773.606348,612.876398
1191.457376,6661.853478,-5255.462188,153.219100
1191.457705,6661.853478,-4885.359217,919.314598
1191.458034,7031.956449,-5033.400406,536.266849
1191.458364,7476.080014,-5699.585753,459.657299
1191.458693,7920.203579,-5107.421000,919.314598
1191.459023,7994.224174,-5107.421000,1149.143247
1191.459352,8438.347739,-5255.462188,1991.848295
1191.459681,8808.450710,-4885.359217,2451.505594
1191.460011,8808.450710,-5773.606348,2681.334243
1191.460340,8512.368333,-5181.441594,2681.334243
1191.460670,7624.121203,-6217.729913,2145.067394
1191.460999,6809.894666,-7179.997637,2145.067394
1191.461328,6143.709319,-8142.265362,1838.629195
1191.461658,5107.421000,-8364.327145,995.924147
1191.461987,3923.091493,-8068.244768,459.657299
1191.462317,3923.091493,-7920.203579,76.609550
1191.462646,4589.276840,-7920.203579,-612.876398
1191.462975,4811.338623,-7624.121203,-306.438199
1191.463305,5477.523971,-6957.935855,-229.828649
1191.463634,5921.647536,-6217.729913,0.000000
1191.463964,7105.977043,-6513.812290,919.314598
1191.464293,7624.121203,-6291.750507,995.924147
1191.464622,8364.327145,-6883.915261,2145.067394
1191.464952,8734.430116,-6291.750507,2757.943793
1191.465281,8586.388927,-6883.915261,2757.943793
1191.465611,8290.306550,-6661.853478,3294.210641
1191.465940,8068.244768,-6291.750507,2834.553343
1191.466269,6735.874072,-6957.935855,2221.676944
1191.466599,6217.729913,-7105.977043,1838.629195
1191.466928,6143.709319,-7328.038826,842.705048
1191.467258,5921.647536,-6365.771101,153.219100
1191.467587,5847.626942,-6069.688724,0.000000
1191.467916,6217.729913,-5699.585753,-306.438199
1191.468246,6365.771101,-5329.482782,-612.876398
1191.468575,6809.894666,-5255.462188,-229.828649
1191.468905,6439.791695,-6587.832884,-383.047749
1191.469234,6957.935855,-6513.812290,229.828649
1191.469563,7105.977043,-7105.977043,842.705048
1191.469893,7402.059420,-7328.038826,2221.676944
1191.470222,7698.141797,-7624.121203,2451.505594
1191.470552,8586.388927,-7179.997637,3447.429741
1191.470881,8956.491898,-6143.709319,3524.039291
1191.471210,8956.491898,-5699.585753,3294.210641
1191.471540,8142.265362,-5107.421000,2451.505594
1191.471869,7328.038826,-4811.338623,1838.629195
1191.472199,7105.977043,-5329.482782,689.485948
1191.472528,6439.791695,-4959.379811,-229.828649
1191.472857,5847.626942,-5773.606348,-459.657299
1191.473187,6069.688724,-5995.668130,-1072.533697
1191.473516,6217.729913,-6439.791695,-1225.752797
1191.473846,6143.709319,-6809.894666,-995.924147
1191.474175,6291.750507,-8216.285956,0.000000
1191.474504,6735.874072,-8586.388927,306.438199
1191.474834,6809.894666,-8068.244768,919.314598
1191.475163,6735.874072,-7846.182985,1991.848295
1191.475493,7476.080014,-7550.100608,2681.334243
1191.475822,8142.265362,-7105.977043,3370.820191
1191.476151,8734.430116,-6365.771101,3370.820191
1191.476481,8808.450710,-5033.400406,2987.772442
1191.476810,8290.306550,-4441.235652,2068.457845
1191.477140,7624.121203,-4441.235652,842.705048
1191.477469,6661.853478,-4293.194464,76.609550
1191.477798,6439.791695,-4663.297435,-766.095498
1191.478128,6365.771101,-4737.318029,-995.924147
1191.478457,6735.874072,-5921.647536,-766.095498
1191.478787,6661.853478,-6217.729913,-459.657299
1191.479116,7179.997637,-7105.977043,0.000000
1191.479445,7105.977043,-7920.203579,536.266849
1191.479775,7105.977043,-8808.450710,1302.362347
1191.480104,6365.771101,-9030.512492,2221.676944
1191.480434,6661.853478,-8068.244768,2374.896044
1191.480763,6439.791695,-7846.182985,2451.505594
1191.481092,6439.791695,-7698.141797,3064.381992
1191.481422,6957.935855,-7402.059420,2757.943793
1191.481751,7179.997637,-6069.688724,2145.067394
1191.482081,6439.791695,-5329.482782,1608.800546
1191.482410,6513.812290,-5033.400406,536.266849
1191.482739,5921.647536,-5329.482782,-383.047749
1191.483069,5995.668130,-6143.709319,-536.266849
1191.483398,6069.688724,-5847.626942,-1608.800546
1191.483728,5551.544565,-6069.688724,-1225.752797
1191.484057,5995.668130,-7031.956449,-689.485948
1191.484386,7105.977043,-7328.038826,1072.533697
1191.484716,8216.285956,-8364.327145,2604.724693
1191.485045,8734.430116,-7328.038826,3294.210641
1191.485374,8290.306550,-6439.791695,3447.429741
1191.485703,7476.080014,-7476.080014,3600.648841
1191.486033,8068.244768,-6661.853478,3294.210641
1191.486362,7624.121203,-5773.606348,3294.210641
1191.486691,6587.832884,-5107.421000,1532.190996
1191.487021,6291.750507,-4959.379811,1378.971896
1191.487350,7105.977043,-5699.585753,153.219100
1191.487679,7328.038826,-5847.626942,0.000000
1191.488009,7179.997637,-5329.482782,-689.485948
1191.488338,6069.688724,-5403.503377,-1608.800546
1191.488667,6143.709319,-5847.626942,-1149.143247
1191.488997,6143.709319,-7772.162391,-842.705048
1191.489326,6143.709319,-8068.244768,-536.266849
1191.489655,5995.668130,-8882.471304,689.485948
1191.489985,6587.832884,-9474.636058,2145.067394
1191.490314,7105.977043,-8660.409521,2681.334243
1191.490643,7105.977043,-7994.224174,3677.258390
1191.490973,8216.285956,-6587.832884,3447.429741
1191.491302,9178.553681,-5403.503377,3524.039291
1191.491631,8586.388927,-4441.235652,2681.334243
1191.491961,7476.080014,-3849.070898,1532.190996
1191.492290,7105.977043,-4737.318029,612.876398
1191.492619,7550.100608,-5181.441594,-842.705048
1191.492949,6587.832884,-6217.729913,-1149.143247
1191.493278,6143.709319,-5995.668130,-1455.581446
1191.493607,5847.626942,-6957.935855,-1915.238745
1191.493937,5625.565159,-7846.182985,-689.485948
1191.494266,6069.688724,-8660.409521,0.000000
1191.494595,5773.606348,-9178.553681,153.219100
1191.494925,5847.626942,-9178.553681,1455.581446
1191.495254,6513.812290,-8364.327145,2298.286494
1191.495583,7772.162391,-8364.327145,2451.505594
1191.495912,8290.306550,-6587.832884,3370.820191
1191.496242,8586.388927,-5921.647536,3370.820191
1191.496571,8512.368333,-4885.359217,2757.943793
1191.496900,8290.306550,-4441.235652,2298.286494
1191.497230,8216.285956,-3849.070898,689.485948
1191.497559,7920.203579,-3552.988522,153.219100
1191.497888,7105.977043,-4515.256246,-766.095498
1191.498218,7254.018232,-4219.173869,-1302.362347
1191.498547,6661.853478,-4959.379811,-995.924147
1191.498876,6735.874072,-6365.771101,-1149.143247
1191.499206,6439.791695,-7698.141797,0.000000
1191.499535,6143.709319,-8660.409521,306.438199
1191.499864,5847.626942,-8882.471304,1072.533697
1191.500194,6365.771101,-9400.615463,2298.286494
1191.500523,6809.894666,-8734.430116,2987.772442
1191.500852,7105.977043,-7476.080014,3140.991542
1191.501182,7105.977043,-6883.915261,3140.991542
1191.501511,7105.977043,-5773.606348,2451.505594
1191.501840,7402.059420,-5181.441594,842.705048
1191.502170,6365.771101,-6069.688724,612.876398
1191.502499,6291.750507,-6291.750507,-76.609550
1191.502828,6143.709319,-7031.956449,-1225.752797
1191.503158,5847.626942,-6513.812290,-612.876398
1191.503487,5847.626942,-6661.853478,-1378.971896
1191.503816,5625.565159,-7179.997637,-1225.752797
1191.504146,5921.647536,-7624.121203,0.000000
1191.504475,6513.812290,-8068.244768,1455.581446
1191.504804,6661.853478,-7402.059420,1608.800546
1191.505134,7105.977043,-6291.750507,2604.724693
1191.505463,8512.368333,-5995.668130,3677.258390
1191.505792,9252.574275,-5625.565159,4596.572988
1191.506122,9400.615463,-5699.585753,3983.696590
1191.506451,8290.306550,-4071.132681,3217.601092
1191.506780,7624.121203,-4515.256246,1685.410096
1191.507109,7031.956449,-5329.482782,536.266849
1191.507439,6513.812290,-6439.791695,383.047749
1191.507768,6513.812290,-6365.771101,-766.095498
1191.508097,7105.977043,-5551.544565,-1378.971896
1191.508427,6587.832884,-6661.853478,-1915.238745
1191.508756,5773.606348,-7105.977043,-1149.143247
1191.509085,4811.338623,-7846.182985,-1072.533697
1191.509415,5033.400406,-8956.491898,-612.876398
1191.509744,5329.482782,-9178.553681,383.047749
1191.510073,5699.585753,-9474.636058,2374.896044
1191.510403,6883.915261,-8734.430116,3677.258390
1191.510732,7550.100608,-7105.977043,4366.744339
1191.511061,8808.450710,-5551.544565,3907.087040
1191.511391,9104.533087,-4367.215058,3524.039291
1191.511720,9030.512492,-3627.009116,2681.334243
1191.512049,8290.306550,-3256.906145,1532.190996
1191.512379,6883.915261,-4219.173869,0.000000
1191.512708,6513.812290,-5255.462188,-995.924147
1191.513037,6365.771101,-6217.729913,-1838.629195
1191.513367,5403.503377,-6957.935855,-1915.238745
1191.513696,5329.482782,-7772.162391,-766.095498
1191.514025,5773.606348,-8956.491898,-612.876398
1191.514355,5847.626942,-8956.491898,-229.828649
1191.514684,5255.462188,-8586.388927,689.485948
1191.515013,6143.709319,-8882.471304,1991.848295
1191.515343,7476.080014,-8512.368333,2681.334243
1191.515672,8216.285956,-7772.162391,4060.306139
1191.516001,8290.306550,-5477.523971,3907.087040
1191.516331,8956.491898,-4441.235652,3753.867940
1191.516660,9474.636058,-3923.091493,2451.505594
1191.516989,8734.430116,-3627.009116,1608.800546
1191.517319,7550.100608,-3849.070898,0.000000
1191.517648,7328.038826,-4441.235652,-459.657299
1191.517977,7476.080014,-4737.318029,-1378.971896
1191.518306,7105.977043,-5329.482782,-1685.410096
1191.518636,6883.915261,-5921.647536,-1302.362347
1191.518965,6587.832884,-7105.977043,-689.485948
1191.519294,6217.729913,-7994.224174,0.000000
1191.519624,6143.709319,-8438.347739,536.266849
1191.519953,5551.544565,-8882.471304,1762.019645
1191.520282,6069.688724,-8734.430116,2145.067394
1191.520612,6513.812290,-8068.244768,2604.724693
1191.520941,7179.997637,-7402.059420,3370.820191
1191.521270,7698.141797,-7254.018232,3294.210641
1191.521600,7476.080014,-6291.750507,2528.115143
1191.521929,7105.977043,-5847.626942,1685.410096
1191.522258,6661.853478,-5329.482782,0.000000
1191.522588,5921.647536,-5921.647536,-842.705048
1191.522917,6069.688724,-7105.977043,-1302.362347
1191.523246,6735.874072,-6587.832884,-1149.143247
1191.523576,6365.771101,-6513.812290,-1378.971896
1191.523905,6439.791695,-6883.915261,-842.705048
1191.524234,5921.647536,-7105.977043,536.266849
1191.524564,6143.709319,-7772.162391,995.924147
1191.524893,6883.915261,-7476.080014,1915.238745
1191.525222,7698.141797,-6143.709319,3524.039291
1191.525552,8512.368333,-5551.544565,3983.696590
1191.525881,8956.491898,-4737.318029,4366.744339
1191.526210,8882.471304,-5107.421000,3677.258390
1191.526540,8512.368333,-5033.400406,2451.505594
1191.526869,7476.080014,-4737.318029,995.924147
1191.527198,6735.874072,-5773.606348,689.485948
1191.527528,6957.935855,-5995.668130,0.000000
1191.527857,6957.935855,-6587.832884,-76.609550
1191.528186,7031.956449,-5699.585753,-995.924147
1191.528516,6217.729913,-6069.688724,-1532.190996
1191.528845,5847.626942,-7254.018232,-689.485948
1191.529174,5477.523971,-7698.141797,-536.266849
1191.529503,5033.400406,-8808.450710,0.000000
1191.529833,5107.421000,-9104.533087,842.705048
1191.530162,5625.565159,-8956.491898,2604.724693
1191.530491,7402.059420,-8734.430116,3677.258390
1191.530821,8068.244768,-6883.915261,3907.087040
1191.531150,8068.244768,-5847.626942,3677.258390
1191.531479,8438.347739,-4737.318029,3140.991542
1191.531809,9104.533087,-3923.091493,2528.115143
1191.532138,7846.182985,-4737.318029,689.485948
1191.532467,7105.977043,-4663.297435,0.000000
1191.532797,6883.915261,-5625.565159,-1072.533697
1191.533126,6661.853478,-6291.750507,-1302.362347
1191.533455,5847.626942,-6883.915261,-1762.019645
1191.533785,5477.523971,-7624.121203,-1072.533697
1191.534114,5625.565159,-7698.141797,-612.876398
1191.534443,5625.565159,-8660.409521,153.219100
1191.534773,5699.585753,-8364.327145,1685.410096
1191.535102,5995.668130,-8512.368333,2451.505594
1191.535431,7179.997637,-7698.141797,3524.039291
1191.535761,8438.347739,-6291.750507,4366.744339
1191.536090,9622.677246,-4737.318029,3983.696590
1191.536419,10066.800811,-4367.215058,4213.525239
1191.536749,8956.491898,-4145.153275,1991.848295
1191.537078,7328.038826,-4663.297435,306.438199
1191.537407,6069.688724,-4293.194464,-612.876398
1191.537737,6809.894666,-5773.606348,-1378.971896
1191.538066,7254.018232,-6439.791695,-842.705048
1191.538395,7402.059420,-5773.606348,-842.705048
1191.538725,6513.812290,-6513.812290,-766.095498
1191.539054,6291.750507,-6883.915261,-383.047749
1191.539383,5773.606348,-8142.265362,-306.438199
1191.539712,5255.462188,-9252.574275,536.266849
1191.540042,4885.359217,-9030.512492,1378.971896
1191.540371,5773.606348,-9252.574275,2374.896044
1191.540700,6513.812290,-7920.203579,3064.381992
1191.541030,7402.059420,-7476.080014,3983.696590
1191.541359,7994.224174,-6809.894666,3677.258390
1191.541688,8364.327145,-4515.256246,2374.896044
1191.542018,7031.956449,-4885.359217,612.876398
1191.542347,6513.812290,-5181.441594,-306.438199
1191.542676,7105.977043,-5625.565159,-689.485948
1191.543006,7105.977043,-6217.729913,-995.924147
1191.543335,6661.853478,-5551.544565,-1225.752797
1191.543664,6069.688724,-6513.812290,-919.314598
1191.543994,6735.874072,-6809.894666,-383.047749
1191.544323,6661.853478,-7328.038826,306.438199
1191.544652,6365.771101,-7920.203579,1455.581446
1191.544982,7402.059420,-7179.997637,2681.334243
1191.545311,7994.224174,-6513.812290,3140.991542
1191.545640,8290.306550,-6957.935855,3294.210641
1191.545970,8512.368333,-6069.688724,3524.039291
1191.546299,8586.388927,-5107.421000,3140.991542
1191.546628,8216.285956,-5329.482782,2374.896044
1191.546958,7031.956449,-4959.379811,1608.800546
1191.547287,7031.956449,-4885.359217,0.000000
1191.547616,6365.771101,-5477.523971,-306.438199
1191.547946,7105.977043,-5699.585753,-919.314598
1191.548275,6957.935855,-5773.606348,-1225.752797
1191.548604,6217.729913,-5551.544565,-842.705048
1191.548934,5699.585753,-6957.935855,-1149.143247
1191.549263,5625.565159,-7920.203579,-383.047749
1191.549592,5181.441594,-9178.553681,383.047749
1191.549922,5329.482782,-9400.615463,1915.238745
1191.550251,7031.956449,-8660.409521,3140.991542
1191.550580,7624.121203,-7624.121203,3677.258390
1191.550909,8512.368333,-7105.977043,4213.525239
1191.551239,8882.471304,-5995.668130,4443.353888
1191.551568,9104.533087,-4589.276840,3524.039291
1191.551897,8216.285956,-4145.153275,2068.457845
1191.552227,6957.935855,-4293.194464,153.219100
1191.552556,6217.729913,-5477.523971,-536.266849
1191.552885,6143.709319,-7105.977043,-1149.143247
1191.553215,6513.812290,-7402.059420,-1149.143247
1191.553544,5107.421000,-7476.080014,-1608.800546
1191.553873,4737.318029,-7476.080014,-1225.752797
1191.554203,5033.400406,-8586.388927,-459.657299
1191.554532,5699.585753,-9104.533087,689.485948
1191.554861,5625.565159,-8882.471304,2374.896044
1191.555191,6439.791695,-7402.059420,2451.505594
1191.555520,7994.224174,-6809.894666,4060.306139
1191.555849,9326.594869,-5477.523971,4826.401637
1191.556179,10362.883188,-4737.318029,4826.401637
1191.556508,9992.780217,-3923.091493,3447.429741
1191.556837,8512.368333,-3997.112087,1991.848295
1191.557167,7328.038826,-4367.215058,306.438199
1191.557496,6661.853478,-4737.318029,76.609550
1191.557825,6291.750507,-6587.832884,-689.485948
1191.558155,5995.668130,-5921.647536,-1455.581446
1191.558484,6069.688724,-6513.812290,-1838.629195
1191.558813,5995.668130,-7105.977043,-919.314598
1191.559143,5773.606348,-7179.997637,0.000000
1191.559472,5403.503377,-8290.306550,-536.266849
1191.559801,5329.482782,-9252.574275,842.705048
1191.560131,5551.544565,-8808.450710,1838.629195
1191.560460,6661.853478,-8808.450710,3600.648841
1191.560789,7772.162391,-7105.977043,3677.258390
1191.561119,8512.368333,-5921.647536,4060.306139
1191.561448,8956.491898,-5995.668130,3677.258390
1191.561777,8734.430116,-4737.318029,2068.457845
1191.562106,7179.997637,-4959.379811,229.828649
1191.562436,6661.853478,-4885.359217,-306.438199
1191.562765,6217.729913,-6217.729913,-1225.752797
1191.563094,6217.729913,-6735.874072,-1225.752797
1191.563424,5625.565159,-6883.915261,-1378.971896
1191.563753,5255.462188,-7550.100608,-766.095498
1191.564082,5551.544565,-7476.080014,-612.876398
1191.564412,5995.668130,-7698.141797,0.000000
1191.564741,6883.915261,-7624.121203,1302.362347
1191.565070,7402.059420,-6809.894666,2451.505594
1191.565400,8734.430116,-6809.894666,3830.477490
1191.565729,9474.636058,-5477.523971,3983.696590
1191.566058,9474.636058,-4811.338623,3753.867940
1191.566388,9326.594869,-4885.359217,3294.210641
1191.566717,8364.327145,-4663.297435,2757.943793
1191.567046,7179.997637,-4885.359217,766.095498
1191.567376,6513.812290,-4737.318029,-383.047749
1191.567705,6883.915261,-5773.606348,-153.219100
1191.568034,7179.997637,-6291.750507,-1072.533697
1191.568364,6587.832884,-6661.853478,-1302.362347
1191.568693,5403.503377,-6957.935855,-1302.362347
1191.569022,5033.400406,-7772.162391,-919.314598
1191.569352,5255.462188,-8438.347739,-229.828649
1191.569681,4811.338623,-9104.533087,1149.143247
1191.570010,5551.544565,-8882.471304,1991.848295
1191.570340,6883.915261,-8734.430116,3217.601092
1191.570669,8142.265362,-7105.977043,3830.477490
1191.570998,8512.368333,-5921.647536,4366.744339
1191.571328,8734.430116,-4885.359217,3983.696590
1191.571657,8808.450710,-4515.256246,2528.115143
1191.571986,7698.141797,-4737.318029,1532.190996
1191.572315,6883.915261,-4885.359217,383.047749
1191.572645,6365.771101,-5625.565159,-306.438199
1191.572974,6735.874072,-6809.894666,-1378.971896
1191.573303,5847.626942,-7476.080014,-1378.971896
1191.573633,5033.400406,-8068.244768,-1225.752797
1191.573962,4737.318029,-8142.265362,-842.705048
1191.574291,5847.626942,-8512.368333,-612.876398
1191.574621,5477.523971,-9326.594869,229.828649
1191.574950,5477.523971,-9030.512492,1608.800546
1191.575279,6439.791695,-8734.430116,3217.601092
1191.575609,7328.038826,-6957.935855,3677.258390
1191.575938,8660.409521,-5477.523971,4443.353888
1191.576267,9992.780217,-4145.153275,3907.087040
1191.576597,10140.821405,-3404.947333,3600.648841
1191.576926,8882.471304,-3627.009116,2145.067394
1191.577255,7772.162391,-3997.112087,229.828649
1191.577585,6661.853478,-4589.276840,-689.485948
1191.577914,5995.668130,-5403.503377,-1532.190996
1191.578243,6957.935855,-6069.688724,-995.924147
1191.578573,6883.915261,-6513.812290,-1072.533697
1191.578902,6957.935855,-7402.059420,-766.095498
1191.579231,6217.729913,-7772.162391,-306.438199
1191.579561,5551.544565,-8364.327145,0.000000
1191.579890,5477.523971,-9474.636058,995.924147
1191.580219,5921.647536,-8660.409521,1915.238745
1191.580549,6735.874072,-7994.224174,3140.991542
1191.580878,7624.121203,-7328.038826,3524.039291
1191.581207,8290.306550,-6809.894666,3600.648841
1191.581537,8438.347739,-5847.626942,2681.334243
1191.581866,7476.080014,-4811.338623,1608.800546
1191.582195,6365.771101,-5329.482782,76.609550
1191.582524,5847.626942,-5625.565159,-689.485948
1191.582853,6291.750507,-6291.750507,-1378.971896
1191.583183,6587.832884,-6217.729913,-1225.752797
1191.583512,6217.729913,-7031.956449,-1455.581446
1191.583841,6143.709319,-7328.038826,-689.485948
1191.584170,6513.812290,-7105.977043,-383.047749
1191.584499,6513.812290,-7698.141797,76.609550
1191.584828,7179.997637,-7920.203579,1608.800546
1191.585157,7328.038826,-7254.018232,2374.896044
1191.585486,7698.141797,-7550.100608,3447.429741
1191.585815,7846.182985,-6513.812290,3370.820191
1191.586145,8068.244768,-5329.482782,3753.867940
1191.586474,8660.409521,-5033.400406,2681.334243
1191.586803,8290.306550,-4663.297435,2681.334243
1191.587132,7698.141797,-4959.379811,1225.752797
1191.587461,7105.977043,-4515.256246,229.828649
1191.587790,7031.956449,-4811.338623,-842.705048
1191.588119,7179.997637,-5403.503377,-995.924147
1191.588448,6735.874072,-5847.626942,-1225.752797
1191.588778,5995.668130,-6809.894666,-1072.533697
1191.589107,6217.729913,-7179.997637,-306.438199
1191.589436,5847.626942,-8438.347739,842.705048
1191.589765,5773.606348,-8734.430116,1378.971896
1191.590094,5699.585753,-8142.265362,2145.067394
1191.590423,6217.729913,-8216.285956,2604.724693
1191.590752,6735.874072,-7105.977043,3447.429741
1191.591081,7254.018232,-6661.853478,3830.477490
1191.591411,8142.265362,-5921.647536,3600.648841
1191.591740,8290.306550,-4811.338623,2451.505594
1191.592069,7031.956449,-4885.359217,1149.143247
1191.592398,6439.791695,-5033.400406,383.047749
1191.592727,6513.812290,-6661.853478,-153.219100
1191.593056,6735.874072,-6809.894666,-1225.752797
1191.593385,5773.606348,-7105.977043,-1915.238745
1191.593714,5181.441594,-7179.997637,-1608.800546
1191.594043,5847.626942,-8364.327145,-459.657299
1191.594373,5995.668130,-8882.471304,842.705048
1191.594702,5847.626942,-7920.203579,1455.581446
1191.595031,6513.812290,-6883.915261,2681.334243
1191.595360,7328.038826,-5773.606348,3217.601092
1191.595689,8290.306550,-5847.626942,4213.525239
1191.596018,8734.430116,-5329.482782,3983.696590
1191.596347,8808.450710,-4293.194464,3064.381992
1191.596676,8438.347739,-4441.235652,2145.067394
1191.597006,7994.224174,-4737.318029,1149.143247
1191.597335,7179.997637,-5773.606348,536.266849
1191.597664,7105.977043,-6217.729913,0.000000
1191.597993,7698.141797,-6365.771101,-689.485948
1191.598322,7254.018232,-6217.729913,-612.876398
1191.598651,6957.935855,-5625.565159,-842.705048
1191.598980,6513.812290,-6291.750507,-919.314598
1191.599309,5847.626942,-7402.059420,-689.485948
1191.599638,5477.523971,-8512.368333,229.828649
1191.599968,5403.503377,-8956.491898,1149.143247
1191.600297,5699.585753,-9104.533087,2068.457845
1191.600626,6513.812290,-8438.347739,2681.334243
1191.600955,6957.935855,-7105.977043,3370.820191
1191.601284,7328.038826,-7031.956449,3370.820191
1191.601613,7994.224174,-5847.626942,3064.381992
1191.601942,8068.244768,-5107.421000,1685.410096
1191.602271,7254.018232,-5181.441594,0.000000
1191.602601,6809.894666,-5773.606348,-689.485948
1191.602930,6957.935855,-7105.977043,-1149.143247
1191.603259,7402.059420,-6809.894666,-995.924147
1191.603588,6661.853478,-6143.709319,-689.485948
1191.603917,6587.832884,-6587.832884,-689.485948
1191.604246,6365.771101,-6513.812290,0.000000
1191.604575,6439.791695,-7179.997637,1149.143247
1191.604904,6439.791695,-7476.080014,1302.362347
1191.605233,6809.894666,-6809.894666,2068.457845
1191.605563,7476.080014,-7402.059420,3370.820191
1191.605892,8438.347739,-6587.832884,3907.087040
1191.606221,8734.430116,-5995.668130,3524.039291
1191.606550,8586.388927,-5551.544565,3064.381992
1191.606879,8438.347739,-4737.318029,2068.457845
1191.607208,7772.162391,-4737.318029,766.095498
1191.607537,7550.100608,-4441.235652,383.047749
1191.607866,7550.100608,-4737.318029,-689.485948
1191.608196,7105.977043,-5551.544565,-1455.581446
1191.608525,6439.791695,-5625.565159,-1149.143247
1191.608854,5921.647536,-6883.915261,-1302.362347
1191.609183,6291.750507,-7105.977043,-536.266849
1191.609512,4737.318029,-8734.430116,0.000000
1191.609841,4737.318029,-9252.574275,995.924147
1191.610170,5403.503377,-8882.471304,2145.067394
1191.610499,6661.853478,-8216.285956,2604.724693
1191.610829,7476.080014,-7179.997637,3907.087040
1191.611158,7994.224174,-6587.832884,4060.306139
1191.611487,8956.491898,-6069.688724,3447.429741
1191.611816,8660.409521,-5107.421000,2374.896044
1191.612145,7402.059420,-5107.421000,1225.752797
1191.612474,6883.915261,-4737.318029,0.000000
1191.612803,6957.935855,-5403.503377,-842.705048
1191.613132,7105.977043,-5921.647536,-995.924147
1191.613461,6217.729913,-6365.771101,-995.924147
1191.613791,5625.565159,-7031.956449,-1532.190996
1191.614120,5181.441594,-7846.182985,-766.095498
1191.614449,4737.318029,-9104.533087,0.000000
1191.614778,5329.482782,-9178.553681,1149.143247
1191.615107,6217.729913,-9252.574275,2528.115143
1191.615436,7105.977043,-8142.265362,3064.381992
1191.615765,7846.182985,-6587.832884,4443.353888
1191.616094,9104.533087,-5477.523971,4136.915689
1191.616424,9696.697840,-4663.297435,3600.648841
1191.616753,9474.636058,-3775.050304,2604.724693
1191.617082,7994.224174,-3923.091493,1149.143247
1191.617411,7179.997637,-3775.050304,536.266849
1191.617740,7624.121203,-4589.276840,-229.828649
1191.618069,7550.100608,-5181.441594,-1225.752797
1191.618398,7031.956449,-5699.585753,-1149.143247
1191.618727,6291.750507,-6513.812290,-1225.752797
1191.619056,5625.565159,-7105.977043,-766.095498
1191.619386,5181.441594,-7846.182985,-383.047749
1191.619715,4959.379811,-9474.636058,306.438199
1191.620044,5477.523971,-9474.636058,1608.800546
1191.620373,6217.729913,-9030.512492,2757.943793
1191.620702,6957.935855,-7920.203579,2987.772442
1191.621031,7254.018232,-7402.059420,3753.867940
1191.621360,8068.244768,-7105.977043,3600.648841
1191.621689,7920.203579,-5625.565159,2451.505594
1191.622019,7179.997637,-4959.379811,1455.581446
1191.622348,6513.812290,-4515.256246,0.000000
1191.622677,6439.791695,-4959.379811,-459.657299
1191.623006,6883.915261,-6661.853478,-919.314598
1191.623335,7328.038826,-6069.688724,-1149.143247
1191.623664,6291.750507,-6661.853478,-1149.143247
1191.623993,5847.626942,-7105.977043,0.000000
1191.624322,6069.688724,-6735.874072,0.000000
1191.624651,6291.750507,-7698.141797,612.876398
1191.624981,6883.915261,-7328.038826,1838.629195
1191.625310,7402.059420,-7179.997637,2451.505594
1191.625639,8216.285956,-7105.977043,3370.820191
1191.625968,8438.347739,-6217.729913,3983.696590
1191.626297,8734.430116,-5255.462188,3217.601092
1191.626626,8808.450710,-4811.338623,2834.553343
1191.626955,8290.306550,-4589.276840,1838.629195
1191.627284,7402.059420,-4293.194464,995.924147
1191.627614,7105.977043,-4219.173869,0.000000
1191.627943,7328.038826,-4737.318029,-1532.190996
1191.628272,7105.977043,-5403.503377,-1302.362347
1191.628601,6513.812290,-7105.977043,-766.095498
1191.628930,5921.647536,-7994.224174,-1302.362347
1191.629259,5329.482782,-7920.203579,-306.438199
1191.629588,4885.359217,-9104.533087,0.000000
1191.629917,5107.421000,-8882.471304,1378.971896
1191.630246,5847.626942,-8808.450710,2528.115143
1191.630576,7105.977043,-8216.285956,3294.210641
1191.630905,7698.141797,-6291.750507,2911.162892
1191.631234,8290.306550,-5847.626942,3677.258390
1191.631563,9474.636058,-4885.359217,3524.039291
1191.631892,9326.594869,-5033.400406,2528.115143
1191.632221,7402.059420,-4737.318029,842.705048
1191.632550,6587.832884,-4663.297435,-306.438199
1191.632879,6439.791695,-5921.647536,-1302.362347
1191.633209,5921.647536,-6069.688724,-1532.190996
1191.633538,5847.626942,-7328.038826,-1608.800546
1191.633867,5107.421000,-7772.162391,-1149.143247
1191.634196,5181.441594,-8808.450710,-689.485948
1191.634525,5181.441594,-9474.636058,842.705048
1191.634854,5329.482782,-8734.430116,2068.457845
1191.635183,6143.709319,-7994.224174,2528.115143
1191.635512,7550.100608,-6439.791695,3524.039291
1191.635842,8808.450710,-5625.565159,4519.963438
1191.636171,9918.759623,-5329.482782,4596.572988
1191.636500,9918.759623,-4663.297435,3677.258390
1191.636829,8808.450710,-3849.070898,2221.676944
1191.637158,7920.203579,-4219.173869,536.266849
1191.637487,7328.038826,-5329.482782,306.438199
1191.637816,7550.100608,-6143.709319,612.876398
1191.638145,7179.997637,-5995.668130,-766.095498
1191.638474,6735.874072,-5329.482782,-1302.362347
1191.638804,5847.626942,-6365.771101,-1149.143247
1191.639133,5181.441594,-7402.059420,-842.705048
1191.639462,4737.318029,-8882.471304,-229.828649
1191.639791,4663.297435,-9474.636058,612.876398
1191.640120,5033.400406,-8956.491898,1838.629195
1191.640449,6069.688724,-8586.388927,2911.162892
1191.640778,7550.100608,-7328.038826,3524.039291
1191.641107,8364.327145,-6587.832884,3983.696590
1191.641437,8882.471304,-6291.750507,3370.820191
1191.641766,8734.430116,-5033.400406,2451.505594
1191.642095,7476.080014,-4589.276840,766.095498
1191.642424,6883.915261,-5033.400406,-1072.533697
1191.642753,6809.894666,-6513.812290,-1072.533697
1191.643082,6735.874072,-7105.977043,-1302.362347
1191.643411,6587.832884,-6661.853478,-1072.533697
1191.643740,5773.606348,-7105.977043,-995.924147
1191.644069,6217.729913,-7698.141797,-842.705048
1191.644399,5921.647536,-7402.059420,-459.657299
1191.644728,5477.523971,-7772.162391,612.876398
1191.645057,6365.771101,-7624.121203,1762.019645
1191.645386,7624.121203,-7254.018232,3447.429741
1191.645715,8734.430116,-6587.832884,3600.648841
1191.646044,8956.491898,-5995.668130,3677.258390
1191.646373,9326.594869,-4811.338623,3370.820191
1191.646702,9178.553681,-4737.318029,2987.772442
1191.647032,8882.471304,-4663.297435,2068.457845
1191.647361,7994.224174,-4219.173869,383.047749
1191.647690,7772.162391,-4071.132681,-306.438199
1191.648019,7476.080014,-4885.359217,-1378.971896
1191.648348,6661.853478,-5625.565159,-1072.533697
1191.648677,5551.544565,-6661.853478,-1302.362347
1191.649006,5181.441594,-7994.224174,-995.924147
1191.649335,4959.379811,-8364.327145,-383.047749
1191.649664,4737.318029,-9326.594869,459.657299
1191.649994,5403.503377,-9548.656652,1762.019645
1191.650323,6365.771101,-8660.409521,2681.334243
1191.650652,7179.997637,-7402.059420,3600.648841
1191.650981,8364.327145,-5995.668130,3830.477490
1191.651310,9474.636058,-5477.523971,3983.696590
1191.651639,9252.574275,-5181.441594,3217.601092
1191.651968,8068.244768,-5033.400406,2145.067394
1191.652297,6735.874072,-5107.421000,306.438199
1191.652627,5921.647536,-5403.503377,-612.876398
1191.652956,6365.771101,-6291.750507,-1762.019645
1191.653285,5921.647536,-7031.956449,-1302.362347
1191.653614,5107.421000,-7994.224174,-1072.533697
1191.653943,4145.153275,-8364.327145,-1302.362347
1191.654272,4515.256246,-8956.491898,-689.485948
1191.654601,4737.318029,-9474.636058,229.828649
1191.654930,5477.523971,-9178.553681,2221.676944
1191.655260,6661.853478,-7698.141797,2987.772442
1191.655589,7994.224174,-5699.585753,3983.696590
1191.655918,9474.636058,-4293.194464,4673.182538
1191.656247,10584.944971,-4071.132681,4903.011187
1191.656576,10362.883188,-3330.926739,3677.258390
1191.656905,9104.533087,-3701.029710,2145.067394
1191.657234,7920.203579,-3997.112087,842.705048
1191.657563,6587.832884,-4737.318029,0.000000
1191.657892,5551.544565,-5773.606348,-1149.143247
1191.658222,6661.853478,-6439.791695,-919.314598
1191.658551,6587.832884,-6587.832884,-995.924147
1191.658880,6365.771101,-7846.182985,-766.095498
1191.659209,5107.421000,-8068.244768,-612.876398
1191.659538,4663.297435,-8660.409521,-383.047749
1191.659867,4367.215058,-10584.944971,536.266849
1191.660196,5255.462188,-9178.553681,1762.019645
1191.660525,6513.812290,-8438.347739,3294.210641
1191.660855,7994.224174,-7031.956449,3600.648841
1191.661184,8512.368333,-6439.791695,3753.867940
1191.661513,8808.450710,-5847.626942,3370.820191
1191.661842,8882.471304,-4959.379811,1532.190996
1191.662171,7476.080014,-4293.194464,459.657299
1191.662500,6809.894666,-4885.359217,-229.828649
1191.662829,6661.853478,-6439.791695,-842.705048
1191.663158,6143.709319,-6957.935855,-1532.190996
1191.663487,6217.729913,-7402.059420,-1302.362347
1191.663817,5699.585753,-7698.141797,-919.314598
1191.664146,5921.647536,-7772.162391,-459.657299
1191.664475,6143.709319,-7254.018232,76.609550
1191.664804,6291.750507,-7179.997637,1072.533697
1191.665133,7105.977043,-7254.018232,2298.286494
1191.665462,8068.244768,-6809.894666,3600.648841
1191.665791,8660.409521,-6069.688724,3524.039291
1191.666120,9030.512492,-5107.421000,3600.648841
1191.666450,9030.512492,-4737.318029,3217.601092
1191.666779,9400.615463,-4441.235652,2528.115143
1191.667108,8734.430116,-4441.235652,1225.752797
1191.667437,8290.306550,-4219.173869,459.657299
1191.667766,7402.059420,-5329.482782,-766.095498
1191.668095,7179.997637,-5329.482782,-1072.533697
1191.668424,5847.626942,-6217.729913,-1762.019645
1191.668753,5181.441594,-7624.121203,-1685.410096
1191.669082,5181.441594,-8068.244768,-612.876398
1191.669412,5255.462188,-9252.574275,0.000000
1191.669741,4737.318029,-9474.636058,919.314598
1191.670070,5403.503377,-8660.409521,1685.410096
1191.670399,6069.688724,-8364.327145,2681.334243
1191.670728,7624.121203,-7105.977043,2987.772442
1191.671057,7994.224174,-6513.812290,3677.258390
1191.671386,8734.430116,-5699.585753,3600.648841
1191.671715,8512.368333,-5033.400406,2681.334243
1191.672045,7624.121203,-5403.503377,1532.190996
1191.672374,6809.894666,-4737.318029,76.609550
1191.672703,6809.894666,-5699.585753,-1072.533697
1191.673032,6957.935855,-6883.915261,-919.314598
1191.673361,6735.874072,-6883.915261,-612.876398
1191.673690,5403.503377,-6809.894666,-1149.143247
1191.674019,4959.379811,-6957.935855,-383.047749
1191.674348,5255.462188,-8216.285956,383.047749
1191.674677,5403.503377,-8734.430116,1455.581446
1191.675007,5995.668130,-7994.224174,2451.505594
1191.675336,6883.915261,-6587.832884,3140.991542
1191.675665,8216.285956,-5699.585753,4060.306139
1191.675994,9326.594869,-5329.482782,4290.134789
1191.676323,9918.759623,-5107.421000,4213.525239
1191.676652,8882.471304,-4737.318029,2987.772442
1191.676981,7698.141797,-5255.462188,1378.971896
1191.677310,6587.832884,-5181.441594,383.047749
1191.677640,6809.894666,-5625.565159,-383.047749
1191.677969,7328.038826,-5995.668130,-536.266849
1191.678298,7179.997637,-5477.523971,-689.485948
1191.678627,6661.853478,-5477.523971,-1225.752797
1191.678956,6069.688724,-6143.709319,-766.095498
1191.679285,5847.626942,-7624.121203,-612.876398
1191.679614,5181.441594,-8734.430116,229.828649
1191.679943,5107.421000,-9474.636058,1455.581446
1191.680273,5847.626942,-8808.450710,2374.896044
1191.680602,6735.874072,-7846.182985,2681.334243
1191.680931,7624.121203,-7105.977043,3294.210641
1191.681260,8808.450710,-6883.915261,3677.258390
1191.681589,8882.471304,-5995.668130,3524.039291
1191.681918,8068.244768,-5551.544565,1378.971896
1191.682247,6587.832884,-5107.421000,-306.438199
1191.682576,5625.565159,-5255.462188,-1225.752797
1191.682905,6365.771101,-6587.832884,-1532.190996
1191.683235,6735.874072,-6661.853478,-1225.752797
1191.683564,6513.812290,-6661.853478,-919.314598
1191.683893,6439.791695,-6661.853478,-612.876398
1191.684222,6365.771101,-6957.935855,0.000000
1191.684551,6291.750507,-6735.874072,459.657299
1191.684880,6661.853478,-7402.059420,1378.971896
1191.685210,7254.018232,-7254.018232,2451.505594
1191.685539,8142.265362,-7254.018232,3524.039291
1191.685868,8882.471304,-6291.750507,3753.867940
1191.686197,9178.553681,-5773.606348,3830.477490
1191.686527,8882.471304,-5403.503377,3140.991542
1191.686856,8438.347739,-5773.606348,2221.676944
1191.687185,7920.203579,-4515.256246,842.705048
1191.687514,7179.997637,-4293.194464,-919.314598
1191.687844,7328.038826,-4811.338623,-689.485948
1191.688173,6957.935855,-5329.482782,-1455.581446
1191.688502,6143.709319,-5921.647536,-1685.410096
1191.688831,5255.462188,-7179.997637,-995.924147
1191.689161,5181.441594,-7920.203579,-842.705048
1191.689490,4441.235652,-9178.553681,229.828649
1191.689819,5033.400406,-9030.512492,1149.143247
1191.690148,5699.585753,-8882.471304,1915.238745
1191.690478,7031.956449,-7698.141797,3064.381992
1191.690807,8216.285956,-6513.812290,3753.867940
1191.691136,8438.347739,-6957.935855,3907.087040
1191.691466,8956.491898,-5995.668130,3677.258390
1191.691795,8882.471304,-5107.421000,2451.505594
1191.692124,7550.100608,-5033.400406,1302.362347
1191.692453,6587.832884,-4737.318029,0.000000
1191.692783,6365.771101,-5995.668130,-536.266849
1191.693112,6365.771101,-6439.791695,-919.314598
1191.693441,5477.523971,-6587.832884,-1838.629195
1191.693770,5033.400406,-7105.977043,-1685.410096
1191.694100,4885.359217,-8364.327145,-842.705048
1191.694429,5033.400406,-9474.636058,612.876398
1191.694758,5625.565159,-8882.471304,1991.848295
1191.695087,6587.832884,-7994.224174,2987.772442
1191.695417,7550.100608,-6291.750507,3064.381992
1191.695746,8586.388927,-5921.647536,4136.915689
1191.696075,9474.636058,-5033.400406,4673.182538
1191.696404,9622.677246,-4811.338623,3830.477490
1191.696734,9104.533087,-3775.050304,2451.505594
1191.697063,7624.121203,-3849.070898,919.314598
1191.697392,7031.956449,-4737.318029,-153.219100
1191.697721,7105.977043,-5551.544565,0.000000
1191.698051,7328.038826,-5773.606348,-919.314598
1191.698380,6883.915261,-5255.462188,-689.485948
1191.698709,6365.771101,-5847.626942,-1455.581446
1191.699038,5551.544565,-7179.997637,-1225.752797
1191.699368,5255.462188,-8364.327145,-383.047749
1191.699697,5255.462188,-9844.739029,536.266849
1191.700026,5773.606348,-9252.574275,1685.410096
1191.700355,6217.729913,-8660.409521,2374.896044
1191.700685,7105.977043,-8068.244768,2834.553343
1191.701014,7994.224174,-6883.915261,3677.258390
1191.701343,9104.533087,-6587.832884,3294.210641
1191.701672,8512.368333,-5699.585753,2451.505594
1191.702002,7328.038826,-4663.297435,1072.533697
1191.702331,6809.894666,-4515.256246,0.000000
1191.702660,6735.874072,-5995.668130,-919.314598
1191.702989,6957.935855,-6735.874072,-1302.362347
1191.703319,5995.668130,-7031.956449,-1378.971896
1191.703648,5181.441594,-6587.832884,-1455.581446
1191.703977,5477.523971,-6957.935855,-995.924147
1191.704306,6291.750507,-6809.894666,-229.828649
1191.704636,7105.977043,-7846.182985,1378.971896
1191.704965,7105.977043,-7254.018232,2068.457845
1191.705294,7624.121203,-6587.832884,2681.334243
1191.705623,8586.388927,-6661.853478,3600.648841
1191.705953,9400.615463,-5921.647536,3907.087040
1191.706282,8808.450710,-5477.523971,3600.648841
1191.706611,8734.430116,-4885.359217,3064.381992
1191.706940,8438.347739,-4737.318029,1915.238745
1191.707270,8216.285956,-4589.276840,1149.143247
1191.707599,7105.977043,-4589.276840,-383.047749
1191.707928,6587.832884,-5551.544565,-1685.410096
1191.708257,5847.626942,-6217.729913,-1838.629195
1191.708587,5107.421000,-6883.915261,-1838.629195
1191.708916,4663.297435,-7476.080014,-919.314598
1191.709245,5107.421000,-8290.306550,-459.657299
1191.709574,5107.421000,-9622.677246,306.438199
1191.709904,5329.482782,-9178.553681,1532.190996
1191.710233,6439.791695,-8290.306550,2451.505594
1191.710562,7698.141797,-7031.956449,3064.381992
1191.710891,8586.388927,-6439.791695,4060.306139
1191.711221,8956.491898,-5329.482782,3983.696590
1191.711550,9474.636058,-4811.338623,3600.648841
1191.711879,9030.512492,-5033.400406,1685.410096
1191.712208,7105.977043,-5033.400406,1149.143247
1191.712538,6143.709319,-5699.585753,-536.266849
1191.712867,5921.647536,-6513.812290,-1302.362347
1191.713196,5847.626942,-7105.977043,-1225.752797
1191.713525,5403.503377,-7254.018232,-1532.190996
1191.713855,4811.338623,-7772.162391,-1072.533697
1191.714184,4811.338623,-8364.327145,-536.266849
1191.714513,4959.379811,-8364.327145,383.047749
1191.714842,6143.709319,-7846.182985,1915.238745
1191.715172,7254.018232,-6883.915261,3447.429741
1191.715501,8586.388927,-5847.626942,3907.087040
1191.715830,9326.594869,-4959.379811,4443.353888
1191.716160,9696.697840,-4663.297435,3907.087040
1191.716489,9770.718434,-4219.173869,3294.210641
1191.716818,8660.409521,-4589.276840,1991.848295
1191.717147,7402.059420,-5847.626942,919.314598
1191.717477,7031.956449,-6217.729913,383.047749
1191.717806,6587.832884,-6661.853478,-612.876398
1191.718135,5625.565159,-6069.688724,-1378.971896
1191.718464,5107.421000,-6809.894666,-1915.238745
1191.718794,4959.379811,-7476.080014,-1991.848295
1191.719123,5107.421000,-7920.203579,-1225.752797
1191.719452,5107.421000,-8808.450710,-459.657299
1191.719781,5329.482782,-9030.512492,689.485948
1191.720111,5847.626942,-8882.471304,1838.629195
1191.720440,6957.935855,-8586.388927,3294.210641
1191.720769,7846.182985,-7031.956449,3524.039291
1191.721098,8586.388927,-5773.606348,4060.306139
1191.721428,9326.594869,-5699.585753,3447.429741
1191.721757,9030.512492,-4885.359217,2451.505594
1191.722086,8142.265362,-5033.400406,1685.410096
1191.722415,7179.997637,-4885.359217,0.000000
1191.722745,6735.874072,-5921.647536,-689.485948
1191.723074,6513.812290,-6587.832884,-1302.362347
1191.723403,5699.585753,-6513.812290,-1378.971896
1191.723732,5625.565159,-7105.977043,-1608.800546
1191.724062,5773.606348,-7179.997637,-1225.752797
1191.724391,5329.482782,-7772.162391,-306.438199
1191.724720,5921.647536,-7920.203579,689.485948
1191.725049,7031.956449,-7624.121203,2374.896044
1191.725379,8216.285956,-6809.894666,3524.039291
1191.725708,9104.533087,-6143.709319,3907.087040
1191.726037,8734.430116,-5477.523971,4060.306139
1191.726366,9622.677246,-4737.318029,3600.648841
1191.726696,9252.574275,-4737.318029,3064.381992
1191.727025,8586.388927,-4219.173869,2374.896044
1191.727354,7328.038826,-4441.235652,153.219100
1191.727683,6735.874072,-4959.379811,-995.924147
1191.728013,6661.853478,-5403.503377,-1608.800546
1191.728342,6365.771101,-6661.853478,-1532.190996
1191.728671,5403.503377,-7105.977043,-1608.800546
1191.729000,5033.400406,-7994.224174,-1378.971896
1191.729330,4737.318029,-8660.409521,-766.095498
1191.729659,4663.297435,-9104.533087,229.828649
1191.729988,5255.462188,-9622.677246,1302.362347
1191.730317,6143.709319,-8364.327145,2681.334243
1191.730647,7698.141797,-7476.080014,3524.039291
1191.730976,8956.491898,-6069.688724,4136.915689
1191.731305,9474.636058,-4737.318029,3983.696590
1191.731634,9104.533087,-4811.338623,3064.381992
1191.731964,8808.450710,-5403.503377,2757.943793
1191.732293,7254.018232,-5033.400406,153.219100
1191.732622,6291.750507,-5329.482782,-995.924147
1191.732951,5995.668130,-6217.729913,-1455.581446
1191.733281,5773.606348,-7254.018232,-1685.410096
1191.733610,5107.421000,-8438.347739,-1532.190996
1191.733939,4367.215058,-8438.347739,-919.314598
1191.734268,4959.379811,-8364.327145,-459.657299
1191.734598,5699.585753,-9104.533087,1685.410096
1191.734927,5995.668130,-9104.533087,2451.505594
1191.735256,7031.956449,-6587.832884,3447.429741
1191.735585,8290.306550,-5255.462188,3753.867940
1191.735915,9474.636058,-4367.215058,4290.134789
1191.736244,9918.759623,-4219.173869,3983.696590
1191.736573,9400.615463,-4663.297435,3140.991542
1191.736902,8068.244768,-4145.153275,1378.971896
1191.737232,7254.018232,-5107.421000,536.266849
1191.737561,7105.977043,-6217.729913,0.000000
1191.737890,7328.038826,-6291.750507,-842.705048
1191.738219,7105.977043,-5921.647536,-536.266849
1191.738549,6957.935855,-5773.606348,-1302.362347
1191.738878,5921.647536,-6513.812290,-1532.190996
1191.739207,5107.421000,-7476.080014,-919.314598
1191.739536,4663.297435,-8808.450710,-536.266849
1191.739866,4737.318029,-10510.924376,766.095498
1191.740195,5329.482782,-9178.553681,1991.848295
1191.740524,6143.709319,-8438.347739,2757.943793
1191.740853,7328.038826,-7105.977043,3600.648841
1191.741183,8142.265362,-5995.668130,3524.039291
1191.741512,8956.491898,-5847.626942,2987.772442
1191.741841,8364.327145,-4737.318029,2068.457845
1191.742171,7920.203579,-4811.338623,536.266849
1191.742500,7105.977043,-5033.400406,-383.047749
1191.742829,7402.059420,-5995.668130,-1072.533697
1191.743158,7179.997637,-7105.977043,-919.314598
1191.743488,6069.688724,-6513.812290,-1378.971896
1191.743817,5921.647536,-7105.977043,-766.095498
1191.744146,5995.668130,-7105.977043,-612.876398
1191.744475,5921.647536,-7105.977043,76.609550
1191.744805,6143.709319,-7846.182985,1455.581446
1191.745134,7254.018232,-7994.224174,2681.334243
1191.745463,6957.935855,-7402.059420,3294.210641
1191.745792,7772.162391,-6291.750507,3294.210641
1191.746122,8216.285956,-5033.400406,3294.210641
1191.746451,9104.533087,-5107.421000,3677.258390
1191.746780,9326.594869,-5107.421000,3294.210641
1191.747109,8882.471304,-4589.276840,1455.581446
1191.747439,7476.080014,-4145.153275,76.609550
1191.747768,7698.141797,-4663.297435,-842.705048
1191.748097,7328.038826,-5995.668130,-766.095498
1191.748426,6735.874072,-6069.688724,-919.314598
1191.748756,5847.626942,-6957.935855,-1378.971896
1191.749085,5403.503377,-7402.059420,-766.095498
1191.749414,5033.400406,-8808.450710,0.000000
1191.749743,4959.379811,-9400.615463,612.876398
1191.750073,4959.379811,-9030.512492,1915.238745
1191.750402,5995.668130,-7994.224174,2604.724693
1191.750731,6957.935855,-7624.121203,3600.648841
1191.751060,7772.162391,-6587.832884,4060.306139
1191.751390,9326.594869,-5255.462188,3447.429741
1191.751719,9400.615463,-4441.235652,2987.772442
1191.752048,8216.285956,-5403.503377,1838.629195
1191.752377,7105.977043,-5329.482782,306.438199
1191.752707,7031.956449,-5107.421000,-1072.533697
1191.753036,6661.853478,-6513.812290,-1225.752797
1191.753365,6069.688724,-6735.874072,-1685.410096
1191.753694,5403.503377,-7772.162391,-1455.581446
1191.754024,4811.338623,-8660.409521,-842.705048
1191.754353,4293.194464,-9178.553681,-229.828649
1191.754682,4441.235652,-9252.574275,1225.752797
1191.755011,5329.482782,-8290.306550,2068.457845
1191.755341,6735.874072,-7105.977043,2757.943793
1191.755670,8364.327145,-5477.523971,3907.087040
1191.755999,9474.636058,-4959.379811,4136.915689
1191.756328,10214.842000,-4145.153275,3907.087040
1191.756658,9326.594869,-4293.194464,2834.553343
1191.756987,8068.244768,-4367.215058,1378.971896
1191.757316,7254.018232,-4145.153275,306.438199
1191.757645,7328.038826,-5921.647536,0.000000
1191.757975,7698.141797,-5921.647536,-459.657299
1191.758304,7105.977043,-5625.565159,-766.095498
1191.758633,6217.729913,-5847.626942,-1838.629195
1191.758962,5329.482782,-6661.853478,-995.924147
1191.759292,4737.318029,-8142.265362,-995.924147
1191.759621,4589.276840,-8734.430116,0.000000
1191.759950,4959.379811,-9474.636058,459.657299
1191.760279,5625.565159,-8438.347739,2604.724693
1191.760609,7402.059420,-7624.121203,3064.381992
1191.760938,8142.265362,-7031.956449,3753.867940
1191.761267,8734.430116,-6291.750507,3830.477490
1191.761596,9178.553681,-5033.400406,3140.991542
1191.761926,9474.636058,-4737.318029,2145.067394
1191.762255,8068.244768,-4515.256246,306.438199
1191.762584,7179.997637,-5329.482782,-383.047749
1191.762913,6735.874072,-7031.956449,-1072.533697
1191.763243,6661.853478,-7328.038826,-995.924147
1191.763572,5699.585753,-6587.832884,-1532.190996
1191.763901,5255.462188,-7105.977043,-919.314598
1191.764230,5255.462188,-7402.059420,-536.266849
1191.764560,5477.523971,-7476.080014,76.609550
1191.764889,6069.688724,-7846.182985,1608.800546
1191.765218,7179.997637,-7328.038826,2528.115143
1191.765547,8290.306550,-7105.977043,3524.039291
1191.765877,9178.553681,-6143.709319,3983.696590
1191.766206,9030.512492,-5773.606348,3217.601092
1191.766535,9474.636058,-5329.482782,3447.429741
1191.766865,9474.636058,-4737.318029,2681.334243
1191.767194,9030.512492,-4515.256246,1455.581446
1191.767523,7846.182985,-4367.215058,0.000000
1191.767852,7105.977043,-4737.318029,-995.924147
1191.768182,5995.668130,-6439.791695,-1991.848295
1191.768511,4811.338623,-6439.791695,-1915.238745
1191.768840,4589.276840,-7254.018232,-1762.019645
1191.769169,4737.318029,-7624.121203,-919.314598
1191.769499,4959.379811,-8290.306550,0.000000
1191.769828,4959.379811,-9178.553681,1072.533697
1191.770157,5921.647536,-8364.327145,2374.896044
1191.770486,6957.935855,-7624.121203,2757.943793
1191.770816,8290.306550,-6365.771101,3753.867940
1191.771145,9178.553681,-6217.729913,4213.525239
1191.771474,9548.656652,-5477.523971,3907.087040
1191.771803,8660.409521,-4737.318029,2451.505594
1191.772133,7772.162391,-5255.462188,1072.533697
1191.772462,7402.059420,-5255.462188,-383.047749
1191.772791,6217.729913,-6143.709319,-995.924147
1191.773120,5699.585753,-6735.874072,-1685.410096
1191.773450,4737.318029,-7105.977043,-2145.067394
1191.773779,4441.235652,-7772.162391,-1608.800546
1191.774108,5033.400406,-7994.224174,-766.095498
1191.774437,5181.441594,-8956.491898,0.000000
1191.774767,5625.565159,-8882.471304,1302.362347
1191.775096,6661.853478,-8512.368333,2451.505594
1191.775425,8142.265362,-7402.059420,3600.648841
1191.775754,9104.533087,-6217.729913,4903.011187
1191.776084,9992.780217,-4811.338623,4596.572988
1191.776413,10214.842000,-3923.091493,3677.258390
1191.776742,9252.574275,-3775.050304,2834.553343
1191.777071,8438.347739,-4145.153275,842.705048
1191.777401,7328.038826,-4515.256246,153.219100
1191.777730,7031.956449,-4959.379811,-536.266849
1191.778059,6661.853478,-5773.606348,-1378.971896
1191.778388,6439.791695,-5773.606348,-1378.971896
1191.778718,5551.544565,-6735.874072,-1455.581446
1191.779047,5181.441594,-7476.080014,-1149.143247
1191.779376,5255.462188,-8216.285956,-306.438199
1191.779705,5551.544565,-8808.450710,459.657299
1191.780035,5699.585753,-8734.430116,1915.238745
1191.780364,6809.894666,-8660.409521,3140.991542
1191.780693,8068.244768,-7772.162391,3600.648841
1191.781022,8734.430116,-6365.771101,3907.087040
1191.781352,8882.471304,-5699.585753,3677.258390
1191.781681,8438.347739,-4737.318029,2681.334243
1191.782010,7698.141797,-5033.400406,1302.362347
1191.782339,6291.750507,-5699.585753,-689.485948
1191.782669,5773.606348,-5699.585753,-1302.362347
1191.782998,5773.606348,-6587.832884,-1991.848295
1191.783327,5477.523971,-6883.915261,-1685.410096
1191.783656,4959.379811,-7846.182985,-1225.752797
1191.783986,4959.379811,-8068.244768,-842.705048
1191.784315,5477.523971,-7772.162391,-306.438199
1191.784644,6069.688724,-8068.244768,1302.362347
1191.784973,7179.997637,-7476.080014,2145.067394
1191.785303,7698.141797,-7698.141797,3447.429741
1191.785632,8586.388927,-6735.874072,4213.525239
1191.785961,9104.533087,-5625.565159,4290.134789
1191.786290,9252.574275,-4885.359217,3524.039291
1191.786620,9326.594869,-4367.215058,2681.334243
1191.786949,8882.471304,-4737.318029,1915.238745
1191.787278,7994.224174,-4737.318029,766.095498
1191.787607,7254.018232,-4293.194464,-536.266849
1191.787937,6883.915261,-5699.585753,-995.924147
1191.788266,6143.709319,-5921.647536,-1532.190996
1191.788595,4885.359217,-6735.874072,-1685.410096
1191.788924,4885.359217,-8068.244768,-1378.971896
1191.789253,5477.523971,-8364.327145,-383.047749
1191.789583,5255.462188,-9104.533087,612.876398
1191.789912,5329.482782,-8808.450710,1225.752797
1191.790241,6439.791695,-8364.327145,2681.334243
1191.790570,7402.059420,-7105.977043,3217.601092
1191.790900,7994.224174,-6439.791695,3830.477490
1191.791229,9400.615463,-5699.585753,4366.744339
1191.791558,9770.718434,-4885.359217,3753.867940
1191.791887,8586.388927,-4737.318029,2221.676944
1191.792216,7550.100608,-4441.235652,459.657299
1191.792546,6291.750507,-4811.338623,-383.047749
1191.792875,6291.750507,-6587.832884,-1225.752797
1191.793204,5921.647536,-7105.977043,-1302.362347
1191.793533,4959.379811,-7698.141797,-1149.143247
1191.793862,4663.297435,-7698.141797,-1838.629195
1191.794192,4589.276840,-8586.388927,-689.485948
1191.794521,4589.276840,-8734.430116,229.828649
1191.794850,5551.544565,-8660.409521,1532.190996
1191.795179,6809.894666,-8290.306550,2681.334243
1191.795509,7846.182985,-6883.915261,3677.258390
1191.795838,8956.491898,-5921.647536,4290.134789
1191.796167,9918.759623,-4663.297435,4136.915689
1191.796496,9992.780217,-3775.050304,3830.477490
1191.796825,9400.615463,-3404.947333,2757.943793
1191.797155,8734.430116,-3997.112087,1149.143247
1191.797484,7772.162391,-4293.194464,0.000000
1191.797813,6883.915261,-5329.482782,-919.314598
1191.798142,6513.812290,-5403.503377,-1378.971896
1191.798472,5995.668130,-6217.729913,-1378.971896
1191.798801,5995.668130,-7476.080014,-1378.971896
1191.799130,5477.523971,-8068.244768,-919.314598
1191.799459,4737.318029,-8808.450710,-383.047749
1191.799788,5033.400406,-9400.615463,383.047749
1191.800118,5255.462188,-9696.697840,1608.800546
1191.800447,6513.812290,-9252.574275,3064.381992
1191.800776,7772.162391,-7698.141797,3600.648841
1191.801105,8660.409521,-5477.523971,3294.210641
1191.801434,8882.471304,-5921.647536,3447.429741
1191.801764,8808.450710,-4959.379811,2451.505594
1191.802093,7994.224174,-5033.400406,1225.752797
1191.802422,7031.956449,-4515.256246,-229.828649
1191.802751,6069.688724,-5181.441594,-1225.752797
1191.803081,5995.668130,-6587.832884,-1378.971896
1191.803410,5699.585753,-7105.977043,-1378.971896
1191.803739,5329.482782,-7698.141797,-1302.362347
1191.804068,5551.544565,-7698.141797,-459.657299
1191.804397,5995.668130,-7476.080014,0.000000
1191.804727,6291.750507,-8068.244768,995.924147
1191.805056,6809.894666,-7402.059420,2528.115143
1191.805385,8290.306550,-7105.977043,3907.087040
1191.805714,9030.512492,-5847.626942,4366.744339
1191.806044,9474.636058,-5033.400406,3983.696590
1191.806373,9400.615463,-4367.215058,3447.429741
1191.806702,9030.512492,-4219.173869,2604.724693
1191.807031,8290.306550,-4885.359217,1532.190996
1191.807360,7254.018232,-4589.276840,229.828649
1191.807690,6735.874072,-4737.318029,-689.485948
1191.808019,6661.853478,-5403.503377,-1685.410096
1191.808348,5773.606348,-6143.709319,-1532.190996
1191.808677,5699.585753,-7476.080014,-1378.971896
1191.809007,5255.462188,-8364.327145,-842.705048
1191.809336,4737.318029,-8512.368333,-459.657299
1191.809665,4737.318029,-9030.512492,383.047749
1191.809994,5403.503377,-9104.533087,1149.143247
1191.810323,6809.894666,-8512.368333,3370.820191
1191.810653,8216.285956,-7920.203579,3907.087040
1191.810982,8882.471304,-5625.565159,4213.525239
1191.811311,9474.636058,-4663.297435,3907.087040
1191.811640,9400.615463,-4737.318029,3753.867940
1191.811969,8142.265362,-5255.462188,2451.505594
1191.812299,6513.812290,-5107.421000,612.876398
1191.812628,5995.668130,-5329.482782,-919.314598
1191.812957,6143.709319,-6587.832884,-1455.581446
1191.813286,5477.523971,-7402.059420,-1838.629195
1191.813616,4737.318029,-8734.430116,-1378.971896
1191.813945,4737.318029,-8512.368333,-919.314598
1191.814274,4737.318029,-8808.450710,0.000000
1191.814603,4959.379811,-8882.471304,842.705048
1191.814932,5773.606348,-8882.471304,2145.067394
1191.815262,7105.977043,-7105.977043,3600.648841
1191.815591,8586.388927,-6069.688724,4136.915689
1191.815920,9548.656652,-5107.421000,4826.401637
1191.816249,10510.924376,-4441.235652,4519.963438
1191.816579,9474.636058,-3997.112087,2911.162892
1191.816908,8290.306550,-4145.153275,1378.971896
1191.817237,7254.018232,-5107.421000,306.438199
1191.817566,7105.977043,-6069.688724,-229.828649
1191.817895,6883.915261,-5847.626942,-689.485948
1191.818225,6217.729913,-5329.482782,-1149.143247
1191.818554,5847.626942,-6291.750507,-1838.629195
1191.818883,5477.523971,-7624.121203,-1225.752797
1191.819212,5551.544565,-8290.306550,153.219100
1191.819541,5033.400406,-8216.285956,0.000000
1191.819871,5329.482782,-8068.244768,383.047749
1191.820200,6069.688724,-8438.347739,2298.286494
1191.820529,7179.997637,-7846.182985,3294.210641
1191.820858,8512.368333,-6587.832884,4213.525239
1191.821188,9030.512492,-4959.379811,3830.477490
1191.821517,9252.574275,-4959.379811,3217.601092
1191.821846,8956.491898,-4737.318029,2681.334243
1191.822175,7920.203579,-5181.441594,1149.143247
1191.822504,7105.977043,-5107.421000,-459.657299
1191.822834,5921.647536,-6513.812290,-1455.581446
1191.823163,5477.523971,-7179.997637,-1532.190996
1191.823492,5181.441594,-7328.038826,-1608.800546
1191.823821,5477.523971,-7550.100608,-1225.752797
1191.824151,5699.585753,-7846.182985,-689.485948
1191.824480,5551.544565,-7328.038826,0.000000
1191.824809,6365.771101,-7624.121203,1149.143247
1191.825138,7698.141797,-7179.997637,2757.943793
1191.825467,9178.553681,-6513.812290,3064.381992
1191.825797,9104.533087,-6217.729913,3830.477490
1191.826126,9178.553681,-5181.441594,3753.867940
1191.826455,9474.636058,-4959.379811,3447.429741
1191.826784,9696.697840,-4811.338623,2604.724693
1191.827114,8882.471304,-4515.256246,1685.410096
1191.827443,7550.100608,-4071.132681,383.047749
1191.827772,7105.977043,-4589.276840,-919.314598
1191.828101,6365.771101,-5921.647536,-1302.362347
1191.828430,6143.709319,-6365.771101,-1762.019645
1191.828760,4959.379811,-7328.038826,-1608.800546
1191.829089,4885.359217,-8438.347739,-995.924147
1191.829418,4737.318029,-9326.594869,0.000000
1191.829747,4885.359217,-9992.780217,612.876398
1191.830076,5625.565159,-9326.594869,1762.019645
1191.830406,6735.874072,-8142.265362,2987.772442
1191.830735,8364.327145,-7402.059420,3907.087040
1191.831064,8808.450710,-5847.626942,4060.306139
1191.831393,9104.533087,-4737.318029,3677.258390
1191.831723,8882.471304,-4367.215058,2987.772442
1191.832052,7846.182985,-4737.318029,1302.362347
1191.832381,7105.977043,-4589.276840,306.438199
1191.832710,6439.791695,-5255.462188,-1072.533697
1191.833039,6365.771101,-6439.791695,-1991.848295
1191.833369,4737.318029,-7105.977043,-1762.019645
1191.833698,4589.276840,-8216.285956,-1455.581446
1191.834027,4663.297435,-8882.471304,-1072.533697
1191.834356,4589.276840,-9474.636058,0.000000
1191.834686,5181.441594,-9474.636058,1072.533697
1191.835015,5847.626942,-8882.471304,2451.505594
1191.835344,7254.018232,-7254.018232,3753.867940
1191.835673,8882.471304,-5773.606348,4826.401637
1191.836002,10807.006753,-4737.318029,5286.058936
1191.836332,10140.821405,-4145.153275,3983.696590
1191.836661,8660.409521,-3256.906145,2451.505594
1191.836990,7624.121203,-3849.070898,766.095498
1191.837319,7105.977043,-4737.318029,383.047749
1191.837649,6513.812290,-5699.585753,-612.876398
1191.837978,6735.874072,-6365.771101,-1072.533697
1191.838307,6291.750507,-5921.647536,-1455.581446
1191.838636,5625.565159,-7402.059420,-1762.019645
1191.838965,4959.379811,-7846.182985,-536.266849
1191.839295,5181.441594,-8734.430116,-459.657299
1191.839624,5181.441594,-8808.450710,0.000000
1191.839953,5551.544565,-8882.471304,842.705048
1191.840282,6587.832884,-8734.430116,2834.553343
1191.840611,8068.244768,-7179.997637,3830.477490
1191.840941,9178.553681,-5995.668130,4136.915689
1191.841270,8808.450710,-4515.256246,3217.601092
1191.841599,8586.388927,-4515.256246,2681.334243
1191.841928,8586.388927,-4737.318029,1455.581446
1191.842258,7254.018232,-4663.297435,153.219100
1191.842587,6735.874072,-5107.421000,-1072.533697
1191.842916,6513.812290,-6883.915261,-1302.362347
1191.843245,5995.668130,-7476.080014,-1532.190996
1191.843574,5403.503377,-8660.409521,-1532.190996
1191.843904,5477.523971,-7846.182985,-766.095498
1191.844233,5403.503377,-8068.244768,-689.485948
1191.844562,5847.626942,-7624.121203,76.609550
1191.844891,6661.853478,-7550.100608,1455.581446
1191.845221,7624.121203,-7105.977043,2451.505594
1191.845550,8808.450710,-6513.812290,3447.429741
1191.845879,9104.533087,-5255.462188,3983.696590
1191.846208,9252.574275,-4515.256246,3983.696590
1191.846537,9252.574275,-3849.070898,3983.696590
1191.846867,9474.636058,-3923.091493,2374.896044
1191.847196,8290.306550,-4145.153275,1072.533697
1191.847525,7846.182985,-4145.153275,-153.219100
1191.847854,7105.977043,-5329.482782,-842.705048
1191.848183,6809.894666,-5921.647536,-689.485948
1191.848513,5699.585753,-6661.853478,-1455.581446
1191.848842,5181.441594,-8216.285956,-766.095498
1191.849171,4885.359217,-8586.388927,-306.438199
1191.849500,4589.276840,-9400.615463,0.000000
1191.849830,4589.276840,-9400.615463,1149.143247
1191.850159,5477.523971,-8512.368333,2298.286494
1191.850488,6439.791695,-7698.141797,3140.991542
1191.850817,8290.306550,-6883.915261,4136.915689
1191.851146,8882.471304,-4367.215058,4213.525239
1191.851476,9326.594869,-4441.235652,3294.210641
1191.851805,9030.512492,-4293.194464,2834.553343
1191.852134,7920.203579,-5551.544565,1378.971896
1191.852463,7031.956449,-5847.626942,0.000000
1191.852793,5995.668130,-5625.565159,-1378.971896
1191.853122,5477.523971,-7179.997637,-1532.190996
1191.853451,4959.379811,-7994.224174,-1455.581446
1191.853780,4589.276840,-8660.409521,-1455.581446
1191.854109,4589.276840,-8808.450710,-1072.533697
1191.854439,4663.297435,-8808.450710,-459.657299
1191.854768,4737.318029,-9474.636058,689.485948
1191.855097,5921.647536,-9178.553681,2451.505594
1191.855426,7105.977043,-7698.141797,3907.087040
1191.855756,8734.430116,-5921.647536,4136.915689
1191.856085,9696.697840,-4145.153275,5209.449386
1191.856414,10436.903782,-3182.885551,4136.915689
1191.856743,9844.739029,-3478.967927,3294.210641
1191.857072,8290.306550,-3701.029710,1915.238745
1191.857402,7624.121203,-3478.967927,-459.657299
1191.857731,7254.018232,-4663.297435,-1072.533697
1191.858060,6957.935855,-5921.647536,-995.924147
1191.858389,6883.915261,-6661.853478,-1149.143247
1191.858718,6143.709319,-6883.915261,-1225.752797
1191.859048,5477.523971,-7328.038826,-1072.533697
1191.859377,4885.359217,-8216.285956,-842.705048
1191.859706,5107.421000,-9030.512492,383.047749
1191.860035,5255.462188,-9400.615463,1149.143247
1191.860365,6217.729913,-8808.450710,2451.505594
1191.860694,7105.977043,-7624.121203,3524.039291
1191.861023,8290.306550,-7179.997637,3600.648841
1191.861352,8808.450710,-6291.750507,3600.648841
1191.861681,8808.450710,-5255.462188,2757.943793
1191.862011,7772.162391,-4589.276840,1149.143247
1191.862340,6957.935855,-4589.276840,0.000000
1191.862669,6809.894666,-5625.565159,-919.314598
1191.862998,7105.977043,-6365.771101,-1532.190996
1191.863328,6809.894666,-6365.771101,-842.705048
1191.863657,5995.668130,-7624.121203,-1225.752797
1191.863986,5773.606348,-7698.141797,-842.705048
1191.864315,5477.523971,-7994.224174,-306.438199
1191.864644,5773.606348,-7994.224174,536.266849
1191.864974,6513.812290,-7402.059420,1762.019645
1191.865303,7254.018232,-7328.038826,3294.210641
1191.865632,7920.203579,-6809.894666,3600.648841
1191.865961,8290.306550,-5403.503377,3677.258390
1191.866290,8956.491898,-4737.318029,3370.820191
1191.866620,8882.471304,-4441.235652,2987.772442
1191.866949,8882.471304,-4441.235652,1991.848295
1191.867278,8364.327145,-4367.215058,536.266849
1191.867607,8068.244768,-3775.050304,-306.438199
1191.867937,7476.080014,-5551.544565,-919.314598
1191.868266,6735.874072,-6217.729913,-1225.752797
1191.868595,5773.606348,-7105.977043,-1608.800546
1191.868924,5107.421000,-7550.100608,-1378.971896
1191.869253,5181.441594,-8216.285956,-842.705048
1191.869583,4885.359217,-9104.533087,536.266849
1191.869912,4959.379811,-8586.388927,919.314598
1191.870241,5847.626942,-8512.368333,2681.334243
1191.870570,7031.956449,-7328.038826,2757.943793
1191.870900,8216.285956,-6439.791695,3753.867940
1191.871229,9030.512492,-5625.565159,4290.134789
1191.871558,9474.636058,-4145.153275,3294.210641
1191.871887,8364.327145,-4737.318029,2374.896044
1191.872216,8142.265362,-4145.153275,1685.410096
1191.872546,6661.853478,-5181.441594,-306.438199
1191.872875,6291.750507,-6809.894666,-1225.752797
1191.873204,5847.626942,-7105.977043,-1378.971896
1191.873533,4737.318029,-8068.244768,-1915.238745
1191.873863,4071.132681,-8216.285956,-919.314598
1191.874192,4737.318029,-9104.533087,-306.438199
1191.874521,4959.379811,-9252.574275,383.047749
1191.874850,5329.482782,-8808.450710,1072.533697
1191.875179,5995.668130,-8290.306550,1915.238745
1191.875509,7402.059420,-7328.038826,3753.867940
1191.875838,9030.512492,-6291.750507,3677.258390
1191.876167,10140.821405,-4959.379811,4366.744339
1191.876496,9992.780217,-3849.070898,3677.258390
1191.876825,9400.615463,-2960.823768,2451.505594
1191.877155,8808.450710,-3478.967927,1072.533697
1191.877484,7698.141797,-4293.194464,306.438199
1191.877813,7254.018232,-5255.462188,-689.485948
1191.878142,6661.853478,-5921.647536,-1302.362347
1191.878472,6291.750507,-5921.647536,-1072.533697
1191.878801,5403.503377,-7031.956449,-1378.971896
1191.879130,4959.379811,-7476.080014,-842.705048
1191.879459,4885.359217,-8660.409521,0.000000
1191.879788,5329.482782,-9400.615463,842.705048
1191.880118,5921.647536,-8216.285956,2068.457845
1191.880447,6587.832884,-7476.080014,2834.553343
1191.880776,8068.244768,-7105.977043,3677.258390
1191.881105,9400.615463,-6291.750507,4519.963438
1191.881435,9326.594869,-5329.482782,3677.258390
1191.881764,8586.388927,-4515.256246,2374.896044
1191.882093,7402.059420,-4737.318029,689.485948
1191.882422,6587.832884,-5477.523971,-229.828649
1191.882751,5921.647536,-6291.750507,-612.876398
1191.883081,5773.606348,-7031.956449,-1838.629195
1191.883410,5181.441594,-7031.956449,-1991.848295
1191.883739,5033.400406,-8068.244768,-1225.752797
1191.884068,5107.421000,-8216.285956,-995.924147
1191.884397,4959.379811,-8068.244768,0.000000
1191.884727,6217.729913,-7698.141797,536.266849
1191.885056,7105.977043,-7328.038826,2298.286494
1191.885385,7994.224174,-7105.977043,3677.258390
1191.885714,8660.409521,-6291.750507,3983.696590
1191.886044,9844.739029,-5477.523971,3600.648841
1191.886373,9844.739029,-4441.235652,3753.867940
1191.886702,9844.739029,-4071.132681,3140.991542
1191.887031,8734.430116,-4145.153275,1455.581446
1191.887361,7698.141797,-4219.173869,766.095498
1191.887690,7254.018232,-4515.256246,0.000000
1191.888019,7105.977043,-5181.441594,-1149.143247
1191.888348,6069.688724,-5995.668130,-1991.848295
1191.888678,4885.359217,-7476.080014,-1838.629195
1191.889007,4811.338623,-8734.430116,-1532.190996
1191.889336,4663.297435,-9548.656652,-306.438199
1191.889665,4589.276840,-9770.718434,459.657299
1191.889994,5403.503377,-9178.553681,1378.971896
1191.890324,6587.832884,-8438.347739,2757.943793
1191.890653,7772.162391,-7328.038826,3370.820191
1191.890982,8882.471304,-6217.729913,4213.525239
1191.891311,9548.656652,-4737.318029,4060.306139
1191.891641,9252.574275,-3849.070898,3064.381992
1191.891970,9030.512492,-4219.173869,2374.896044
1191.892299,7402.059420,-4441.235652,919.314598
1191.892628,6883.915261,-5033.400406,-612.876398
1191.892958,6143.709319,-6439.791695,-1378.971896
1191.893287,5329.482782,-6587.832884,-1608.800546
1191.893616,4885.359217,-7846.182985,-1991.848295
1191.893945,4959.379811,-8438.347739,-1149.143247
1191.894275,4663.297435,-9622.677246,-459.657299
1191.894604,4441.235652,-9326.594869,306.438199
1191.894933,5107.421000,-8956.491898,1149.143247
1191.895262,6513.812290,-8734.430116,2451.505594
1191.895591,8068.244768,-7846.182985,3830.477490
1191.895921,8956.491898,-6957.935855,4749.792088
1191.896250,9474.636058,-5625.565159,4136.915689
1191.896579,9400.615463,-4441.235652,3064.381992
1191.896908,8216.285956,-3478.967927,1532.190996
1191.897238,7846.182985,-3182.885551,229.828649
1191.897567,7476.080014,-3701.029710,-306.438199
1191.897896,8142.265362,-4515.256246,-689.485948
1191.898225,7624.121203,-5403.503377,-459.657299
1191.898555,6957.935855,-4885.359217,-1149.143247
1191.898884,6069.688724,-6439.791695,-1225.752797
1191.899213,5329.482782,-7476.080014,-919.314598
1191.899542,4885.359217,-8734.430116,383.047749
1191.899872,5625.565159,-8956.491898,919.314598
1191.900201,6439.791695,-8586.388927,2451.505594
1191.900530,6661.853478,-8586.388927,2987.772442
1191.900859,7624.121203,-7254.018232,3524.039291
1191.901189,8512.368333,-6587.832884,3830.477490
1191.901518,8586.388927,-5921.647536,2911.162892
1191.901847,7550.100608,-4885.359217,2068.457845
1191.902176,6957.935855,-5033.400406,76.609550
1191.902505,6809.894666,-5403.503377,-229.828649
1191.902835,6365.771101,-6513.812290,-1149.143247
1191.903164,6661.853478,-6291.750507,-1455.581446
1191.903493,5773.606348,-6957.935855,-1302.362347
1191.903822,5699.585753,-7698.141797,-919.314598
1191.904152,5773.606348,-7772.162391,-306.438199
1191.904481,5625.565159,-7846.182985,459.657299
1191.904810,6365.771101,-7994.224174,1378.971896
1191.905139,7179.997637,-7476.080014,2451.505594
1191.905469,8438.347739,-7179.997637,3294.210641
1191.905798,8808.450710,-6587.832884,3983.696590
1191.906127,9104.533087,-4959.379811,3600.648841
1191.906456,9474.636058,-4515.256246,3140.991542
1191.906786,8586.388927,-4515.256246,2528.115143
1191.907115,7920.203579,-3775.050304,1149.143247
1191.907444,7476.080014,-3997.112087,0.000000
1191.907773,6957.935855,-4515.256246,-995.924147
1191.908102,6365.771101,-5551.544565,-1302.362347
1191.908432,6217.729913,-5995.668130,-1378.971896
1191.908761,5551.544565,-7846.182985,-1225.752797
1191.909090,5107.421000,-8216.285956,-612.876398
1191.909419,4737.318029,-9326.594869,0.000000
1191.909749,4885.359217,-9844.739029,689.485948
1191.910078,5921.647536,-9104.533087,2528.115143
1191.910407,7105.977043,-8216.285956,3140.991542
1191.910736,8438.347739,-6809.894666,3983.696590
1191.911066,9474.636058,-5551.544565,4290.134789
1191.911395,9548.656652,-5107.421000,3753.867940
1191.911724,9178.553681,-3849.070898,2757.943793
1191.912053,7846.182985,-4219.173869,1455.581446
1191.912383,6365.771101,-4663.297435,0.000000
1191.912712,5625.565159,-5477.523971,-1378.971896
1191.913041,5847.626942,-6883.915261,-1685.410096
1191.913370,5181.441594,-7624.121203,-1685.410096
1191.913699,4737.318029,-8512.368333,-1532.190996
1191.914029,4589.276840,-9104.533087,-689.485948
1191.914358,4959.379811,-8808.450710,-383.047749
1191.914687,5477.523971,-9474.636058,995.924147
1191.915016,5847.626942,-9178.553681,2145.067394
1191.915346,7105.977043,-8512.368333,3064.381992
1191.915675,8734.430116,-7402.059420,4366.744339
1191.916004,9400.615463,-5773.606348,4366.744339
1191.916333,9992.780217,-4293.194464,3753.867940
1191.916663,9474.636058,-3849.070898,2987.772442
1191.916992,8734.430116,-2812.782580,1455.581446
1191.917321,8216.285956,-3478.967927,842.705048
1191.917650,7698.141797,-3404.947333,-536.266849
1191.917980,6809.894666,-4811.338623,-1532.190996
1191.918309,6291.750507,-5403.503377,-1532.190996
1191.918638,5625.565159,-6735.874072,-1378.971896
1191.918967,5403.503377,-8068.244768,-919.314598
1191.919297,5551.544565,-7846.182985,-459.657299
1191.919626,5699.585753,-9030.512492,536.266849
1191.919955,6513.812290,-9548.656652,1762.019645
1191.920284,7031.956449,-8956.491898,3064.381992
1191.920613,7624.121203,-7920.203579,3677.258390
1191.920943,8216.285956,-6513.812290,3370.820191
1191.921272,8586.388927,-5699.585753,3753.867940
1191.921601,8660.409521,-4885.359217,2528.115143
1191.921930,7920.203579,-4441.235652,1532.190996
1191.922260,7105.977043,-4663.297435,383.047749
1191.922589,6365.771101,-5181.441594,-1072.533697
1191.922918,5625.565159,-6365.771101,-1838.629195
1191.923247,5403.503377,-7105.977043,-2068.457845
1191.923577,4811.338623,-8512.368333,-1378.971896
1191.923906,5107.421000,-8882.471304,-842.705048
1191.924235,5255.462188,-8734.430116,-536.266849
1191.924564,5847.626942,-8216.285956,383.047749
1191.924894,7105.977043,-8216.285956,2145.067394
1191.925223,8586.388927,-7698.141797,4136.915689
1191.925552,8956.491898,-6661.853478,4060.306139
1191.925881,9400.615463,-5181.441594,4290.134789
1191.926210,9400.615463,-4071.132681,3830.477490
1191.926540,9326.594869,-3923.091493,2911.162892
1191.926869,8364.327145,-3849.070898,2451.505594
1191.927198,7846.182985,-3404.947333,919.314598
1191.927527,7328.038826,-3997.112087,-306.438199
1191.927857,6809.894666,-5255.462188,-1072.533697
1191.928186,6217.729913,-6735.874072,-1455.581446
1191.928515,5699.585753,-7179.997637,-1915.238745
1191.928844,5181.441594,-7920.203579,-1378.971896
1191.929174,5403.503377,-9104.533087,-689.485948
1191.929503,5033.400406,-9844.739029,229.828649
1191.929832,5551.544565,-9696.697840,1455.581446
1191.930161,6217.729913,-8956.491898,2681.334243
1191.930491,7550.100608,-7476.080014,3370.820191
1191.930820,8142.265362,-6439.791695,3907.087040
1191.931149,8586.388927,-5329.482782,4443.353888
1191.931478,9400.615463,-4367.215058,3370.820191
1191.931807,8882.471304,-4071.132681,2145.067394
1191.932137,7624.121203,-4441.235652,1149.143247
1191.932466,6291.750507,-4811.338623,-153.219100
1191.932795,6069.688724,-5625.565159,-1608.800546
1191.933124,5847.626942,-7105.977043,-1225.752797
1191.933454,4885.359217,-7920.203579,-1838.629195
1191.933783,4441.235652,-8068.244768,-1532.190996
1191.934112,4737.318029,-9030.512492,-766.095498
1191.934441,4663.297435,-9400.615463,-153.219100
1191.934771,5477.523971,-9030.512492,995.924147
1191.935100,6809.894666,-8512.368333,2604.724693
1191.935429,7846.182985,-7772.162391,3907.087040
1191.935758,9400.615463,-6365.771101,5056.230287
1191.936088,9548.656652,-4219.173869,4979.620737
1191.936417,10066.800811,-3182.885551,3753.867940
1191.936746,9548.656652,-3108.864956,2528.115143
1191.937075,9030.512492,-3552.988522,1302.362347
1191.937405,8290.306550,-3997.112087,0.000000
1191.937734,7031.956449,-4663.297435,-995.924147
1191.938063,6069.688724,-6069.688724,-2145.067394
1191.938392,5403.503377,-7105.977043,-1608.800546
1191.938721,4811.338623,-7624.121203,-1685.410096
1191.939051,5107.421000,-7772.162391,-1302.362347
1191.939380,5033.400406,-8438.347739,-76.609550
1191.939709,5477.523971,-8956.491898,612.876398
1191.940038,6143.709319,-8808.450710,1685.410096
1191.940368,6883.915261,-8216.285956,3447.429741
1191.940697,7698.141797,-7254.018232,3830.477490
1191.941026,8882.471304,-6291.750507,3907.087040
1191.941355,8734.430116,-6069.688724,3830.477490
1191.941685,8216.285956,-5255.462188,2451.505594
1191.942014,7476.080014,-4737.318029,1072.533697
1191.942343,6735.874072,-4959.379811,0.000000
1191.942672,6291.750507,-6217.729913,-1225.752797
1191.943002,6291.750507,-6661.853478,-1378.971896
1191.943331,5551.544565,-7328.038826,-1149.143247
1191.943660,4737.318029,-7698.141797,-1685.410096
1191.943989,4811.338623,-8290.306550,-689.485948
1191.944318,4959.379811,-8438.347739,-306.438199
1191.944648,5995.668130,-7698.141797,306.438199
1191.944977,7254.018232,-7698.141797,2451.505594
1191.945306,8290.306550,-6957.935855,3677.258390
1191.945635,9104.533087,-6291.750507,4213.525239
1191.945965,9474.636058,-5403.503377,4596.572988
1191.946294,9474.636058,-4737.318029,3753.867940
1191.946623,8882.471304,-3775.050304,3370.820191
1191.946952,8660.409521,-3478.967927,1608.800546
1191.947282,8364.327145,-4515.256246,536.266849
1191.947611,7328.038826,-4589.276840,-306.438199
1191.947940,7105.977043,-5625.565159,-612.876398
1191.948269,6365.771101,-5847.626942,-1149.143247
1191.948599,5181.441594,-6883.915261,-1915.238745
1191.948928,4219.173869,-8808.450710,-1608.800546
1191.949257,3849.070898,-8956.491898,-612.876398
1191.949586,4219.173869,-9770.718434,0.000000
1191.949915,5551.544565,-9548.656652,1608.800546
1191.950245,6439.791695,-8734.430116,2834.553343
1191.950574,7772.162391,-7772.162391,3600.648841
1191.950903,9474.636058,-5773.606348,4060.306139
1191.951232,9696.697840,-5033.400406,4290.134789
1191.951562,9548.656652,-3478.967927,3064.381992
1191.951891,8290.306550,-3849.070898,2451.505594
1191.952220,7920.203579,-4589.276840,1149.143247
1191.952549,6661.853478,-4293.194464,-383.047749
1191.952879,5847.626942,-6069.688724,-1378.971896
1191.953208,5551.544565,-6809.894666,-2145.067394
1191.953537,4737.318029,-8364.327145,-1532.190996
1191.953866,4737.318029,-9178.553681,-842.705048
1191.954196,4663.297435,-8586.388927,-1149.143247
1191.954525,4367.215058,-9326.594869,-612.876398
1191.954854,5255.462188,-9252.574275,995.924147
1191.955183,6291.750507,-9326.594869,2528.115143
1191.955513,8068.244768,-8438.347739,3600.648841
1191.955842,9400.615463,-6069.688724,3217.601092
1191.956171,9918.759623,-4737.318029,4213.525239
1191.956500,9992.780217,-4441.235652,3294.210641
1191.956829,9326.594869,-4145.153275,2604.724693
1191.957159,8882.471304,-3627.009116,1455.581446
1191.957488,7624.121203,-3108.864956,0.000000
1191.957817,7105.977043,-4515.256246,-766.095498
1191.958146,6587.832884,-5551.544565,-1455.581446
1191.958476,5403.503377,-6217.729913,-1302.362347
1191.958805,5329.482782,-7179.997637,-1685.410096
1191.959134,5847.626942,-7772.162391,-689.485948
1191.959463,5329.482782,-8882.471304,-153.219100
1191.959793,5625.565159,-8808.450710,1149.143247
1191.960122,6143.709319,-9104.533087,1838.629195
1191.960451,7031.956449,-8364.327145,2911.162892
1191.960780,7994.224174,-7179.997637,3447.429741
1191.961110,8734.430116,-6291.750507,3907.087040
1191.961439,9178.553681,-5181.441594,2987.772442
1191.961768,8364.327145,-4737.318029,1838.629195
1191.962097,7476.080014,-4737.318029,612.876398
1191.962426,6143.709319,-4737.318029,-459.657299
1191.962756,5995.668130,-6217.729913,-1149.143247
1191.963085,5995.668130,-5921.647536,-995.924147
1191.963414,5403.503377,-6957.935855,-1455.581446
1191.963743,5329.482782,-7698.141797,-1149.143247
1191.964073,5255.462188,-8068.244768,-536.266849
1191.964402,5477.523971,-7920.203579,-153.219100
1191.964731,5847.626942,-7698.141797,1072.533697
1191.965060,6883.915261,-7402.059420,2221.676944
1191.965390,7994.224174,-7254.018232,3524.039291
1191.965719,8882.471304,-6661.853478,4213.525239
1191.966048,9178.553681,-4811.338623,4673.182538
1191.966377,9474.636058,-4367.215058,3140.991542
1191.966707,8734.430116,-4293.194464,2911.162892
1191.967036,8512.368333,-4737.318029,1991.848295
1191.967365,7772.162391,-4515.256246,612.876398
1191.967694,7698.141797,-4737.318029,-536.266849
1191.968023,6809.894666,-5847.626942,-1072.533697
1191.968353,6069.688724,-6143.709319,-1302.362347
1191.968682,5107.421000,-7031.956449,-1991.848295
1191.969011,4663.297435,-8216.285956,-919.314598
1191.969340,4441.235652,-9474.636058,-766.095498
1191.969670,4589.276840,-9104.533087,306.438199
1191.969999,5255.462188,-9252.574275,1225.752797
1191.970328,6735.874072,-8216.285956,2987.772442
1191.970657,8512.368333,-7105.977043,3677.258390
1191.970987,8882.471304,-5847.626942,4366.744339
1191.971316,9178.553681,-4663.297435,3830.477490
1191.971645,9178.553681,-4293.194464,2834.553343
1191.971974,8660.409521,-3330.926739,1532.190996
1191.972304,7328.038826,-4441.235652,842.705048
1191.972633,7698.141797,-4811.338623,-76.609550
1191.972962,6735.874072,-5921.647536,-1072.533697
1191.973291,5625.565159,-6809.894666,-1838.629195
1191.973621,5107.421000,-8068.244768,-1225.752797
1191.973950,4367.215058,-8290.306550,-1378.971896
1191.974279,4441.235652,-9326.594869,-842.705048
1191.974608,4737.318029,-9326.594869,229.828649
1191.974937,5625.565159,-8956.491898,1608.800546
1191.975267,6735.874072,-8142.265362,2911.162892
1191.975596,8068.244768,-7254.018232,3600.648841
1191.975925,9178.553681,-6291.750507,4826.401637
1191.976254,9918.759623,-5107.421000,3983.696590
1191.976584,9918.759623,-3627.009116,3447.429741
1191.976913,9400.615463,-3775.050304,2221.676944
1191.977242,8808.450710,-3627.009116,1072.533697
1191.977571,8216.285956,-3627.009116,0.000000
1191.977901,7920.203579,-4811.338623,-919.314598
1191.978230,6291.750507,-5403.503377,-1455.581446
1191.978559,6143.709319,-5995.668130,-1685.410096
1191.978888,5107.421000,-7254.018232,-1378.971896
1191.979218,4885.359217,-7920.203579,-383.047749
1191.979547,4959.379811,-9326.594869,383.047749
1191.979876,5403.503377,-9252.574275,536.266849
1191.980205,5921.647536,-8586.388927,2298.286494
1191.980534,6957.935855,-7920.203579,2834.553343
1191.980864,8290.306550,-6957.935855,3677.258390
1191.981193,9178.553681,-5921.647536,4290.134789
1191.981522,9178.553681,-5551.544565,3524.039291
1191.981851,8512.368333,-4515.256246,2374.896044
1191.982181,7328.038826,-4737.318029,612.876398
1191.982510,6513.812290,-5329.482782,-536.266849
1191.982839,5625.565159,-6217.729913,-612.876398
1191.983168,5773.606348,-6513.812290,-1685.410096
1191.983498,5181.441594,-7105.977043,-1532.190996
1191.983827,4959.379811,-8216.285956,-689.485948
1191.984156,5477.523971,-7920.203579,0.000000
1191.984485,5403.503377,-7772.162391,76.609550
1191.984815,5699.585753,-7772.162391,995.924147
1191.985144,6735.874072,-7920.203579,2528.115143
1191.985473,7920.203579,-7698.141797,3753.867940
1191.985802,9030.512492,-6143.709319,4366.744339
1191.986131,9548.656652,-4663.297435,4060.306139
1191.986461,9992.780217,-4071.132681,3447.429741
1191.986790,9326.594869,-3849.070898,2834.553343
1191.987119,8290.306550,-4071.132681,2298.286494
1191.987451,8142.265362,-4589.276840,76.609550
1191.987780,7402.059420,-4589.276840,-306.438199
1191.988109,6439.791695,-5921.647536,-1149.143247
1191.988438,5329.482782,-6365.771101,-1532.190996
1191.988768,4293.194464,-7698.141797,-1685.410096
1191.989097,4441.235652,-8882.471304,-1225.752797
1191.989426,4441.235652,-9178.553681,-383.047749
1191.989755,4367.215058,-9844.739029,536.266849
1191.990084,5699.585753,-9252.574275,1685.410096
1191.990414,6439.791695,-8142.265362,2834.553343
1191.990743,8068.244768,-7105.977043,3447.429741
1191.991072,9252.574275,-5403.503377,3983.696590
1191.991401,9474.636058,-5033.400406,3983.696590
1191.991731,9918.759623,-4293.194464,3294.210641
1191.992060,9400.615463,-4219.173869,1378.971896
1191.992389,7772.162391,-4737.318029,459.657299
1191.992718,6587.832884,-5033.400406,-919.314598
1191.993047,6217.729913,-6513.812290,-1915.238745
1191.993377,5329.482782,-7550.100608,-2221.676944
1191.993706,4145.153275,-8290.306550,-1685.410096
1191.994035,4293.194464,-9104.533087,-1149.143247
1191.994364,4219.173869,-9178.553681,-536.266849
1191.994693,4589.276840,-9326.594869,612.876398
1191.995023,5329.482782,-8734.430116,1378.971896
1191.995352,6957.935855,-8068.244768,2757.943793
1191.995681,8734.430116,-7402.059420,3907.087040
1191.996010,9992.780217,-5403.503377,4366.744339
1191.996339,9622.677246,-4071.132681,3983.696590
1191.996669,9474.636058,-3923.091493,2681.334243
1191.996998,8882.471304,-3701.029710,2068.457845
1191.997327,8364.327145,-3701.029710,306.438199
1191.997656,7698.141797,-4145.153275,-306.438199
1191.997985,7402.059420,-4515.256246,-919.314598
1191.998315,6957.935855,-5181.441594,-842.705048
1191.998644,6735.874072,-5699.585753,-1378.971896
1191.998973,6069.688724,-6809.894666,-536.266849
1191.999302,5477.523971,-7698.141797,-995.924147
1191.999631,5477.523971,-8216.285956,536.266849
1191.999961,5773.606348,-8734.430116,1149.143247
1192.000290,6365.771101,-8808.450710,2528.115143
1192.000619,7254.018232,-8142.265362,2987.772442
1192.000948,8512.368333,-7179.997637,3294.210641
1192.001277,8290.306550,-7031.956449,3677.258390
1192.001607,8512.368333,-5995.668130,2757.943793
1192.001936,7328.038826,-5551.544565,1302.362347
1192.002265,6217.729913,-5773.606348,0.000000
1192.002594,5773.606348,-5847.626942,-766.095498
1192.002924,5625.565159,-6809.894666,-1762.019645
1192.003253,5181.441594,-6809.894666,-1838.629195
1192.003582,5181.441594,-7402.059420,-1608.800546
1192.003911,5625.565159,-7920.203579,-459.657299
1192.004240,5699.585753,-7994.224174,-306.438199
1192.004570,5847.626942,-7179.997637,153.219100
1192.004899,6661.853478,-7402.059420,1378.971896
1192.005228,7550.100608,-7698.141797,2757.943793
1192.005557,9104.533087,-7254.018232,4673.182538
1192.005886,9844.739029,-5921.647536,4443.353888
1192.006216,9326.594869,-4589.276840,3600.648841
1192.006545,9178.553681,-4737.318029,2911.162892
1192.006874,9178.553681,-4441.235652,2221.676944
1192.007203,8216.285956,-4737.318029,919.314598
1192.007532,7105.977043,-4737.318029,0.000000
1192.007862,6587.832884,-5107.421000,-919.314598
1192.008191,5847.626942,-5921.647536,-1762.019645
1192.008520,4811.338623,-6883.915261,-1149.143247
1192.008849,4737.318029,-7772.162391,-995.924147
1192.009178,4515.256246,-8808.450710,-536.266849
1192.009508,5033.400406,-9178.553681,306.438199
1192.009837,5699.585753,-9030.512492,1608.800546
1192.010166,6661.853478,-8882.471304,2298.286494
1192.010495,8068.244768,-7698.141797,3524.039291
1192.010824,9252.574275,-6217.729913,3983.696590
1192.011154,9696.697840,-4737.318029,3983.696590
1192.011483,9548.656652,-4293.194464,3907.087040
1192.011812,9548.656652,-4293.194464,2451.505594
1192.012141,8142.265362,-4663.297435,1378.971896
1192.012470,6661.853478,-5255.462188,-306.438199
1192.012800,5699.585753,-5921.647536,-1608.800546
1192.013129,5033.400406,-7031.956449,-1532.190996
1192.013458,4515.256246,-7846.182985,-1838.629195
1192.013787,3997.112087,-9104.533087,-1608.800546
1192.014117,4145.153275,-9326.594869,-919.314598
1192.014446,4663.297435,-8956.491898,-306.438199
1192.014775,5181.441594,-8734.430116,919.314598
1192.015104,6143.709319,-8364.327145,1991.848295
1192.015433,7994.224174,-7624.121203,3294.210641
1192.015763,9104.533087,-6587.832884,4213.525239
1192.016092,10214.842000,-4885.359217,4366.744339
1192.016421,10362.883188,-3849.070898,3600.648841
1192.016750,9770.718434,-3849.070898,2911.162892
1192.017079,8956.491898,-3701.029710,1838.629195
1192.017409,8290.306550,-3849.070898,1072.533697
1192.017738,6587.832884,-4589.276840,-919.314598
1192.018067,5921.647536,-4885.359217,-1302.362347
1192.018396,5033.400406,-5773.606348,-1532.190996
1192.018725,5329.482782,-7105.977043,-1455.581446
1192.019055,5625.565159,-8142.265362,-1072.533697
1192.019384,4959.379811,-8734.430116,-459.657299
1192.019713,4959.379811,-8512.368333,306.438199
1192.020042,6217.729913,-9104.533087,1608.800546
1192.020371,7550.100608,-8364.327145,3294.210641
1192.020701,8808.450710,-7105.977043,3447.429741
1192.021030,9104.533087,-5477.523971,3677.258390
1192.021359,8882.471304,-5329.482782,3447.429741
1192.021688,9030.512492,-5033.400406,2757.943793
1192.022017,8216.285956,-5255.462188,1378.971896
1192.022347,6957.935855,-5033.400406,76.609550
1192.022676,5477.523971,-5625.565159,-536.266849
1192.023005,5033.400406,-6883.915261,-1608.800546
1192.023334,4811.338623,-7550.100608,-1838.629195
1192.023663,4737.318029,-7624.121203,-1532.190996
1192.023993,4885.359217,-8068.244768,-1225.752797
1192.024322,5107.421000,-8364.327145,-689.485948
1192.024651,5847.626942,-7698.141797,383.047749
1192.024980,6809.894666,-7846.182985,2145.067394
1192.025309,8512.368333,-7254.018232,3217.601092
1192.025639,9696.697840,-6735.874072,4443.353888
1192.025968,9918.759623,-4959.379811,4290.134789
1192.026297,9474.636058,-4145.153275,3447.429741
1192.026626,9178.553681,-4071.132681,3217.601092
1192.026956,8586.388927,-4145.153275,1991.848295
1192.027285,7994.224174,-4441.235652,459.657299
1192.027614,6957.935855,-4737.318029,0.000000
1192.027943,5551.544565,-5181.441594,-842.705048
1192.028272,5181.441594,-6365.771101,-1838.629195
1192.028602,4663.297435,-7031.956449,-2451.505594
1192.028931,4145.153275,-8512.368333,-1838.629195
1192.029260,4589.276840,-8660.409521,-383.047749
1192.029589,5107.421000,-9030.512492,536.266849
1192.029918,5403.503377,-9252.574275,1302.362347
1192.030248,6883.915261,-7994.224174,2757.943793
1192.030577,8512.368333,-7402.059420,3753.867940
1192.030906,9400.615463,-5329.482782,4136.915689
1192.031235,9622.677246,-4367.215058,4290.134789
1192.031564,9548.656652,-4589.276840,3370.820191
1192.031894,8068.244768,-4293.194464,1762.019645
1192.032223,7550.100608,-5329.482782,1225.752797
1192.032552,6513.812290,-4959.379811,76.609550
1192.032881,6069.688724,-6439.791695,-1302.362347
1192.033210,4737.318029,-7698.141797,-1608.800546
1192.033540,3627.009116,-7846.182985,-2068.457845
1192.033869,3849.070898,-9474.636058,-1302.362347
1192.034198,4441.235652,-8808.450710,-536.266849
1192.034527,5255.462188,-8660.409521,-76.609550
1192.034856,5995.668130,-8586.388927,1302.362347
1192.035186,7105.977043,-7994.224174,2528.115143
1192.035515,8512.368333,-7846.182985,4136.915689
1192.035844,10066.800811,-6217.729913,3294.210641
1192.036173,10214.842000,-4441.235652,4136.915689
1192.036502,9844.739029,-4145.153275,3524.039291
1192.036832,9178.553681,-3923.091493,2451.505594
1192.037161,8216.285956,-3701.029710,1455.581446
1192.037490,7328.038826,-4219.173869,0.000000
1192.037819,6809.894666,-4737.318029,-766.095498
1192.038149,6069.688724,-5995.668130,-1072.533697
1192.038478,5477.523971,-6291.750507,-1532.190996
1192.038807,5033.400406,-7105.977043,-1072.533697
1192.039136,4885.359217,-7846.182985,-766.095498
1192.039465,4885.359217,-7920.203579,-612.876398
1192.039795,5255.462188,-9400.615463,919.314598
1192.040124,6587.832884,-9030.512492,2604.724693
1192.040453,7772.162391,-7920.203579,3217.601092
1192.040782,8808.450710,-6513.812290,3677.258390
1192.041111,8956.491898,-5403.503377,3677.258390
1192.041441,9104.533087,-5995.668130,3217.601092
1192.041770,8512.368333,-5403.503377,2604.724693
1192.042099,7328.038826,-5329.482782,842.705048
1192.042428,6661.853478,-5329.482782,-536.266849
1192.042757,5625.565159,-6291.750507,-1149.143247
1192.043087,4737.318029,-7105.977043,-1532.190996
1192.043416,4811.338623,-7476.080014,-1991.848295
1192.043745,4515.256246,-7698.141797,-1991.848295
1192.044074,5181.441594,-7476.080014,-995.924147
1192.044403,5551.544565,-7476.080014,0.000000
1192.044733,6735.874072,-7550.100608,995.924147
1192.045062,7846.182985,-7254.018232,2528.115143
1192.045391,8808.450710,-7031.956449,3677.258390
1192.045720,9548.656652,-6365.771101,4443.353888
1192.046049,9844.739029,-4959.379811,3983.696590
1192.046379,8956.491898,-3923.091493,3217.601092
1192.046708,8882.471304,-4737.318029,2451.505594
1192.047037,8216.285956,-5107.421000,1455.581446
1192.047366,7328.038826,-4885.359217,459.657299
1192.047695,6957.935855,-5255.462188,-153.219100
1192.048025,6143.709319,-5255.462188,-1302.362347
1192.048354,5181.441594,-6291.750507,-1532.190996
1192.048683,4589.276840,-7920.203579,-1455.581446
1192.049012,4737.318029,-7698.141797,-1455.581446
1192.049342,4811.338623,-8216.285956,-766.095498
1192.049671,5403.503377,-8438.347739,612.876398
1192.050000,6439.791695,-8734.430116,2145.067394
1192.050329,7846.182985,-8216.285956,3524.039291
1192.050658,9178.553681,-7402.059420,4519.963438
1192.050988,9326.594869,-5329.482782,3983.696590
1192.051317,9474.636058,-4737.318029,3983.696590
1192.051646,9326.594869,-4959.379811,3140.991542
1192.051975,8734.430116,-5329.482782,1608.800546
1192.052304,6661.853478,-4959.379811,766.095498
1192.052634,5255.462188,-5403.503377,-689.485948
1192.052963,5107.421000,-6439.791695,-1838.629195
1192.053292,4441.235652,-7402.059420,-1762.019645
1192.053621,4441.235652,-8290.306550,-1608.800546
1192.053950,4441.235652,-8364.327145,-1685.410096
1192.054280,4737.318029,-8290.306550,-536.266849
1192.054609,5181.441594,-8660.409521,229.828649
1192.054938,6439.791695,-8882.471304,1991.848295
1192.055267,7920.203579,-8142.265362,3447.429741
1192.055596,8882.471304,-6957.935855,3983.696590
1192.055926,9474.636058,-5107.421000,4443.353888
1192.056255,9844.739029,-4589.276840,3907.087040
1192.056584,9696.697840,-4811.338623,3294.210641
1192.056913,8586.388927,-4515.256246,1991.848295
1192.057242,7254.018232,-4441.235652,383.047749
1192.057572,6661.853478,-4589.276840,-383.047749
1192.057901,6661.853478,-5255.462188,-459.657299
1192.058230,6217.729913,-5995.668130,-919.314598
1192.058559,6143.709319,-5773.606348,-1225.752797
1192.058888,5181.441594,-6439.791695,-1532.190996
1192.059218,5329.482782,-7254.018232,-536.266849
1192.059547,5403.503377,-8586.388927,153.219100
1192.059876,6513.812290,-9326.594869,1685.410096
1192.060205,7105.977043,-8660.409521,2757.943793
1192.060535,7846.182985,-7846.182985,3217.601092
1192.060864,8290.306550,-7031.956449,3600.648841
1192.061193,8734.430116,-6513.812290,4060.306139
1192.061522,8290.306550,-5551.544565,2681.334243
1192.061851,7698.141797,-5329.482782,1149.143247
1192.062181,6439.791695,-5773.606348,306.438199
1192.062510,5699.585753,-6439.791695,-1072.533697
1192.062839,5551.544565,-6661.853478,-1149.143247
1192.063168,5477.523971,-7254.018232,-1838.629195
1192.063497,5107.421000,-6661.853478,-1608.800546
1192.063827,5181.441594,-6735.874072,-1455.581446
1192.064156,5551.544565,-6809.894666,-536.266849
1192.064485,6513.812290,-6957.935855,842.705048
1192.064814,7624.121203,-7105.977043,1685.410096
1192.065143,8216.285956,-6957.935855,2528.115143
1192.065473,8808.450710,-7476.080014,3907.087040
1192.065802,9548.656652,-6735.874072,4136.915689
1192.066131,9326.594869,-5255.462188,3677.258390
1192.066460,8808.450710,-5107.421000,2987.772442
1192.066789,8290.306550,-5181.441594,2145.067394
1192.067119,7698.141797,-5625.565159,842.705048
1192.067448,6883.915261,-5033.400406,306.438199
1192.067777,5995.668130,-5107.421000,-1302.362347
1192.068106,5625.565159,-5847.626942,-1762.019645
1192.068435,5551.544565,-6291.750507,-1762.019645
1192.068765,4737.318029,-7550.100608,-1608.800546
1192.069094,5107.421000,-7179.997637,-766.095498
1192.069423,5403.503377,-7994.224174,0.000000
1192.069752,6291.750507,-8586.388927,1225.752797
1192.070081,7105.977043,-8364.327145,2757.943793
1192.070411,8364.327145,-7624.121203,3830.477490
1192.070740,9104.533087,-6735.874072,4136.915689
1192.071069,9400.615463,-5699.585753,4519.963438
1192.071398,8882.471304,-5477.523971,3294.210641
1192.071728,8586.388927,-5181.441594,2528.115143
1192.072057,7846.182985,-4737.318029,1225.752797
1192.072386,6217.729913,-4885.359217,76.609550
1192.072715,5625.565159,-5625.565159,-766.095498
1192.073044,5551.544565,-6587.832884,-1838.629195
1192.073374,5551.544565,-6587.832884,-1532.190996
1192.073703,4663.297435,-7402.059420,-1532.190996
1192.074032,4737.318029,-7772.162391,-1225.752797
1192.074361,5255.462188,-8956.491898,0.000000
1192.074690,6217.729913,-9178.553681,1378.971896
1192.075020,7550.100608,-8364.327145,3064.381992
1192.075349,8512.368333,-7402.059420,3370.820191
1192.075678,9474.636058,-6661.853478,4290.134789
1192.076007,9696.697840,-6365.771101,4060.306139
1192.076336,9326.594869,-5107.421000,2987.772442
1192.076666,8586.388927,-4367.215058,2221.676944
1192.076995,8068.244768,-3923.091493,1608.800546
1192.077324,7772.162391,-3923.091493,689.485948
1192.077653,6735.874072,-4589.276840,-153.219100
1192.077982,6143.709319,-4367.215058,-1225.752797
1192.078312,6143.709319,-4885.359217,-1762.019645
1192.078641,6069.688724,-6365.771101,-1225.752797
1192.078970,5625.565159,-7105.977043,-995.924147
1192.079299,5477.523971,-8142.265362,-306.438199
1192.079628,5255.462188,-8142.265362,459.657299
1192.079958,5699.585753,-9548.656652,1532.190996
1192.080287,7105.977043,-9400.615463,2757.943793
1192.080616,8216.285956,-8364.327145,3524.039291
1192.080945,8364.327145,-7031.956449,3983.696590
1192.081274,7920.203579,-6143.709319,3140.991542
1192.081604,7846.182985,-5921.647536,2221.676944
1192.081933,7105.977043,-5699.585753,459.657299
1192.082262,5921.647536,-5329.482782,229.828649
1192.082591,6069.688724,-6217.729913,-919.314598
1192.082921,5551.544565,-6069.688724,-1455.581446
1192.083250,5255.462188,-7105.977043,-1685.410096
1192.083579,5033.400406,-7254.018232,-1762.019645
1192.083908,5107.421000,-6587.832884,-995.924147
1192.084237,5995.668130,-7105.977043,-459.657299
1192.084567,7105.977043,-7105.977043,383.047749
1192.084896,7402.059420,-8068.244768,2298.286494
1192.085225,8512.368333,-8142.265362,3370.820191
1192.085554,9326.594869,-7031.956449,3907.087040
1192.085883,9474.636058,-6809.894666,4366.744339
1192.086213,9030.512492,-5181.441594,3753.867940
1192.086542,8882.471304,-4811.338623,3140.991542
1192.086871,8290.306550,-4663.297435,1915.238745
1192.087200,7476.080014,-3997.112087,842.705048
1192.087529,6883.915261,-4293.194464,0.000000
1192.087859,6809.894666,-4441.235652,-689.485948
1192.088188,6365.771101,-5181.441594,-1455.581446
1192.088517,5329.482782,-6291.750507,-1915.238745
1192.088846,5181.441594,-7328.038826,-1838.629195
1192.089175,5255.462188,-8438.347739,-919.314598
1192.089505,5773.606348,-9252.574275,153.219100
1192.089834,5921.647536,-9252.574275,1225.752797
1192.090163,6883.915261,-8438.347739,2681.334243
1192.090492,8142.265362,-8660.409521,3600.648841
1192.090821,8808.450710,-6809.894666,3907.087040
1192.091150,8882.471304,-5625.565159,3677.258390
1192.091480,8882.471304,-5329.482782,4213.525239
1192.091809,8882.471304,-4293.194464,2911.162892
1192.092138,7624.121203,-5181.441594,1455.581446
1192.092467,6143.709319,-4515.256246,0.000000
1192.092796,5699.585753,-5255.462188,-1378.971896
1192.093126,5625.565159,-5773.606348,-1532.190996
1192.093455,4885.359217,-7105.977043,-1532.190996
1192.093784,4885.359217,-8438.347739,-1225.752797
1192.094113,5033.400406,-8512.368333,-842.705048
1192.094442,5181.441594,-8882.471304,0.000000
1192.094771,5773.606348,-9178.553681,1149.143247
1192.095101,6809.894666,-8586.388927,2374.896044
1192.095430,7846.182985,-8216.285956,3294.210641
1192.095759,8882.471304,-6809.894666,4060.306139
1192.096088,9474.636058,-5699.585753,4290.134789
1192.096417,9696.697840,-4441.235652,3677.258390
1192.096746,9178.553681,-3775.050304,2528.115143
1192.097076,8808.450710,-3997.112087,1608.800546
1192.097405,8068.244768,-3627.009116,612.876398
1192.097734,7328.038826,-3775.050304,0.000000
1192.098063,6291.750507,-4737.318029,-1302.362347
1192.098392,6069.688724,-5699.585753,-1685.410096
1192.098722,5329.482782,-6883.915261,-1685.410096
1192.099051,5107.421000,-7254.018232,-919.314598
1192.099380,5033.400406,-8808.450710,-612.876398
1192.099709,5255.462188,-9326.594869,459.657299
1192.100038,5773.606348,-9548.656652,1915.238745
1192.100367,7328.038826,-8734.430116,3294.210641
1192.100697,8734.430116,-7105.977043,3600.648841
1192.101026,8438.347739,-6217.729913,3677.258390
1192.101355,8586.388927,-5477.523971,3677.258390
1192.101684,8364.327145,-5477.523971,2528.115143
1192.102013,7994.224174,-4959.379811,1455.581446
1192.102342,7105.977043,-5255.462188,-76.609550
1192.102672,5921.647536,-5921.647536,-1072.533697
1192.103001,5477.523971,-6809.894666,-1455.581446
1192.103330,5033.400406,-7328.038826,-1838.629195
1192.103659,4663.297435,-7402.059420,-1532.190996
1192.103988,5181.441594,-7550.100608,-612.876398
1192.104318,6143.709319,-7772.162391,0.000000
1192.104647,6365.771101,-7624.121203,536.266849
1192.104976,6957.935855,-7994.224174,1532.190996
1192.105305,8364.327145,-7476.080014,3600.648841
1192.105634,9400.615463,-7031.956449,4673.182538
1192.105963,10140.821405,-5551.544565,4519.963438
1192.106293,9326.594869,-4071.132681,3600.648841
1192.106622,8808.450710,-4367.215058,3064.381992
1192.106951,8438.347739,-5181.441594,1762.019645
1192.107280,7179.997637,-4811.338623,766.095498
1192.107609,6587.832884,-4885.359217,-689.485948
1192.107938,6069.688724,-5033.400406,-1608.800546
1192.108268,5329.482782,-6661.853478,-1149.143247
1192.108597,4885.359217,-7846.182985,-1608.800546
1192.108926,4663.297435,-8216.285956,-1762.019645
1192.109255,4663.297435,-8216.285956,-842.705048
1192.109584,5033.400406,-8882.471304,0.000000
1192.109914,5847.626942,-8734.430116,1838.629195
1192.110243,7328.038826,-8956.491898,3370.820191
1192.110572,8068.244768,-7328.038826,3677.258390
1192.110901,8956.491898,-5773.606348,3983.696590
1192.111230,8882.471304,-4663.297435,4749.792088
1192.111559,10140.821405,-4737.318029,3294.210641
1192.111889,9696.697840,-4811.338623,2834.553343
1192.112218,7476.080014,-4885.359217,1072.533697
1192.112547,5921.647536,-4293.194464,-612.876398
1192.112876,5477.523971,-5625.565159,-1532.190996
1192.113205,5033.400406,-7105.977043,-1532.190996
1192.113534,4441.235652,-8438.347739,-1608.800546
1192.113864,4367.215058,-8660.409521,-1762.019645
1192.114193,4811.338623,-8364.327145,-919.314598
1192.114522,4811.338623,-9474.636058,0.000000
1192.114851,6217.729913,-9400.615463,1762.019645
1192.115180,7476.080014,-8438.347739,2834.553343
1192.115510,8290.306550,-7179.997637,3753.867940
1192.115839,9178.553681,-5403.503377,4826.401637
1192.116168,9992.780217,-4589.276840,3983.696590
1192.116497,10140.821405,-3997.112087,3294.210641
1192.116826,9548.656652,-3997.112087,2528.115143
1192.117155,8512.368333,-3701.029710,1225.752797
1192.117485,7254.018232,-3552.988522,-229.828649
1192.117814,6735.874072,-4515.256246,-766.095498
1192.118143,6217.729913,-5921.647536,-1225.752797
1192.118472,5921.647536,-6513.812290,-1532.190996
1192.118801,5033.400406,-6957.935855,-1685.410096
1192.119130,4737.318029,-8068.244768,-1149.143247
1192.119460,4737.318029,-8364.327145,-383.047749
1192.119789,5551.544565,-9178.553681,995.924147
1192.120118,6957.935855,-9178.553681,2528.115143
1192.120447,8216.285956,-8216.285956,4060.306139
1192.120776,8438.347739,-6513.812290,3753.867940
1192.121106,8808.450710,-5403.503377,3753.867940
1192.121435,8956.491898,-5625.565159,3294.210641
1192.121764,8364.327145,-5033.400406,1991.848295
1192.122093,6883.915261,-5033.400406,536.266849
1192.122422,5921.647536,-5477.523971,-612.876398
1192.122751,5255.462188,-6587.832884,-1455.581446
1192.123081,5107.421000,-7476.080014,-1532.190996
1192.123410,4885.359217,-7254.018232,-1302.362347
1192.123739,4811.338623,-8068.244768,-1762.019645
1192.124068,5329.482782,-8512.368333,-995.924147
