#time,accel_x,accel_y,accel_z
1198.394190,7328.038826,-6439.791695,1149.143247
1198.394520,6957.935855,-6735.874072,995.924147
1198.394850,6957.935855,-6809.894666,1532.190996
1198.395181,6735.874072,-6291.750507,766.095498
1198.395511,6439.791695,-6809.894666,766.095498
1198.395842,6809.894666,-6291.750507,919.314598
1198.396172,6735.874072,-6661.853478,1072.533697
1198.396502,6735.874072,-6809.894666,1072.533697
1198.396833,6957.935855,-6513.812290,842.705048
1198.397163,7031.956449,-6809.894666,1072.533697
1198.397493,7031.956449,-6957.935855,1225.752797
1198.397824,7105.977043,-6735.874072,1455.581446
1198.398154,7105.977043,-6217.729913,1149.143247
1198.398485,6809.894666,-6587.832884,995.924147
1198.398815,6809.894666,-6661.853478,766.095498
1198.399145,6883.915261,-6735.874072,1072.533697
1198.399476,6883.915261,-6661.853478,1072.533697
1198.399806,6809.894666,-5847.626942,1455.581446
1198.400137,6217.729913,-6217.729913,1149.143247
1198.400467,6809.894666,-6513.812290,842.705048
1198.400797,6735.874072,-6587.832884,1225.752797
1198.401128,7105.977043,-6883.915261,1532.190996
1198.401458,6883.915261,-6587.832884,1149.143247
1198.401789,6957.935855,-6513.812290,1072.533697
1198.402119,7105.977043,-6513.812290,1072.533697
1198.402449,7105.977043,-6809.894666,1072.533697
1198.402780,7550.100608,-6439.791695,1608.800546
1198.403110,7031.956449,-6587.832884,1149.143247
1198.403441,7179.997637,-6513.812290,1072.533697
1198.403771,7105.977043,-6365.771101,919.314598
1198.404101,7105.977043,-6439.791695,995.924147
1198.404432,7328.038826,-6587.832884,919.314598
1198.404762,7105.977043,-6291.750507,919.314598
1198.405092,6957.935855,-6365.771101,842.705048
1198.405423,7105.977043,-6809.894666,919.314598
1198.405753,7105.977043,-6735.874072,1455.581446
1198.406084,7105.977043,-6439.791695,1072.533697
1198.406414,6957.935855,-6365.771101,1072.533697
1198.406744,7031.956449,-6513.812290,919.314598
1198.407075,6957.935855,-6587.832884,995.924147
1198.407405,6809.894666,-6439.791695,1685.410096
1198.407736,7105.977043,-6365.771101,1072.533697
1198.408066,7105.977043,-6513.812290,919.314598
1198.408396,6957.935855,-6439.791695,1149.143247
1198.408727,6661.853478,-6587.832884,1072.533697
1198.409057,7105.977043,-6513.812290,1072.533697
1198.409388,6883.915261,-6291.750507,766.095498
1198.409718,6883.915261,-6513.812290,842.705048
1198.410048,6661.853478,-6365.771101,919.314598
1198.410379,7105.977043,-6661.853478,1149.143247
1198.410709,6957.935855,-6809.894666,995.924147
1198.411039,6809.894666,-6735.874072,1149.143247
1198.411370,7105.977043,-6513.812290,995.924147
1198.411700,6587.832884,-6661.853478,1072.533697
1198.412031,6809.894666,-6291.750507,842.705048
1198.412361,6735.874072,-6883.915261,919.314598
1198.412691,6809.894666,-6513.812290,919.314598
1198.413022,6883.915261,-7031.956449,1072.533697
1198.413352,7105.977043,-6439.791695,919.314598
1198.413683,7105.977043,-6661.853478,459.657299
1198.414013,6735.874072,-6439.791695,1225.752797
1198.414343,7105.977043,-6661.853478,919.314598
1198.414674,6883.915261,-6291.750507,1072.533697
1198.415004,7105.977043,-6587.832884,919.314598
1198.415335,6883.915261,-6661.853478,995.924147
1198.415665,6883.915261,-6883.915261,1072.533697
1198.415995,6587.832884,-6735.874072,1149.143247
1198.416326,7031.956449,-6513.812290,1072.533697
1198.416656,7179.997637,-6439.791695,689.485948
1198.416987,6957.935855,-6661.853478,995.924147
1198.417317,6957.935855,-6809.894666,766.095498
1198.417647,7105.977043,-6661.853478,995.924147
1198.417978,7254.018232,-6439.791695,1149.143247
1198.418308,6957.935855,-6439.791695,1225.752797
1198.418638,6957.935855,-6661.853478,919.314598
1198.418969,7254.018232,-6587.832884,1072.533697
1198.419299,6809.894666,-6513.812290,995.924147
1198.419630,7254.018232,-6217.729913,995.924147
1198.419960,7105.977043,-6661.853478,995.924147
1198.420290,6957.935855,-6365.771101,1149.143247
1198.420621,7105.977043,-6735.874072,919.314598
1198.420951,6957.935855,-6587.832884,995.924147
1198.421282,7031.956449,-6217.729913,1072.533697
1198.421612,7105.977043,-6439.791695,995.924147
1198.421942,7105.977043,-7105.977043,1225.752797
1198.422273,7105.977043,-6661.853478,919.314598
1198.422603,7179.997637,-6291.750507,383.047749
1198.422934,6957.935855,-6513.812290,842.705048
1198.423264,6883.915261,-6587.832884,919.314598
1198.423594,6957.935855,-6661.853478,919.314598
1198.423925,6883.915261,-6217.729913,1072.533697
1198.424255,6883.915261,-6291.750507,919.314598
1198.424586,7031.956449,-6587.832884,842.705048
1198.424916,7031.956449,-6513.812290,842.705048
1198.425246,6883.915261,-6735.874072,689.485948
1198.425577,7105.977043,-6809.894666,1072.533697
1198.425907,6883.915261,-6439.791695,1378.971896
1198.426237,6809.894666,-6513.812290,919.314598
1198.426568,7105.977043,-6661.853478,919.314598
1198.426898,7031.956449,-6809.894666,995.924147
1198.427229,7328.038826,-6957.935855,995.924147
1198.427559,6661.853478,-6883.915261,995.924147
1198.427889,6883.915261,-6661.853478,689.485948
1198.428220,6809.894666,-7031.956449,766.095498
1198.428550,6883.915261,-6069.688724,536.266849
1198.428881,7105.977043,-7105.977043,1302.362347
1198.429211,7031.956449,-6587.832884,842.705048
1198.429541,7031.956449,-6513.812290,1149.143247
1198.429872,7105.977043,-6587.832884,919.314598
1198.430202,7031.956449,-6513.812290,1685.410096
1198.430533,7254.018232,-6735.874072,919.314598
1198.430863,7105.977043,-6661.853478,1302.362347
1198.431193,6883.915261,-6513.812290,995.924147
1198.431524,6883.915261,-6439.791695,842.705048
1198.431854,7105.977043,-6291.750507,1302.362347
1198.432185,6957.935855,-6809.894666,1302.362347
1198.432515,6883.915261,-6513.812290,995.924147
1198.432845,6957.935855,-6439.791695,995.924147
1198.433176,7105.977043,-6365.771101,383.047749
1198.433506,6809.894666,-6809.894666,919.314598
1198.433836,7105.977043,-6587.832884,1072.533697
1198.434167,7105.977043,-6513.812290,1149.143247
1198.434497,7031.956449,-6587.832884,1225.752797
1198.434828,7105.977043,-6809.894666,689.485948
1198.435158,6957.935855,-6661.853478,1225.752797
1198.435488,7105.977043,-6735.874072,1149.143247
1198.435819,7105.977043,-6439.791695,919.314598
1198.436149,7031.956449,-6513.812290,1302.362347
1198.436480,7031.956449,-6439.791695,919.314598
1198.436810,6735.874072,-6439.791695,766.095498
1198.437140,7179.997637,-6439.791695,1149.143247
1198.437471,7031.956449,-6513.812290,842.705048
1198.437801,6809.894666,-5995.668130,1455.581446
1198.438132,7105.977043,-6587.832884,689.485948
1198.438462,7105.977043,-6661.853478,919.314598
1198.438792,6957.935855,-6809.894666,842.705048
1198.439123,6957.935855,-6439.791695,919.314598
1198.439453,6957.935855,-6439.791695,766.095498
1198.439784,6883.915261,-6661.853478,842.705048
1198.440114,6957.935855,-6661.853478,995.924147
1198.440444,6957.935855,-6587.832884,689.485948
1198.440775,7179.997637,-6439.791695,1302.362347
1198.441105,6809.894666,-6735.874072,995.924147
1198.441435,6661.853478,-6439.791695,919.314598
1198.441766,6957.935855,-6809.894666,689.485948
1198.442096,7031.956449,-6587.832884,1149.143247
1198.442427,7698.141797,-6661.853478,1149.143247
1198.442757,7105.977043,-6735.874072,1149.143247
1198.443087,6957.935855,-6587.832884,919.314598
1198.443418,7031.956449,-6661.853478,995.924147
1198.443748,7031.956449,-6513.812290,842.705048
1198.444079,6439.791695,-6735.874072,1378.971896
1198.444409,7031.956449,-6587.832884,995.924147
1198.444739,7031.956449,-6439.791695,995.924147
1198.445070,6883.915261,-6883.915261,995.924147
1198.445400,6513.812290,-6587.832884,1608.800546
1198.445731,6957.935855,-6735.874072,1072.533697
1198.446061,7328.038826,-6883.915261,919.314598
1198.446391,7105.977043,-6661.853478,919.314598
1198.446722,7328.038826,-6883.915261,1455.581446
1198.447052,7031.956449,-6069.688724,842.705048
1198.447383,7105.977043,-6661.853478,1149.143247
1198.447713,6809.894666,-6365.771101,1302.362347
1198.448043,7031.956449,-6439.791695,919.314598
1198.448374,7105.977043,-6365.771101,612.876398
1198.448704,6957.935855,-6661.853478,1225.752797
1198.449034,6957.935855,-6069.688724,766.095498
1198.449365,7105.977043,-6587.832884,1072.533697
1198.449695,7105.977043,-6513.812290,1378.971896
1198.450026,7031.956449,-6587.832884,1072.533697
1198.450356,6957.935855,-6587.832884,995.924147
1198.450686,7105.977043,-6883.915261,995.924147
1198.451017,7105.977043,-6661.853478,1149.143247
1198.451347,7328.038826,-6217.729913,1149.143247
1198.451678,6883.915261,-6587.832884,1149.143247
1198.452008,6735.874072,-6735.874072,1225.752797
1198.452338,7105.977043,-6365.771101,766.095498
1198.452669,6883.915261,-6661.853478,919.314598
1198.452999,6883.915261,-6439.791695,919.314598
1198.453330,6809.894666,-6365.771101,919.314598
1198.453660,6883.915261,-6587.832884,1225.752797
1198.453990,6809.894666,-6883.915261,995.924147
1198.454321,7031.956449,-6365.771101,842.705048
1198.454651,6809.894666,-6735.874072,1072.533697
1198.454982,6809.894666,-6661.853478,919.314598
1198.455312,7105.977043,-6809.894666,1149.143247
1198.455642,6883.915261,-6661.853478,1072.533697
1198.455973,7105.977043,-6587.832884,1149.143247
1198.456303,7031.956449,-6587.832884,1149.143247
1198.456633,6809.894666,-6661.853478,689.485948
1198.456964,6957.935855,-6883.915261,995.924147
1198.457294,6883.915261,-6883.915261,919.314598
1198.457625,6513.812290,-6365.771101,1532.190996
1198.457955,6883.915261,-6661.853478,1149.143247
1198.458285,7031.956449,-6587.832884,1072.533697
1198.458615,6957.935855,-6661.853478,1072.533697
1198.458944,7105.977043,-6513.812290,1532.190996
1198.459273,7105.977043,-6217.729913,1072.533697
1198.459603,6957.935855,-6365.771101,995.924147
1198.459932,6735.874072,-6661.853478,459.657299
1198.460261,7105.977043,-6587.832884,1072.533697
1198.460591,6809.894666,-6513.812290,1608.800546
1198.460920,7105.977043,-6439.791695,995.924147
1198.461249,7328.038826,-6513.812290,689.485948
1198.461579,7105.977043,-6439.791695,919.314598
1198.461908,7105.977043,-6809.894666,1149.143247
1198.462237,7179.997637,-6513.812290,842.705048
1198.462567,7105.977043,-6587.832884,1072.533697
1198.462896,6957.935855,-6513.812290,995.924147
1198.463225,6809.894666,-6513.812290,1149.143247
1198.463555,6957.935855,-6735.874072,919.314598
1198.463884,7105.977043,-6661.853478,1149.143247
1198.464213,7031.956449,-6291.750507,1149.143247
1198.464543,7105.977043,-6365.771101,995.924147
1198.464872,6883.915261,-6513.812290,919.314598
1198.465201,7254.018232,-6513.812290,612.876398
1198.465531,7105.977043,-6587.832884,995.924147
1198.465860,6957.935855,-6291.750507,919.314598
1198.466189,6883.915261,-6809.894666,689.485948
1198.466519,7105.977043,-6069.688724,689.485948
1198.466848,7254.018232,-6439.791695,1149.143247
1198.467177,7105.977043,-6587.832884,1302.362347
1198.467507,6883.915261,-6143.709319,1149.143247
1198.467836,6957.935855,-6365.771101,1072.533697
1198.468165,6883.915261,-6291.750507,1532.190996
1198.468495,7031.956449,-6735.874072,1072.533697
1198.468824,6957.935855,-6365.771101,1072.533697
1198.469153,6883.915261,-6513.812290,919.314598
1198.469483,7105.977043,-6809.894666,689.485948
1198.469812,6587.832884,-6661.853478,1302.362347
1198.470141,7105.977043,-6291.750507,1455.581446
1198.470471,7031.956449,-6587.832884,842.705048
1198.470800,6735.874072,-6291.750507,689.485948
1198.471129,7031.956449,-6513.812290,1225.752797
1198.471459,7105.977043,-6587.832884,919.314598
1198.471788,7031.956449,-6809.894666,1072.533697
1198.472117,7328.038826,-6291.750507,1225.752797
1198.472447,7031.956449,-6513.812290,995.924147
1198.472776,7105.977043,-6735.874072,995.924147
1198.473105,7031.956449,-6809.894666,1072.533697
1198.473435,7031.956449,-6809.894666,612.876398
1198.473764,6883.915261,-7105.977043,1072.533697
1198.474093,6587.832884,-6661.853478,1072.533697
1198.474423,6587.832884,-6439.791695,1149.143247
1198.474752,7105.977043,-6809.894666,1225.752797
1198.475081,7031.956449,-6291.750507,1225.752797
1198.475411,7105.977043,-6291.750507,1072.533697
1198.475740,7105.977043,-6069.688724,995.924147
1198.476069,6587.832884,-6217.729913,1072.533697
1198.476399,6883.915261,-6365.771101,1072.533697
1198.476728,7031.956449,-6735.874072,919.314598
1198.477057,6957.935855,-6291.750507,1838.629195
1198.477387,7031.956449,-6439.791695,919.314598
1198.477716,6957.935855,-6809.894666,1149.143247
1198.478046,7031.956449,-6661.853478,766.095498
1198.478375,7105.977043,-6883.915261,919.314598
1198.478704,7105.977043,-6217.729913,536.266849
1198.479034,7105.977043,-6439.791695,919.314598
1198.479363,6883.915261,-6291.750507,1072.533697
1198.479692,6883.915261,-6365.771101,1302.362347
1198.480022,7031.956449,-6143.709319,1455.581446
1198.480351,6735.874072,-5921.647536,842.705048
1198.480680,6809.894666,-6217.729913,919.314598
1198.481010,6957.935855,-6513.812290,1072.533697
1198.481339,7105.977043,-6883.915261,919.314598
1198.481668,7254.018232,-6735.874072,612.876398
1198.481998,6957.935855,-6735.874072,1378.971896
1198.482327,7031.956449,-6661.853478,919.314598
1198.482656,6735.874072,-6661.853478,919.314598
1198.482986,6809.894666,-6513.812290,919.314598
1198.483315,7179.997637,-6957.935855,1072.533697
1198.483644,7031.956449,-6587.832884,766.095498
1198.483974,6735.874072,-6365.771101,919.314598
1198.484303,6661.853478,-6587.832884,995.924147
1198.484632,6735.874072,-6291.750507,1149.143247
1198.484962,7031.956449,-6735.874072,919.314598
1198.485291,7179.997637,-6809.894666,1072.533697
1198.485620,6809.894666,-6439.791695,1149.143247
1198.485950,7105.977043,-6735.874072,842.705048
1198.486279,6957.935855,-6513.812290,1378.971896
1198.486608,6957.935855,-6513.812290,995.924147
1198.486938,6957.935855,-6439.791695,612.876398
1198.487267,7105.977043,-6439.791695,919.314598
1198.487596,6661.853478,-6587.832884,689.485948
1198.487926,7254.018232,-6513.812290,1225.752797
1198.488255,7105.977043,-6513.812290,1149.143247
1198.488584,7105.977043,-6439.791695,995.924147
1198.488914,6957.935855,-6513.812290,842.705048
1198.489243,6735.874072,-6365.771101,766.095498
1198.489572,7105.977043,-6661.853478,689.485948
1198.489902,7031.956449,-6735.874072,1072.533697
1198.490231,7031.956449,-6587.832884,1072.533697
1198.490560,6957.935855,-6587.832884,766.095498
1198.490890,7105.977043,-6587.832884,995.924147
1198.491219,7105.977043,-6513.812290,1149.143247
1198.491548,7179.997637,-6513.812290,1225.752797
1198.491878,7105.977043,-6291.750507,995.924147
1198.492207,7254.018232,-6661.853478,1532.190996
1198.492536,6883.915261,-6365.771101,842.705048
1198.492866,7179.997637,-6661.853478,766.095498
1198.493195,7105.977043,-6883.915261,1149.143247
1198.493524,7105.977043,-6735.874072,995.924147
1198.493854,6809.894666,-6217.729913,766.095498
1198.494183,6735.874072,-7105.977043,995.924147
1198.494512,7105.977043,-6809.894666,766.095498
1198.494842,7105.977043,-6809.894666,1225.752797
1198.495171,7179.997637,-6661.853478,995.924147
1198.495500,7328.038826,-6439.791695,919.314598
1198.495830,7105.977043,-6587.832884,995.924147
1198.496159,7179.997637,-6513.812290,919.314598
1198.496488,6957.935855,-6587.832884,995.924147
1198.496818,6809.894666,-6365.771101,306.438199
1198.497147,6735.874072,-6365.771101,1149.143247
1198.497476,6883.915261,-6513.812290,919.314598
1198.497806,7105.977043,-6809.894666,1225.752797
1198.498135,6809.894666,-6587.832884,919.314598
1198.498464,7328.038826,-6513.812290,1149.143247
1198.498794,6809.894666,-6809.894666,766.095498
1198.499123,6587.832884,-6809.894666,1072.533697
1198.499452,6957.935855,-6587.832884,1225.752797
1198.499782,7254.018232,-6661.853478,1149.143247
1198.500111,7105.977043,-6513.812290,1302.362347
1198.500440,6883.915261,-6291.750507,919.314598
1198.500770,6439.791695,-6439.791695,766.095498
1198.501099,7031.956449,-6439.791695,842.705048
1198.501428,6957.935855,-6291.750507,1915.238745
1198.501758,6957.935855,-6661.853478,995.924147
1198.502087,6661.853478,-6069.688724,689.485948
1198.502416,6957.935855,-6809.894666,995.924147
1198.502746,7179.997637,-7031.956449,1149.143247
1198.503075,7698.141797,-6587.832884,1225.752797
1198.503404,7105.977043,-6513.812290,995.924147
1198.503734,6957.935855,-6661.853478,1072.533697
1198.504063,6587.832884,-6661.853478,1225.752797
1198.504392,6883.915261,-6439.791695,842.705048
1198.504722,6957.935855,-6735.874072,995.924147
1198.505051,7031.956449,-6513.812290,995.924147
1198.505380,7105.977043,-6365.771101,919.314598
1198.505710,6883.915261,-6661.853478,1225.752797
1198.506039,6735.874072,-6513.812290,1072.533697
1198.506368,7105.977043,-6587.832884,1072.533697
1198.506698,7031.956449,-6661.853478,842.705048
1198.507027,6587.832884,-6291.750507,995.924147
1198.507356,7328.038826,-6661.853478,1225.752797
1198.507686,7105.977043,-6143.709319,1225.752797
1198.508015,7698.141797,-5255.462188,1149.143247
1198.508344,8142.265362,-5329.482782,1302.362347
1198.508674,8216.285956,-5255.462188,1072.533697
1198.509003,8512.368333,-5625.565159,919.314598
1198.509332,7624.121203,-5847.626942,842.705048
1198.509662,6957.935855,-6439.791695,229.828649
1198.509991,5699.585753,-7105.977043,0.000000
1198.510320,6513.812290,-6735.874072,153.219100
1198.510650,7254.018232,-7328.038826,1149.143247
1198.510979,7920.203579,-7031.956449,1225.752797
1198.511308,7994.224174,-6439.791695,1532.190996
1198.511638,8142.265362,-4811.338623,1072.533697
1198.511967,8290.306550,-4441.235652,1608.800546
1198.512296,7994.224174,-5181.441594,842.705048
1198.512626,8438.347739,-4219.173869,1225.752797
1198.512955,8808.450710,-4515.256246,1225.752797
1198.513284,8586.388927,-3849.070898,1072.533697
1198.513614,8586.388927,-4441.235652,1149.143247
1198.513943,8438.347739,-4737.318029,1302.362347
1198.514272,8808.450710,-4737.318029,995.924147
1198.514602,8956.491898,-5477.523971,1225.752797
1198.514931,8512.368333,-4811.338623,995.924147
1198.515260,7994.224174,-5329.482782,383.047749
1198.515590,7624.121203,-5921.647536,1072.533697
1198.515919,8068.244768,-5181.441594,1072.533697
1198.516248,7846.182985,-5181.441594,612.876398
1198.516578,9178.553681,-4811.338623,1455.581446
1198.516907,9030.512492,-4737.318029,1072.533697
1198.517236,9178.553681,-3849.070898,1608.800546
1198.517566,9030.512492,-3701.029710,1915.238745
1198.517895,9104.533087,-2960.823768,1149.143247
1198.518224,9400.615463,-2960.823768,1149.143247
1198.518554,9104.533087,-3923.091493,1378.971896
1198.518883,9326.594869,-4367.215058,1149.143247
1198.519212,9030.512492,-4737.318029,1072.533697
1198.519542,9030.512492,-5625.565159,1532.190996
1198.519871,8512.368333,-5847.626942,689.485948
1198.520200,7846.182985,-5625.565159,919.314598
1198.520530,7920.203579,-6069.688724,1149.143247
1198.520859,7846.182985,-6587.832884,919.314598
1198.521188,8216.285956,-6069.688724,1072.533697
1198.521518,8142.265362,-5403.503377,612.876398
1198.521847,8512.368333,-5107.421000,842.705048
1198.522176,7550.100608,-5403.503377,919.314598
1198.522506,7550.100608,-5107.421000,689.485948
1198.522835,7920.203579,-4811.338623,0.000000
1198.523164,8216.285956,-4589.276840,229.828649
1198.523494,8734.430116,-5033.400406,153.219100
1198.523823,9474.636058,-5403.503377,995.924147
1198.524152,9474.636058,-5403.503377,1302.362347
1198.524482,9252.574275,-4959.379811,612.876398
1198.524811,9104.533087,-5107.421000,536.266849
1198.525140,9178.553681,-5625.565159,842.705048
1198.525470,8438.347739,-5625.565159,1378.971896
1198.525799,8438.347739,-5773.606348,842.705048
1198.526128,7920.203579,-5181.441594,919.314598
1198.526458,7476.080014,-5255.462188,1149.143247
1198.526787,7994.224174,-5625.565159,1149.143247
1198.527116,7624.121203,-4145.153275,1532.190996
1198.527446,8216.285956,-4589.276840,1532.190996
1198.527775,8586.388927,-4515.256246,1532.190996
1198.528104,8364.327145,-5107.421000,1532.190996
1198.528434,7920.203579,-5033.400406,1225.752797
1198.528763,7328.038826,-5329.482782,1072.533697
1198.529092,7550.100608,-5995.668130,229.828649
1198.529422,7105.977043,-6513.812290,76.609550
1198.529751,7105.977043,-6883.915261,383.047749
1198.530080,7328.038826,-6291.750507,0.000000
1198.530410,7328.038826,-6439.791695,153.219100
1198.530739,7105.977043,-7105.977043,383.047749
1198.531068,6809.894666,-7476.080014,383.047749
1198.531398,6513.812290,-7402.059420,536.266849
1198.531727,6513.812290,-7476.080014,766.095498
1198.532056,6957.935855,-7179.997637,1072.533697
1198.532386,7402.059420,-7920.203579,1838.629195
1198.532715,7698.141797,-7105.977043,2374.896044
1198.533044,7846.182985,-6439.791695,1608.800546
1198.533374,7254.018232,-5995.668130,1302.362347
1198.533703,7031.956449,-5995.668130,1302.362347
1198.534032,7105.977043,-6069.688724,842.705048
1198.534362,6957.935855,-5847.626942,229.828649
1198.534691,6587.832884,-4737.318029,-229.828649
1198.535020,6809.894666,-5181.441594,-383.047749
1198.535350,7179.997637,-5625.565159,0.000000
1198.535679,7772.162391,-6513.812290,76.609550
1198.536008,7698.141797,-6661.853478,1149.143247
1198.536338,7772.162391,-7031.956449,689.485948
1198.536667,7179.997637,-7179.997637,1149.143247
1198.536996,7105.977043,-7476.080014,1685.410096
1198.537326,7328.038826,-7550.100608,1991.848295
1198.537655,7328.038826,-6587.832884,4060.306139
1198.537984,7328.038826,-6439.791695,2911.162892
1198.538314,6809.894666,-6069.688724,2987.772442
1198.538643,6735.874072,-4515.256246,2145.067394
1198.538972,6661.853478,-4441.235652,1608.800546
1198.539302,6439.791695,-3627.009116,1762.019645
1198.539631,5699.585753,-5403.503377,153.219100
1198.539960,5921.647536,-5551.544565,-306.438199
1198.540290,5847.626942,-5699.585753,-842.705048
1198.540619,6069.688724,-7105.977043,0.000000
1198.540948,6143.709319,-7698.141797,0.000000
1198.541278,7031.956449,-8290.306550,919.314598
1198.541607,7846.182985,-8734.430116,1991.848295
1198.541936,8142.265362,-8660.409521,2604.724693
1198.542266,7624.121203,-8068.244768,3064.381992
1198.542595,6735.874072,-8216.285956,2834.553343
1198.542924,6587.832884,-7179.997637,2528.115143
1198.543254,5921.647536,-6883.915261,1838.629195
1198.543583,5921.647536,-6883.915261,1225.752797
1198.543912,5773.606348,-5921.647536,306.438199
1198.544242,5995.668130,-6069.688724,76.609550
1198.544571,5995.668130,-6069.688724,0.000000
1198.544900,6365.771101,-5995.668130,-919.314598
1198.545230,6217.729913,-5773.606348,-612.876398
1198.545559,7031.956449,-7031.956449,0.000000
1198.545888,7031.956449,-7772.162391,536.266849
1198.546218,7476.080014,-7994.224174,1072.533697
1198.546547,7179.997637,-7624.121203,2145.067394
1198.546876,7328.038826,-5921.647536,3294.210641
1198.547206,8142.265362,-5921.647536,3294.210641
1198.547535,8512.368333,-6143.709319,3830.477490
1198.547864,8364.327145,-5625.565159,3370.820191
1198.548194,7624.121203,-4219.173869,2221.676944
1198.548523,7105.977043,-4737.318029,1302.362347
1198.548852,6439.791695,-4811.338623,459.657299
1198.549182,6365.771101,-6291.750507,0.000000
1198.549511,6143.709319,-6587.832884,-842.705048
1198.549840,6439.791695,-6957.935855,-1072.533697
1198.550170,6143.709319,-7476.080014,-1455.581446
1198.550499,6439.791695,-7846.182985,-995.924147
1198.550828,6439.791695,-8660.409521,-459.657299
1198.551158,6587.832884,-9474.636058,1149.143247
1198.551487,7105.977043,-8290.306550,1838.629195
1198.551816,7328.038826,-7402.059420,2604.724693
1198.552146,8068.244768,-6217.729913,3753.867940
1198.552475,8216.285956,-5255.462188,3294.210641
1198.552804,7994.224174,-4663.297435,3370.820191
1198.553134,8068.244768,-3552.988522,1991.848295
1198.553463,8290.306550,-3997.112087,1455.581446
1198.553792,7994.224174,-3775.050304,459.657299
1198.554122,7550.100608,-3923.091493,-383.047749
1198.554451,7105.977043,-3775.050304,-1225.752797
1198.554781,7624.121203,-5551.544565,-1072.533697
1198.555110,7698.141797,-7105.977043,-612.876398
1198.555439,7402.059420,-7105.977043,-383.047749
1198.555769,6883.915261,-8216.285956,-383.047749
1198.556098,6513.812290,-8660.409521,383.047749
1198.556427,6513.812290,-9548.656652,1608.800546
1198.556757,6809.894666,-9400.615463,2987.772442
1198.557086,6513.812290,-8364.327145,3294.210641
1198.557415,6069.688724,-7328.038826,2374.896044
1198.557745,6291.750507,-6217.729913,2221.676944
1198.558074,5847.626942,-6439.791695,1225.752797
1198.558403,5477.523971,-6143.709319,76.609550
1198.558733,5107.421000,-5625.565159,-229.828649
1198.559062,6439.791695,-5847.626942,-1302.362347
1198.559391,7105.977043,-6291.750507,-1225.752797
1198.559721,6809.894666,-6587.832884,-1072.533697
1198.560050,7105.977043,-7105.977043,-919.314598
1198.560379,6957.935855,-6735.874072,766.095498
1198.560708,7550.100608,-7624.121203,1685.410096
1198.561038,7772.162391,-6809.894666,2604.724693
1198.561367,7994.224174,-5699.585753,3753.867940
1198.561696,8808.450710,-5255.462188,4290.134789
1198.562026,8882.471304,-4885.359217,4443.353888
1198.562355,7846.182985,-4663.297435,3447.429741
1198.562684,7105.977043,-4663.297435,2374.896044
1198.563013,6809.894666,-4959.379811,1149.143247
1198.563343,5995.668130,-6069.688724,306.438199
1198.563672,5625.565159,-6809.894666,-612.876398
1198.564001,6143.709319,-7254.018232,-766.095498
1198.564331,7105.977043,-7105.977043,-995.924147
1198.564660,7105.977043,-7476.080014,-766.095498
1198.564989,6439.791695,-7920.203579,-536.266849
1198.565318,5847.626942,-8660.409521,0.000000
1198.565648,6217.729913,-9178.553681,612.876398
1198.565977,6661.853478,-8808.450710,1838.629195
1198.566306,6365.771101,-7920.203579,2451.505594
1198.566636,6809.894666,-7031.956449,3370.820191
1198.566965,7624.121203,-6291.750507,3907.087040
1198.567294,7846.182985,-5181.441594,3524.039291
1198.567623,7624.121203,-4515.256246,2451.505594
1198.567953,7031.956449,-3701.029710,612.876398
1198.568282,6735.874072,-4663.297435,-919.314598
1198.568611,7105.977043,-5921.647536,-383.047749
1198.568940,7105.977043,-7328.038826,-612.876398
1198.569270,6513.812290,-7402.059420,-1225.752797
1198.569599,6143.709319,-7328.038826,-1532.190996
1198.569928,6069.688724,-7846.182985,-536.266849
1198.570258,6661.853478,-7772.162391,919.314598
1198.570587,6809.894666,-7994.224174,2374.896044
1198.570916,6735.874072,-7031.956449,2528.115143
1198.571245,7402.059420,-5403.503377,2987.772442
1198.571575,7920.203579,-4959.379811,3677.258390
1198.571904,8512.368333,-4885.359217,3600.648841
1198.572233,7550.100608,-4589.276840,2451.505594
1198.572563,7624.121203,-4663.297435,1225.752797
1198.572892,7846.182985,-4441.235652,536.266849
1198.573221,7772.162391,-4737.318029,-229.828649
1198.573550,7920.203579,-5773.606348,-689.485948
1198.573880,8068.244768,-6365.771101,-1225.752797
1198.574209,8216.285956,-7402.059420,-995.924147
1198.574538,7476.080014,-7550.100608,-536.266849
1198.574868,6143.709319,-8142.265362,-536.266849
1198.575197,5181.441594,-8808.450710,0.000000
1198.575526,4811.338623,-9474.636058,306.438199
1198.575855,4441.235652,-9622.677246,1685.410096
1198.576185,5699.585753,-8882.471304,2451.505594
1198.576514,6513.812290,-7624.121203,3064.381992
1198.576843,7031.956449,-6291.750507,2374.896044
1198.577172,6809.894666,-5625.565159,1838.629195
1198.577502,6587.832884,-6291.750507,689.485948
1198.577831,7105.977043,-5625.565159,0.000000
1198.578160,7105.977043,-5477.523971,-766.095498
1198.578490,7328.038826,-6143.709319,-1225.752797
1198.578819,8068.244768,-5403.503377,-766.095498
1198.579148,8290.306550,-6883.915261,-306.438199
1198.579477,8216.285956,-7031.956449,76.609550
1198.579807,7698.141797,-6439.791695,995.924147
1198.580136,7254.018232,-6883.915261,1225.752797
1198.580465,6513.812290,-6883.915261,2681.334243
1198.580795,6735.874072,-7254.018232,3447.429741
1198.581124,7105.977043,-6587.832884,3140.991542
1198.581453,7476.080014,-3256.906145,2834.553343
1198.581782,7476.080014,-4589.276840,2374.896044
1198.582112,8142.265362,-3627.009116,2528.115143
1198.582441,8290.306550,-4737.318029,919.314598
1198.582770,7328.038826,-5033.400406,-689.485948
1198.583100,6587.832884,-4885.359217,-1149.143247
1198.583429,6587.832884,-7402.059420,-1532.190996
1198.583758,7179.997637,-7105.977043,-1149.143247
1198.584087,6957.935855,-8290.306550,-76.609550
1198.584417,6587.832884,-8364.327145,306.438199
1198.584746,6513.812290,-8512.368333,1302.362347
1198.585075,6217.729913,-9178.553681,2145.067394
1198.585404,5625.565159,-8290.306550,2757.943793
1198.585734,5773.606348,-7772.162391,3140.991542
1198.586063,6365.771101,-6217.729913,3370.820191
1198.586392,6957.935855,-5921.647536,3907.087040
1198.586722,7254.018232,-4737.318029,2681.334243
1198.587051,7328.038826,-4367.215058,1532.190996
1198.587380,7031.956449,-4885.359217,76.609550
1198.587709,7031.956449,-5921.647536,-842.705048
1198.588039,6883.915261,-6661.853478,-995.924147
1198.588368,6735.874072,-7105.977043,-1149.143247
1198.588697,6217.729913,-7846.182985,-1455.581446
1198.589027,5921.647536,-8882.471304,0.000000
1198.589356,6143.709319,-8290.306550,1149.143247
1198.589685,6217.729913,-8216.285956,2221.676944
1198.590014,7031.956449,-7328.038826,3140.991542
1198.590344,7179.997637,-6069.688724,3447.429741
1198.590673,7624.121203,-6069.688724,3907.087040
1198.591002,7846.182985,-5181.441594,3140.991542
1198.591332,7624.121203,-4737.318029,2145.067394
1198.591661,7402.059420,-4293.194464,1302.362347
1198.591990,7105.977043,-4515.256246,1149.143247
1198.592319,8216.285956,-5699.585753,0.000000
1198.592649,8216.285956,-5625.565159,-306.438199
1198.592978,7846.182985,-6513.812290,-536.266849
1198.593307,7624.121203,-6291.750507,-995.924147
1198.593636,6513.812290,-7402.059420,-842.705048
1198.593966,5921.647536,-9252.574275,-383.047749
1198.594295,5181.441594,-9918.759623,306.438199
1198.594624,4737.318029,-10140.821405,766.095498
1198.594954,4811.338623,-9252.574275,1608.800546
1198.595283,5551.544565,-8734.430116,3140.991542
1198.595612,6587.832884,-7994.224174,2911.162892
1198.595941,7179.997637,-5773.606348,2604.724693
1198.596271,7179.997637,-5033.400406,1685.410096
1198.596600,7698.141797,-4441.235652,995.924147
1198.596929,7624.121203,-4589.276840,229.828649
1198.597259,7698.141797,-5329.482782,-612.876398
1198.597588,7772.162391,-5255.462188,-1072.533697
1198.597917,7920.203579,-6439.791695,-766.095498
1198.598246,7920.203579,-6439.791695,-383.047749
1198.598576,7624.121203,-6661.853478,229.828649
1198.598905,7179.997637,-7179.997637,306.438199
1198.599234,7031.956449,-7105.977043,1378.971896
1198.599564,6587.832884,-7105.977043,2145.067394
1198.599893,6809.894666,-6587.832884,3140.991542
1198.600222,6957.935855,-6143.709319,3064.381992
1198.600551,7254.018232,-5477.523971,2987.772442
1198.600881,7772.162391,-4737.318029,2528.115143
1198.601210,8586.388927,-4071.132681,2145.067394
1198.601539,7920.203579,-3627.009116,689.485948
1198.601868,7846.182985,-4367.215058,0.000000
1198.602198,7105.977043,-4885.359217,-919.314598
1198.602527,7179.997637,-5921.647536,-995.924147
1198.602856,7105.977043,-6957.935855,-1608.800546
1198.603186,6957.935855,-8660.409521,-766.095498
1198.603515,6291.750507,-9252.574275,76.609550
1198.603844,5995.668130,-9474.636058,919.314598
1198.604173,6587.832884,-9326.594869,1838.629195
1198.604503,6735.874072,-8882.471304,3217.601092
1198.604832,6513.812290,-7402.059420,3217.601092
1198.605161,6291.750507,-6069.688724,2911.162892
1198.605491,6365.771101,-5107.421000,2757.943793
1198.605820,6957.935855,-5033.400406,2757.943793
1198.606149,6291.750507,-4663.297435,612.876398
1198.606478,6661.853478,-5625.565159,0.000000
1198.606808,6513.812290,-6069.688724,-766.095498
1198.607137,6735.874072,-6735.874072,-1072.533697
1198.607466,6809.894666,-7105.977043,-1225.752797
1198.607796,6513.812290,-8586.388927,-919.314598
1198.608125,5773.606348,-9474.636058,-229.828649
1198.608454,5773.606348,-9178.553681,229.828649
1198.608783,5551.544565,-9548.656652,2757.943793
1198.609113,6439.791695,-8216.285956,2911.162892
1198.609442,7031.956449,-6661.853478,4136.915689
1198.609771,8142.265362,-4589.276840,4519.963438
1198.610100,9252.574275,-3034.844362,3294.210641
1198.610430,9030.512492,-1480.411884,3217.601092
1198.610759,8512.368333,-2368.659014,2068.457845
1198.611088,7994.224174,-2516.700203,0.000000
1198.611418,7179.997637,-4071.132681,-766.095498
1198.611747,7476.080014,-6143.709319,-459.657299
1198.612076,7550.100608,-7402.059420,-612.876398
1198.612405,7105.977043,-7920.203579,-536.266849
1198.612735,6291.750507,-8808.450710,-995.924147
1198.613064,6217.729913,-9622.677246,-306.438199
1198.613393,5773.606348,-10140.821405,459.657299
1198.613723,4441.235652,-10955.047942,689.485948
1198.614052,4145.153275,-9400.615463,1072.533697
1198.614381,4515.256246,-9030.512492,2145.067394
1198.614710,5847.626942,-7476.080014,2604.724693
1198.615040,7179.997637,-5921.647536,4136.915689
1198.615369,7846.182985,-4737.318029,2528.115143
1198.615698,7994.224174,-3775.050304,842.705048
1198.616028,8142.265362,-3627.009116,153.219100
1198.616357,8068.244768,-4071.132681,-536.266849
1198.616686,8364.327145,-5329.482782,-1149.143247
1198.617015,8216.285956,-6291.750507,-1072.533697
1198.617345,7402.059420,-7476.080014,-766.095498
1198.617674,6735.874072,-8216.285956,0.000000
1198.618003,6439.791695,-7994.224174,919.314598
1198.618332,6957.935855,-8290.306550,1838.629195
1198.618662,6661.853478,-7031.956449,2374.896044
1198.618991,6513.812290,-6291.750507,3064.381992
1198.619320,6809.894666,-5107.421000,2604.724693
1198.619650,7105.977043,-4145.153275,2604.724693
1198.619979,7550.100608,-3034.844362,1685.410096
1198.620308,8216.285956,-3552.988522,1762.019645
1198.620637,8438.347739,-3849.070898,1149.143247
1198.620967,8512.368333,-4515.256246,153.219100
1198.621296,8882.471304,-4737.318029,-306.438199
1198.621625,8734.430116,-5847.626942,-459.657299
1198.621955,8216.285956,-7550.100608,-689.485948
1198.622284,6809.894666,-8734.430116,-153.219100
1198.622613,5847.626942,-8882.471304,-306.438199
1198.622942,5403.503377,-9474.636058,766.095498
1198.623272,5033.400406,-10362.883188,1915.238745
1198.623601,4959.379811,-9548.656652,2528.115143
1198.623930,5181.441594,-7994.224174,2987.772442
1198.624260,5551.544565,-6217.729913,2987.772442
1198.624589,6291.750507,-5329.482782,2374.896044
1198.624918,6957.935855,-4959.379811,2221.676944
1198.625247,7698.141797,-4441.235652,1532.190996
1198.625577,7476.080014,-3923.091493,-612.876398
1198.625906,7105.977043,-5329.482782,-689.485948
1198.626235,7772.162391,-6439.791695,-612.876398
1198.626564,7920.203579,-8364.327145,-153.219100
1198.626894,7105.977043,-8808.450710,229.828649
1198.627223,6291.750507,-9400.615463,-229.828649
1198.627552,5551.544565,-9474.636058,842.705048
1198.627882,5773.606348,-9326.594869,1685.410096
1198.628211,5773.606348,-8808.450710,3140.991542
1198.628540,6143.709319,-6439.791695,3294.210641
1198.628869,6587.832884,-4589.276840,3677.258390
1198.629199,7698.141797,-3478.967927,3524.039291
1198.629528,8512.368333,-2442.679609,3140.991542
1198.629857,8586.388927,-2442.679609,2451.505594
1198.630187,8512.368333,-2960.823768,536.266849
1198.630516,7994.224174,-3552.988522,-306.438199
1198.630845,7328.038826,-5921.647536,-612.876398
1198.631174,7550.100608,-7328.038826,-689.485948
1198.631504,7031.956449,-7994.224174,-919.314598
1198.631833,6809.894666,-8734.430116,-689.485948
1198.632162,6365.771101,-11103.089130,459.657299
1198.632492,5773.606348,-10436.903782,995.924147
1198.632821,5181.441594,-10066.800811,1072.533697
1198.633150,4589.276840,-9400.615463,1762.019645
1198.633479,4145.153275,-8290.306550,2068.457845
1198.633809,5107.421000,-7328.038826,2528.115143
1198.634138,6513.812290,-5403.503377,2221.676944
1198.634467,7254.018232,-4219.173869,1532.190996
1198.634796,8216.285956,-4367.215058,1532.190996
1198.635126,7994.224174,-3701.029710,536.266849
1198.635455,8290.306550,-3627.009116,-383.047749
1198.635784,8586.388927,-4589.276840,-995.924147
1198.636114,8512.368333,-5329.482782,-1532.190996
1198.636443,8290.306550,-7179.997637,0.000000
1198.636772,7772.162391,-7994.224174,689.485948
1198.637101,7105.977043,-8512.368333,919.314598
1198.637431,6957.935855,-8142.265362,1991.848295
1198.637760,6513.812290,-7698.141797,2374.896044
1198.638089,6439.791695,-6735.874072,2604.724693
1198.638419,6513.812290,-6217.729913,2681.334243
1198.638748,6809.894666,-5107.421000,1838.629195
1198.639077,7105.977043,-3997.112087,2298.286494
1198.639406,7105.977043,-3552.988522,919.314598
1198.639736,7624.121203,-3923.091493,383.047749
1198.640065,8290.306550,-4737.318029,0.000000
1198.640394,8660.409521,-5477.523971,0.000000
1198.640724,8882.471304,-6143.709319,-842.705048
1198.641053,7698.141797,-7031.956449,-919.314598
1198.641382,7105.977043,-8586.388927,-459.657299
1198.641711,6513.812290,-9326.594869,229.828649
1198.642041,5921.647536,-9400.615463,1915.238745
1198.642370,5773.606348,-9474.636058,1991.848295
1198.642699,5551.544565,-8438.347739,2757.943793
1198.643029,5625.565159,-7254.018232,2604.724693
1198.643358,5921.647536,-6217.729913,2834.553343
1198.643687,6439.791695,-5699.585753,2451.505594
1198.644016,5995.668130,-4959.379811,1378.971896
1198.644346,5847.626942,-4367.215058,-383.047749
1198.644675,6291.750507,-4959.379811,-1225.752797
1198.645004,7846.182985,-5699.585753,-612.876398
1198.645333,7772.162391,-7105.977043,-306.438199
1198.645663,7698.141797,-7624.121203,-306.438199
1198.645992,7105.977043,-8290.306550,-536.266849
1198.646321,6957.935855,-9252.574275,153.219100
1198.646651,6809.894666,-9326.594869,1149.143247
1198.646980,6439.791695,-9178.553681,1991.848295
1198.647309,6439.791695,-7920.203579,3370.820191
1198.647638,6587.832884,-6217.729913,3370.820191
1198.647968,6957.935855,-4737.318029,4366.744339
1198.648297,7846.182985,-1924.535449,2987.772442
1198.648626,8290.306550,-2368.659014,2451.505594
1198.648956,8808.450710,-2146.597232,1991.848295
1198.649285,7772.162391,-2960.823768,536.266849
1198.649614,8068.244768,-3552.988522,-383.047749
1198.649943,7550.100608,-4959.379811,-842.705048
1198.650273,7698.141797,-7402.059420,-919.314598
1198.650602,7698.141797,-8438.347739,-536.266849
1198.650931,6883.915261,-9326.594869,-536.266849
1198.651261,6365.771101,-9992.780217,153.219100
1198.651590,6069.688724,-10140.821405,1455.581446
1198.651919,5625.565159,-9474.636058,1685.410096
1198.652248,4663.297435,-9474.636058,1991.848295
1198.652578,3997.112087,-7994.224174,2221.676944
1198.652907,5181.441594,-7624.121203,2068.457845
1198.653236,5847.626942,-6883.915261,2451.505594
1198.653565,6291.750507,-5181.441594,1455.581446
1198.653895,6587.832884,-4811.338623,383.047749
1198.654224,7105.977043,-4441.235652,0.000000
1198.654553,7476.080014,-5255.462188,-612.876398
1198.654883,8290.306550,-6069.688724,-1072.533697
1198.655212,8290.306550,-6291.750507,-1302.362347
1198.655541,7698.141797,-7624.121203,-842.705048
1198.655870,7624.121203,-7846.182985,459.657299
1198.656200,7179.997637,-8660.409521,2145.067394
1198.656529,7254.018232,-7772.162391,2451.505594
1198.656858,7105.977043,-6069.688724,2987.772442
1198.657188,7550.100608,-5551.544565,3753.867940
1198.657517,7476.080014,-4219.173869,3600.648841
1198.657846,7328.038826,-3997.112087,2834.553343
1198.658175,7254.018232,-3775.050304,1762.019645
1198.658505,6735.874072,-3775.050304,0.000000
1198.658834,6957.935855,-4737.318029,536.266849
1198.659163,8216.285956,-5107.421000,0.000000
1198.659493,8660.409521,-5921.647536,0.000000
1198.659822,8586.388927,-6883.915261,-459.657299
1198.660151,7994.224174,-7846.182985,-383.047749
1198.660480,6513.812290,-8586.388927,-995.924147
1198.660810,5181.441594,-9474.636058,-919.314598
1198.661139,5181.441594,-9474.636058,383.047749
1198.661468,5477.523971,-9992.780217,1838.629195
1198.661797,5773.606348,-8586.388927,3830.477490
1198.662127,5847.626942,-7031.956449,2987.772442
1198.662456,6143.709319,-5329.482782,2681.334243
1198.662785,6735.874072,-5033.400406,2374.896044
1198.663115,7105.977043,-4885.359217,1915.238745
1198.663444,7254.018232,-4219.173869,842.705048
1198.663773,7031.956449,-4515.256246,-383.047749
1198.664102,7402.059420,-5107.421000,-1302.362347
1198.664432,8216.285956,-7179.997637,-1149.143247
1198.664761,7920.203579,-8364.327145,0.000000
1198.665090,7402.059420,-8364.327145,0.000000
1198.665419,6513.812290,-8808.450710,76.609550
1198.665749,6291.750507,-8438.347739,612.876398
1198.666078,5551.544565,-8512.368333,1762.019645
1198.666407,5995.668130,-8512.368333,3064.381992
1198.666736,6365.771101,-6365.771101,3524.039291
1198.667066,6883.915261,-4737.318029,3524.039291
1198.667395,7476.080014,-3256.906145,3294.210641
1198.667724,8586.388927,-2960.823768,2834.553343
1198.668053,9548.656652,-3404.947333,2145.067394
1198.668383,8660.409521,-3182.885551,459.657299
1198.668712,8290.306550,-3552.988522,-766.095498
1198.669041,8438.347739,-4737.318029,-842.705048
1198.669371,9030.512492,-6069.688724,-306.438199
1198.669700,8290.306550,-7698.141797,-536.266849
1198.670029,6365.771101,-8364.327145,-536.266849
1198.670358,5403.503377,-9400.615463,0.000000
1198.670688,5625.565159,-9548.656652,1072.533697
1198.671017,5477.523971,-9030.512492,2374.896044
1198.671346,4515.256246,-9474.636058,1991.848295
1198.671675,3923.091493,-7920.203579,2068.457845
1198.672005,4441.235652,-7179.997637,2221.676944
1198.672334,6143.709319,-6587.832884,1991.848295
1198.672663,6883.915261,-5329.482782,1762.019645
1198.672992,7105.977043,-5255.462188,689.485948
1198.673322,7254.018232,-4737.318029,-229.828649
1198.673651,7624.121203,-5477.523971,-612.876398
1198.673980,8734.430116,-5625.565159,-689.485948
1198.674309,8734.430116,-5995.668130,-612.876398
1198.674639,7846.182985,-7402.059420,76.609550
1198.674968,7846.182985,-7920.203579,842.705048
1198.675297,6513.812290,-7772.162391,2221.676944
1198.675627,7031.956449,-7624.121203,2374.896044
1198.675956,6365.771101,-7550.100608,2911.162892
1198.676285,5995.668130,-6735.874072,3217.601092
1198.676614,6217.729913,-5403.503377,2604.724693
1198.676944,6661.853478,-4145.153275,2451.505594
1198.677273,6661.853478,-4145.153275,1608.800546
1198.677602,6883.915261,-4515.256246,919.314598
1198.677931,7105.977043,-5181.441594,0.000000
1198.678261,7698.141797,-4811.338623,76.609550
1198.678590,7994.224174,-5625.565159,-306.438199
1198.678919,8364.327145,-6735.874072,-459.657299
1198.679248,7846.182985,-7105.977043,-383.047749
1198.679578,7179.997637,-8808.450710,-383.047749
1198.679907,7328.038826,-8364.327145,995.924147
1198.680236,6735.874072,-8734.430116,1302.362347
1198.680565,6143.709319,-8586.388927,2374.896044
1198.680895,5477.523971,-7624.121203,2604.724693
1198.681224,5255.462188,-7476.080014,2987.772442
1198.681553,5921.647536,-6291.750507,3370.820191
1198.681883,6587.832884,-5773.606348,2681.334243
1198.682212,6291.750507,-4885.359217,919.314598
1198.682541,5847.626942,-4589.276840,0.000000
1198.682870,6217.729913,-5181.441594,-153.219100
1198.683200,7179.997637,-6291.750507,-1149.143247
1198.683529,7846.182985,-6957.935855,-689.485948
1198.683858,7698.141797,-7179.997637,-536.266849
1198.684187,7698.141797,-7624.121203,-229.828649
1198.684517,7031.956449,-8364.327145,229.828649
1198.684846,6809.894666,-9030.512492,1838.629195
1198.685175,6661.853478,-8364.327145,2451.505594
1198.685504,6291.750507,-7698.141797,3447.429741
1198.685834,6957.935855,-5107.421000,3753.867940
1198.686163,8216.285956,-4145.153275,3294.210641
1198.686492,7994.224174,-3330.926739,2604.724693
1198.686821,7772.162391,-3330.926739,2221.676944
1198.687151,7846.182985,-3775.050304,1072.533697
1198.687480,7550.100608,-3034.844362,-383.047749
1198.687809,7624.121203,-5033.400406,-612.876398
1198.688139,8290.306550,-5921.647536,-383.047749
1198.688468,8808.450710,-6735.874072,-229.828649
1198.688797,7920.203579,-7698.141797,-229.828649
1198.689126,6587.832884,-7994.224174,153.219100
1198.689456,6217.729913,-8808.450710,229.828649
1198.689785,5699.585753,-9770.718434,919.314598
1198.690114,5033.400406,-9474.636058,2068.457845
1198.690443,4737.318029,-8956.491898,2451.505594
1198.690773,4737.318029,-7254.018232,2604.724693
1198.691102,5847.626942,-7105.977043,2451.505594
1198.691431,6587.832884,-5773.606348,2221.676944
1198.691760,6291.750507,-5255.462188,1225.752797
1198.692090,6439.791695,-5255.462188,383.047749
1198.692419,7179.997637,-5033.400406,-689.485948
1198.692748,7846.182985,-5847.626942,-1072.533697
1198.693077,8364.327145,-6217.729913,-612.876398
1198.693407,8290.306550,-6661.853478,-459.657299
1198.693736,7920.203579,-7550.100608,0.000000
1198.694065,7550.100608,-7994.224174,1072.533697
1198.694395,7624.121203,-8068.244768,1685.410096
1198.694724,7179.997637,-7476.080014,2451.505594
1198.695053,7105.977043,-6513.812290,3217.601092
1198.695382,6217.729913,-6143.709319,3140.991542
1198.695712,6439.791695,-4737.318029,3140.991542
1198.696041,6661.853478,-4737.318029,2298.286494
1198.696370,7105.977043,-3923.091493,1915.238745
1198.696699,6809.894666,-3627.009116,76.609550
1198.697029,7105.977043,-4737.318029,-459.657299
1198.697358,7698.141797,-5329.482782,-229.828649
1198.697687,8290.306550,-6439.791695,-536.266849
1198.698016,8808.450710,-6809.894666,153.219100
1198.698346,8068.244768,-6809.894666,-383.047749
1198.698675,7031.956449,-8290.306550,76.609550
1198.699004,6735.874072,-8882.471304,1378.971896
1198.699333,6809.894666,-9178.553681,2145.067394
1198.699663,5773.606348,-7994.224174,2987.772442
1198.699992,5255.462188,-7772.162391,2834.553343
1198.700321,5477.523971,-7105.977043,2681.334243
1198.700651,6291.750507,-6439.791695,2681.334243
1198.700980,6143.709319,-5921.647536,2298.286494
1198.701309,6365.771101,-5033.400406,1072.533697
1198.701638,6069.688724,-4885.359217,-306.438199
1198.701968,6143.709319,-5625.565159,-1072.533697
1198.702297,6809.894666,-6291.750507,-1378.971896
1198.702626,7476.080014,-7105.977043,0.000000
1198.702955,7772.162391,-8216.285956,-612.876398
1198.703285,7105.977043,-8882.471304,229.828649
1198.703614,6957.935855,-8956.491898,919.314598
1198.703943,6883.915261,-8290.306550,2451.505594
1198.704272,6661.853478,-7624.121203,2681.334243
1198.704602,6587.832884,-6883.915261,3140.991542
1198.704931,7031.956449,-5329.482782,3753.867940
1198.705260,7920.203579,-4293.194464,3370.820191
1198.705589,8290.306550,-4145.153275,2374.896044
1198.705919,7994.224174,-3330.926739,1915.238745
1198.706248,7624.121203,-3923.091493,1072.533697
1198.706577,7920.203579,-4441.235652,383.047749
1198.706906,8290.306550,-4589.276840,-842.705048
1198.707236,8956.491898,-5181.441594,-766.095498
1198.707565,8734.430116,-6291.750507,-1072.533697
1198.707894,7698.141797,-7105.977043,-689.485948
1198.708224,6069.688724,-8586.388927,-536.266849
1198.708553,5625.565159,-8438.347739,536.266849
1198.708882,5625.565159,-9622.677246,1149.143247
1198.709211,5033.400406,-10066.800811,2068.457845
1198.709541,4663.297435,-9104.533087,2451.505594
1198.709870,5255.462188,-7994.224174,2374.896044
1198.710199,6291.750507,-7031.956449,2451.505594
1198.710528,6809.894666,-6069.688724,2298.286494
1198.710858,7105.977043,-5107.421000,1225.752797
1198.711187,6587.832884,-4441.235652,0.000000
1198.711516,7105.977043,-5181.441594,-919.314598
1198.711845,7994.224174,-5551.544565,-1149.143247
1198.712175,7402.059420,-6291.750507,-1532.190996
1198.712504,7994.224174,-6735.874072,-459.657299
1198.712833,7328.038826,-7179.997637,153.219100
1198.713162,7105.977043,-6957.935855,689.485948
1198.713492,6587.832884,-7105.977043,1608.800546
1198.713821,6291.750507,-7994.224174,1762.019645
1198.714150,6291.750507,-7994.224174,2911.162892
1198.714480,6365.771101,-7105.977043,2757.943793
1198.714809,7179.997637,-5551.544565,2604.724693
1198.715138,7254.018232,-5329.482782,2757.943793
1198.715467,7920.203579,-4515.256246,2221.676944
1198.715797,8438.347739,-3701.029710,1455.581446
1198.716126,8512.368333,-3330.926739,995.924147
1198.716455,8586.388927,-3552.988522,-383.047749
1198.716784,8512.368333,-4885.359217,-766.095498
1198.717114,8660.409521,-5551.544565,-612.876398
1198.717443,7550.100608,-6661.853478,-766.095498
1198.717772,6439.791695,-8808.450710,383.047749
1198.718101,5847.626942,-9030.512492,842.705048
1198.718431,5773.606348,-9474.636058,1762.019645
1198.718760,5551.544565,-8956.491898,2451.505594
1198.719089,5181.441594,-8142.265362,2528.115143
1198.719418,6291.750507,-7476.080014,2911.162892
1198.719748,6439.791695,-6513.812290,3064.381992
1198.720077,6513.812290,-5847.626942,2374.896044
1198.720406,6513.812290,-4811.338623,1072.533697
1198.720736,5995.668130,-5699.585753,-306.438199
1198.721065,6513.812290,-5921.647536,-842.705048
1198.721394,7402.059420,-6069.688724,-919.314598
1198.721723,8142.265362,-6809.894666,-229.828649
1198.722053,7994.224174,-7179.997637,-306.438199
1198.722382,7402.059420,-7550.100608,0.000000
1198.722711,6291.750507,-8586.388927,383.047749
1198.723040,5995.668130,-9030.512492,1225.752797
1198.723370,5847.626942,-9104.533087,2145.067394
1198.723699,6217.729913,-7698.141797,2987.772442
1198.724028,6439.791695,-6809.894666,3753.867940
1198.724357,7920.203579,-4219.173869,3983.696590
1198.724687,8734.430116,-2886.803174,3524.039291
1198.725016,9104.533087,-3034.844362,2451.505594
1198.725345,8364.327145,-2812.782580,1532.190996
1198.725674,7994.224174,-3182.885551,-536.266849
1198.726004,7920.203579,-3256.906145,-766.095498
1198.726333,7994.224174,-5477.523971,-612.876398
1198.726662,8290.306550,-6883.915261,-153.219100
1198.726992,7402.059420,-8142.265362,-766.095498
1198.727321,6069.688724,-8808.450710,-689.485948
1198.727650,5403.503377,-9770.718434,229.828649
1198.727979,5625.565159,-10288.862594,1532.190996
1198.728309,5255.462188,-10288.862594,1915.238745
1198.728638,4441.235652,-9474.636058,2298.286494
1198.728967,4737.318029,-8142.265362,2221.676944
1198.729296,5699.585753,-7105.977043,2374.896044
1198.729626,6587.832884,-5847.626942,2374.896044
1198.729955,7105.977043,-5329.482782,1762.019645
1198.730284,7254.018232,-4589.276840,153.219100
1198.730613,7624.121203,-4515.256246,-612.876398
1198.730943,7698.141797,-5033.400406,-842.705048
1198.731272,8216.285956,-4959.379811,-995.924147
1198.731601,8364.327145,-7031.956449,-612.876398
1198.731930,7624.121203,-7179.997637,383.047749
1198.732260,6957.935855,-7624.121203,536.266849
1198.732589,6735.874072,-8142.265362,1685.410096
1198.732918,7105.977043,-8438.347739,2681.334243
1198.733248,7328.038826,-7179.997637,2834.553343
1198.733577,6661.853478,-6365.771101,3064.381992
1198.733906,6587.832884,-5403.503377,2834.553343
1198.734235,7105.977043,-4811.338623,2221.676944
1198.734565,7402.059420,-3478.967927,1455.581446
1198.734894,7772.162391,-4441.235652,1072.533697
1198.735223,8142.265362,-4145.153275,0.000000
1198.735552,8142.265362,-4145.153275,-306.438199
1198.735882,8660.409521,-4959.379811,-995.924147
1198.736211,8142.265362,-5329.482782,-842.705048
1198.736540,7476.080014,-7254.018232,-766.095498
1198.736869,6661.853478,-8586.388927,0.000000
1198.737199,5921.647536,-9326.594869,306.438199
1198.737528,6143.709319,-9992.780217,1991.848295
1198.737857,5773.606348,-9178.553681,2528.115143
1198.738186,5699.585753,-8660.409521,3064.381992
1198.738516,5773.606348,-7624.121203,2987.772442
1198.738845,6143.709319,-5995.668130,2374.896044
1198.739174,6143.709319,-5255.462188,1378.971896
1198.739504,6069.688724,-5033.400406,536.266849
1198.739833,5773.606348,-5699.585753,-612.876398
1198.740162,6365.771101,-5403.503377,-1608.800546
1198.740491,7328.038826,-6069.688724,-536.266849
1198.740821,7994.224174,-7179.997637,-383.047749
1198.741150,7476.080014,-7920.203579,-153.219100
1198.741479,6513.812290,-8364.327145,0.000000
1198.741808,6439.791695,-8216.285956,689.485948
1198.742138,6957.935855,-8956.491898,2681.334243
1198.742467,7105.977043,-7994.224174,3447.429741
1198.742796,6809.894666,-6143.709319,3370.820191
1198.743125,7328.038826,-4737.318029,3907.087040
1198.743455,8290.306550,-3997.112087,3830.477490
1198.743784,8734.430116,-3552.988522,3064.381992
1198.744113,7772.162391,-3849.070898,2604.724693
1198.744442,7624.121203,-3627.009116,383.047749
1198.744772,7402.059420,-4145.153275,-612.876398
1198.745101,7476.080014,-5107.421000,-919.314598
1198.745430,7920.203579,-5699.585753,-766.095498
1198.745759,7994.224174,-7105.977043,-995.924147
1198.746089,7105.977043,-8216.285956,-536.266849
1198.746418,6365.771101,-8808.450710,0.000000
1198.746747,5699.585753,-9474.636058,153.219100
1198.747077,5477.523971,-9770.718434,1378.971896
1198.747406,5255.462188,-8882.471304,1991.848295
1198.747735,5033.400406,-8438.347739,2528.115143
1198.748064,6143.709319,-6883.915261,2987.772442
1198.748394,6883.915261,-6291.750507,2834.553343
1198.748723,7254.018232,-5847.626942,2374.896044
1198.749052,7105.977043,-5329.482782,612.876398
1198.749381,6217.729913,-5255.462188,-766.095498
1198.749711,6365.771101,-5255.462188,-766.095498
1198.750040,7328.038826,-7031.956449,-1149.143247
1198.750369,8216.285956,-6735.874072,-995.924147
1198.750698,7328.038826,-6661.853478,-995.924147
1198.751028,6587.832884,-7254.018232,0.000000
1198.751357,6957.935855,-7772.162391,612.876398
1198.751686,7328.038826,-8142.265362,1762.019645
1198.752015,6513.812290,-7698.141797,2451.505594
1198.752345,6513.812290,-6735.874072,2451.505594
1198.752674,7105.977043,-6439.791695,3294.210641
1198.753003,8216.285956,-5033.400406,3217.601092
1198.753333,7994.224174,-4663.297435,3064.381992
1198.753662,8364.327145,-3330.926739,1762.019645
1198.753991,8216.285956,-2590.720797,536.266849
1198.754320,7698.141797,-4293.194464,-153.219100
1198.754650,8142.265362,-4589.276840,-459.657299
1198.754979,8290.306550,-6069.688724,-842.705048
1198.755308,7624.121203,-6439.791695,-1378.971896
1198.755637,6365.771101,-7624.121203,0.000000
1198.755967,5921.647536,-8956.491898,153.219100
1198.756296,6365.771101,-9030.512492,1455.581446
1198.756625,6291.750507,-9548.656652,2145.067394
1198.756954,5625.565159,-8438.347739,3140.991542
1198.757284,5847.626942,-7772.162391,2757.943793
1198.757613,5847.626942,-6587.832884,2681.334243
1198.757942,6587.832884,-6217.729913,2757.943793
1198.758271,6735.874072,-6217.729913,2298.286494
1198.758601,6735.874072,-5033.400406,842.705048
1198.758930,6217.729913,-5329.482782,-153.219100
1198.759259,6439.791695,-6069.688724,-1455.581446
1198.759589,7402.059420,-7105.977043,-919.314598
1198.759918,7254.018232,-7846.182985,-536.266849
1198.760247,6957.935855,-7698.141797,-76.609550
1198.760576,5773.606348,-8882.471304,0.000000
1198.760906,5699.585753,-9104.533087,1302.362347
1198.761235,6365.771101,-7994.224174,2451.505594
1198.761564,7402.059420,-6735.874072,3294.210641
1198.761893,7402.059420,-4959.379811,3677.258390
1198.762222,7920.203579,-4441.235652,4136.915689
1198.762551,8586.388927,-3923.091493,3753.867940
1198.762880,8438.347739,-3552.988522,2451.505594
1198.763209,7179.997637,-3997.112087,1685.410096
1198.763538,6809.894666,-4515.256246,459.657299
1198.763867,6735.874072,-5477.523971,-459.657299
1198.764196,7698.141797,-5625.565159,-459.657299
1198.764525,8438.347739,-6883.915261,-229.828649
1198.764854,7994.224174,-8142.265362,-536.266849
1198.765184,6587.832884,-8290.306550,-919.314598
1198.765513,4811.338623,-9326.594869,-919.314598
1198.765842,4515.256246,-10066.800811,-153.219100
1198.766171,5107.421000,-9474.636058,842.705048
1198.766500,5107.421000,-9622.677246,2298.286494
1198.766829,5329.482782,-8290.306550,2681.334243
1198.767158,6439.791695,-6587.832884,2987.772442
1198.767487,7772.162391,-5107.421000,2681.334243
1198.767816,8142.265362,-5107.421000,2528.115143
1198.768145,7698.141797,-4811.338623,1225.752797
1198.768474,7550.100608,-4737.318029,-306.438199
1198.768803,7179.997637,-5181.441594,-1072.533697
1198.769132,7994.224174,-6069.688724,-1532.190996
1198.769461,7846.182985,-6513.812290,-842.705048
1198.769790,7624.121203,-6587.832884,-383.047749
1198.770119,7476.080014,-7254.018232,536.266849
1198.770448,7254.018232,-7105.977043,689.485948
1198.770778,7105.977043,-7328.038826,1991.848295
1198.771107,6439.791695,-7328.038826,2451.505594
1198.771436,6365.771101,-7105.977043,2528.115143
1198.771765,6439.791695,-5625.565159,2528.115143
1198.772094,7105.977043,-4663.297435,2528.115143
1198.772423,8216.285956,-4219.173869,2374.896044
1198.772752,8808.450710,-4515.256246,2298.286494
1198.773081,8438.347739,-4145.153275,766.095498
1198.773410,8142.265362,-4219.173869,0.000000
1198.773739,7846.182985,-4663.297435,76.609550
1198.774068,8290.306550,-5847.626942,-612.876398
1198.774397,7624.121203,-6661.853478,-995.924147
1198.774726,6365.771101,-7772.162391,-766.095498
1198.775055,5921.647536,-9104.533087,0.000000
1198.775384,5995.668130,-9474.636058,1455.581446
1198.775713,5329.482782,-9770.718434,1915.238745
1198.776042,4959.379811,-8882.471304,2298.286494
1198.776371,5255.462188,-7994.224174,2604.724693
1198.776701,5329.482782,-7476.080014,2911.162892
1198.777030,6513.812290,-6661.853478,3064.381992
1198.777359,6291.750507,-5551.544565,1762.019645
1198.777688,6143.709319,-5477.523971,536.266849
1198.778017,6217.729913,-5921.647536,0.000000
1198.778346,7254.018232,-5847.626942,-306.438199
1198.778675,7550.100608,-6365.771101,-612.876398
1198.779004,7624.121203,-6661.853478,-229.828649
1198.779333,7476.080014,-6957.935855,-229.828649
1198.779662,7031.956449,-7920.203579,689.485948
1198.779991,6513.812290,-7402.059420,1532.190996
1198.780320,6587.832884,-7179.997637,2374.896044
1198.780649,6957.935855,-6809.894666,3294.210641
1198.780978,7031.956449,-5699.585753,3447.429741
1198.781307,7624.121203,-5329.482782,3753.867940
1198.781636,7772.162391,-4367.215058,3370.820191
1198.781965,8142.265362,-4145.153275,2374.896044
1198.782295,7624.121203,-4515.256246,1302.362347
1198.782624,7031.956449,-4737.318029,229.828649
1198.782953,6957.935855,-5477.523971,-766.095498
1198.783282,7179.997637,-5995.668130,-459.657299
1198.783611,8290.306550,-6661.853478,-919.314598
1198.783940,7698.141797,-8216.285956,-536.266849
1198.784269,6587.832884,-8734.430116,-459.657299
1198.784598,4811.338623,-9622.677246,-536.266849
1198.784927,4737.318029,-9770.718434,0.000000
1198.785256,5107.421000,-9622.677246,1302.362347
1198.785585,5477.523971,-9326.594869,2528.115143
1198.785914,6661.853478,-7698.141797,3677.258390
1198.786243,7105.977043,-6291.750507,3447.429741
1198.786572,7994.224174,-5033.400406,3064.381992
1198.786901,7698.141797,-4293.194464,2221.676944
1198.787230,7105.977043,-4589.276840,459.657299
1198.787559,6809.894666,-4885.359217,-383.047749
1198.787888,7105.977043,-5181.441594,-1225.752797
1198.788218,7624.121203,-6217.729913,-995.924147
1198.788547,8290.306550,-6587.832884,-536.266849
1198.788876,7846.182985,-7476.080014,-383.047749
1198.789205,6957.935855,-7994.224174,153.219100
1198.789534,6587.832884,-8364.327145,842.705048
1198.789863,6291.750507,-8660.409521,2068.457845
1198.790192,6587.832884,-7846.182985,2145.067394
1198.790521,6587.832884,-6883.915261,2528.115143
1198.790850,7105.977043,-5699.585753,2757.943793
1198.791179,7920.203579,-4589.276840,2911.162892
1198.791508,8142.265362,-3701.029710,2451.505594
1198.791837,8216.285956,-3182.885551,2221.676944
1198.792166,7994.224174,-3330.926739,842.705048
1198.792495,8808.450710,-3330.926739,689.485948
1198.792824,8438.347739,-4219.173869,-383.047749
1198.793153,8290.306550,-5403.503377,-842.705048
1198.793482,7402.059420,-6587.832884,-1378.971896
1198.793812,6291.750507,-8586.388927,-459.657299
1198.794141,5921.647536,-9474.636058,153.219100
1198.794470,5625.565159,-10288.862594,919.314598
1198.794799,4959.379811,-9844.739029,1532.190996
1198.795128,4515.256246,-9104.533087,2451.505594
1198.795457,5403.503377,-7994.224174,2834.553343
1198.795786,6735.874072,-6587.832884,3294.210641
1198.796115,7031.956449,-5551.544565,2451.505594
1198.796444,6957.935855,-4293.194464,1302.362347
1198.796773,6365.771101,-4367.215058,153.219100
1198.797102,6365.771101,-5255.462188,-459.657299
1198.797431,7105.977043,-5329.482782,-689.485948
1198.797760,7624.121203,-7328.038826,-383.047749
1198.798089,7994.224174,-7105.977043,-689.485948
1198.798418,6957.935855,-8290.306550,-306.438199
1198.798747,6439.791695,-9252.574275,536.266849
1198.799076,6365.771101,-8956.491898,766.095498
1198.799405,6439.791695,-9548.656652,1685.410096
1198.799735,6217.729913,-8438.347739,2528.115143
1198.800064,6291.750507,-6883.915261,2911.162892
1198.800393,7550.100608,-5551.544565,3140.991542
1198.800722,7920.203579,-4293.194464,3677.258390
1198.801051,8734.430116,-3034.844362,3294.210641
1198.801380,8364.327145,-2664.741391,2145.067394
1198.801709,7698.141797,-1924.535449,306.438199
1198.802038,7550.100608,-3108.864956,-459.657299
1198.802367,8364.327145,-4663.297435,0.000000
1198.802696,9326.594869,-5921.647536,0.000000
1198.803025,8586.388927,-6883.915261,0.000000
1198.803354,7105.977043,-7994.224174,-153.219100
1198.803683,5625.565159,-9104.533087,0.000000
1198.804012,5847.626942,-9992.780217,536.266849
1198.804341,5625.565159,-10066.800811,1532.190996
1198.804670,5255.462188,-9030.512492,2298.286494
1198.804999,5625.565159,-8290.306550,2681.334243
1198.805329,6587.832884,-6587.832884,2528.115143
1198.805658,6661.853478,-5255.462188,2145.067394
1198.805987,6735.874072,-5329.482782,1532.190996
1198.806316,6143.709319,-5033.400406,689.485948
1198.806645,6291.750507,-5033.400406,-612.876398
1198.806974,7031.956449,-4737.318029,-1378.971896
1198.807303,7402.059420,-5921.647536,-919.314598
1198.807632,8364.327145,-6735.874072,-612.876398
1198.807961,7624.121203,-7402.059420,-306.438199
1198.808290,6957.935855,-8882.471304,459.657299
1198.808619,6809.894666,-8882.471304,1532.190996
1198.808948,6661.853478,-8882.471304,1762.019645
1198.809277,6069.688724,-8142.265362,2451.505594
1198.809606,5699.585753,-6513.812290,2528.115143
1198.809935,6439.791695,-5921.647536,2911.162892
1198.810264,7105.977043,-4515.256246,2911.162892
1198.810593,7402.059420,-3775.050304,2451.505594
1198.810923,7772.162391,-2960.823768,1225.752797
1198.811252,7920.203579,-3330.926739,536.266849
1198.811581,8364.327145,-3627.009116,229.828649
1198.811910,8882.471304,-4663.297435,-153.219100
1198.812239,9252.574275,-5625.565159,-306.438199
1198.812568,8586.388927,-6661.853478,-229.828649
1198.812897,7105.977043,-8660.409521,-153.219100
1198.813226,6069.688724,-9770.718434,153.219100
1198.813555,5699.585753,-10510.924376,1378.971896
1198.813884,5625.565159,-10066.800811,1915.238745
1198.814213,5329.482782,-8216.285956,2374.896044
1198.814542,5255.462188,-7402.059420,2834.553343
1198.814871,5699.585753,-5921.647536,2987.772442
1198.815200,6365.771101,-5403.503377,2451.505594
1198.815529,6069.688724,-4885.359217,1378.971896
1198.815858,6143.709319,-4293.194464,229.828649
1198.816187,6957.935855,-4959.379811,-689.485948
1198.816516,7550.100608,-5551.544565,-689.485948
1198.816846,8364.327145,-6291.750507,-383.047749
1198.817175,8364.327145,-7105.977043,-459.657299
1198.817504,7846.182985,-8290.306550,0.000000
1198.817833,6883.915261,-9178.553681,229.828649
1198.818162,6439.791695,-9992.780217,1378.971896
1198.818491,5921.647536,-9326.594869,1762.019645
1198.818820,5921.647536,-7994.224174,1991.848295
1198.819149,5773.606348,-6809.894666,2911.162892
1198.819478,6439.791695,-5773.606348,2911.162892
1198.819807,7105.977043,-4219.173869,2298.286494
1198.820136,7402.059420,-3627.009116,1915.238745
1198.820465,7698.141797,-3108.864956,1302.362347
1198.820794,7624.121203,-3478.967927,76.609550
1198.821123,8364.327145,-3478.967927,0.000000
1198.821452,8808.450710,-4071.132681,-612.876398
1198.821781,9178.553681,-5107.421000,-229.828649
1198.822110,9178.553681,-6587.832884,0.000000
1198.822440,7624.121203,-8068.244768,153.219100
1198.822769,6217.729913,-9104.533087,229.828649
1198.823098,5625.565159,-9770.718434,536.266849
1198.823427,5033.400406,-10140.821405,1072.533697
1198.823756,5329.482782,-9178.553681,2451.505594
1198.824085,5477.523971,-8290.306550,2681.334243
1198.824414,5699.585753,-5995.668130,2374.896044
1198.824743,6217.729913,-5403.503377,1991.848295
1198.825072,6217.729913,-5699.585753,1149.143247
1198.825401,6661.853478,-5329.482782,306.438199
1198.825730,6513.812290,-4959.379811,0.000000
1198.826059,7772.162391,-4737.318029,-919.314598
1198.826388,8438.347739,-5773.606348,-383.047749
1198.826717,8586.388927,-7328.038826,153.219100
1198.827046,7550.100608,-7772.162391,-306.438199
1198.827375,6883.915261,-8364.327145,536.266849
1198.827704,6365.771101,-8734.430116,1072.533697
1198.828033,5995.668130,-8956.491898,2068.457845
1198.828363,5847.626942,-8438.347739,2451.505594
1198.828692,5995.668130,-7698.141797,2604.724693
1198.829021,6217.729913,-5477.523971,2987.772442
1198.829350,6661.853478,-4737.318029,2757.943793
1198.829679,7698.141797,-3627.009116,1991.848295
1198.830008,7698.141797,-2812.782580,1455.581446
1198.830337,8364.327145,-3775.050304,459.657299
1198.830666,8808.450710,-3182.885551,0.000000
1198.830995,8882.471304,-4071.132681,-459.657299
1198.831324,9104.533087,-4811.338623,-1072.533697
1198.831653,7476.080014,-6513.812290,-842.705048
1198.831982,7031.956449,-9030.512492,76.609550
1198.832311,6809.894666,-9326.594869,1378.971896
1198.832640,6809.894666,-9548.656652,2298.286494
1198.832969,6143.709319,-8512.368333,2298.286494
1198.833298,5403.503377,-7994.224174,2604.724693
1198.833627,5773.606348,-7476.080014,3140.991542
1198.833957,6143.709319,-6513.812290,3370.820191
1198.834286,6587.832884,-5995.668130,2451.505594
1198.834615,5847.626942,-4885.359217,689.485948
1198.834944,5403.503377,-5033.400406,-842.705048
1198.835273,5995.668130,-5921.647536,-1149.143247
1198.835602,6957.935855,-6809.894666,-612.876398
1198.835931,8142.265362,-7105.977043,-383.047749
1198.836260,7402.059420,-7105.977043,-919.314598
1198.836589,6661.853478,-8216.285956,-306.438199
1198.836918,6661.853478,-9104.533087,153.219100
1198.837247,7105.977043,-8808.450710,1608.800546
1198.837576,7105.977043,-8290.306550,2298.286494
1198.837905,7105.977043,-7254.018232,2757.943793
1198.838234,7105.977043,-6513.812290,3140.991542
1198.838563,7476.080014,-5477.523971,3524.039291
1198.838892,7698.141797,-4219.173869,3524.039291
1198.839221,7920.203579,-3627.009116,2528.115143
1198.839550,7624.121203,-3256.906145,1149.143247
1198.839880,7328.038826,-3701.029710,0.000000
1198.840209,7994.224174,-3849.070898,-1225.752797
1198.840538,7846.182985,-4737.318029,-612.876398
1198.840867,8290.306550,-6143.709319,-766.095498
1198.841196,7772.162391,-7402.059420,-689.485948
1198.841525,6957.935855,-8364.327145,0.000000
1198.841854,6587.832884,-9178.553681,919.314598
1198.842183,6365.771101,-9474.636058,1532.190996
1198.842512,5551.544565,-9252.574275,1915.238745
1198.842841,5477.523971,-8216.285956,2374.896044
1198.843170,6069.688724,-7328.038826,2757.943793
1198.843499,7550.100608,-5995.668130,3217.601092
1198.843828,7328.038826,-5107.421000,2528.115143
1198.844157,6957.935855,-4737.318029,1149.143247
1198.844486,6217.729913,-4737.318029,-229.828649
1198.844815,6143.709319,-4515.256246,-1455.581446
1198.845144,6587.832884,-6143.709319,-1378.971896
1198.845474,7328.038826,-6809.894666,-842.705048
1198.845803,7031.956449,-7179.997637,-766.095498
1198.846132,6735.874072,-8290.306550,-306.438199
1198.846461,6143.709319,-8512.368333,153.219100
1198.846790,6143.709319,-8660.409521,1225.752797
1198.847119,6513.812290,-8808.450710,2298.286494
1198.847448,6883.915261,-7624.121203,2911.162892
1198.847777,7031.956449,-6365.771101,3140.991542
1198.848106,7031.956449,-5033.400406,3524.039291
1198.848435,7994.224174,-4885.359217,3294.210641
1198.848764,7994.224174,-4737.318029,2451.505594
1198.849093,7772.162391,-3404.947333,919.314598
1198.849422,7476.080014,-3478.967927,76.609550
1198.849751,7772.162391,-3923.091493,-766.095498
1198.850080,8290.306550,-5921.647536,-383.047749
1198.850409,8438.347739,-6809.894666,-383.047749
1198.850738,7105.977043,-7328.038826,-536.266849
1198.851068,5921.647536,-9030.512492,0.000000
1198.851397,5551.544565,-9622.677246,766.095498
1198.851726,5625.565159,-9992.780217,1532.190996
1198.852055,5551.544565,-8734.430116,2528.115143
1198.852384,5847.626942,-7179.997637,2834.553343
1198.852713,7105.977043,-6365.771101,3447.429741
1198.853042,7920.203579,-5329.482782,3524.039291
1198.853371,7550.100608,-4737.318029,2681.334243
1198.853700,7105.977043,-4293.194464,1149.143247
1198.854029,6143.709319,-4293.194464,-459.657299
1198.854358,6291.750507,-5847.626942,-766.095498
1198.854687,7179.997637,-5995.668130,-842.705048
1198.855016,7550.100608,-7105.977043,-612.876398
1198.855345,7476.080014,-7920.203579,-612.876398
1198.855674,5773.606348,-8586.388927,-459.657299
1198.856003,5625.565159,-9622.677246,536.266849
1198.856332,6439.791695,-9474.636058,1455.581446
1198.856661,6217.729913,-8512.368333,2221.676944
1198.856991,5995.668130,-7179.997637,2757.943793
1198.857320,6439.791695,-6217.729913,3064.381992
1198.857649,7179.997637,-4737.318029,3294.210641
1198.857978,7846.182985,-3923.091493,2681.334243
1198.858307,8364.327145,-2812.782580,2298.286494
1198.858636,9030.512492,-2886.803174,1378.971896
1198.858965,9030.512492,-3775.050304,919.314598
1198.859294,8882.471304,-4219.173869,0.000000
1198.859623,8216.285956,-4811.338623,-995.924147
1198.859952,7328.038826,-6513.812290,-995.924147
1198.860281,6809.894666,-7920.203579,-1149.143247
1198.860610,5847.626942,-9474.636058,-383.047749
1198.860939,5625.565159,-10288.862594,383.047749
1198.861268,5329.482782,-9400.615463,995.924147
1198.861597,5329.482782,-9030.512492,1608.800546
1198.861926,5107.421000,-8438.347739,2604.724693
1198.862255,6291.750507,-7179.997637,2834.553343
1198.862585,6957.935855,-5921.647536,2528.115143
1198.862914,7328.038826,-4811.338623,1762.019645
1198.863243,6957.935855,-4885.359217,842.705048
1198.863572,6957.935855,-4885.359217,0.000000
1198.863901,6957.935855,-5181.441594,-536.266849
1198.864230,7698.141797,-5699.585753,-842.705048
1198.864559,8216.285956,-6291.750507,-1072.533697
1198.864889,7328.038826,-7402.059420,-383.047749
1198.865218,6883.915261,-8290.306550,0.000000
1198.865547,6143.709319,-8512.368333,0.000000
1198.865876,5921.647536,-9104.533087,842.705048
1198.866205,6291.750507,-8660.409521,1608.800546
1198.866535,6291.750507,-7624.121203,2451.505594
1198.866864,6661.853478,-6439.791695,3064.381992
1198.867193,7105.977043,-4515.256246,2987.772442
1198.867522,7698.141797,-3627.009116,3370.820191
1198.867851,8808.450710,-3256.906145,2298.286494
1198.868181,8512.368333,-3182.885551,306.438199
1198.868510,7920.203579,-3627.009116,0.000000
1198.868839,7994.224174,-4367.215058,-612.876398
1198.869168,8512.368333,-5403.503377,-842.705048
1198.869497,7772.162391,-7772.162391,-536.266849
1198.869827,6957.935855,-8660.409521,-536.266849
1198.870156,5477.523971,-9400.615463,-612.876398
1198.870485,5107.421000,-9844.739029,689.485948
1198.870814,5625.565159,-9992.780217,1685.410096
1198.871143,6143.709319,-8808.450710,2681.334243
1198.871473,5995.668130,-7328.038826,2987.772442
1198.871802,6069.688724,-6069.688724,2911.162892
1198.872131,7179.997637,-4589.276840,2987.772442
1198.872460,7402.059420,-4441.235652,2451.505594
1198.872789,7328.038826,-4959.379811,1532.190996
1198.873119,6809.894666,-4441.235652,0.000000
1198.873448,6439.791695,-4737.318029,-995.924147
1198.873777,6809.894666,-6217.729913,-1149.143247
1198.874106,7402.059420,-7254.018232,-536.266849
1198.874435,7105.977043,-8290.306550,-459.657299
1198.874765,6143.709319,-9252.574275,0.000000
1198.875094,5403.503377,-9400.615463,536.266849
1198.875423,5329.482782,-9548.656652,2145.067394
1198.875752,5847.626942,-8068.244768,2451.505594
1198.876081,6735.874072,-6439.791695,3753.867940
1198.876411,7105.977043,-4811.338623,3830.477490
1198.876740,8142.265362,-4589.276840,3677.258390
1198.877069,7698.141797,-3923.091493,2681.334243
1198.877398,7328.038826,-3552.988522,1378.971896
1198.877727,7105.977043,-3701.029710,76.609550
1198.878057,7550.100608,-3849.070898,-459.657299
1198.878386,7772.162391,-5033.400406,-383.047749
1198.878715,8808.450710,-5847.626942,-229.828649
1198.879044,8956.491898,-6587.832884,-229.828649
1198.879373,8068.244768,-7846.182985,-153.219100
1198.879703,6439.791695,-8512.368333,306.438199
1198.880032,5477.523971,-9474.636058,306.438199
1198.880361,5033.400406,-9548.656652,1149.143247
1198.880690,4663.297435,-9400.615463,1762.019645
1198.881019,4663.297435,-8882.471304,2374.896044
1198.881349,5625.565159,-7105.977043,3294.210641
1198.881678,6809.894666,-5773.606348,2528.115143
1198.882007,7328.038826,-4737.318029,1915.238745
1198.882336,7402.059420,-4959.379811,766.095498
1198.882665,7105.977043,-5107.421000,229.828649
1198.882995,7402.059420,-4737.318029,-1225.752797
1198.883324,7994.224174,-5107.421000,-1378.971896
1198.883653,8512.368333,-6143.709319,-842.705048
1198.883982,7994.224174,-7624.121203,229.828649
1198.884311,7994.224174,-8142.265362,536.266849
1198.884641,7402.059420,-7920.203579,919.314598
1198.884970,7105.977043,-7476.080014,1378.971896
1198.885299,6883.915261,-7624.121203,2451.505594
1198.885628,6735.874072,-6883.915261,2911.162892
1198.885957,6439.791695,-6217.729913,2911.162892
1198.886287,6587.832884,-5107.421000,2451.505594
1198.886616,7105.977043,-3997.112087,1991.848295
1198.886945,7772.162391,-3627.009116,1378.971896
1198.887274,8364.327145,-4071.132681,1302.362347
1198.887603,8512.368333,-4367.215058,0.000000
1198.887933,8290.306550,-4293.194464,-689.485948
1198.888262,8808.450710,-5625.565159,-689.485948
1198.888591,8290.306550,-6661.853478,-689.485948
1198.888920,6735.874072,-7624.121203,0.000000
1198.889249,6143.709319,-9104.533087,229.828649
1198.889579,5995.668130,-9474.636058,1072.533697
1198.889908,5847.626942,-9474.636058,2145.067394
1198.890237,5625.565159,-8512.368333,3294.210641
1198.890566,5773.606348,-7846.182985,2681.334243
1198.890896,5995.668130,-6661.853478,2757.943793
1198.891225,5921.647536,-6883.915261,2911.162892
1198.891554,6143.709319,-5995.668130,1762.019645
1198.891883,5995.668130,-4885.359217,842.705048
1198.892212,5847.626942,-5181.441594,-459.657299
1198.892542,6439.791695,-5921.647536,-1072.533697
1198.892871,7402.059420,-6661.853478,-229.828649
1198.893200,8290.306550,-7105.977043,-459.657299
1198.893529,7476.080014,-7105.977043,-536.266849
1198.893858,6883.915261,-8142.265362,0.000000
1198.894188,5995.668130,-8808.450710,1149.143247
1198.894517,6069.688724,-8586.388927,2145.067394
1198.894846,6143.709319,-8364.327145,3064.381992
1198.895175,6513.812290,-5847.626942,3370.820191
1198.895504,7328.038826,-5403.503377,3600.648841
1198.895834,8142.265362,-4515.256246,3830.477490
1198.896163,8068.244768,-4811.338623,2451.505594
1198.896492,7105.977043,-4367.215058,689.485948
1198.896821,6957.935855,-4145.153275,-153.219100
1198.897150,6735.874072,-5033.400406,-383.047749
1198.897480,7624.121203,-5329.482782,-689.485948
1198.897809,8586.388927,-5847.626942,76.609550
1198.898138,8216.285956,-6735.874072,-536.266849
1198.898467,6957.935855,-7105.977043,0.000000
1198.898796,6291.750507,-8216.285956,229.828649
1198.899126,6513.812290,-8808.450710,536.266849
1198.899455,5625.565159,-8956.491898,1762.019645
1198.899784,5107.421000,-9400.615463,2221.676944
1198.900113,5329.482782,-9326.594869,2834.553343
1198.900442,6291.750507,-7550.100608,2987.772442
1198.900772,6809.894666,-6513.812290,3140.991542
1198.901101,6661.853478,-5033.400406,1225.752797
1198.901430,6069.688724,-4515.256246,459.657299
1198.901759,6957.935855,-5033.400406,-536.266849
1198.902088,7328.038826,-5699.585753,-689.485948
1198.902418,8216.285956,-5847.626942,-1532.190996
1198.902747,7994.224174,-5551.544565,-1072.533697
1198.903076,7624.121203,-6809.894666,-383.047749
1198.903405,7179.997637,-7550.100608,766.095498
1198.903734,7328.038826,-8142.265362,1302.362347
1198.904064,7254.018232,-7698.141797,1762.019645
1198.904393,6735.874072,-7402.059420,2451.505594
1198.904722,6735.874072,-7105.977043,2451.505594
1198.905051,7105.977043,-6217.729913,2757.943793
1198.905380,7550.100608,-5107.421000,2604.724693
1198.905710,7846.182985,-4663.297435,2221.676944
1198.906039,8216.285956,-3997.112087,1685.410096
1198.906368,8216.285956,-4367.215058,459.657299
1198.906697,7550.100608,-4071.132681,-383.047749
1198.907026,7476.080014,-4367.215058,-383.047749
1198.907356,7846.182985,-6291.750507,-995.924147
1198.907685,7624.121203,-6661.853478,-766.095498
1198.908014,6143.709319,-8364.327145,-76.609550
1198.908343,6217.729913,-8586.388927,459.657299
1198.908672,6365.771101,-9474.636058,1302.362347
1198.909002,6291.750507,-9474.636058,2451.505594
1198.909331,5921.647536,-8142.265362,2834.553343
1198.909660,6217.729913,-7179.997637,2911.162892
1198.909989,6883.915261,-6069.688724,3830.477490
1198.910318,7254.018232,-5255.462188,3064.381992
1198.910648,7031.956449,-4885.359217,2068.457845
1198.910977,6439.791695,-4737.318029,536.266849
1198.911306,5921.647536,-5255.462188,-842.705048
1198.911635,6291.750507,-5773.606348,-1532.190996
1198.911964,6587.832884,-6957.935855,-1302.362347
1198.912294,7105.977043,-7402.059420,-612.876398
1198.912623,6735.874072,-8290.306550,0.000000
1198.912952,6439.791695,-8956.491898,0.000000
1198.913281,6291.750507,-8660.409521,612.876398
1198.913610,5995.668130,-9030.512492,1302.362347
1198.913940,6069.688724,-9104.533087,2374.896044
1198.914269,6217.729913,-7994.224174,2911.162892
1198.914598,7846.182985,-6957.935855,3753.867940
1198.914927,8142.265362,-5329.482782,3753.867940
1198.915256,8364.327145,-3923.091493,3064.381992
1198.915586,8586.388927,-3627.009116,2145.067394
1198.915915,8142.265362,-1776.494261,842.705048
1198.916244,7698.141797,-2220.617826,-995.924147
1198.916573,8068.244768,-3034.844362,-1149.143247
1198.916902,8734.430116,-4959.379811,-612.876398
1198.917232,8364.327145,-6809.894666,-306.438199
1198.917561,7105.977043,-7179.997637,229.828649
1198.917890,5773.606348,-7994.224174,0.000000
1198.918219,5699.585753,-9474.636058,306.438199
1198.918548,5773.606348,-10288.862594,1838.629195
1198.918878,5255.462188,-9400.615463,2298.286494
1198.919207,5477.523971,-8142.265362,2451.505594
1198.919536,6661.853478,-7105.977043,2834.553343
1198.919865,7105.977043,-6291.750507,2528.115143
1198.920194,7105.977043,-5477.523971,1838.629195
1198.920524,6143.709319,-5107.421000,995.924147
1198.920853,5995.668130,-4959.379811,-919.314598
1198.921182,6587.832884,-5033.400406,-1225.752797
1198.921511,7328.038826,-5847.626942,-1149.143247
1198.921840,7698.141797,-6661.853478,-689.485948
1198.922170,7550.100608,-7031.956449,-995.924147
1198.922499,6587.832884,-7994.224174,229.828649
1198.922828,6439.791695,-8660.409521,995.924147
1198.923157,6217.729913,-8512.368333,1838.629195
1198.923486,6587.832884,-8586.388927,2834.553343
1198.923816,6809.894666,-6809.894666,3294.210641
1198.924145,7179.997637,-5773.606348,3217.601092
1198.924474,7550.100608,-5477.523971,3370.820191
1198.924803,8364.327145,-4293.194464,2451.505594
1198.925132,8216.285956,-3775.050304,1149.143247
1198.925462,7698.141797,-4219.173869,536.266849
1198.925791,7476.080014,-3923.091493,-459.657299
1198.926120,7994.224174,-4219.173869,-766.095498
1198.926449,8290.306550,-4959.379811,-919.314598
1198.926778,7698.141797,-6661.853478,-459.657299
1198.927108,6809.894666,-7846.182985,0.000000
1198.927437,5551.544565,-8956.491898,76.609550
1198.927766,5181.441594,-9844.739029,919.314598
1198.928095,6217.729913,-9104.533087,1915.238745
1198.928424,6217.729913,-8808.450710,3064.381992
1198.928754,6661.853478,-7550.100608,3753.867940
1198.929083,6957.935855,-6217.729913,3447.429741
1198.929412,7031.956449,-5255.462188,2451.505594
1198.929741,6587.832884,-4441.235652,1532.190996
1198.930070,6587.832884,-5329.482782,229.828649
1198.930400,6217.729913,-5255.462188,-459.657299
1198.930729,6365.771101,-5773.606348,-1455.581446
1198.931058,7328.038826,-6439.791695,-1072.533697
1198.931387,7179.997637,-7179.997637,-536.266849
1198.931716,6513.812290,-8808.450710,0.000000
1198.932046,5921.647536,-9178.553681,383.047749
1198.932375,5699.585753,-8882.471304,612.876398
1198.932704,6365.771101,-8660.409521,2068.457845
1198.933033,6587.832884,-7846.182985,2451.505594
1198.933362,7105.977043,-7254.018232,3064.381992
1198.933692,7920.203579,-5329.482782,3370.820191
1198.934021,8364.327145,-4145.153275,2987.772442
1198.934350,8734.430116,-3923.091493,2681.334243
1198.934679,8586.388927,-3108.864956,1455.581446
1198.935008,8512.368333,-3256.906145,459.657299
1198.935338,8290.306550,-3256.906145,0.000000
1198.935667,8734.430116,-3330.926739,-306.438199
1198.935996,8882.471304,-5477.523971,-459.657299
1198.936325,7624.121203,-6217.729913,-689.485948
1198.936654,6217.729913,-7920.203579,-1072.533697
1198.936984,5551.544565,-9104.533087,0.000000
1198.937313,5921.647536,-10066.800811,1149.143247
1198.937642,6143.709319,-9770.718434,1838.629195
1198.937971,6365.771101,-9252.574275,2757.943793
1198.938300,5995.668130,-7846.182985,2528.115143
1198.938630,6291.750507,-6957.935855,3140.991542
1198.938959,6735.874072,-5921.647536,2528.115143
1198.939288,6735.874072,-5699.585753,1225.752797
1198.939617,6069.688724,-5847.626942,0.000000
1198.939946,5699.585753,-5699.585753,-536.266849
1198.940276,6069.688724,-5921.647536,-995.924147
1198.940605,7031.956449,-6661.853478,-1072.533697
1198.940934,7105.977043,-6587.832884,-995.924147
1198.941263,6883.915261,-7328.038826,-612.876398
1198.941592,6439.791695,-7846.182985,306.438199
1198.941922,6587.832884,-7772.162391,919.314598
1198.942251,7105.977043,-7624.121203,2068.457845
1198.942580,7254.018232,-7328.038826,2987.772442
1198.942909,7402.059420,-6883.915261,3217.601092
1198.943238,7846.182985,-5773.606348,3217.601092
1198.943568,8364.327145,-4293.194464,3447.429741
1198.943897,8586.388927,-3478.967927,2681.334243
1198.944226,8290.306550,-3478.967927,1762.019645
1198.944555,7920.203579,-3034.844362,536.266849
1198.944884,7846.182985,-3627.009116,-766.095498
1198.945214,8142.265362,-4737.318029,-766.095498
1198.945543,8364.327145,-5625.565159,-536.266849
1198.945872,7179.997637,-7179.997637,-842.705048
1198.946201,5477.523971,-9030.512492,-689.485948
1198.946530,4663.297435,-9696.697840,0.000000
1198.946860,4885.359217,-10584.944971,1149.143247
1198.947189,5403.503377,-9844.739029,2298.286494
1198.947518,5921.647536,-8364.327145,2757.943793
1198.947847,6291.750507,-7105.977043,3524.039291
1198.948176,7402.059420,-5847.626942,2834.553343
1198.948506,7846.182985,-4737.318029,2834.553343
1198.948835,7624.121203,-4293.194464,1685.410096
1198.949164,7031.956449,-4663.297435,612.876398
1198.949493,6217.729913,-4515.256246,-1302.362347
1198.949822,6439.791695,-5847.626942,-1532.190996
1198.950152,7105.977043,-7254.018232,-689.485948
1198.950481,7105.977043,-7920.203579,-306.438199
1198.950810,6587.832884,-8808.450710,0.000000
1198.951139,5921.647536,-9030.512492,0.000000
1198.951468,5477.523971,-9548.656652,459.657299
1198.951798,5773.606348,-9400.615463,1838.629195
1198.952127,6365.771101,-7920.203579,2451.505594
1198.952456,6513.812290,-6957.935855,2911.162892
1198.952785,7476.080014,-5921.647536,3447.429741
1198.953114,8512.368333,-4737.318029,3294.210641
1198.953444,8660.409521,-3997.112087,2757.943793
1198.953773,8438.347739,-3627.009116,1685.410096
1198.954102,8142.265362,-3034.844362,306.438199
1198.954431,7846.182985,-3330.926739,-919.314598
1198.954760,8290.306550,-4441.235652,-919.314598
1198.955090,8882.471304,-5255.462188,-612.876398
1198.955419,8586.388927,-7031.956449,-689.485948
1198.955748,6587.832884,-8068.244768,0.000000
1198.956077,5625.565159,-9030.512492,842.705048
1198.956406,5699.585753,-9474.636058,995.924147
1198.956736,5625.565159,-9474.636058,2221.676944
1198.957065,5403.503377,-9030.512492,2834.553343
1198.957394,5033.400406,-7254.018232,2757.943793
1198.957723,5995.668130,-6439.791695,2604.724693
1198.958052,6809.894666,-5699.585753,1915.238745
1198.958382,7105.977043,-5107.421000,2145.067394
1198.958711,6809.894666,-5107.421000,306.438199
1198.959040,6809.894666,-5329.482782,-383.047749
1198.959369,6735.874072,-5033.400406,-1149.143247
1198.959698,7031.956449,-5921.647536,-1302.362347
1198.960028,7402.059420,-6513.812290,-766.095498
1198.960357,7031.956449,-7772.162391,0.000000
1198.960686,6661.853478,-7920.203579,842.705048
1198.961015,6587.832884,-8068.244768,1532.190996
1198.961345,6143.709319,-7624.121203,2451.505594
1198.961674,6957.935855,-7105.977043,2987.772442
1198.962003,7105.977043,-6513.812290,3140.991542
1198.962336,7624.121203,-5255.462188,3447.429741
1198.962665,8438.347739,-4515.256246,3140.991542
1198.962994,9178.553681,-3701.029710,2298.286494
1198.963323,8142.265362,-4145.153275,1149.143247
1198.963652,7402.059420,-3997.112087,0.000000
1198.963982,7328.038826,-4515.256246,-1302.362347
1198.964311,7994.224174,-4589.276840,-766.095498
1198.964640,8068.244768,-6439.791695,-306.438199
1198.964969,7328.038826,-8068.244768,-383.047749
1198.965298,6217.729913,-8586.388927,0.000000
1198.965627,5107.421000,-9326.594869,-153.219100
1198.965956,5477.523971,-9474.636058,1378.971896
1198.966285,6069.688724,-9474.636058,2068.457845
1198.966614,6587.832884,-8290.306550,3064.381992
1198.966944,7031.956449,-6809.894666,3830.477490
1198.967273,7846.182985,-5329.482782,3294.210641
1198.967602,7254.018232,-4811.338623,2681.334243
1198.967931,7179.997637,-4737.318029,1455.581446
1198.968260,6809.894666,-5477.523971,0.000000
1198.968589,6217.729913,-5255.462188,-459.657299
1198.968918,6439.791695,-6513.812290,-1991.848295
1198.969247,6661.853478,-7105.977043,-1225.752797
1198.969576,6587.832884,-8290.306550,-766.095498
1198.969906,5921.647536,-9400.615463,-536.266849
1198.970235,5403.503377,-8882.471304,153.219100
1198.970564,5847.626942,-9104.533087,1149.143247
1198.970893,6143.709319,-8660.409521,2068.457845
1198.971222,6513.812290,-7476.080014,3140.991542
1198.971551,7031.956449,-6661.853478,3983.696590
1198.971880,7846.182985,-4515.256246,3830.477490
1198.972209,8734.430116,-3034.844362,4060.306139
1198.972538,9548.656652,-3182.885551,2987.772442
1198.972868,9252.574275,-2664.741391,1915.238745
1198.973197,7920.203579,-3182.885551,0.000000
1198.973526,7328.038826,-4071.132681,-995.924147
1198.973855,7550.100608,-5255.462188,-1225.752797
1198.974184,7920.203579,-6883.915261,-383.047749
1198.974513,7179.997637,-7328.038826,-919.314598
1198.974842,5181.441594,-8660.409521,-1149.143247
1198.975171,4293.194464,-9474.636058,0.000000
1198.975500,5329.482782,-10510.924376,919.314598
1198.975830,5847.626942,-9770.718434,2221.676944
1198.976159,5699.585753,-8660.409521,2451.505594
1198.976488,5921.647536,-7920.203579,2451.505594
1198.976817,6365.771101,-6513.812290,2604.724693
1198.977146,7105.977043,-6143.709319,2451.505594
1198.977475,7624.121203,-5181.441594,1685.410096
1198.977804,7105.977043,-4737.318029,612.876398
1198.978133,6587.832884,-4441.235652,-919.314598
1198.978462,7105.977043,-5329.482782,-995.924147
1198.978792,7624.121203,-5847.626942,-1225.752797
1198.979121,7550.100608,-7179.997637,-995.924147
1198.979450,7105.977043,-8068.244768,-306.438199
1198.979779,6069.688724,-8068.244768,229.828649
1198.980108,6143.709319,-8290.306550,1455.581446
1198.980437,6513.812290,-7254.018232,1915.238745
1198.980766,7105.977043,-7105.977043,3064.381992
1198.981095,7846.182985,-5699.585753,3140.991542
1198.981424,8364.327145,-5403.503377,3753.867940
1198.981754,8586.388927,-4071.132681,3217.601092
1198.982083,8734.430116,-3478.967927,1838.629195
1198.982412,8364.327145,-3256.906145,1455.581446
1198.982741,8364.327145,-4145.153275,536.266849
1198.983070,8068.244768,-4219.173869,-383.047749
1198.983399,8068.244768,-5329.482782,-383.047749
1198.983728,7179.997637,-6291.750507,-1149.143247
1198.984057,6439.791695,-7328.038826,-1455.581446
1198.984386,5403.503377,-9770.718434,-689.485948
1198.984716,5329.482782,-9770.718434,76.609550
1198.985045,5847.626942,-10066.800811,1149.143247
1198.985374,6217.729913,-9474.636058,2604.724693
1198.985703,6069.688724,-7698.141797,3064.381992
1198.986032,6439.791695,-6587.832884,3064.381992
1198.986361,7105.977043,-5255.462188,2911.162892
1198.986690,7328.038826,-4663.297435,2221.676944
1198.987019,7698.141797,-4737.318029,1455.581446
1198.987348,7179.997637,-5033.400406,383.047749
1198.987678,6883.915261,-5033.400406,-689.485948
1198.988007,6735.874072,-5995.668130,-1072.533697
1198.988336,7031.956449,-7550.100608,-919.314598
1198.988665,6291.750507,-8734.430116,-689.485948
1198.988994,5329.482782,-9844.739029,-153.219100
1198.989323,4959.379811,-9918.759623,0.000000
1198.989652,5255.462188,-8808.450710,842.705048
1198.989981,5773.606348,-8068.244768,1608.800546
1198.990310,6513.812290,-7328.038826,2987.772442
1198.990640,6883.915261,-6809.894666,3140.991542
1198.990969,7920.203579,-5181.441594,3907.087040
1198.991298,8956.491898,-3627.009116,3217.601092
1198.991627,9400.615463,-2146.597232,2834.553343
1198.991956,8956.491898,-2442.679609,1838.629195
1198.992285,7994.224174,-3701.029710,612.876398
1198.992614,7772.162391,-3404.947333,-612.876398
1198.992943,7772.162391,-4589.276840,-1225.752797
1198.993272,7772.162391,-6439.791695,-995.924147
1198.993602,7105.977043,-8216.285956,-842.705048
1198.993931,5995.668130,-9548.656652,-536.266849
1198.994260,4737.318029,-10214.842000,0.000000
1198.994589,5033.400406,-10140.821405,1378.971896
1198.994918,5625.565159,-9252.574275,2451.505594
1198.995247,5773.606348,-8068.244768,2834.553343
1198.995576,6587.832884,-6587.832884,2987.772442
1198.995905,7328.038826,-5329.482782,2834.553343
1198.996234,8290.306550,-4589.276840,2145.067394
1198.996564,7624.121203,-4441.235652,1302.362347
1198.996893,7254.018232,-4219.173869,383.047749
1198.997222,7105.977043,-4515.256246,-306.438199
1198.997551,7179.997637,-5551.544565,-1225.752797
1198.997880,7105.977043,-6291.750507,-1225.752797
1198.998209,7179.997637,-7624.121203,-766.095498
1198.998538,6291.750507,-8438.347739,-459.657299
1198.998867,5773.606348,-8808.450710,153.219100
1198.999196,5551.544565,-8882.471304,1225.752797
1198.999526,6143.709319,-8882.471304,2451.505594
1198.999855,6809.894666,-7698.141797,2911.162892
1199.000184,6809.894666,-5921.647536,2834.553343
1199.000513,7920.203579,-4515.256246,3370.820191
1199.000842,9030.512492,-3627.009116,2681.334243
1199.001171,8808.450710,-3701.029710,2528.115143
1199.001500,8364.327145,-3182.885551,1302.362347
1199.001829,7994.224174,-3552.988522,0.000000
1199.002158,7994.224174,-4515.256246,-306.438199
1199.002488,7994.224174,-6217.729913,-689.485948
1199.002817,7328.038826,-7402.059420,-919.314598
1199.003146,5847.626942,-8660.409521,-1149.143247
1199.003475,4737.318029,-9770.718434,-766.095498
1199.003804,5403.503377,-10362.883188,842.705048
1199.004133,6587.832884,-10140.821405,1915.238745
1199.004462,6291.750507,-8438.347739,2834.553343
1199.004791,5921.647536,-6809.894666,2757.943793
1199.005120,6661.853478,-5551.544565,3600.648841
1199.005450,7624.121203,-4737.318029,3830.477490
1199.005779,8512.368333,-4515.256246,2911.162892
1199.006108,7402.059420,-3775.050304,1378.971896
1199.006437,6439.791695,-4219.173869,76.609550
1199.006766,6587.832884,-5329.482782,-536.266849
1199.007095,7031.956449,-6809.894666,-689.485948
1199.007424,7105.977043,-8068.244768,-919.314598
1199.007753,5921.647536,-8660.409521,-1072.533697
1199.008082,5033.400406,-9844.739029,-689.485948
1199.008412,4737.318029,-9992.780217,153.219100
1199.008741,5329.482782,-9548.656652,995.924147
1199.009070,6143.709319,-8882.471304,1991.848295
1199.009399,6513.812290,-7105.977043,2528.115143
1199.009728,7254.018232,-5625.565159,2834.553343
1199.010057,7994.224174,-5033.400406,3830.477490
1199.010386,9104.533087,-3182.885551,3294.210641
1199.010715,9326.594869,-2664.741391,2145.067394
1199.011044,8512.368333,-2664.741391,1302.362347
1199.011374,8586.388927,-3330.926739,536.266849
1199.011703,8364.327145,-4219.173869,-383.047749
1199.012032,8660.409521,-5181.441594,0.000000
1199.012361,8142.265362,-7031.956449,-306.438199
1199.012690,7031.956449,-7920.203579,-306.438199
1199.013019,5699.585753,-9104.533087,-536.266849
1199.013348,4663.297435,-10140.821405,76.609550
1199.013677,4811.338623,-10066.800811,995.924147
1199.014006,5033.400406,-9548.656652,1378.971896
1199.014336,5551.544565,-8364.327145,3140.991542
1199.014665,6291.750507,-6291.750507,2834.553343
1199.014994,7179.997637,-5403.503377,2451.505594
1199.015323,7550.100608,-4885.359217,2221.676944
1199.015652,7624.121203,-4811.338623,1378.971896
1199.015981,7550.100608,-4811.338623,0.000000
1199.016310,7179.997637,-4737.318029,-919.314598
1199.016639,7179.997637,-6513.812290,-1225.752797
1199.016968,7698.141797,-7624.121203,-766.095498
1199.017298,7550.100608,-8216.285956,-383.047749
1199.017627,6513.812290,-9030.512492,0.000000
1199.017956,5847.626942,-8734.430116,229.828649
1199.018285,5625.565159,-8364.327145,995.924147
1199.018614,5921.647536,-8216.285956,1915.238745
1199.018943,6439.791695,-6957.935855,2681.334243
1199.019272,7105.977043,-5329.482782,2987.772442
1199.019601,7920.203579,-3923.091493,3294.210641
1199.019930,8512.368333,-3923.091493,3600.648841
1199.020260,9030.512492,-3256.906145,2451.505594
1199.020589,8734.430116,-3256.906145,1072.533697
1199.020918,8290.306550,-3478.967927,0.000000
1199.021247,8586.388927,-4441.235652,-536.266849
1199.021576,8882.471304,-5773.606348,-383.047749
1199.021905,8586.388927,-6809.894666,76.609550
1199.022234,6735.874072,-8882.471304,-612.876398
1199.022563,5181.441594,-9696.697840,-383.047749
1199.022892,4515.256246,-10510.924376,0.000000
1199.023222,4663.297435,-10288.862594,919.314598
1199.023551,5181.441594,-8586.388927,2221.676944
1199.023880,6143.709319,-7476.080014,2987.772442
1199.024209,7328.038826,-5255.462188,3294.210641
1199.024538,7624.121203,-4515.256246,2987.772442
1199.024867,7994.224174,-3478.967927,2298.286494
1199.025196,7624.121203,-3404.947333,919.314598
1199.025525,7105.977043,-4589.276840,0.000000
1199.025854,7105.977043,-5329.482782,-612.876398
1199.026184,7624.121203,-6513.812290,-612.876398
1199.026513,7698.141797,-7846.182985,-1225.752797
1199.026842,6957.935855,-9252.574275,-612.876398
1199.027171,5551.544565,-10362.883188,229.828649
1199.027500,4959.379811,-9992.780217,536.266849
1199.027829,4367.215058,-9326.594869,1072.533697
1199.028158,5329.482782,-8364.327145,2068.457845
1199.028487,5995.668130,-7476.080014,2528.115143
1199.028816,6957.935855,-6291.750507,3140.991542
1199.029146,7698.141797,-4663.297435,3600.648841
1199.029475,8882.471304,-3034.844362,3294.210641
1199.029804,9030.512492,-1998.556043,2451.505594
1199.030133,9400.615463,-2368.659014,1915.238745
1199.030462,9252.574275,-2664.741391,536.266849
1199.030791,9474.636058,-3330.926739,-229.828649
1199.031120,9252.574275,-4811.338623,0.000000
1199.031449,8216.285956,-6365.771101,-383.047749
1199.031778,6883.915261,-7772.162391,-766.095498
1199.032108,5033.400406,-9548.656652,-689.485948
1199.032437,4293.194464,-10955.047942,383.047749
1199.032766,4219.173869,-11399.171507,1455.581446
1199.033095,4737.318029,-9252.574275,1685.410096
1199.033424,5255.462188,-8808.450710,2681.334243
1199.033753,5995.668130,-7031.956449,2987.772442
1199.034082,7179.997637,-5625.565159,2451.505594
1199.034411,8142.265362,-4737.318029,1838.629195
1199.034740,7994.224174,-4663.297435,1455.581446
1199.035070,7624.121203,-4885.359217,76.609550
1199.035399,7328.038826,-4441.235652,-153.219100
1199.035728,7624.121203,-5477.523971,-1225.752797
1199.036057,8068.244768,-6809.894666,-612.876398
1199.036386,7402.059420,-7476.080014,-459.657299
1199.036715,6661.853478,-8290.306550,-306.438199
1199.037044,5773.606348,-8290.306550,459.657299
1199.037373,5551.544565,-8660.409521,689.485948
1199.037702,5403.503377,-8364.327145,1608.800546
1199.038032,5847.626942,-7402.059420,2451.505594
1199.038361,6809.894666,-7031.956449,2987.772442
1199.038690,8438.347739,-5033.400406,2681.334243
1199.039019,8216.285956,-3627.009116,3140.991542
1199.039348,8882.471304,-2442.679609,1762.019645
1199.039677,9178.553681,-2368.659014,1072.533697
1199.040006,8512.368333,-3627.009116,1302.362347
1199.040335,9178.553681,-3849.070898,306.438199
1199.040665,9104.533087,-4811.338623,0.000000
1199.040994,7624.121203,-6069.688724,-919.314598
1199.041323,5699.585753,-8216.285956,-842.705048
1199.041652,5033.400406,-10362.883188,-383.047749
1199.041981,4885.359217,-10214.842000,612.876398
1199.042310,4959.379811,-10066.800811,1302.362347
1199.042639,5329.482782,-9030.512492,2681.334243
1199.042968,5921.647536,-8068.244768,2528.115143
1199.043297,6957.935855,-6587.832884,2987.772442
1199.043627,7105.977043,-5329.482782,3217.601092
1199.043956,7254.018232,-4737.318029,2068.457845
1199.044285,7179.997637,-3997.112087,842.705048
1199.044614,7402.059420,-3849.070898,153.219100
1199.044943,7179.997637,-5181.441594,-459.657299
1199.045272,7846.182985,-6587.832884,-459.657299
1199.045601,7550.100608,-7402.059420,-766.095498
1199.045930,6143.709319,-8734.430116,-1072.533697
1199.046259,5255.462188,-9622.677246,-306.438199
1199.046589,4811.338623,-10288.862594,153.219100
1199.046918,5107.421000,-10362.883188,1225.752797
1199.047247,5551.544565,-8660.409521,1608.800546
1199.047576,6217.729913,-7402.059420,2298.286494
1199.047905,7254.018232,-6587.832884,2911.162892
1199.048234,8512.368333,-4737.318029,3370.820191
1199.048563,9030.512492,-3997.112087,3370.820191
1199.048892,8808.450710,-2590.720797,2298.286494
1199.049221,8290.306550,-2146.597232,1608.800546
1199.049551,8216.285956,-2516.700203,0.000000
1199.049880,8882.471304,-3404.947333,0.000000
1199.050209,9326.594869,-4737.318029,76.609550
1199.050538,9178.553681,-6143.709319,536.266849
1199.050867,7698.141797,-7105.977043,0.000000
1199.051196,6217.729913,-8956.491898,0.000000
1199.051525,5255.462188,-9844.739029,536.266849
1199.051854,5033.400406,-10584.944971,1378.971896
1199.052183,5107.421000,-9474.636058,2068.457845
1199.052513,5255.462188,-8660.409521,2757.943793
1199.052842,5773.606348,-7179.997637,2757.943793
1199.053171,7031.956449,-6143.709319,2681.334243
1199.053500,7179.997637,-5625.565159,1991.848295
1199.053829,7105.977043,-5107.421000,612.876398
1199.054158,6809.894666,-3923.091493,-766.095498
1199.054487,6735.874072,-4737.318029,-919.314598
1199.054816,7179.997637,-5921.647536,-995.924147
1199.055145,7550.100608,-6365.771101,-536.266849
1199.055475,7254.018232,-7105.977043,-306.438199
1199.055804,6809.894666,-7846.182985,842.705048
1199.056133,7105.977043,-8142.265362,1608.800546
1199.056462,7254.018232,-8364.327145,2298.286494
1199.056791,7254.018232,-8216.285956,2681.334243
1199.057120,6809.894666,-6661.853478,2604.724693
1199.057449,6513.812290,-5699.585753,2528.115143
1199.057778,7105.977043,-4589.276840,2604.724693
1199.058107,8216.285956,-4441.235652,2834.553343
1199.058437,8364.327145,-4293.194464,2221.676944
1199.058766,7550.100608,-3997.112087,766.095498
1199.059095,7254.018232,-4293.194464,-306.438199
1199.059424,8142.265362,-4663.297435,-536.266849
1199.059753,8216.285956,-5921.647536,-536.266849
1199.060082,7550.100608,-6883.915261,-306.438199
1199.060411,6291.750507,-7624.121203,-459.657299
1199.060740,5773.606348,-9104.533087,229.828649
1199.061069,6365.771101,-9474.636058,1532.190996
1199.061399,6513.812290,-9326.594869,2145.067394
1199.061728,6439.791695,-8068.244768,2911.162892
1199.062057,6513.812290,-7179.997637,2987.772442
1199.062386,7328.038826,-6439.791695,3370.820191
1199.062715,7402.059420,-5181.441594,2987.772442
1199.063044,7179.997637,-4959.379811,1532.190996
1199.063373,6439.791695,-4811.338623,306.438199
1199.063702,6143.709319,-4811.338623,-612.876398
1199.064031,6513.812290,-6291.750507,-1302.362347
1199.064361,6809.894666,-6217.729913,-1072.533697
1199.064690,6513.812290,-7624.121203,-995.924147
1199.065019,6217.729913,-8660.409521,-766.095498
1199.065348,5551.544565,-9400.615463,153.219100
1199.065677,5181.441594,-9326.594869,459.657299
1199.066006,5847.626942,-9030.512492,1838.629195
1199.066335,5773.606348,-8216.285956,2221.676944
1199.066664,6291.750507,-7772.162391,3064.381992
1199.066993,7179.997637,-6217.729913,3140.991542
1199.067323,8956.491898,-4293.194464,3447.429741
1199.067652,9030.512492,-2738.761985,3217.601092
1199.067981,9400.615463,-2812.782580,1762.019645
1199.068310,9030.512492,-3108.864956,1378.971896
1199.068639,8956.491898,-3034.844362,76.609550
1199.068968,8882.471304,-2590.720797,612.876398
1199.069297,8734.430116,-4367.215058,-383.047749
1199.069626,8216.285956,-6439.791695,-229.828649
1199.069955,6365.771101,-7920.203579,-229.828649
1199.070285,4811.338623,-9474.636058,0.000000
1199.070614,4663.297435,-9770.718434,459.657299
1199.070943,4811.338623,-9992.780217,1302.362347
1199.071272,5181.441594,-9622.677246,2451.505594
1199.071601,5847.626942,-8660.409521,2757.943793
1199.071930,6587.832884,-7031.956449,2987.772442
1199.072259,7254.018232,-5847.626942,2298.286494
1199.072588,7105.977043,-5255.462188,1608.800546
1199.072917,7254.018232,-4811.338623,459.657299
1199.073247,6661.853478,-5329.482782,-383.047749
1199.073576,7254.018232,-5107.421000,-919.314598
1199.073905,7328.038826,-5625.565159,-1149.143247
1199.074234,7624.121203,-6513.812290,-1072.533697
1199.074563,7179.997637,-7476.080014,-383.047749
1199.074892,6735.874072,-8216.285956,383.047749
1199.075221,5625.565159,-8512.368333,689.485948
1199.075550,6291.750507,-8734.430116,1838.629195
1199.075879,6513.812290,-8364.327145,2834.553343
1199.076209,6809.894666,-7698.141797,3140.991542
1199.076538,7105.977043,-5773.606348,3064.381992
1199.076867,7476.080014,-5403.503377,3064.381992
1199.077196,8142.265362,-3849.070898,2145.067394
1199.077525,8512.368333,-3330.926739,1302.362347
1199.077854,8586.388927,-3627.009116,612.876398
1199.078183,8586.388927,-2886.803174,0.000000
1199.078512,8956.491898,-3997.112087,-383.047749
1199.078841,8882.471304,-4811.338623,-229.828649
1199.079171,7179.997637,-6365.771101,-842.705048
1199.079500,6143.709319,-8142.265362,153.219100
1199.079829,5847.626942,-9474.636058,536.266849
1199.080158,5699.585753,-10510.924376,1225.752797
1199.080487,5477.523971,-9474.636058,2298.286494
1199.080816,5699.585753,-8364.327145,2604.724693
1199.081145,6587.832884,-7846.182985,3294.210641
1199.081474,7846.182985,-6291.750507,3447.429741
1199.081803,7698.141797,-5329.482782,2681.334243
1199.082133,7105.977043,-4589.276840,689.485948
1199.082462,6365.771101,-4515.256246,-306.438199
1199.082791,6143.709319,-5033.400406,-1225.752797
1199.083120,6661.853478,-5625.565159,-766.095498
1199.083449,7105.977043,-6809.894666,-689.485948
1199.083778,6809.894666,-7328.038826,-612.876398
1199.084107,6143.709319,-8216.285956,-842.705048
1199.084436,5403.503377,-9400.615463,76.609550
1199.084766,5551.544565,-9696.697840,842.705048
1199.085095,5625.565159,-9400.615463,1762.019645
1199.085424,5995.668130,-8068.244768,2757.943793
1199.085753,6587.832884,-7105.977043,2757.943793
1199.086082,7772.162391,-5921.647536,3524.039291
1199.086411,9030.512492,-4589.276840,3064.381992
1199.086740,9030.512492,-4219.173869,2681.334243
1199.087069,8734.430116,-2960.823768,2374.896044
1199.087398,8216.285956,-2368.659014,306.438199
1199.087728,8142.265362,-2664.741391,-229.828649
1199.088057,8364.327145,-3701.029710,-919.314598
1199.088386,7994.224174,-5477.523971,153.219100
1199.088715,7402.059420,-6513.812290,0.000000
1199.089044,5995.668130,-8142.265362,-612.876398
1199.089373,4737.318029,-9622.677246,383.047749
1199.089702,4811.338623,-10436.903782,766.095498
1199.090031,5773.606348,-9918.759623,1762.019645
1199.090360,5551.544565,-9474.636058,2987.772442
1199.090690,5995.668130,-8290.306550,2987.772442
1199.091019,6809.894666,-6809.894666,2911.162892
1199.091348,7476.080014,-5847.626942,2451.505594
1199.091677,7402.059420,-5033.400406,1762.019645
1199.092006,7402.059420,-4515.256246,459.657299
1199.092335,7031.956449,-4441.235652,-306.438199
1199.092664,7105.977043,-4737.318029,-1225.752797
1199.092993,7105.977043,-5551.544565,-1455.581446
1199.093322,6809.894666,-6513.812290,-995.924147
1199.093652,6291.750507,-7772.162391,-306.438199
1199.093981,6069.688724,-8290.306550,229.828649
1199.094310,6143.709319,-8660.409521,1225.752797
1199.094639,6661.853478,-8586.388927,1915.238745
1199.094968,6957.935855,-7550.100608,2528.115143
1199.095297,7179.997637,-6883.915261,2911.162892
1199.095626,7624.121203,-6069.688724,3217.601092
1199.095955,7920.203579,-4811.338623,2451.505594
1199.096284,8438.347739,-3923.091493,2221.676944
1199.096614,8216.285956,-3997.112087,1149.143247
1199.096943,7772.162391,-3923.091493,76.609550
1199.097272,7846.182985,-4145.153275,0.000000
1199.097601,8068.244768,-3923.091493,-995.924147
1199.097930,7476.080014,-5033.400406,-1302.362347
1199.098259,6513.812290,-7105.977043,-919.314598
1199.098588,6217.729913,-8438.347739,0.000000
1199.098917,5847.626942,-9326.594869,383.047749
1199.099246,5551.544565,-9474.636058,1378.971896
1199.099576,5921.647536,-9326.594869,2451.505594
1199.099905,6513.812290,-8660.409521,3064.381992
1199.100234,7105.977043,-7550.100608,3753.867940
1199.100563,8142.265362,-5921.647536,2987.772442
1199.100892,7846.182985,-4811.338623,2298.286494
1199.101221,7105.977043,-4219.173869,1302.362347
1199.101550,6735.874072,-5107.421000,229.828649
1199.101879,6513.812290,-5551.544565,-766.095498
1199.102208,6365.771101,-5477.523971,-1302.362347
1199.102538,6365.771101,-7031.956449,-1608.800546
1199.102867,6143.709319,-8068.244768,-995.924147
1199.103196,5403.503377,-9400.615463,-536.266849
1199.103525,4811.338623,-9400.615463,229.828649
1199.103854,5255.462188,-9474.636058,995.924147
1199.104183,6217.729913,-8290.306550,1762.019645
1199.104512,6513.812290,-7624.121203,2528.115143
1199.104841,7105.977043,-7031.956449,3370.820191
1199.105170,8512.368333,-5255.462188,3983.696590
1199.105500,9474.636058,-3552.988522,3830.477490
1199.105829,9918.759623,-2368.659014,2987.772442
1199.106158,9474.636058,-2220.617826,1915.238745
1199.106487,8068.244768,-2886.803174,306.438199
1199.106816,7624.121203,-3330.926739,-612.876398
1199.107145,7994.224174,-4515.256246,-612.876398
1199.107474,8142.265362,-5329.482782,-612.876398
1199.107803,6883.915261,-7105.977043,-842.705048
1199.108133,5255.462188,-8586.388927,-306.438199
1199.108462,4367.215058,-9696.697840,-229.828649
1199.108791,4367.215058,-11177.109724,766.095498
1199.109120,5033.400406,-10288.862594,2068.457845
1199.109449,5329.482782,-9770.718434,2528.115143
1199.109778,6069.688724,-7698.141797,3600.648841
1199.110107,7328.038826,-6587.832884,2834.553343
1199.110436,7550.100608,-5699.585753,2374.896044
1199.110765,7920.203579,-4367.215058,1685.410096
1199.111095,7698.141797,-4219.173869,383.047749
1199.111424,7105.977043,-4219.173869,-766.095498
1199.111753,7254.018232,-4959.379811,-1455.581446
1199.112082,7402.059420,-6587.832884,-1378.971896
1199.112411,7105.977043,-7105.977043,-995.924147
1199.112740,6661.853478,-8364.327145,-919.314598
1199.113069,6069.688724,-8216.285956,-229.828649
1199.113398,6439.791695,-9030.512492,1072.533697
1199.113727,6513.812290,-9252.574275,2068.457845
1199.114057,6661.853478,-7920.203579,3294.210641
1199.114386,6883.915261,-6883.915261,2681.334243
1199.114715,7550.100608,-5181.441594,3217.601092
1199.115044,8142.265362,-4737.318029,3064.381992
1199.115373,8660.409521,-4441.235652,2604.724693
1199.115702,8216.285956,-2960.823768,1838.629195
1199.116031,7846.182985,-3404.947333,229.828649
1199.116360,8216.285956,-3182.885551,-306.438199
1199.116689,8734.430116,-4811.338623,-459.657299
1199.117019,7994.224174,-6365.771101,-612.876398
1199.117348,6735.874072,-7179.997637,-1225.752797
1199.117677,4885.359217,-9030.512492,-689.485948
1199.118006,4885.359217,-9252.574275,0.000000
1199.118335,5477.523971,-10362.883188,1608.800546
1199.118664,6143.709319,-9844.739029,2834.553343
1199.118993,6069.688724,-8142.265362,2987.772442
1199.119322,6217.729913,-7254.018232,3064.381992
1199.119651,7402.059420,-4959.379811,3370.820191
1199.119981,7846.182985,-4959.379811,2451.505594
1199.120310,7105.977043,-4515.256246,1838.629195
1199.120639,6365.771101,-4293.194464,76.609550
1199.120968,6217.729913,-5255.462188,-766.095498
1199.121297,7254.018232,-5329.482782,-459.657299
1199.121626,7698.141797,-6883.915261,-842.705048
1199.121955,6439.791695,-7624.121203,-995.924147
1199.122284,5329.482782,-8438.347739,-919.314598
1199.122613,5181.441594,-9474.636058,229.828649
1199.122943,6143.709319,-8808.450710,1378.971896
1199.123272,6439.791695,-8882.471304,1762.019645
1199.123601,6513.812290,-7624.121203,2757.943793
1199.123930,6513.812290,-6587.832884,2911.162892
1199.124259,7698.141797,-5699.585753,3217.601092
1199.124588,8734.430116,-4145.153275,3140.991542
1199.124917,9326.594869,-3478.967927,2911.162892
1199.125246,9104.533087,-2590.720797,1455.581446
1199.125575,7920.203579,-3034.844362,153.219100
1199.125905,7772.162391,-3775.050304,-306.438199
1199.126234,8290.306550,-4367.215058,-459.657299
1199.126563,7920.203579,-5995.668130,-1072.533697
1199.126892,6809.894666,-7254.018232,-766.095498
1199.127221,5773.606348,-8808.450710,-383.047749
1199.127550,5255.462188,-9474.636058,153.219100
1199.127879,5255.462188,-9844.739029,1225.752797
1199.128208,5551.544565,-9474.636058,2221.676944
1199.128537,6143.709319,-8364.327145,2757.943793
1199.128867,6957.935855,-7031.956449,3217.601092
1199.129196,6957.935855,-6217.729913,2681.334243
1199.129525,6957.935855,-5329.482782,1991.848295
1199.129854,7179.997637,-5625.565159,1149.143247
1199.130183,6957.935855,-5403.503377,0.000000
1199.130512,6883.915261,-4811.338623,-536.266849
1199.130841,7179.997637,-5921.647536,-1149.143247
1199.131170,7105.977043,-6735.874072,-1072.533697
1199.131500,7031.956449,-7254.018232,-995.924147
1199.131829,6513.812290,-7846.182985,-306.438199
1199.132158,6439.791695,-8142.265362,0.000000
1199.132487,6661.853478,-8586.388927,1149.143247
1199.132816,6587.832884,-8808.450710,1991.848295
1199.133145,6513.812290,-7994.224174,2911.162892
1199.133474,6957.935855,-6809.894666,3217.601092
1199.133803,8142.265362,-5107.421000,3447.429741
1199.134132,8512.368333,-4811.338623,3140.991542
1199.134462,8586.388927,-3923.091493,2374.896044
1199.134791,8068.244768,-4071.132681,1072.533697
1199.135120,7402.059420,-4071.132681,0.000000
1199.135449,7772.162391,-4367.215058,-766.095498
1199.135778,7772.162391,-5699.585753,-1072.533697
1199.136107,7402.059420,-6217.729913,-766.095498
1199.136436,6217.729913,-7920.203579,-766.095498
1199.136765,5995.668130,-9104.533087,-153.219100
1199.137094,5847.626942,-8808.450710,612.876398
1199.137424,5995.668130,-9252.574275,1915.238745
1199.137753,6439.791695,-8364.327145,2757.943793
1199.138082,6735.874072,-7402.059420,3447.429741
1199.138411,7105.977043,-6143.709319,4443.353888
1199.138740,7846.182985,-5255.462188,3753.867940
1199.139069,7994.224174,-4515.256246,2374.896044
1199.139398,6735.874072,-4071.132681,919.314598
1199.139727,5995.668130,-5329.482782,-383.047749
1199.140056,5995.668130,-5403.503377,-536.266849
1199.140386,6957.935855,-6439.791695,-766.095498
1199.140715,6957.935855,-6883.915261,-995.924147
1199.141044,6365.771101,-7772.162391,-1072.533697
1199.141373,5847.626942,-9178.553681,-536.266849
1199.141702,5551.544565,-9252.574275,383.047749
1199.142031,5625.565159,-9326.594869,1072.533697
1199.142360,6217.729913,-8586.388927,1991.848295
1199.142689,6587.832884,-7402.059420,2528.115143
1199.143018,7624.121203,-7031.956449,2834.553343
1199.143348,8586.388927,-5329.482782,3753.867940
1199.143677,9104.533087,-3775.050304,3447.429741
1199.144006,9400.615463,-3330.926739,2911.162892
1199.144335,8364.327145,-1850.514855,1302.362347
1199.144664,8364.327145,-2590.720797,0.000000
1199.144993,8734.430116,-3256.906145,-383.047749
1199.145322,8808.450710,-5329.482782,-306.438199
1199.145651,7994.224174,-6439.791695,-383.047749
1199.145980,6513.812290,-6957.935855,-153.219100
1199.146310,5329.482782,-8660.409521,-766.095498
1199.146639,4959.379811,-10140.821405,76.609550
1199.146968,5107.421000,-10807.006753,1225.752797
1199.147297,4959.379811,-9696.697840,1915.238745
1199.147626,5625.565159,-8438.347739,2911.162892
1199.147955,6587.832884,-7846.182985,2911.162892
1199.148284,7105.977043,-6957.935855,3140.991542
1199.148613,6957.935855,-6217.729913,1991.848295
1199.148942,6439.791695,-5625.565159,995.924147
1199.149272,6439.791695,-5255.462188,-459.657299
1199.149601,7031.956449,-5329.482782,-842.705048
1199.149930,7179.997637,-5921.647536,-842.705048
1199.150259,7328.038826,-6661.853478,-842.705048
1199.150588,7328.038826,-6883.915261,-1149.143247
1199.150917,5921.647536,-7624.121203,-459.657299
1199.151246,6069.688724,-8364.327145,229.828649
1199.151575,6587.832884,-8216.285956,1378.971896
1199.151905,6735.874072,-8068.244768,2451.505594
1199.152234,7179.997637,-7179.997637,2911.162892
1199.152563,7105.977043,-6365.771101,3140.991542
1199.152892,7846.182985,-5033.400406,3294.210641
1199.153221,8660.409521,-4071.132681,3370.820191
1199.153550,9030.512492,-3034.844362,2221.676944
1199.153879,8216.285956,-3182.885551,1302.362347
1199.154208,7328.038826,-3701.029710,0.000000
1199.154537,7698.141797,-4071.132681,-766.095498
1199.154867,7994.224174,-5403.503377,-919.314598
1199.155196,7846.182985,-6661.853478,-306.438199
1199.155525,6365.771101,-7994.224174,-536.266849
1199.155854,5329.482782,-9252.574275,-536.266849
1199.156183,4811.338623,-9326.594869,459.657299
1199.156512,5699.585753,-9548.656652,2145.067394
1199.156841,6439.791695,-9104.533087,3064.381992
1199.157170,6365.771101,-7772.162391,2987.772442
1199.157499,6957.935855,-6217.729913,2987.772442
1199.157829,7624.121203,-5255.462188,2834.553343
1199.158158,8068.244768,-4885.359217,2528.115143
1199.158487,7328.038826,-4959.379811,1225.752797
1199.158816,6291.750507,-4737.318029,0.000000
1199.159145,6587.832884,-5551.544565,-842.705048
1199.159474,7105.977043,-6883.915261,-995.924147
1199.159803,6587.832884,-7402.059420,-995.924147
1199.160132,5699.585753,-8364.327145,-1149.143247
1199.160461,5033.400406,-8882.471304,-689.485948
1199.160791,5107.421000,-9030.512492,306.438199
1199.161120,6069.688724,-9400.615463,1225.752797
1199.161449,6513.812290,-8216.285956,2221.676944
1199.161778,6957.935855,-7105.977043,2987.772442
1199.162107,7550.100608,-5995.668130,3370.820191
1199.162436,8956.491898,-4515.256246,3524.039291
1199.162765,9696.697840,-3849.070898,3294.210641
1199.163094,9622.677246,-2664.741391,2451.505594
1199.163423,8882.471304,-2590.720797,919.314598
1199.163753,8290.306550,-3404.947333,76.609550
1199.164082,8290.306550,-3775.050304,-306.438199
1199.164411,7994.224174,-6069.688724,-995.924147
1199.164740,6883.915261,-7179.997637,-612.876398
1199.165069,5477.523971,-8290.306550,-1225.752797
1199.165398,4367.215058,-9622.677246,-842.705048
1199.165727,4367.215058,-10658.965565,0.000000
1199.166057,4885.359217,-10510.924376,919.314598
1199.166386,5699.585753,-9474.636058,2145.067394
1199.166715,6143.709319,-8216.285956,2987.772442
1199.167044,7550.100608,-6957.935855,3370.820191
1199.167373,8438.347739,-5329.482782,2834.553343
1199.167702,8586.388927,-4441.235652,2374.896044
1199.168031,7994.224174,-3775.050304,1532.190996
1199.168361,7105.977043,-4293.194464,0.000000
1199.168690,7476.080014,-4515.256246,-1149.143247
1199.169019,7254.018232,-5699.585753,-1225.752797
1199.169348,6957.935855,-6587.832884,-995.924147
1199.169677,6439.791695,-7846.182985,-689.485948
1199.170006,5551.544565,-8586.388927,-459.657299
1199.170335,5329.482782,-8364.327145,0.000000
1199.170664,5403.503377,-8882.471304,1072.533697
1199.170994,6217.729913,-8068.244768,2374.896044
1199.171323,7105.977043,-7846.182985,3294.210641
1199.171652,8216.285956,-6217.729913,3600.648841
1199.171981,8438.347739,-3997.112087,3294.210641
1199.172310,9030.512492,-3552.988522,2757.943793
1199.172639,9104.533087,-3034.844362,2068.457845
1199.172968,8586.388927,-3923.091493,1378.971896
1199.173298,8216.285956,-4071.132681,229.828649
1199.173627,8290.306550,-4219.173869,-766.095498
1199.173956,7698.141797,-5847.626942,-1149.143247
1199.174285,6587.832884,-6957.935855,-919.314598
1199.174614,5255.462188,-8956.491898,-766.095498
1199.174943,5847.626942,-9474.636058,0.000000
1199.175272,5477.523971,-9474.636058,612.876398
1199.175602,5921.647536,-9400.615463,2221.676944
1199.175931,5847.626942,-8364.327145,2834.553343
1199.176260,6957.935855,-7179.997637,3294.210641
1199.176589,7698.141797,-6217.729913,3677.258390
1199.176918,8142.265362,-4737.318029,3370.820191
1199.177247,7920.203579,-4515.256246,1915.238745
1199.177576,7179.997637,-3849.070898,536.266849
1199.177905,6439.791695,-5181.441594,0.000000
1199.178235,6587.832884,-5773.606348,-383.047749
1199.178564,7031.956449,-6735.874072,-842.705048
1199.178893,6143.709319,-7772.162391,-995.924147
1199.179222,5699.585753,-8660.409521,0.000000
1199.179551,4811.338623,-9474.636058,-536.266849
1199.179880,4811.338623,-9622.677246,459.657299
1199.180209,5625.565159,-9030.512492,1072.533697
1199.180539,6365.771101,-8216.285956,2068.457845
1199.180868,7179.997637,-6883.915261,3524.039291
1199.181197,7994.224174,-6439.791695,3830.477490
1199.181526,8882.471304,-4737.318029,4136.915689
1199.181855,9622.677246,-2812.782580,3140.991542
1199.182184,9918.759623,-2516.700203,2451.505594
1199.182513,8734.430116,-2442.679609,1072.533697
1199.182843,8068.244768,-2886.803174,0.000000
1199.183172,8216.285956,-4145.153275,-612.876398
1199.183501,7624.121203,-5625.565159,-689.485948
1199.183830,6809.894666,-7179.997637,-153.219100
1199.184159,5773.606348,-8068.244768,-842.705048
1199.184488,4811.338623,-9474.636058,-383.047749
1199.184817,4737.318029,-9992.780217,0.000000
1199.185146,5255.462188,-9696.697840,1532.190996
1199.185476,5921.647536,-9400.615463,2451.505594
1199.185805,6439.791695,-8512.368333,2987.772442
1199.186134,6661.853478,-7105.977043,3294.210641
1199.186463,7402.059420,-5551.544565,2528.115143
1199.186792,8512.368333,-5107.421000,2374.896044
1199.187121,7624.121203,-4663.297435,1072.533697
1199.187450,7624.121203,-4811.338623,229.828649
1199.187780,7105.977043,-4959.379811,-689.485948
1199.188109,6957.935855,-6217.729913,-1225.752797
1199.188438,6587.832884,-6513.812290,-995.924147
1199.188767,6217.729913,-7846.182985,-689.485948
1199.189096,5847.626942,-8660.409521,0.000000
1199.189425,5329.482782,-8808.450710,383.047749
1199.189754,5403.503377,-8956.491898,1302.362347
1199.190084,5847.626942,-8364.327145,1838.629195
1199.190413,6735.874072,-8216.285956,3140.991542
1199.190742,7476.080014,-6217.729913,3217.601092
1199.191071,8216.285956,-5107.421000,3217.601092
1199.191400,8364.327145,-4071.132681,2834.553343
1199.191729,9104.533087,-2812.782580,1915.238745
1199.192058,8512.368333,-4219.173869,1072.533697
1199.192387,8290.306550,-3404.947333,0.000000
1199.192717,8216.285956,-4219.173869,-612.876398
1199.193046,8438.347739,-5625.565159,-306.438199
1199.193375,7402.059420,-6661.853478,-612.876398
1199.193704,5921.647536,-9030.512492,-306.438199
1199.194033,5329.482782,-9326.594869,0.000000
1199.194362,5181.441594,-9252.574275,459.657299
1199.194691,5255.462188,-9548.656652,1838.629195
1199.195021,6069.688724,-7994.224174,2451.505594
1199.195350,6883.915261,-7698.141797,3064.381992
1199.195679,8216.285956,-6217.729913,3983.696590
1199.196008,8734.430116,-5625.565159,3677.258390
1199.196337,7994.224174,-4441.235652,1991.848295
1199.196666,6957.935855,-4071.132681,229.828649
1199.196995,6143.709319,-5255.462188,-689.485948
1199.197325,6735.874072,-5403.503377,-459.657299
1199.197654,6069.688724,-7254.018232,-1455.581446
1199.197983,6291.750507,-8068.244768,-1149.143247
1199.198312,5699.585753,-8808.450710,-1149.143247
1199.198641,5107.421000,-9400.615463,0.000000
1199.198970,5329.482782,-8956.491898,842.705048
1199.199299,5921.647536,-9400.615463,1762.019645
1199.199628,6661.853478,-7846.182985,2451.505594
1199.199958,7105.977043,-6661.853478,2834.553343
1199.200287,8216.285956,-5847.626942,3294.210641
1199.200616,9178.553681,-4219.173869,3677.258390
1199.200945,9548.656652,-3997.112087,3064.381992
1199.201274,9400.615463,-2294.638420,2221.676944
1199.201603,8882.471304,-2146.597232,766.095498
1199.201932,8512.368333,-2738.761985,0.000000
1199.202262,8290.306550,-3849.070898,-383.047749
1199.202591,7624.121203,-5477.523971,-766.095498
1199.202920,6439.791695,-7105.977043,-766.095498
1199.203249,5255.462188,-8660.409521,-995.924147
1199.203578,4515.256246,-9992.780217,-1149.143247
1199.203907,4367.215058,-10732.986159,229.828649
1199.204236,5181.441594,-10066.800811,1838.629195
1199.204566,5995.668130,-9104.533087,2604.724693
1199.204895,6883.915261,-7624.121203,3140.991542
