#time,accel_x,accel_y,accel_z
1389.613047,6883.915261,-6661.853478,1991.848295
1389.613378,7105.977043,-5921.647536,842.705048
1389.613709,6809.894666,-6661.853478,1302.362347
1389.614039,6439.791695,-6365.771101,689.485948
1389.614370,6661.853478,-6661.853478,766.095498
1389.614700,7105.977043,-6513.812290,1149.143247
1389.615031,7105.977043,-6587.832884,1225.752797
1389.615361,6957.935855,-6883.915261,1149.143247
1389.615692,7031.956449,-7031.956449,1302.362347
1389.616022,6883.915261,-6809.894666,1149.143247
1389.616353,7105.977043,-6735.874072,459.657299
1389.616683,6735.874072,-6587.832884,1149.143247
1389.617014,6735.874072,-7031.956449,842.705048
1389.617345,7254.018232,-6439.791695,1225.752797
1389.617675,7105.977043,-6069.688724,1608.800546
1389.618006,7328.038826,-6291.750507,1149.143247
1389.618336,7105.977043,-6069.688724,1149.143247
1389.618667,7105.977043,-6661.853478,842.705048
1389.618997,7031.956449,-6439.791695,689.485948
1389.619328,6957.935855,-5699.585753,1072.533697
1389.619658,7254.018232,-6365.771101,919.314598
1389.619989,7179.997637,-6365.771101,1225.752797
1389.620320,7105.977043,-6217.729913,995.924147
1389.620650,7105.977043,-6291.750507,1225.752797
1389.620981,7179.997637,-6513.812290,919.314598
1389.621311,6809.894666,-6439.791695,766.095498
1389.621642,6587.832884,-6439.791695,842.705048
1389.621972,6587.832884,-6809.894666,1225.752797
1389.622303,6809.894666,-6291.750507,1838.629195
1389.622633,6735.874072,-6587.832884,842.705048
1389.622964,6513.812290,-6661.853478,1149.143247
1389.623294,6661.853478,-7031.956449,1225.752797
1389.623625,7031.956449,-7105.977043,689.485948
1389.623956,6661.853478,-6735.874072,536.266849
1389.624286,6661.853478,-7105.977043,1072.533697
1389.624617,7105.977043,-7031.956449,995.924147
1389.624947,7254.018232,-6365.771101,1149.143247
1389.625278,7105.977043,-6143.709319,1532.190996
1389.625608,7179.997637,-6587.832884,1378.971896
1389.625939,7328.038826,-6735.874072,842.705048
1389.626269,7031.956449,-6291.750507,995.924147
1389.626600,6883.915261,-6217.729913,1225.752797
1389.626931,7105.977043,-5921.647536,1149.143247
1389.627261,7105.977043,-6217.729913,1225.752797
1389.627592,6809.894666,-6587.832884,1072.533697
1389.627922,7105.977043,-6291.750507,766.095498
1389.628253,7179.997637,-6883.915261,919.314598
1389.628583,6883.915261,-6661.853478,1302.362347
1389.628914,6735.874072,-6439.791695,919.314598
1389.629244,7031.956449,-6735.874072,536.266849
1389.629575,6883.915261,-6735.874072,1455.581446
1389.629905,7105.977043,-6661.853478,689.485948
1389.630236,6957.935855,-6661.853478,1225.752797
1389.630567,6587.832884,-6661.853478,1149.143247
1389.630897,6883.915261,-6513.812290,612.876398
1389.631228,6809.894666,-6291.750507,995.924147
1389.631558,7105.977043,-6883.915261,1225.752797
1389.631889,7476.080014,-6587.832884,766.095498
1389.632219,7402.059420,-6513.812290,1072.533697
1389.632550,7105.977043,-6809.894666,766.095498
1389.632880,7476.080014,-6291.750507,1685.410096
1389.633211,7254.018232,-6513.812290,1072.533697
1389.633542,6957.935855,-6587.832884,766.095498
1389.633872,7105.977043,-6291.750507,995.924147
1389.634203,7476.080014,-6217.729913,842.705048
1389.634533,7328.038826,-5995.668130,919.314598
1389.634864,6957.935855,-6291.750507,1072.533697
1389.635194,6883.915261,-6809.894666,1378.971896
1389.635525,7031.956449,-6217.729913,995.924147
1389.635855,7105.977043,-6069.688724,689.485948
1389.636186,6735.874072,-6661.853478,919.314598
1389.636516,6883.915261,-6661.853478,1225.752797
1389.636847,6661.853478,-6883.915261,1149.143247
1389.637178,6661.853478,-6661.853478,766.095498
1389.637508,6513.812290,-6661.853478,1608.800546
1389.637839,6809.894666,-6957.935855,1072.533697
1389.638169,7105.977043,-6957.935855,919.314598
1389.638500,6957.935855,-6661.853478,689.485948
1389.638830,6587.832884,-6735.874072,1378.971896
1389.639161,7105.977043,-7105.977043,842.705048
1389.639491,6957.935855,-6513.812290,995.924147
1389.639822,6883.915261,-6587.832884,1225.752797
1389.640153,6883.915261,-6661.853478,1149.143247
1389.640483,7254.018232,-6735.874072,1378.971896
1389.640814,7105.977043,-6661.853478,842.705048
1389.641144,6883.915261,-6439.791695,1072.533697
1389.641475,6883.915261,-6069.688724,995.924147
1389.641805,7179.997637,-6291.750507,689.485948
1389.642136,7328.038826,-6217.729913,1072.533697
1389.642466,6957.935855,-6439.791695,766.095498
1389.642797,7328.038826,-6365.771101,1149.143247
1389.643127,6883.915261,-6587.832884,1072.533697
1389.643458,6661.853478,-6513.812290,1072.533697
1389.643789,6809.894666,-6735.874072,612.876398
1389.644119,6661.853478,-6883.915261,1378.971896
1389.644450,6069.688724,-6809.894666,842.705048
1389.644780,7031.956449,-6809.894666,1149.143247
1389.645111,6513.812290,-6587.832884,1378.971896
1389.645441,6809.894666,-6587.832884,1072.533697
1389.645772,6587.832884,-6587.832884,536.266849
1389.646102,6513.812290,-6661.853478,919.314598
1389.646433,6809.894666,-6661.853478,842.705048
1389.646764,7328.038826,-6513.812290,1149.143247
1389.647094,7328.038826,-6143.709319,995.924147
1389.647425,7328.038826,-6513.812290,919.314598
1389.647755,7402.059420,-6735.874072,1225.752797
1389.648086,7476.080014,-6735.874072,1149.143247
1389.648416,7476.080014,-6587.832884,0.000000
1389.648747,7179.997637,-6217.729913,766.095498
1389.649077,7328.038826,-6513.812290,995.924147
1389.649408,7105.977043,-6217.729913,1072.533697
1389.649738,7328.038826,-6661.853478,995.924147
1389.650069,6957.935855,-6143.709319,995.924147
1389.650400,7105.977043,-6365.771101,1072.533697
1389.650730,6809.894666,-6587.832884,842.705048
1389.651061,6883.915261,-6587.832884,1302.362347
1389.651391,7179.997637,-6883.915261,612.876398
1389.651722,7105.977043,-7031.956449,1072.533697
1389.652052,6957.935855,-6883.915261,842.705048
1389.652383,6661.853478,-6809.894666,919.314598
1389.652713,6513.812290,-6365.771101,1532.190996
1389.653044,6735.874072,-7105.977043,689.485948
1389.653375,6513.812290,-6439.791695,1072.533697
1389.653705,6661.853478,-6957.935855,1149.143247
1389.654036,7031.956449,-5995.668130,536.266849
1389.654366,7105.977043,-6217.729913,919.314598
1389.654697,7031.956449,-6809.894666,612.876398
1389.655027,6809.894666,-6735.874072,1225.752797
1389.655358,7031.956449,-6661.853478,842.705048
1389.655688,6735.874072,-6365.771101,1302.362347
1389.656019,6883.915261,-6587.832884,995.924147
1389.656349,7328.038826,-6661.853478,919.314598
1389.656680,7105.977043,-6513.812290,1072.533697
1389.657011,7105.977043,-6513.812290,1072.533697
1389.657341,6809.894666,-6217.729913,1302.362347
1389.657672,6735.874072,-6439.791695,1225.752797
1389.658002,6809.894666,-6291.750507,1378.971896
1389.658333,6883.915261,-6587.832884,842.705048
1389.658663,6217.729913,-5921.647536,612.876398
1389.658994,7031.956449,-6661.853478,1072.533697
1389.659324,6883.915261,-6809.894666,842.705048
1389.659655,6883.915261,-7105.977043,842.705048
1389.659986,6883.915261,-6735.874072,1302.362347
1389.660316,6587.832884,-6365.771101,1225.752797
1389.660647,6957.935855,-6957.935855,766.095498
1389.660977,6735.874072,-7105.977043,995.924147
1389.661308,7105.977043,-7105.977043,919.314598
1389.661638,7624.121203,-6217.729913,1072.533697
1389.661969,7402.059420,-6661.853478,919.314598
1389.662299,7328.038826,-6513.812290,995.924147
1389.662630,7254.018232,-6513.812290,842.705048
1389.662960,7105.977043,-6661.853478,919.314598
1389.663291,7476.080014,-6735.874072,1149.143247
1389.663622,7254.018232,-6069.688724,842.705048
1389.663952,7254.018232,-6513.812290,1225.752797
1389.664283,7179.997637,-6291.750507,1149.143247
1389.664613,7105.977043,-6291.750507,1532.190996
1389.664944,7179.997637,-6661.853478,306.438199
1389.665274,7105.977043,-6587.832884,1225.752797
1389.665605,6957.935855,-6143.709319,1072.533697
1389.665935,6661.853478,-6883.915261,995.924147
1389.666266,7105.977043,-6957.935855,1532.190996
1389.666597,6661.853478,-6439.791695,1072.533697
1389.666927,6735.874072,-6513.812290,689.485948
1389.667258,6735.874072,-6587.832884,1225.752797
1389.667588,6883.915261,-6957.935855,766.095498
1389.667919,6439.791695,-6661.853478,1302.362347
1389.668249,6513.812290,-6661.853478,1149.143247
1389.668580,6809.894666,-7031.956449,919.314598
1389.668910,7179.997637,-6809.894666,1149.143247
1389.669241,7105.977043,-6513.812290,1532.190996
1389.669571,7328.038826,-6735.874072,919.314598
1389.669902,7105.977043,-6365.771101,1072.533697
1389.670233,6883.915261,-6439.791695,842.705048
1389.670563,7031.956449,-6587.832884,919.314598
1389.670894,7105.977043,-6069.688724,1149.143247
1389.671224,7105.977043,-6291.750507,919.314598
1389.671555,6809.894666,-6291.750507,1302.362347
1389.671885,6365.771101,-6587.832884,995.924147
1389.672216,6957.935855,-6217.729913,689.485948
1389.672546,6735.874072,-6587.832884,1072.533697
1389.672877,6735.874072,-6661.853478,842.705048
1389.673208,6957.935855,-6735.874072,842.705048
1389.673538,6809.894666,-6809.894666,1225.752797
1389.673869,7105.977043,-6587.832884,842.705048
1389.674199,7031.956449,-6587.832884,1149.143247
1389.674530,6883.915261,-6883.915261,1762.019645
1389.674860,6809.894666,-6883.915261,995.924147
1389.675191,6587.832884,-6735.874072,536.266849
1389.675521,6735.874072,-7105.977043,919.314598
1389.675852,6957.935855,-7179.997637,689.485948
1389.676182,7105.977043,-6439.791695,612.876398
1389.676512,7179.997637,-6439.791695,995.924147
1389.676842,7105.977043,-6217.729913,1532.190996
1389.677172,7476.080014,-6365.771101,1149.143247
1389.677502,7179.997637,-6587.832884,689.485948
1389.677831,6883.915261,-6439.791695,919.314598
1389.678161,7402.059420,-5921.647536,919.314598
1389.678491,7328.038826,-6217.729913,1302.362347
1389.678821,7328.038826,-6439.791695,1072.533697
1389.679151,7476.080014,-6291.750507,1225.752797
1389.679480,7179.997637,-6217.729913,1149.143247
1389.679810,7105.977043,-6291.750507,1532.190996
1389.680140,6809.894666,-6513.812290,766.095498
1389.680470,6661.853478,-6513.812290,536.266849
1389.680800,6809.894666,-6217.729913,612.876398
1389.681129,7105.977043,-6587.832884,1225.752797
1389.681459,7105.977043,-6217.729913,919.314598
1389.681789,7105.977043,-6661.853478,1149.143247
1389.682119,7105.977043,-6587.832884,1302.362347
1389.682449,6809.894666,-6809.894666,842.705048
1389.682778,6513.812290,-6661.853478,1072.533697
1389.683108,6291.750507,-6809.894666,919.314598
1389.683438,7105.977043,-7105.977043,766.095498
1389.683768,7179.997637,-6439.791695,1302.362347
1389.684098,6883.915261,-6661.853478,995.924147
1389.684427,7476.080014,-6735.874072,1455.581446
1389.684757,7105.977043,-6365.771101,995.924147
1389.685087,6957.935855,-6883.915261,919.314598
1389.685417,6809.894666,-6365.771101,1149.143247
1389.685747,7254.018232,-5847.626942,1455.581446
1389.686076,7179.997637,-6291.750507,1915.238745
1389.686406,6957.935855,-6143.709319,995.924147
1389.686736,6587.832884,-6365.771101,1225.752797
1389.687066,6735.874072,-6513.812290,995.924147
1389.687396,6587.832884,-6365.771101,1455.581446
1389.687725,6661.853478,-6439.791695,995.924147
1389.688055,6735.874072,-6587.832884,919.314598
1389.688385,6661.853478,-6957.935855,1149.143247
1389.688715,6809.894666,-6883.915261,766.095498
1389.689045,6809.894666,-7105.977043,536.266849
1389.689374,6439.791695,-6587.832884,1149.143247
1389.689704,6809.894666,-6661.853478,842.705048
1389.690034,6809.894666,-6735.874072,919.314598
1389.690364,6661.853478,-6661.853478,1149.143247
1389.690694,7328.038826,-6809.894666,536.266849
1389.691023,7328.038826,-6439.791695,1302.362347
1389.691353,7254.018232,-6291.750507,766.095498
1389.691683,7105.977043,-6661.853478,1072.533697
1389.692013,7402.059420,-6809.894666,1608.800546
1389.692343,7179.997637,-6587.832884,919.314598
1389.692672,7476.080014,-6143.709319,1072.533697
1389.693002,7105.977043,-6291.750507,995.924147
1389.693332,7105.977043,-6365.771101,689.485948
1389.693662,7328.038826,-5995.668130,766.095498
1389.693992,6883.915261,-6587.832884,919.314598
1389.694321,7105.977043,-6069.688724,1072.533697
1389.694651,7105.977043,-6217.729913,1072.533697
1389.694981,6735.874072,-5847.626942,1225.752797
1389.695311,6439.791695,-6291.750507,1149.143247
1389.695641,6883.915261,-6809.894666,1072.533697
1389.695970,6957.935855,-6883.915261,1149.143247
1389.696300,7105.977043,-6735.874072,1072.533697
1389.696630,7254.018232,-6513.812290,1378.971896
1389.696960,6809.894666,-6883.915261,766.095498
1389.697290,6809.894666,-7031.956449,766.095498
1389.697619,6587.832884,-6587.832884,1225.752797
1389.697949,7031.956449,-6661.853478,383.047749
1389.698279,7179.997637,-6587.832884,1149.143247
1389.698609,6957.935855,-6291.750507,1225.752797
1389.698939,6957.935855,-6587.832884,995.924147
1389.699268,7031.956449,-6365.771101,1149.143247
1389.699598,7179.997637,-7031.956449,1378.971896
1389.699928,6883.915261,-6365.771101,1072.533697
1389.700258,7105.977043,-6217.729913,1072.533697
1389.700587,7105.977043,-6587.832884,1149.143247
1389.700917,7105.977043,-6661.853478,1455.581446
1389.701247,7105.977043,-6143.709319,1149.143247
1389.701577,7031.956449,-5995.668130,1378.971896
1389.701907,6883.915261,-6587.832884,1302.362347
1389.702236,6809.894666,-6587.832884,1149.143247
1389.702566,6735.874072,-6735.874072,995.924147
1389.702896,6957.935855,-6661.853478,995.924147
1389.703226,6957.935855,-6587.832884,842.705048
1389.703556,6661.853478,-7031.956449,995.924147
1389.703885,6587.832884,-7105.977043,1302.362347
1389.704215,6809.894666,-6735.874072,1302.362347
1389.704545,6661.853478,-6883.915261,766.095498
1389.704875,6587.832884,-6883.915261,1149.143247
1389.705205,6439.791695,-7254.018232,995.924147
1389.705534,7328.038826,-6661.853478,842.705048
1389.705864,6883.915261,-6143.709319,1302.362347
1389.706194,7105.977043,-6365.771101,842.705048
1389.706524,7476.080014,-6439.791695,1225.752797
1389.706854,7254.018232,-6217.729913,1072.533697
1389.707183,7031.956449,-6513.812290,383.047749
1389.707513,7105.977043,-6513.812290,1072.533697
1389.707843,7254.018232,-6217.729913,842.705048
1389.708173,7254.018232,-6143.709319,995.924147
1389.708503,7105.977043,-6587.832884,919.314598
1389.708832,7476.080014,-6365.771101,536.266849
1389.709162,7105.977043,-6365.771101,766.095498
1389.709492,6957.935855,-6365.771101,1225.752797
1389.709822,6957.935855,-6217.729913,766.095498
1389.710152,7105.977043,-6587.832884,1685.410096
1389.710481,6957.935855,-6735.874072,1149.143247
1389.710811,6957.935855,-6439.791695,306.438199
1389.711141,6735.874072,-6291.750507,995.924147
1389.711471,6735.874072,-6661.853478,1225.752797
1389.711801,6735.874072,-6513.812290,995.924147
1389.712130,6661.853478,-6809.894666,919.314598
1389.712460,6587.832884,-7105.977043,995.924147
1389.712790,7105.977043,-6587.832884,1072.533697
1389.713120,7328.038826,-6513.812290,1378.971896
1389.713450,7254.018232,-6513.812290,842.705048
1389.713779,7179.997637,-6661.853478,766.095498
1389.714109,7105.977043,-6587.832884,919.314598
1389.714439,6957.935855,-7105.977043,842.705048
1389.714769,7031.956449,-6587.832884,1838.629195
1389.715099,7105.977043,-6143.709319,1149.143247
1389.715428,6735.874072,-6513.812290,995.924147
1389.715758,6661.853478,-6291.750507,1302.362347
1389.716088,6735.874072,-6587.832884,995.924147
1389.716418,7105.977043,-6291.750507,1072.533697
1389.716748,7031.956449,-6809.894666,995.924147
1389.717077,6587.832884,-6365.771101,919.314598
1389.717407,6735.874072,-6883.915261,1149.143247
1389.717737,7105.977043,-6809.894666,1149.143247
1389.718067,6809.894666,-6883.915261,995.924147
1389.718397,6735.874072,-6883.915261,1225.752797
1389.718726,6957.935855,-6661.853478,689.485948
1389.719056,6661.853478,-7105.977043,919.314598
1389.719386,6735.874072,-6883.915261,1378.971896
1389.719716,6587.832884,-7105.977043,612.876398
1389.720046,7031.956449,-7105.977043,612.876398
1389.720375,7105.977043,-6661.853478,1225.752797
1389.720705,7402.059420,-6661.853478,1149.143247
1389.721035,7105.977043,-6439.791695,1225.752797
1389.721365,7476.080014,-6439.791695,1225.752797
1389.721695,7402.059420,-6217.729913,1149.143247
1389.722024,7328.038826,-5995.668130,1149.143247
1389.722354,7105.977043,-5921.647536,689.485948
1389.722684,7254.018232,-6143.709319,1072.533697
1389.723014,7031.956449,-6217.729913,842.705048
1389.723344,7105.977043,-6513.812290,1072.533697
1389.723673,7105.977043,-6291.750507,919.314598
1389.724003,7254.018232,-6439.791695,842.705048
1389.724333,6809.894666,-6439.791695,1149.143247
1389.724663,6735.874072,-6365.771101,766.095498
1389.724993,6809.894666,-6809.894666,1149.143247
1389.725322,7031.956449,-6217.729913,1532.190996
1389.725652,7105.977043,-6439.791695,842.705048
1389.725982,6809.894666,-6661.853478,1302.362347
1389.726312,6809.894666,-6365.771101,1149.143247
1389.726642,7179.997637,-5625.565159,766.095498
1389.726971,7328.038826,-5773.606348,1225.752797
1389.727301,7920.203579,-5773.606348,995.924147
1389.727631,8216.285956,-6069.688724,1225.752797
1389.727961,7402.059420,-5847.626942,919.314598
1389.728291,6957.935855,-6735.874072,306.438199
1389.728620,6143.709319,-7179.997637,383.047749
1389.728950,6365.771101,-6883.915261,383.047749
1389.729280,7105.977043,-6661.853478,612.876398
1389.729610,8216.285956,-5995.668130,1149.143247
1389.729939,8956.491898,-5477.523971,1225.752797
1389.730269,8512.368333,-3997.112087,1608.800546
1389.730599,7698.141797,-4441.235652,1302.362347
1389.730929,7994.224174,-4737.318029,1378.971896
1389.731259,8364.327145,-4367.215058,1302.362347
1389.731588,8586.388927,-4885.359217,919.314598
1389.731918,8142.265362,-4959.379811,842.705048
1389.732248,7846.182985,-5847.626942,689.485948
1389.732578,7920.203579,-5995.668130,842.705048
1389.732908,7994.224174,-4959.379811,536.266849
1389.733237,8142.265362,-6513.812290,1225.752797
1389.733567,8290.306550,-6365.771101,1225.752797
1389.733897,7550.100608,-6587.832884,306.438199
1389.734227,7179.997637,-5995.668130,689.485948
1389.734557,7772.162391,-5625.565159,689.485948
1389.734886,8216.285956,-5181.441594,536.266849
1389.735216,8882.471304,-3701.029710,1685.410096
1389.735546,9178.553681,-4293.194464,1149.143247
1389.735876,10066.800811,-3034.844362,1455.581446
1389.736206,9844.739029,-3182.885551,1302.362347
1389.736535,9622.677246,-3775.050304,1455.581446
1389.736865,9992.780217,-2590.720797,1302.362347
1389.737195,10066.800811,-3330.926739,1455.581446
1389.737525,10214.842000,-3034.844362,1685.410096
1389.737855,9696.697840,-3997.112087,1378.971896
1389.738184,10214.842000,-4811.338623,1608.800546
1389.738514,9548.656652,-4737.318029,995.924147
1389.738844,8882.471304,-5625.565159,1378.971896
1389.739174,7772.162391,-4219.173869,306.438199
1389.739504,7550.100608,-5551.544565,689.485948
1389.739833,7920.203579,-5329.482782,1532.190996
1389.740163,8364.327145,-4737.318029,919.314598
1389.740493,8882.471304,-3997.112087,995.924147
1389.740823,8882.471304,-3923.091493,1302.362347
1389.741153,8734.430116,-5255.462188,919.314598
1389.741482,8660.409521,-4811.338623,689.485948
1389.741812,8734.430116,-4737.318029,383.047749
1389.742142,9622.677246,-5033.400406,76.609550
1389.742472,9400.615463,-4811.338623,459.657299
1389.742802,9104.533087,-5699.585753,612.876398
1389.743131,9252.574275,-4737.318029,459.657299
1389.743461,9030.512492,-4885.359217,459.657299
1389.743791,9178.553681,-4071.132681,153.219100
1389.744121,8660.409521,-5329.482782,1225.752797
1389.744451,8734.430116,-4737.318029,1302.362347
1389.744780,8956.491898,-4145.153275,1608.800546
1389.745110,8586.388927,-3330.926739,2834.553343
1389.745440,9030.512492,-4367.215058,2298.286494
1389.745770,9474.636058,-3478.967927,2145.067394
1389.746100,9474.636058,-2664.741391,2068.457845
1389.746429,9104.533087,-3034.844362,1225.752797
1389.746759,9474.636058,-3330.926739,766.095498
1389.747089,9178.553681,-3923.091493,995.924147
1389.747419,8808.450710,-4589.276840,0.000000
1389.747749,8438.347739,-4663.297435,-229.828649
1389.748078,8808.450710,-5477.523971,-76.609550
1389.748408,9030.512492,-6365.771101,153.219100
1389.748738,8586.388927,-6143.709319,612.876398
1389.749068,8290.306550,-6735.874072,842.705048
1389.749398,8512.368333,-6513.812290,842.705048
1389.749727,8808.450710,-5773.606348,1685.410096
1389.750057,8438.347739,-5551.544565,1915.238745
1389.750387,8660.409521,-5477.523971,2145.067394
1389.750717,9474.636058,-3478.967927,2068.457845
1389.751047,9326.594869,-2590.720797,2068.457845
1389.751376,10140.821405,-1998.556043,1915.238745
1389.751706,10288.862594,-1184.329507,1072.533697
1389.752036,10510.924376,-1332.370696,306.438199
1389.752366,10214.842000,-1406.391290,0.000000
1389.752696,10288.862594,-2368.659014,76.609550
1389.753025,9770.718434,-4515.256246,229.828649
1389.753355,9326.594869,-6217.729913,459.657299
1389.753685,8586.388927,-6735.874072,229.828649
1389.754015,7846.182985,-7772.162391,1302.362347
1389.754345,7105.977043,-8882.471304,1225.752797
1389.754674,7105.977043,-8438.347739,1608.800546
1389.755004,6957.935855,-7698.141797,842.705048
1389.755334,6439.791695,-5847.626942,842.705048
1389.755664,7328.038826,-3997.112087,383.047749
1389.755994,8660.409521,-3775.050304,1608.800546
1389.756323,9474.636058,-2220.617826,1762.019645
1389.756653,9844.739029,-1554.432478,1915.238745
1389.756983,10288.862594,0.000000,1149.143247
1389.757313,11473.192101,-370.102971,1149.143247
1389.757642,11917.315666,-740.205942,1455.581446
1389.757972,12361.439231,-1628.453072,1532.190996
1389.758302,12065.356855,-2368.659014,1302.362347
1389.758632,11399.171507,-3775.050304,1532.190996
1389.758962,10066.800811,-5773.606348,1762.019645
1389.759291,8734.430116,-7550.100608,1608.800546
1389.759621,6661.853478,-7994.224174,766.095498
1389.759951,4441.235652,-8734.430116,0.000000
1389.760281,4219.173869,-8068.244768,-383.047749
1389.760611,4885.359217,-7698.141797,-383.047749
1389.760940,6587.832884,-6661.853478,0.000000
1389.761270,8512.368333,-4737.318029,842.705048
1389.761600,10140.821405,-3552.988522,2145.067394
1389.761930,11769.274478,-2738.761985,2451.505594
1389.762260,11325.150913,-1554.432478,1915.238745
1389.762589,10584.944971,-814.226536,1072.533697
1389.762919,10732.986159,-370.102971,689.485948
1389.763249,11399.171507,-1258.350101,842.705048
1389.763579,12213.398043,-2516.700203,1225.752797
1389.763909,12065.356855,-3701.029710,2451.505594
1389.764238,11325.150913,-3627.009116,1762.019645
1389.764568,8956.491898,-5625.565159,1762.019645
1389.764898,7179.997637,-6439.791695,1149.143247
1389.765228,5625.565159,-7550.100608,229.828649
1389.765558,4737.318029,-7920.203579,-612.876398
1389.765887,4441.235652,-8364.327145,-842.705048
1389.766217,5329.482782,-6069.688724,-153.219100
1389.766547,8290.306550,-4071.132681,-612.876398
1389.766877,10807.006753,-3552.988522,0.000000
1389.767207,11843.295072,-2886.803174,1915.238745
1389.767536,12065.356855,-1924.535449,1991.848295
1389.767866,11103.089130,-2220.617826,1762.019645
1389.768196,9992.780217,-2146.597232,1685.410096
1389.768526,9474.636058,-3256.906145,995.924147
1389.768856,8734.430116,-5995.668130,1378.971896
1389.769185,8142.265362,-6365.771101,1608.800546
1389.769515,7994.224174,-7994.224174,2374.896044
1389.769845,8290.306550,-7402.059420,1915.238745
1389.770175,7179.997637,-5699.585753,1302.362347
1389.770505,6513.812290,-3923.091493,0.000000
1389.770834,7105.977043,-2960.823768,-842.705048
1389.771164,8068.244768,-4145.153275,76.609550
1389.771494,9104.533087,-4441.235652,1225.752797
1389.771824,10066.800811,-2812.782580,1532.190996
1389.772154,10584.944971,-2072.576638,1072.533697
1389.772483,10436.903782,-3627.009116,1072.533697
1389.772813,9400.615463,-5329.482782,1455.581446
1389.773143,9400.615463,-7698.141797,1838.629195
1389.773473,8290.306550,-6957.935855,1302.362347
1389.773803,7328.038826,-6143.709319,0.000000
1389.774132,6661.853478,-5477.523971,-306.438199
1389.774462,6883.915261,-6883.915261,383.047749
1389.774792,7105.977043,-9252.574275,1685.410096
1389.775122,7698.141797,-7772.162391,1838.629195
1389.775452,6661.853478,-6217.729913,766.095498
1389.775781,5329.482782,-4885.359217,-383.047749
1389.776111,5477.523971,-5847.626942,-383.047749
1389.776441,6809.894666,-7994.224174,306.438199
1389.776771,7476.080014,-6439.791695,1455.581446
1389.777101,8290.306550,-4219.173869,1455.581446
1389.777430,9622.677246,-1702.473667,1302.362347
1389.777760,10362.883188,-2368.659014,1225.752797
1389.778090,9696.697840,-4515.256246,1225.752797
1389.778420,7846.182985,-6217.729913,919.314598
1389.778749,7179.997637,-7105.977043,995.924147
1389.779078,7698.141797,-5329.482782,459.657299
1389.779408,7624.121203,-6513.812290,1225.752797
1389.779737,8068.244768,-7476.080014,2298.286494
1389.780066,7550.100608,-7624.121203,1302.362347
1389.780396,6513.812290,-6883.915261,766.095498
1389.780725,6661.853478,-3701.029710,0.000000
1389.781054,7179.997637,-5107.421000,536.266849
1389.781384,7476.080014,-6735.874072,1149.143247
1389.781713,5773.606348,-7772.162391,0.000000
1389.782042,4441.235652,-8290.306550,536.266849
1389.782372,5477.523971,-7402.059420,76.609550
1389.782701,7328.038826,-8364.327145,1455.581446
1389.783030,8068.244768,-7031.956449,2221.676944
1389.783360,7772.162391,-6883.915261,919.314598
1389.783689,7105.977043,-7179.997637,229.828649
1389.784018,7698.141797,-6069.688724,2068.457845
1389.784348,7994.224174,-7179.997637,2757.943793
1389.784677,7402.059420,-4737.318029,2604.724693
1389.785006,6809.894666,-4071.132681,1378.971896
1389.785336,5773.606348,-4515.256246,383.047749
1389.785665,6439.791695,-4737.318029,2221.676944
1389.785994,7624.121203,-6143.709319,2604.724693
1389.786324,8438.347739,-4293.194464,995.924147
1389.786653,7179.997637,-2812.782580,-76.609550
1389.786982,6957.935855,-5921.647536,229.828649
1389.787312,7550.100608,-8216.285956,2221.676944
1389.787641,8068.244768,-9326.594869,1838.629195
1389.787970,6661.853478,-6365.771101,-153.219100
1389.788300,5625.565159,-7105.977043,0.000000
1389.788629,6661.853478,-8142.265362,1302.362347
1389.788958,7328.038826,-9844.739029,2451.505594
1389.789287,6735.874072,-9178.553681,2298.286494
1389.789617,5995.668130,-5255.462188,0.000000
1389.789946,5033.400406,-5847.626942,-306.438199
1389.790275,5107.421000,-7550.100608,1455.581446
1389.790605,5921.647536,-8512.368333,1838.629195
1389.790934,5921.647536,-5699.585753,612.876398
1389.791263,5847.626942,-4811.338623,0.000000
1389.791593,7105.977043,-5847.626942,1225.752797
1389.791922,9400.615463,-7328.038826,2987.772442
1389.792251,8956.491898,-7476.080014,2681.334243
1389.792581,7476.080014,-5847.626942,0.000000
1389.792910,5773.606348,-4515.256246,-995.924147
1389.793239,6883.915261,-6883.915261,1455.581446
1389.793569,8586.388927,-9178.553681,2451.505594
1389.793898,7476.080014,-6217.729913,1072.533697
1389.794227,4811.338623,-5107.421000,-689.485948
1389.794557,4811.338623,-6217.729913,0.000000
1389.794886,7105.977043,-7920.203579,2068.457845
1389.795215,8290.306550,-8660.409521,1455.581446
1389.795545,7476.080014,-4885.359217,306.438199
1389.795874,6883.915261,-4219.173869,-153.219100
1389.796203,7624.121203,-6143.709319,766.095498
1389.796533,8290.306550,-6513.812290,2145.067394
1389.796862,8734.430116,-6735.874072,1608.800546
1389.797191,6513.812290,-4737.318029,-612.876398
1389.797521,5625.565159,-5477.523971,-842.705048
1389.797850,6735.874072,-7550.100608,1225.752797
1389.798179,8660.409521,-8586.388927,2528.115143
1389.798509,8512.368333,-7105.977043,2068.457845
1389.798838,6957.935855,-3701.029710,229.828649
1389.799167,6069.688724,-5477.523971,306.438199
1389.799497,7254.018232,-7105.977043,2068.457845
1389.799826,7328.038826,-7994.224174,1762.019645
1389.800155,5847.626942,-6439.791695,229.828649
1389.800485,4219.173869,-5625.565159,-766.095498
1389.800814,4663.297435,-8216.285956,0.000000
1389.801143,7328.038826,-8734.430116,2451.505594
1389.801473,7920.203579,-7772.162391,1608.800546
1389.801802,7846.182985,-4663.297435,76.609550
1389.802131,6735.874072,-4663.297435,229.828649
1389.802460,7105.977043,-6957.935855,995.924147
1389.802790,8142.265362,-7402.059420,1302.362347
1389.803119,6587.832884,-6291.750507,306.438199
1389.803448,5403.503377,-5033.400406,-919.314598
1389.803778,6069.688724,-6957.935855,766.095498
1389.804107,8512.368333,-8660.409521,2911.162892
1389.804436,9326.594869,-7994.224174,2757.943793
1389.804766,7328.038826,-6365.771101,536.266849
1389.805095,5995.668130,-3849.070898,0.000000
1389.805424,6439.791695,-7624.121203,1072.533697
1389.805754,7105.977043,-8290.306550,2911.162892
1389.806083,6143.709319,-6143.709319,1455.581446
1389.806412,4737.318029,-5625.565159,-612.876398
1389.806742,5773.606348,-5329.482782,842.705048
1389.807071,7105.977043,-8660.409521,2451.505594
1389.807400,7772.162391,-7550.100608,2451.505594
1389.807730,6735.874072,-4663.297435,842.705048
1389.808059,6217.729913,-4811.338623,-383.047749
1389.808388,6883.915261,-5921.647536,919.314598
1389.808718,7550.100608,-8290.306550,1838.629195
1389.809047,7105.977043,-7105.977043,1532.190996
1389.809376,6439.791695,-4663.297435,-306.438199
1389.809706,6143.709319,-6439.791695,383.047749
1389.810035,7698.141797,-8586.388927,1685.410096
1389.810364,9104.533087,-8142.265362,3140.991542
1389.810694,7846.182985,-6291.750507,766.095498
1389.811023,6513.812290,-4145.153275,0.000000
1389.811352,6809.894666,-5699.585753,995.924147
1389.811682,8290.306550,-7179.997637,1608.800546
1389.812011,7476.080014,-7402.059420,1685.410096
1389.812340,5181.441594,-5995.668130,-229.828649
1389.812670,4441.235652,-6143.709319,-536.266849
1389.812999,5773.606348,-8142.265362,842.705048
1389.813328,7920.203579,-8512.368333,2834.553343
1389.813658,8512.368333,-6883.915261,2068.457845
1389.813987,7920.203579,-4737.318029,1225.752797
1389.814316,7698.141797,-4737.318029,689.485948
1389.814646,7105.977043,-6883.915261,1685.410096
1389.814975,7105.977043,-6587.832884,1455.581446
1389.815304,6365.771101,-4959.379811,-459.657299
1389.815633,6069.688724,-4663.297435,-383.047749
1389.815963,7550.100608,-7105.977043,1225.752797
1389.816292,9252.574275,-8142.265362,2757.943793
1389.816621,8660.409521,-6661.853478,1685.410096
1389.816951,7179.997637,-4293.194464,766.095498
1389.817280,7105.977043,-4737.318029,306.438199
1389.817609,7550.100608,-7698.141797,1608.800546
1389.817939,6809.894666,-8734.430116,842.705048
1389.818268,4885.359217,-7772.162391,153.219100
1389.818597,4293.194464,-6809.894666,-536.266849
1389.818927,5255.462188,-7772.162391,689.485948
1389.819256,7031.956449,-9252.574275,2451.505594
1389.819585,7476.080014,-7105.977043,2374.896044
1389.819915,7105.977043,-5329.482782,383.047749
1389.820244,7105.977043,-3701.029710,0.000000
1389.820573,7328.038826,-5847.626942,1762.019645
1389.820903,8290.306550,-7105.977043,1915.238745
1389.821232,6883.915261,-5625.565159,536.266849
1389.821561,5477.523971,-5699.585753,-153.219100
1389.821891,6587.832884,-6439.791695,689.485948
1389.822220,7772.162391,-9030.512492,2528.115143
1389.822549,7846.182985,-7698.141797,2451.505594
1389.822879,7105.977043,-5625.565159,0.000000
1389.823208,6365.771101,-4737.318029,0.000000
1389.823537,6883.915261,-6735.874072,612.876398
1389.823867,7105.977043,-9548.656652,2528.115143
1389.824196,6291.750507,-6883.915261,689.485948
1389.824525,4737.318029,-5847.626942,-612.876398
1389.824855,5181.441594,-6143.709319,459.657299
1389.825184,7328.038826,-7402.059420,2451.505594
1389.825513,8808.450710,-6883.915261,2451.505594
1389.825843,7994.224174,-4071.132681,1608.800546
1389.826172,7920.203579,-2072.576638,0.000000
1389.826501,8734.430116,-4737.318029,1225.752797
1389.826831,8882.471304,-7179.997637,2757.943793
1389.827160,8142.265362,-6957.935855,1378.971896
1389.827489,5477.523971,-5329.482782,-383.047749
1389.827819,4589.276840,-5847.626942,-612.876398
1389.828148,6069.688724,-9104.533087,1378.971896
1389.828477,8068.244768,-9844.739029,3140.991542
1389.828807,7624.121203,-7698.141797,995.924147
1389.829136,5847.626942,-5033.400406,-306.438199
1389.829465,6439.791695,-5921.647536,612.876398
1389.829794,7994.224174,-7624.121203,2145.067394
1389.830124,7846.182985,-8586.388927,1685.410096
1389.830453,4885.359217,-6587.832884,0.000000
1389.830782,4145.153275,-4959.379811,-1302.362347
1389.831112,6217.729913,-6957.935855,306.438199
1389.831441,8512.368333,-7254.018232,1762.019645
1389.831770,8660.409521,-7031.956449,1838.629195
1389.832100,7772.162391,-4737.318029,995.924147
1389.832429,7698.141797,-4219.173869,459.657299
1389.832758,8586.388927,-5773.606348,2374.896044
1389.833088,8142.265362,-7402.059420,1762.019645
1389.833417,5773.606348,-7105.977043,0.000000
1389.833746,5107.421000,-5921.647536,-689.485948
1389.834076,6439.791695,-6883.915261,0.000000
1389.834405,8364.327145,-7994.224174,2374.896044
1389.834734,8586.388927,-7550.100608,2451.505594
1389.835064,7328.038826,-5625.565159,612.876398
1389.835393,6143.709319,-5181.441594,76.609550
1389.835722,7328.038826,-7254.018232,1762.019645
1389.836052,7772.162391,-8364.327145,2221.676944
1389.836381,5921.647536,-7476.080014,919.314598
1389.836710,4145.153275,-6439.791695,-766.095498
1389.837040,4367.215058,-5995.668130,229.828649
1389.837369,6883.915261,-8216.285956,1608.800546
1389.837698,7994.224174,-8068.244768,2451.505594
1389.838028,6661.853478,-5551.544565,1072.533697
1389.838357,6587.832884,-4885.359217,306.438199
1389.838686,7772.162391,-5033.400406,1225.752797
1389.839016,8512.368333,-6365.771101,1838.629195
1389.839345,7550.100608,-5921.647536,1302.362347
1389.839674,6439.791695,-4737.318029,0.000000
1389.840004,6735.874072,-5255.462188,459.657299
1389.840333,7994.224174,-7994.224174,2374.896044
1389.840662,8586.388927,-8586.388927,2987.772442
1389.840992,8142.265362,-6143.709319,1685.410096
1389.841321,6809.894666,-4071.132681,229.828649
1389.841650,6735.874072,-5477.523971,689.485948
1389.841980,7772.162391,-8216.285956,2528.115143
1389.842309,7402.059420,-7994.224174,2145.067394
1389.842638,4589.276840,-6439.791695,-229.828649
1389.842967,3627.009116,-5995.668130,-1685.410096
1389.843297,5329.482782,-8364.327145,766.095498
1389.843626,7624.121203,-9474.636058,3294.210641
1389.843955,8290.306550,-7105.977043,1762.019645
1389.844285,6883.915261,-3849.070898,306.438199
1389.844614,7254.018232,-4071.132681,76.609550
1389.844943,9104.533087,-6735.874072,2374.896044
1389.845273,8956.491898,-6513.812290,2987.772442
1389.845602,7105.977043,-5699.585753,612.876398
1389.845931,5403.503377,-5033.400406,-766.095498
1389.846261,5773.606348,-6143.709319,612.876398
1389.846590,7402.059420,-8808.450710,2528.115143
1389.846919,7772.162391,-7698.141797,1685.410096
1389.847249,6513.812290,-5403.503377,229.828649
1389.847578,6217.729913,-5255.462188,0.000000
1389.847907,7328.038826,-8068.244768,1991.848295
1389.848237,7772.162391,-8512.368333,2681.334243
1389.848566,5625.565159,-6957.935855,0.000000
1389.848895,4071.132681,-5255.462188,-1532.190996
1389.849225,5403.503377,-6439.791695,0.000000
1389.849554,9252.574275,-9696.697840,2681.334243
1389.849883,9326.594869,-8290.306550,3677.258390
1389.850213,7994.224174,-4737.318029,919.314598
1389.850542,6809.894666,-3701.029710,0.000000
1389.850871,6957.935855,-5995.668130,766.095498
1389.851201,7772.162391,-9030.512492,1455.581446
1389.851530,6587.832884,-6809.894666,1072.533697
1389.851859,5181.441594,-5995.668130,-612.876398
1389.852189,5625.565159,-6143.709319,-153.219100
1389.852518,7179.997637,-7698.141797,2145.067394
1389.852847,8438.347739,-9326.594869,2757.943793
1389.853177,7624.121203,-5921.647536,1149.143247
1389.853506,6069.688724,-5255.462188,-306.438199
1389.853835,7402.059420,-5699.585753,383.047749
1389.854165,7772.162391,-7920.203579,2451.505594
1389.854494,7476.080014,-7105.977043,1149.143247
1389.854823,5329.482782,-5329.482782,-383.047749
1389.855153,5255.462188,-5625.565159,0.000000
1389.855482,7476.080014,-7179.997637,1838.629195
1389.855811,9474.636058,-8142.265362,3064.381992
1389.856141,8808.450710,-5625.565159,2374.896044
1389.856470,6883.915261,-3997.112087,229.828649
1389.856799,5773.606348,-4885.359217,-229.828649
1389.857128,6439.791695,-6809.894666,1225.752797
1389.857458,7105.977043,-6957.935855,1991.848295
1389.857787,6365.771101,-5699.585753,153.219100
1389.858116,5995.668130,-5255.462188,0.000000
1389.858446,6809.894666,-8216.285956,1532.190996
1389.858775,8586.388927,-8808.450710,2911.162892
1389.859104,8068.244768,-6587.832884,2068.457845
1389.859434,6587.832884,-3849.070898,-383.047749
1389.859763,6439.791695,-4737.318029,383.047749
1389.860092,8068.244768,-7846.182985,2298.286494
1389.860422,7846.182985,-8734.430116,2451.505594
1389.860751,5921.647536,-6217.729913,76.609550
1389.861080,4589.276840,-5403.503377,-1608.800546
1389.861410,5033.400406,-7920.203579,536.266849
1389.861739,6957.935855,-10214.842000,2528.115143
1389.862068,7402.059420,-8068.244768,1685.410096
1389.862398,6291.750507,-4737.318029,-383.047749
1389.862727,6365.771101,-4885.359217,0.000000
1389.863056,8216.285956,-7105.977043,1685.410096
1389.863386,9400.615463,-7402.059420,3370.820191
1389.863715,7920.203579,-5773.606348,1532.190996
1389.864044,6069.688724,-4737.318029,-229.828649
1389.864374,6513.812290,-5403.503377,536.266849
1389.864703,7772.162391,-7624.121203,2374.896044
1389.865032,8586.388927,-7920.203579,2987.772442
1389.865362,7846.182985,-5255.462188,1455.581446
1389.865691,6439.791695,-5033.400406,229.828649
1389.866020,6587.832884,-7031.956449,919.314598
1389.866350,6587.832884,-8438.347739,2374.896044
1389.866679,5699.585753,-7476.080014,536.266849
1389.867008,3923.091493,-6809.894666,-919.314598
1389.867338,3775.050304,-7402.059420,0.000000
1389.867667,6069.688724,-9474.636058,1455.581446
1389.867996,7772.162391,-8290.306550,2911.162892
1389.868326,7994.224174,-5477.523971,1149.143247
1389.868655,7179.997637,-4663.297435,229.828649
1389.868984,7772.162391,-5181.441594,1532.190996
1389.869314,8882.471304,-6883.915261,2451.505594
1389.869643,7550.100608,-5033.400406,1532.190996
1389.869972,6217.729913,-3404.947333,153.219100
1389.870301,5995.668130,-4589.276840,0.000000
1389.870631,7328.038826,-7105.977043,2451.505594
1389.870960,9104.533087,-8364.327145,3217.601092
1389.871289,8512.368333,-5329.482782,2145.067394
1389.871619,6587.832884,-4737.318029,536.266849
1389.871948,5699.585753,-5921.647536,919.314598
1389.872277,5847.626942,-9030.512492,1838.629195
1389.872607,5921.647536,-8142.265362,1378.971896
1389.872936,4737.318029,-5995.668130,0.000000
1389.873265,4515.256246,-6143.709319,-536.266849
1389.873595,6439.791695,-7402.059420,1532.190996
1389.873924,8512.368333,-9104.533087,2757.943793
1389.874253,9104.533087,-6735.874072,2451.505594
1389.874583,7846.182985,-4219.173869,459.657299
1389.874912,7105.977043,-4293.194464,0.000000
1389.875241,7994.224174,-6291.750507,1378.971896
1389.875571,7772.162391,-7698.141797,2145.067394
1389.875900,6439.791695,-6513.812290,153.219100
1389.876229,5551.544565,-5551.544565,-536.266849
1389.876559,6069.688724,-7105.977043,153.219100
1389.876888,7994.224174,-8586.388927,1762.019645
1389.877217,8142.265362,-7772.162391,2145.067394
1389.877547,6883.915261,-5699.585753,689.485948
1389.877876,6587.832884,-6069.688724,306.438199
1389.878205,7105.977043,-7031.956449,1532.190996
1389.878534,6809.894666,-8586.388927,1532.190996
1389.878864,6069.688724,-7402.059420,0.000000
1389.879193,4589.276840,-5773.606348,-766.095498
1389.879522,5329.482782,-7476.080014,229.828649
1389.879851,7772.162391,-8808.450710,2068.457845
1389.880181,8216.285956,-7550.100608,2298.286494
1389.880510,7476.080014,-5033.400406,153.219100
1389.880839,7105.977043,-4293.194464,-306.438199
1389.881168,7254.018232,-6365.771101,1072.533697
1389.881498,8216.285956,-6735.874072,1302.362347
1389.881827,7550.100608,-5847.626942,995.924147
1389.882156,6513.812290,-4441.235652,-536.266849
1389.882485,6661.853478,-5847.626942,153.219100
1389.882815,8216.285956,-7624.121203,2451.505594
1389.883144,9104.533087,-7550.100608,2451.505594
1389.883473,8290.306550,-5329.482782,919.314598
1389.883802,7550.100608,-4071.132681,0.000000
1389.884132,7920.203579,-5699.585753,919.314598
1389.884461,7772.162391,-7328.038826,2681.334243
1389.884790,6513.812290,-7254.018232,1072.533697
1389.885119,4885.359217,-5477.523971,-766.095498
1389.885449,4589.276840,-6439.791695,-459.657299
1389.885778,5403.503377,-8216.285956,1072.533697
1389.886107,7254.018232,-8734.430116,2451.505594
1389.886436,7772.162391,-6513.812290,1378.971896
1389.886766,7105.977043,-4441.235652,383.047749
1389.887095,7254.018232,-5181.441594,689.485948
1389.887424,8142.265362,-6883.915261,2374.896044
1389.887753,8142.265362,-6957.935855,1302.362347
1389.888083,6513.812290,-5551.544565,-306.438199
1389.888412,5625.565159,-5551.544565,-383.047749
1389.888741,7105.977043,-8660.409521,1455.581446
1389.889070,8808.450710,-8660.409521,3217.601092
1389.889400,8586.388927,-6513.812290,2145.067394
1389.889729,7550.100608,-4515.256246,766.095498
1389.890058,7254.018232,-4293.194464,459.657299
1389.890387,7179.997637,-7550.100608,1838.629195
1389.890717,6883.915261,-7846.182985,1991.848295
1389.891046,5255.462188,-6513.812290,0.000000
1389.891375,4441.235652,-5995.668130,-995.924147
1389.891704,4663.297435,-8068.244768,0.000000
1389.892034,6809.894666,-9326.594869,2451.505594
1389.892363,7846.182985,-7402.059420,1685.410096
1389.892692,7550.100608,-5551.544565,459.657299
1389.893021,7105.977043,-4219.173869,766.095498
1389.893351,7476.080014,-5847.626942,1225.752797
1389.893680,7328.038826,-7328.038826,2145.067394
1389.894009,6661.853478,-6291.750507,766.095498
1389.894338,5773.606348,-5551.544565,-536.266849
1389.894668,6957.935855,-6069.688724,1532.190996
1389.894997,8882.471304,-7994.224174,3907.087040
1389.895326,9474.636058,-7105.977043,3064.381992
1389.895655,7846.182985,-5181.441594,1149.143247
1389.895985,6661.853478,-4515.256246,0.000000
1389.896314,7105.977043,-6291.750507,1149.143247
1389.896643,7105.977043,-8068.244768,1838.629195
1389.896972,5921.647536,-7179.997637,766.095498
1389.897302,4367.215058,-6365.771101,-919.314598
1389.897631,4219.173869,-7624.121203,-459.657299
1389.897960,5995.668130,-9992.780217,1762.019645
1389.898289,8068.244768,-8438.347739,2604.724693
1389.898619,8216.285956,-5107.421000,919.314598
1389.898948,7328.038826,-3923.091493,76.609550
1389.899277,7179.997637,-5255.462188,612.876398
1389.899606,8290.306550,-7105.977043,1455.581446
1389.899936,7994.224174,-6883.915261,1302.362347
1389.900265,6513.812290,-5181.441594,459.657299
1389.900594,6365.771101,-5033.400406,-153.219100
1389.900923,7402.059420,-7476.080014,2068.457845
1389.901253,8438.347739,-7920.203579,3830.477490
1389.901582,8290.306550,-5551.544565,1532.190996
1389.901911,7328.038826,-3775.050304,995.924147
1389.902240,7254.018232,-4589.276840,1225.752797
1389.902570,7476.080014,-6809.894666,2298.286494
1389.902899,6587.832884,-6587.832884,1685.410096
1389.903228,4811.338623,-6735.874072,0.000000
1389.903557,4663.297435,-6217.729913,-612.876398
1389.903887,5773.606348,-7550.100608,1378.971896
1389.904216,7994.224174,-8882.471304,2068.457845
1389.904545,8438.347739,-6587.832884,1991.848295
1389.904874,7624.121203,-5255.462188,383.047749
1389.905204,6365.771101,-5181.441594,383.047749
1389.905533,7179.997637,-6217.729913,1225.752797
1389.905862,7550.100608,-7031.956449,1532.190996
1389.906191,6069.688724,-5847.626942,383.047749
1389.906521,5255.462188,-6291.750507,-229.828649
1389.906850,6069.688724,-7105.977043,383.047749
1389.907179,7624.121203,-8216.285956,3064.381992
1389.907508,7920.203579,-7402.059420,2298.286494
1389.907838,7179.997637,-4885.359217,229.828649
1389.908167,6809.894666,-5033.400406,229.828649
1389.908496,7698.141797,-7105.977043,1685.410096
1389.908825,7920.203579,-7624.121203,2757.943793
1389.909155,6143.709319,-7476.080014,1149.143247
1389.909484,4737.318029,-6587.832884,-536.266849
1389.909813,5107.421000,-7772.162391,153.219100
1389.910142,6291.750507,-9252.574275,1455.581446
1389.910472,6661.853478,-8956.491898,1608.800546
1389.910801,5847.626942,-6069.688724,0.000000
1389.911130,5773.606348,-4589.276840,-842.705048
1389.911459,6957.935855,-6809.894666,76.609550
1389.911789,7846.182985,-7476.080014,2068.457845
1389.912118,7254.018232,-6957.935855,689.485948
1389.912447,6735.874072,-5773.606348,-995.924147
1389.912776,6957.935855,-5921.647536,-306.438199
1389.913106,8882.471304,-7254.018232,2068.457845
1389.913435,10140.821405,-7624.121203,2911.162892
1389.913764,9178.553681,-4589.276840,1225.752797
1389.914093,7920.203579,-3627.009116,536.266849
1389.914423,7698.141797,-5699.585753,1225.752797
1389.914752,8142.265362,-6365.771101,2221.676944
1389.915081,6587.832884,-6069.688724,1991.848295
1389.915410,4219.173869,-6587.832884,-995.924147
1389.915740,4219.173869,-6143.709319,0.000000
1389.916069,5921.647536,-7105.977043,1225.752797
1389.916398,7402.059420,-8364.327145,2145.067394
1389.916727,7105.977043,-6069.688724,1685.410096
1389.917057,7328.038826,-4367.215058,-842.705048
1389.917386,7476.080014,-4737.318029,153.219100
1389.917715,7920.203579,-6735.874072,2681.334243
1389.918044,8438.347739,-6809.894666,1149.143247
1389.918374,7105.977043,-5181.441594,0.000000
1389.918703,6365.771101,-5403.503377,-229.828649
1389.919032,8142.265362,-6809.894666,1532.190996
1389.919361,9252.574275,-7328.038826,2681.334243
1389.919691,8290.306550,-6661.853478,1838.629195
1389.920020,6439.791695,-4737.318029,-229.828649
1389.920349,6365.771101,-5107.421000,0.000000
1389.920678,6809.894666,-7994.224174,1072.533697
1389.921008,6883.915261,-8068.244768,1762.019645
1389.921337,5625.565159,-7698.141797,229.828649
1389.921666,4737.318029,-7179.997637,-536.266849
1389.921995,4959.379811,-8290.306550,919.314598
1389.922325,6587.832884,-9030.512492,2451.505594
1389.922654,7698.141797,-6365.771101,1608.800546
1389.922983,6957.935855,-5403.503377,0.000000
1389.923312,6809.894666,-4589.276840,383.047749
1389.923642,8068.244768,-6365.771101,1608.800546
1389.923971,8808.450710,-7031.956449,2681.334243
1389.924300,7031.956449,-6217.729913,1455.581446
1389.924629,5255.462188,-6513.812290,-612.876398
1389.924959,6143.709319,-6365.771101,153.219100
1389.925288,7920.203579,-8956.491898,1991.848295
1389.925617,8438.347739,-8364.327145,2681.334243
1389.925946,7105.977043,-5107.421000,842.705048
1389.926276,6143.709319,-5477.523971,-536.266849
1389.926605,7105.977043,-6365.771101,995.924147
1389.926934,7846.182985,-8660.409521,1915.238745
1389.927263,6735.874072,-7920.203579,1915.238745
1389.927593,4663.297435,-6439.791695,306.438199
1389.927922,4737.318029,-6291.750507,0.000000
1389.928251,6217.729913,-7254.018232,1378.971896
1389.928580,8142.265362,-7402.059420,3140.991542
1389.928910,7254.018232,-4959.379811,1608.800546
1389.929239,7254.018232,-3478.967927,306.438199
1389.929568,8068.244768,-3404.947333,1149.143247
1389.929897,8956.491898,-5699.585753,2374.896044
1389.930227,7846.182985,-6661.853478,2298.286494
1389.930556,5699.585753,-5921.647536,153.219100
1389.930885,5625.565159,-5773.606348,-306.438199
1389.931214,6513.812290,-7920.203579,1685.410096
1389.931544,7402.059420,-9622.677246,3677.258390
1389.931873,7772.162391,-6957.935855,1532.190996
1389.932202,6587.832884,-4515.256246,0.000000
1389.932531,6661.853478,-5995.668130,536.266849
1389.932861,8512.368333,-7550.100608,2604.724693
1389.933190,7920.203579,-6143.709319,2528.115143
1389.933519,5995.668130,-5033.400406,0.000000
1389.933848,4959.379811,-5477.523971,-229.828649
1389.934178,6143.709319,-7105.977043,919.314598
1389.934507,7550.100608,-8438.347739,1915.238745
1389.934836,6735.874072,-6883.915261,1608.800546
1389.935165,6513.812290,-4737.318029,-766.095498
1389.935495,6439.791695,-5551.544565,-459.657299
1389.935824,7550.100608,-7105.977043,1302.362347
1389.936153,8142.265362,-8364.327145,2145.067394
1389.936482,7698.141797,-6143.709319,689.485948
1389.936812,6513.812290,-6513.812290,229.828649
1389.937141,6587.832884,-7476.080014,459.657299
1389.937470,7846.182985,-8660.409521,2451.505594
1389.937799,7402.059420,-7328.038826,1762.019645
1389.938129,5995.668130,-5107.421000,0.000000
1389.938458,5921.647536,-4811.338623,459.657299
1389.938787,7624.121203,-6513.812290,995.924147
1389.939116,7920.203579,-8290.306550,2911.162892
1389.939446,5847.626942,-7402.059420,1225.752797
1389.939775,3552.988522,-6217.729913,-1608.800546
1389.940104,3997.112087,-7402.059420,-383.047749
1389.940433,6809.894666,-8882.471304,2221.676944
1389.940763,8660.409521,-7846.182985,2221.676944
1389.941092,7920.203579,-5329.482782,689.485948
1389.941421,7402.059420,-4515.256246,383.047749
1389.941750,8290.306550,-5255.462188,1225.752797
1389.942080,9474.636058,-7105.977043,2374.896044
1389.942409,8290.306550,-5699.585753,1838.629195
1389.942738,6513.812290,-5773.606348,229.828649
1389.943067,6143.709319,-5995.668130,0.000000
1389.943397,6587.832884,-7920.203579,2451.505594
1389.943726,7698.141797,-8142.265362,2681.334243
1389.944055,7550.100608,-5403.503377,766.095498
1389.944384,6217.729913,-4737.318029,0.000000
1389.944714,6883.915261,-6439.791695,689.485948
1389.945043,8438.347739,-8216.285956,2987.772442
1389.945372,7698.141797,-7031.956449,1838.629195
1389.945701,5107.421000,-6217.729913,-612.876398
1389.946031,4515.256246,-5625.565159,-306.438199
1389.946360,5995.668130,-7179.997637,919.314598
1389.946689,7846.182985,-7698.141797,2528.115143
1389.947018,7920.203579,-5477.523971,2374.896044
1389.947347,7698.141797,-4071.132681,0.000000
1389.947677,7698.141797,-3997.112087,383.047749
1389.948006,7920.203579,-6587.832884,2068.457845
1389.948335,7105.977043,-7698.141797,1532.190996
1389.948664,5847.626942,-5181.441594,-383.047749
1389.948994,5107.421000,-6439.791695,-1455.581446
1389.949323,6439.791695,-8586.388927,689.485948
1389.949652,8438.347739,-9474.636058,2987.772442
1389.949981,8216.285956,-7772.162391,2145.067394
1389.950311,6513.812290,-4959.379811,-153.219100
1389.950640,6587.832884,-5033.400406,0.000000
1389.950969,8142.265362,-7031.956449,1915.238745
1389.951298,9104.533087,-7179.997637,2681.334243
1389.951628,7402.059420,-5329.482782,995.924147
1389.951957,5625.565159,-4071.132681,-1225.752797
1389.952286,6217.729913,-6291.750507,612.876398
1389.952615,7624.121203,-7846.182985,2987.772442
1389.952945,8142.265362,-7476.080014,1991.848295
1389.953274,6587.832884,-5255.462188,153.219100
1389.953603,5551.544565,-5033.400406,-536.266849
1389.953932,5921.647536,-7402.059420,383.047749
1389.954262,7328.038826,-8586.388927,1838.629195
1389.954591,6735.874072,-8364.327145,612.876398
1389.954920,5551.544565,-5403.503377,-536.266849
1389.955249,5477.523971,-7624.121203,-153.219100
1389.955579,8068.244768,-9252.574275,1991.848295
1389.955908,9178.553681,-8290.306550,2911.162892
1389.956237,7846.182985,-5773.606348,995.924147
1389.956566,6587.832884,-4367.215058,0.000000
1389.956896,7105.977043,-5329.482782,995.924147
1389.957225,8882.471304,-7105.977043,2145.067394
1389.957554,7994.224174,-6365.771101,2221.676944
1389.957883,6513.812290,-5625.565159,842.705048
1389.958213,5033.400406,-5551.544565,153.219100
1389.958542,5699.585753,-7624.121203,1149.143247
1389.958871,6735.874072,-7476.080014,2681.334243
1389.959200,6735.874072,-5773.606348,612.876398
1389.959530,6291.750507,-5477.523971,0.000000
1389.959859,6735.874072,-6587.832884,1302.362347
1389.960188,8290.306550,-7031.956449,1991.848295
1389.960517,7772.162391,-7254.018232,1532.190996
1389.960847,6957.935855,-5329.482782,153.219100
1389.961176,5625.565159,-6365.771101,-306.438199
1389.961505,6587.832884,-8068.244768,612.876398
1389.961834,7846.182985,-8142.265362,2604.724693
1389.962164,8660.409521,-6217.729913,1838.629195
1389.962493,7846.182985,-4219.173869,1149.143247
1389.962822,7550.100608,-4811.338623,689.485948
1389.963151,7772.162391,-7402.059420,1991.848295
1389.963481,7402.059420,-7105.977043,1991.848295
1389.963810,5625.565159,-6439.791695,0.000000
1389.964139,4219.173869,-6439.791695,-612.876398
1389.964468,4589.276840,-7846.182985,229.828649
1389.964798,7105.977043,-9400.615463,2374.896044
1389.965127,7920.203579,-6365.771101,1838.629195
1389.965456,7328.038826,-4885.359217,689.485948
1389.965785,7402.059420,-4737.318029,536.266849
1389.966115,7846.182985,-6217.729913,1532.190996
1389.966444,7550.100608,-6661.853478,1532.190996
1389.966773,6957.935855,-5921.647536,306.438199
1389.967102,6439.791695,-5329.482782,0.000000
1389.967432,7105.977043,-7031.956449,919.314598
1389.967761,7994.224174,-9030.512492,2987.772442
1389.968090,8586.388927,-7254.018232,2757.943793
1389.968419,7328.038826,-5477.523971,76.609550
1389.968749,6069.688724,-5773.606348,153.219100
1389.969078,6365.771101,-7698.141797,1685.410096
1389.969407,7105.977043,-7994.224174,1455.581446
1389.969736,5625.565159,-6365.771101,612.876398
1389.970066,4589.276840,-5477.523971,-689.485948
1389.970395,5551.544565,-6661.853478,0.000000
1389.970724,7476.080014,-8586.388927,2681.334243
1389.971053,8438.347739,-7920.203579,3294.210641
1389.971383,8438.347739,-3701.029710,1225.752797
1389.971712,7328.038826,-2886.803174,0.000000
1389.972041,7105.977043,-5551.544565,689.485948
1389.972370,8216.285956,-7402.059420,3140.991542
1389.972700,7328.038826,-6957.935855,1685.410096
1389.973029,5847.626942,-5551.544565,0.000000
1389.973358,5329.482782,-6143.709319,0.000000
1389.973687,6957.935855,-8438.347739,1532.190996
1389.974017,7550.100608,-8808.450710,2604.724693
1389.974346,7179.997637,-6661.853478,2068.457845
1389.974675,7105.977043,-4811.338623,536.266849
1389.975004,7550.100608,-4959.379811,766.095498
1389.975334,8142.265362,-7920.203579,2681.334243
1389.975663,7179.997637,-7846.182985,1838.629195
1389.975992,5181.441594,-6513.812290,0.000000
1389.976321,4293.194464,-6291.750507,-1149.143247
1389.976651,5551.544565,-8068.244768,1149.143247
1389.976980,7994.224174,-8882.471304,2987.772442
1389.977309,8438.347739,-5847.626942,1762.019645
1389.977638,6809.894666,-4885.359217,0.000000
1389.977968,5847.626942,-5477.523971,0.000000
1389.978297,6735.874072,-6587.832884,689.485948
1389.978626,7031.956449,-7476.080014,1455.581446
1389.978955,6365.771101,-5625.565159,153.219100
1389.979285,6439.791695,-5551.544565,-612.876398
1389.979614,7179.997637,-7772.162391,766.095498
1389.979943,8438.347739,-9326.594869,3217.601092
1389.980272,8882.471304,-6143.709319,2145.067394
1389.980601,7846.182985,-4589.276840,0.000000
1389.980930,7105.977043,-4737.318029,306.438199
1389.981259,8364.327145,-6661.853478,1838.629195
1389.981588,8068.244768,-7179.997637,1991.848295
1389.981917,6439.791695,-6365.771101,842.705048
1389.982246,5255.462188,-5625.565159,-229.828649
1389.982575,5329.482782,-6661.853478,459.657299
1389.982904,6809.894666,-8956.491898,1915.238745
1389.983233,6809.894666,-8142.265362,1915.238745
1389.983562,6069.688724,-5033.400406,-229.828649
1389.983891,5625.565159,-4663.297435,-1149.143247
1389.984220,6661.853478,-6143.709319,459.657299
1389.984549,7624.121203,-7254.018232,1608.800546
1389.984879,7920.203579,-6883.915261,1302.362347
1389.985208,7031.956449,-5773.606348,0.000000
1389.985537,7105.977043,-7179.997637,766.095498
1389.985866,8216.285956,-8364.327145,1149.143247
1389.986195,7920.203579,-7920.203579,2145.067394
1389.986524,6513.812290,-7328.038826,919.314598
1389.986853,6439.791695,-3775.050304,-459.657299
1389.987182,6661.853478,-6365.771101,766.095498
1389.987511,7772.162391,-8956.491898,2681.334243
1389.987840,7328.038826,-6809.894666,1685.410096
1389.988169,5403.503377,-5847.626942,0.000000
1389.988498,3849.070898,-6069.688724,-995.924147
1389.988827,5033.400406,-8956.491898,995.924147
1389.989156,7772.162391,-8216.285956,2374.896044
1389.989485,7624.121203,-4737.318029,1072.533697
1389.989814,7624.121203,-4071.132681,689.485948
1389.990143,8512.368333,-4663.297435,1532.190996
1389.990472,9252.574275,-5551.544565,2374.896044
1389.990801,7772.162391,-6587.832884,1991.848295
1389.991130,6661.853478,-4663.297435,306.438199
1389.991459,6365.771101,-5181.441594,-842.705048
1389.991789,6957.935855,-7402.059420,1838.629195
1389.992118,7698.141797,-8586.388927,2834.553343
1389.992447,7624.121203,-7105.977043,1915.238745
1389.992776,6661.853478,-4737.318029,0.000000
1389.993105,6143.709319,-5551.544565,76.609550
1389.993434,7328.038826,-7624.121203,1378.971896
1389.993763,7105.977043,-8290.306550,2298.286494
1389.994092,5625.565159,-6809.894666,383.047749
1389.994421,4663.297435,-6365.771101,-689.485948
1389.994750,5033.400406,-7698.141797,536.266849
1389.995079,7698.141797,-8808.450710,2681.334243
1389.995408,8290.306550,-6587.832884,2221.676944
1389.995737,7920.203579,-4219.173869,689.485948
1389.996066,7550.100608,-4515.256246,459.657299
1389.996395,8364.327145,-5255.462188,1455.581446
1389.996724,8216.285956,-6439.791695,1685.410096
1389.997053,6587.832884,-5847.626942,459.657299
1389.997382,5625.565159,-5403.503377,-76.609550
1389.997711,5921.647536,-7994.224174,536.266849
1389.998040,7624.121203,-9104.533087,2374.896044
1389.998369,7920.203579,-8808.450710,2451.505594
1389.998699,7031.956449,-6587.832884,536.266849
1389.999028,5995.668130,-5403.503377,76.609550
1389.999357,6291.750507,-7254.018232,842.705048
1389.999686,6809.894666,-8216.285956,1762.019645
1390.000015,6587.832884,-7031.956449,1532.190996
1390.000344,5625.565159,-5551.544565,-306.438199
1390.000673,5625.565159,-5847.626942,0.000000
1390.001002,6957.935855,-7624.121203,2451.505594
1390.001331,8586.388927,-7179.997637,2221.676944
1390.001660,7920.203579,-4663.297435,1072.533697
1390.001989,6809.894666,-4441.235652,153.219100
1390.002318,7550.100608,-5033.400406,919.314598
1390.002647,8512.368333,-7105.977043,1762.019645
1390.002976,7476.080014,-6883.915261,1685.410096
1390.003305,5995.668130,-5773.606348,383.047749
1390.003634,6069.688724,-6957.935855,0.000000
1390.003963,6809.894666,-8142.265362,2145.067394
1390.004292,7105.977043,-9104.533087,1762.019645
1390.004621,6809.894666,-7476.080014,1608.800546
1390.004950,6587.832884,-3775.050304,-306.438199
1390.005279,6513.812290,-6661.853478,612.876398
1390.005609,7105.977043,-7328.038826,2681.334243
1390.005938,7254.018232,-7105.977043,1608.800546
1390.006267,5921.647536,-6883.915261,459.657299
1390.006596,4663.297435,-5921.647536,-459.657299
1390.006925,5403.503377,-8216.285956,536.266849
1390.007254,7772.162391,-8142.265362,2528.115143
1390.007583,7476.080014,-6809.894666,919.314598
1390.007912,6883.915261,-4515.256246,0.000000
1390.008241,7328.038826,-3701.029710,459.657299
1390.008570,9252.574275,-5773.606348,1608.800546
1390.008899,8808.450710,-6439.791695,2374.896044
1390.009228,6735.874072,-5847.626942,1455.581446
1390.009557,6439.791695,-4959.379811,-306.438199
1390.009886,7105.977043,-6069.688724,1455.581446
1390.010215,8734.430116,-8142.265362,3140.991542
1390.010544,8734.430116,-5921.647536,2221.676944
1390.010873,7254.018232,-4367.215058,0.000000
1390.011202,6069.688724,-5477.523971,0.000000
1390.011531,7105.977043,-6883.915261,1685.410096
1390.011860,7105.977043,-9178.553681,1991.848295
1390.012189,5625.565159,-7772.162391,306.438199
1390.012519,4145.153275,-7402.059420,-766.095498
1390.012848,4737.318029,-8438.347739,459.657299
1390.013177,6809.894666,-8290.306550,1378.971896
1390.013506,7550.100608,-7031.956449,2374.896044
1390.013835,7105.977043,-4515.256246,76.609550
1390.014164,6735.874072,-4441.235652,-766.095498
1390.014493,7846.182985,-4737.318029,1302.362347
1390.014822,9104.533087,-6513.812290,2451.505594
1390.015151,8216.285956,-6291.750507,1532.190996
1390.015480,6883.915261,-4663.297435,229.828649
1390.015809,6957.935855,-6217.729913,153.219100
1390.016138,7772.162391,-8438.347739,1608.800546
1390.016467,7476.080014,-8438.347739,2451.505594
1390.016796,7105.977043,-6365.771101,0.000000
1390.017125,6365.771101,-4959.379811,-689.485948
1390.017454,6587.832884,-6809.894666,612.876398
1390.017783,7105.977043,-8660.409521,2221.676944
1390.018112,6513.812290,-8808.450710,1608.800546
1390.018441,4589.276840,-7254.018232,-229.828649
1390.018770,4071.132681,-6661.853478,-689.485948
1390.019099,5773.606348,-7846.182985,1378.971896
1390.019428,8068.244768,-6883.915261,2681.334243
1390.019758,8216.285956,-5773.606348,1532.190996
1390.020087,7772.162391,-3701.029710,612.876398
1390.020416,8512.368333,-2738.761985,153.219100
1390.020745,9548.656652,-4885.359217,2528.115143
1390.021074,9474.636058,-5699.585753,2451.505594
1390.021403,7476.080014,-5403.503377,459.657299
1390.021732,5625.565159,-6365.771101,-153.219100
1390.022061,6735.874072,-8142.265362,536.266849
1390.022390,7402.059420,-9474.636058,2145.067394
1390.022719,6587.832884,-7105.977043,1072.533697
1390.023048,5033.400406,-5921.647536,-766.095498
1390.023377,5847.626942,-6069.688724,0.000000
1390.023706,7624.121203,-8142.265362,2528.115143
1390.024035,7624.121203,-7846.182985,2451.505594
1390.024364,6513.812290,-6513.812290,766.095498
1390.024693,5625.565159,-5033.400406,-612.876398
1390.025022,5551.544565,-7105.977043,919.314598
1390.025351,7698.141797,-8808.450710,2528.115143
1390.025680,8808.450710,-6439.791695,2681.334243
1390.026009,7772.162391,-4219.173869,689.485948
1390.026338,7105.977043,-4145.153275,0.000000
1390.026668,7254.018232,-5181.441594,1991.848295
1390.026997,7179.997637,-7550.100608,1532.190996
1390.027326,5995.668130,-7105.977043,689.485948
1390.027655,4663.297435,-6217.729913,-689.485948
1390.027984,4737.318029,-7550.100608,-306.438199
1390.028313,6587.832884,-8882.471304,2298.286494
1390.028642,7624.121203,-8734.430116,2451.505594
1390.028971,7624.121203,-5329.482782,612.876398
1390.029300,7328.038826,-4737.318029,0.000000
1390.029629,8216.285956,-5921.647536,1378.971896
1390.029958,8956.491898,-6365.771101,2451.505594
1390.030287,7476.080014,-6069.688724,1762.019645
1390.030616,6291.750507,-5551.544565,-383.047749
1390.030945,5699.585753,-6661.853478,76.609550
1390.031274,6883.915261,-8290.306550,1838.629195
1390.031603,7328.038826,-8512.368333,2068.457845
1390.031932,6513.812290,-5699.585753,459.657299
1390.032261,5551.544565,-4219.173869,-919.314598
1390.032590,5921.647536,-5921.647536,0.000000
1390.032919,7105.977043,-7402.059420,2068.457845
1390.033248,7179.997637,-7846.182985,1685.410096
1390.033578,6291.750507,-6217.729913,0.000000
1390.033907,5921.647536,-5403.503377,0.000000
1390.034236,6513.812290,-7402.059420,1762.019645
1390.034565,8882.471304,-8734.430116,2681.334243
1390.034894,9104.533087,-6365.771101,2451.505594
1390.035223,8290.306550,-3849.070898,689.485948
1390.035552,8142.265362,-4515.256246,919.314598
1390.035881,8364.327145,-6069.688724,2145.067394
1390.036210,7550.100608,-6957.935855,1532.190996
1390.036539,5255.462188,-7105.977043,-306.438199
1390.036868,4293.194464,-6143.709319,-1302.362347
1390.037197,5477.523971,-8068.244768,383.047749
1390.037526,6883.915261,-9548.656652,2451.505594
1390.037855,6735.874072,-7846.182985,1608.800546
1390.038184,5773.606348,-5625.565159,-842.705048
1390.038513,5995.668130,-4811.338623,-919.314598
1390.038842,7772.162391,-6217.729913,1378.971896
1390.039171,9326.594869,-7105.977043,2911.162892
1390.039500,8586.388927,-5551.544565,1685.410096
1390.039829,7031.956449,-4145.153275,0.000000
1390.040158,7031.956449,-6291.750507,1302.362347
1390.040488,8734.430116,-7179.997637,2374.896044
1390.040817,9104.533087,-6217.729913,2221.676944
1390.041146,7994.224174,-4071.132681,1149.143247
1390.041475,7624.121203,-4515.256246,1072.533697
1390.041804,7772.162391,-7105.977043,1608.800546
1390.042133,6365.771101,-8586.388927,1915.238745
1390.042462,4441.235652,-8586.388927,76.609550
1390.042791,3108.864956,-7179.997637,-1762.019645
1390.043120,2738.761985,-9104.533087,-995.924147
1390.043449,5551.544565,-9252.574275,1378.971896
1390.043778,7328.038826,-9326.594869,2374.896044
1390.044107,8068.244768,-5699.585753,766.095498
1390.044436,7624.121203,-2960.823768,0.000000
1390.044765,8882.471304,-5181.441594,919.314598
1390.045094,9474.636058,-5477.523971,2451.505594
1390.045423,8512.368333,-6069.688724,1838.629195
1390.045752,6513.812290,-4885.359217,0.000000
1390.046081,6735.874072,-4737.318029,-229.828649
1390.046410,8734.430116,-7846.182985,2374.896044
1390.046739,9400.615463,-7920.203579,3830.477490
1390.047068,8438.347739,-5921.647536,1608.800546
1390.047398,6735.874072,-4219.173869,76.609550
1390.047727,6217.729913,-5255.462188,383.047749
1390.048056,6217.729913,-8734.430116,1685.410096
1390.048385,5625.565159,-8364.327145,1455.581446
1390.048714,4441.235652,-5847.626942,-689.485948
1390.049043,4367.215058,-6513.812290,-1225.752797
1390.049372,5847.626942,-8586.388927,2298.286494
1390.049701,7698.141797,-9622.677246,2987.772442
1390.050030,7698.141797,-5773.606348,1532.190996
1390.050359,6957.935855,-4219.173869,383.047749
1390.050688,7105.977043,-4071.132681,0.000000
1390.051017,7550.100608,-6587.832884,1072.533697
1390.051346,7698.141797,-7254.018232,2145.067394
1390.051675,7105.977043,-5033.400406,76.609550
1390.052004,7031.956449,-5403.503377,-383.047749
1390.052333,7254.018232,-7031.956449,1149.143247
1390.052662,8734.430116,-7846.182985,3140.991542
1390.052991,8290.306550,-7105.977043,1915.238745
1390.053320,6661.853478,-3627.009116,0.000000
1390.053649,6291.750507,-4145.153275,-306.438199
1390.053978,7994.224174,-6587.832884,1762.019645
1390.054308,7772.162391,-8068.244768,2374.896044
1390.054637,5551.544565,-7328.038826,229.828649
1390.054966,4367.215058,-6217.729913,-1072.533697
1390.055295,4811.338623,-8290.306550,383.047749
1390.055624,7105.977043,-9474.636058,2681.334243
1390.055953,7105.977043,-7920.203579,2451.505594
1390.056282,6809.894666,-5403.503377,76.609550
1390.056611,6809.894666,-4737.318029,0.000000
1390.056940,7179.997637,-5995.668130,1225.752797
1390.057269,7624.121203,-7402.059420,1838.629195
1390.057598,7105.977043,-6883.915261,842.705048
1390.057927,6143.709319,-5625.565159,-689.485948
1390.058256,6513.812290,-5995.668130,0.000000
1390.058585,7920.203579,-8290.306550,2604.724693
1390.058914,9104.533087,-7624.121203,2528.115143
1390.059243,7772.162391,-5403.503377,766.095498
1390.059572,6735.874072,-4293.194464,0.000000
1390.059901,7846.182985,-6661.853478,995.924147
1390.060230,8068.244768,-8660.409521,2834.553343
1390.060559,6735.874072,-7550.100608,1608.800546
1390.060888,4441.235652,-6069.688724,-536.266849
1390.061218,4737.318029,-7105.977043,0.000000
1390.061547,6143.709319,-8586.388927,1685.410096
1390.061876,7402.059420,-8216.285956,2221.676944
1390.062205,7328.038826,-5847.626942,1532.190996
1390.062534,6957.935855,-4367.215058,0.000000
1390.062863,6957.935855,-5403.503377,612.876398
1390.063192,7846.182985,-6957.935855,1915.238745
1390.063521,7254.018232,-6217.729913,1455.581446
1390.063850,6291.750507,-5699.585753,-459.657299
1390.064179,6069.688724,-5329.482782,-383.047749
1390.064508,7846.182985,-7105.977043,1455.581446
1390.064837,9178.553681,-9474.636058,2834.553343
1390.065166,8216.285956,-6883.915261,2451.505594
1390.065495,5921.647536,-4737.318029,-536.266849
1390.065824,5847.626942,-5329.482782,306.438199
1390.066153,7105.977043,-7624.121203,2145.067394
1390.066482,7476.080014,-8438.347739,2298.286494
1390.066811,5477.523971,-5329.482782,536.266849
1390.067140,5329.482782,-5551.544565,-612.876398
1390.067469,6143.709319,-7328.038826,766.095498
1390.067798,6661.853478,-9178.553681,2604.724693
1390.068128,6809.894666,-6957.935855,1455.581446
1390.068457,6291.750507,-4589.276840,-229.828649
1390.068786,5995.668130,-4737.318029,-459.657299
1390.069115,6957.935855,-6365.771101,1455.581446
1390.069444,7772.162391,-8142.265362,2451.505594
1390.069773,7179.997637,-6069.688724,1455.581446
1390.070102,5921.647536,-5329.482782,0.000000
1390.070431,6587.832884,-6217.729913,1455.581446
1390.070760,8734.430116,-7920.203579,2451.505594
1390.071089,9400.615463,-7031.956449,2757.943793
1390.071418,8068.244768,-4145.153275,842.705048
1390.071747,7254.018232,-3701.029710,153.219100
1390.072076,7328.038826,-6291.750507,1915.238745
1390.072405,7846.182985,-7254.018232,2221.676944
1390.072734,6291.750507,-6735.874072,76.609550
1390.073063,4663.297435,-7105.977043,-766.095498
1390.073392,4663.297435,-8438.347739,0.000000
1390.073721,6513.812290,-9844.739029,2068.457845
1390.074050,7031.956449,-7550.100608,1838.629195
1390.074379,6587.832884,-5255.462188,76.609550
1390.074708,6513.812290,-4811.338623,-229.828649
1390.075038,7105.977043,-6143.709319,1915.238745
1390.075367,8142.265362,-7105.977043,2528.115143
1390.075696,8068.244768,-6439.791695,1225.752797
1390.076025,6735.874072,-4441.235652,0.000000
1390.076354,6661.853478,-6291.750507,76.609550
1390.076683,8734.430116,-7476.080014,2068.457845
1390.077012,9696.697840,-7328.038826,2757.943793
1390.077341,8512.368333,-5255.462188,1991.848295
1390.077670,7328.038826,-3108.864956,153.219100
1390.077999,6513.812290,-4811.338623,842.705048
1390.078328,6291.750507,-8586.388927,2068.457845
1390.078657,5107.421000,-8512.368333,1378.971896
1390.078987,3775.050304,-6587.832884,-536.266849
1390.079316,4441.235652,-7105.977043,153.219100
1390.079645,6143.709319,-8808.450710,2451.505594
1390.079974,7550.100608,-7772.162391,2451.505594
1390.080303,6735.874072,-5921.647536,689.485948
1390.080632,6069.688724,-4219.173869,-459.657299
1390.080962,7698.141797,-4959.379811,153.219100
1390.081291,9252.574275,-6883.915261,2145.067394
1390.081620,8734.430116,-6883.915261,2145.067394
1390.081949,7550.100608,-6439.791695,689.485948
1390.082278,6661.853478,-5773.606348,229.828649
1390.082608,6809.894666,-7624.121203,1838.629195
1390.082937,7994.224174,-7994.224174,2298.286494
1390.083266,7179.997637,-5921.647536,1302.362347
1390.083595,4811.338623,-5107.421000,-459.657299
1390.083924,5551.544565,-5477.523971,0.000000
1390.084254,7031.956449,-7105.977043,1915.238745
1390.084583,7846.182985,-7698.141797,2451.505594
1390.084912,6513.812290,-7179.997637,995.924147
1390.085241,5551.544565,-6143.709319,153.219100
1390.085570,6143.709319,-7550.100608,1149.143247
1390.085900,6661.853478,-8882.471304,1838.629195
1390.086229,6661.853478,-7328.038826,842.705048
1390.086558,6217.729913,-4515.256246,-689.485948
1390.086887,6365.771101,-4071.132681,-612.876398
1390.087216,7179.997637,-5995.668130,1608.800546
1390.087546,8512.368333,-7994.224174,2681.334243
1390.087875,8216.285956,-6809.894666,1225.752797
1390.088204,6809.894666,-5625.565159,-153.219100
1390.088533,6291.750507,-7105.977043,459.657299
1390.088862,7698.141797,-7105.977043,2068.457845
1390.089191,8142.265362,-7105.977043,1762.019645
1390.089521,7179.997637,-5033.400406,689.485948
1390.089850,7031.956449,-3552.988522,0.000000
1390.090179,8956.491898,-5625.565159,1072.533697
1390.090508,9474.636058,-7476.080014,2911.162892
1390.090837,7328.038826,-7550.100608,2604.724693
1390.091167,5403.503377,-5625.565159,-383.047749
1390.091496,4219.173869,-6291.750507,0.000000
1390.091825,5921.647536,-8438.347739,1302.362347
1390.092154,7402.059420,-8142.265362,2145.067394
1390.092483,7179.997637,-5921.647536,1072.533697
1390.092813,7031.956449,-4737.318029,0.000000
1390.093142,7550.100608,-4959.379811,383.047749
1390.093471,7698.141797,-7920.203579,1685.410096
1390.093800,6513.812290,-7994.224174,1225.752797
1390.094129,5181.441594,-6513.812290,-306.438199
1390.094459,5477.523971,-6735.874072,-459.657299
1390.094788,6513.812290,-8364.327145,1762.019645
1390.095117,7698.141797,-8956.491898,2834.553343
1390.095446,7254.018232,-6661.853478,1225.752797
1390.095775,6809.894666,-5033.400406,-459.657299
1390.096105,7105.977043,-4885.359217,459.657299
1390.096434,7846.182985,-7031.956449,2145.067394
1390.096763,8290.306550,-7254.018232,2374.896044
1390.097092,6291.750507,-6217.729913,919.314598
1390.097421,5329.482782,-5773.606348,0.000000
1390.097750,5995.668130,-7328.038826,383.047749
1390.098080,6883.915261,-8068.244768,2757.943793
1390.098409,7254.018232,-6587.832884,1915.238745
1390.098738,6883.915261,-4663.297435,-306.438199
1390.099067,6883.915261,-4071.132681,383.047749
1390.099396,7920.203579,-5773.606348,1225.752797
1390.099726,7846.182985,-7402.059420,1991.848295
1390.100055,6661.853478,-6513.812290,842.705048
1390.100384,5847.626942,-6439.791695,0.000000
1390.100713,6809.894666,-7402.059420,1149.143247
1390.101042,7846.182985,-9104.533087,2987.772442
1390.101372,8290.306550,-7105.977043,2145.067394
1390.101701,7698.141797,-4219.173869,306.438199
1390.102030,7402.059420,-4219.173869,0.000000
1390.102359,8142.265362,-6217.729913,1915.238745
1390.102688,8364.327145,-8364.327145,2604.724693
1390.103018,7254.018232,-6513.812290,689.485948
1390.103347,4959.379811,-5551.544565,-995.924147
1390.103676,4589.276840,-6957.935855,-842.705048
1390.104005,6365.771101,-8290.306550,2145.067394
1390.104334,7920.203579,-8438.347739,2451.505594
1390.104663,7772.162391,-4885.359217,1149.143247
1390.104993,7254.018232,-3775.050304,153.219100
1390.105322,7550.100608,-5773.606348,1072.533697
1390.105651,7402.059420,-7550.100608,1685.410096
1390.105980,6809.894666,-7328.038826,1149.143247
1390.106309,5921.647536,-5847.626942,0.000000
1390.106639,6069.688724,-6809.894666,-76.609550
1390.106968,7105.977043,-9104.533087,1532.190996
1390.107297,7402.059420,-8438.347739,2221.676944
1390.107626,6957.935855,-7179.997637,689.485948
1390.107955,6069.688724,-4589.276840,-536.266849
1390.108285,6661.853478,-5403.503377,689.485948
1390.108614,7624.121203,-7476.080014,1302.362347
1390.108943,7698.141797,-7105.977043,2451.505594
1390.109272,6143.709319,-6291.750507,76.609550
1390.109601,5551.544565,-5551.544565,-536.266849
1390.109931,7328.038826,-7624.121203,2451.505594
1390.110260,8216.285956,-8068.244768,2681.334243
1390.110589,8142.265362,-5477.523971,1838.629195
1390.110918,6957.935855,-3552.988522,-306.438199
1390.111247,6957.935855,-4367.215058,-459.657299
1390.111577,7624.121203,-7698.141797,1991.848295
1390.111906,7105.977043,-8142.265362,2221.676944
1390.112235,5921.647536,-6439.791695,383.047749
1390.112564,4589.276840,-6735.874072,-229.828649
1390.112893,5551.544565,-7846.182985,459.657299
1390.113222,6735.874072,-9104.533087,2374.896044
1390.113552,7698.141797,-7179.997637,2451.505594
1390.113881,7328.038826,-4145.153275,612.876398
1390.114210,6883.915261,-5107.421000,0.000000
1390.114539,7402.059420,-5181.441594,2068.457845
1390.114868,8216.285956,-7920.203579,2681.334243
1390.115198,7254.018232,-6883.915261,766.095498
1390.115527,5551.544565,-4219.173869,383.047749
1390.115856,6365.771101,-7994.224174,1685.410096
1390.116185,8808.450710,-7476.080014,2911.162892
1390.116514,7920.203579,-6883.915261,2604.724693
1390.116844,6217.729913,-5329.482782,76.609550
1390.117173,5551.544565,-3478.967927,-689.485948
1390.117502,6069.688724,-7105.977043,1149.143247
1390.117831,7105.977043,-9400.615463,2374.896044
1390.118160,6735.874072,-5625.565159,689.485948
1390.118490,4589.276840,-6513.812290,-1149.143247
1390.118819,4663.297435,-5995.668130,-1225.752797
1390.119148,6957.935855,-8364.327145,1991.848295
1390.119477,9770.718434,-7476.080014,2681.334243
1390.119806,9474.636058,-4589.276840,1838.629195
1390.120136,8512.368333,-4737.318029,919.314598
1390.120465,8438.347739,-4293.194464,919.314598
1390.120794,7476.080014,-7772.162391,1838.629195
1390.121123,7179.997637,-7476.080014,1608.800546
1390.121452,5477.523971,-5033.400406,-459.657299
1390.121781,5107.421000,-6069.688724,76.609550
1390.122111,6291.750507,-8734.430116,2374.896044
1390.122440,7328.038826,-8512.368333,2528.115143
1390.122769,6513.812290,-6291.750507,1455.581446
1390.123098,5551.544565,-5033.400406,-995.924147
1390.123427,5625.565159,-5255.462188,-76.609550
1390.123757,7105.977043,-7105.977043,1302.362347
1390.124086,7846.182985,-8142.265362,1455.581446
1390.124415,7550.100608,-5699.585753,0.000000
1390.124744,6957.935855,-6365.771101,0.000000
1390.125073,7328.038826,-7254.018232,1225.752797
1390.125403,8882.471304,-7994.224174,2604.724693
1390.125732,8734.430116,-6291.750507,1532.190996
1390.126061,7328.038826,-5181.441594,306.438199
1390.126390,7402.059420,-6069.688724,842.705048
1390.126719,7624.121203,-7624.121203,1762.019645
1390.127049,6365.771101,-8290.306550,1532.190996
1390.127378,4737.318029,-6439.791695,0.000000
1390.127707,3552.988522,-6143.709319,-919.314598
1390.128036,4663.297435,-8142.265362,995.924147
1390.128365,6809.894666,-8438.347739,2374.896044
1390.128695,7402.059420,-6143.709319,2068.457845
1390.129024,7328.038826,-3923.091493,919.314598
1390.129353,7698.141797,-3552.988522,383.047749
1390.129682,8512.368333,-5403.503377,1915.238745
1390.130011,8734.430116,-6513.812290,2451.505594
1390.130340,7920.203579,-6217.729913,1072.533697
1390.130670,6883.915261,-4811.338623,-383.047749
1390.130999,6513.812290,-6513.812290,612.876398
1390.131328,8068.244768,-8882.471304,2451.505594
1390.131657,8068.244768,-7994.224174,2451.505594
1390.131986,6513.812290,-5847.626942,689.485948
1390.132316,5033.400406,-5329.482782,-766.095498
1390.132645,5699.585753,-7254.018232,536.266849
1390.132974,6217.729913,-8364.327145,1455.581446
1390.133303,6439.791695,-7994.224174,1149.143247
1390.133632,5847.626942,-5995.668130,0.000000
1390.133962,5995.668130,-6809.894666,536.266849
1390.134291,7105.977043,-8068.244768,1991.848295
1390.134620,9252.574275,-6291.750507,2604.724693
1390.134949,8882.471304,-4219.173869,1455.581446
1390.135278,7476.080014,-3923.091493,306.438199
1390.135608,7105.977043,-5403.503377,766.095498
1390.135937,7105.977043,-7624.121203,1762.019645
1390.136266,6069.688724,-7476.080014,919.314598
1390.136595,5033.400406,-6217.729913,-306.438199
1390.136924,4811.338623,-6809.894666,-459.657299
1390.137254,6217.729913,-8660.409521,1455.581446
1390.137583,7846.182985,-8438.347739,2757.943793
1390.137912,8438.347739,-5551.544565,1532.190996
1390.138241,7105.977043,-4071.132681,536.266849
1390.138570,7476.080014,-4959.379811,383.047749
1390.138899,7772.162391,-7624.121203,1915.238745
1390.139229,7476.080014,-6365.771101,1378.971896
1390.139558,6143.709319,-6069.688724,76.609550
1390.139887,5255.462188,-6587.832884,-612.876398
1390.140216,6143.709319,-7624.121203,536.266849
1390.140545,7624.121203,-8586.388927,2451.505594
1390.140875,8512.368333,-6513.812290,1225.752797
1390.141204,7105.977043,-4737.318029,0.000000
1390.141533,5773.606348,-5551.544565,0.000000
1390.141862,6069.688724,-7031.956449,1149.143247
1390.142191,7031.956449,-7402.059420,1149.143247
1390.142521,6957.935855,-6735.874072,229.828649
1390.142850,7698.141797,-5699.585753,766.095498
1390.143179,8364.327145,-7328.038826,2528.115143
1390.143508,8216.285956,-8216.285956,2987.772442
1390.143837,7624.121203,-5403.503377,2068.457845
1390.144167,7105.977043,-3849.070898,0.000000
1390.144496,7105.977043,-5033.400406,0.000000
1390.144825,7328.038826,-7328.038826,1685.410096
1390.145154,8068.244768,-9918.759623,2681.334243
1390.145483,7031.956449,-6957.935855,1455.581446
1390.145813,5329.482782,-5625.565159,0.000000
1390.146142,4737.318029,-6513.812290,229.828649
1390.146471,5995.668130,-7920.203579,1302.362347
1390.146800,7031.956449,-6809.894666,1838.629195
1390.147129,6809.894666,-4811.338623,536.266849
1390.147458,6143.709319,-4071.132681,0.000000
1390.147788,6883.915261,-4441.235652,229.828649
1390.148117,7624.121203,-6587.832884,1991.848295
1390.148446,8142.265362,-6661.853478,2068.457845
1390.148775,7550.100608,-5033.400406,766.095498
1390.149104,6735.874072,-6217.729913,1149.143247
1390.149434,7920.203579,-6661.853478,2068.457845
1390.149763,8290.306550,-7624.121203,2374.896044
1390.150092,7105.977043,-6513.812290,919.314598
1390.150421,5699.585753,-5477.523971,0.000000
1390.150750,6217.729913,-7550.100608,612.876398
1390.151080,6809.894666,-8512.368333,2145.067394
1390.151409,6217.729913,-8364.327145,1608.800546
1390.151738,4589.276840,-6365.771101,-536.266849
1390.152067,3478.967927,-6439.791695,-995.924147
1390.152396,5255.462188,-9178.553681,1149.143247
1390.152726,7698.141797,-8290.306550,2681.334243
1390.153055,8808.450710,-5181.441594,1915.238745
1390.153384,8290.306550,-3478.967927,536.266849
1390.153713,8290.306550,-5551.544565,1225.752797
1390.154042,9030.512492,-7624.121203,1991.848295
1390.154372,8512.368333,-7402.059420,2145.067394
1390.154701,6513.812290,-5773.606348,459.657299
1390.155030,5773.606348,-5107.421000,-1072.533697
1390.155359,6217.729913,-7994.224174,766.095498
1390.155688,6957.935855,-10288.862594,2604.724693
1390.156017,7920.203579,-7624.121203,1685.410096
1390.156347,7179.997637,-4663.297435,536.266849
1390.156676,7105.977043,-3849.070898,76.609550
1390.157005,7698.141797,-6587.832884,1455.581446
1390.157334,7550.100608,-7920.203579,2221.676944
1390.157663,6291.750507,-7476.080014,766.095498
1390.157993,5107.421000,-5329.482782,-459.657299
1390.158322,5107.421000,-6661.853478,766.095498
1390.158651,7031.956449,-8882.471304,1991.848295
1390.158980,7772.162391,-7254.018232,2068.457845
1390.159309,7105.977043,-5847.626942,383.047749
1390.159639,6439.791695,-5181.441594,0.000000
1390.159968,7328.038826,-5995.668130,1149.143247
1390.160297,7920.203579,-7179.997637,2451.505594
1390.160626,7550.100608,-5403.503377,1072.533697
1390.160955,6291.750507,-4885.359217,-306.438199
1390.161285,5699.585753,-5625.565159,153.219100
1390.161614,7254.018232,-7846.182985,2068.457845
1390.161943,9178.553681,-7402.059420,2681.334243
1390.162272,8882.471304,-3997.112087,1072.533697
1390.162601,7476.080014,-4145.153275,612.876398
1390.162931,7328.038826,-5995.668130,1149.143247
1390.163260,7476.080014,-7624.121203,1915.238745
1390.163589,7105.977043,-7105.977043,1149.143247
1390.163918,5181.441594,-5995.668130,-612.876398
1390.164247,4441.235652,-7402.059420,76.609550
1390.164576,4959.379811,-9992.780217,1225.752797
1390.164906,6735.874072,-9252.574275,2298.286494
1390.165235,7624.121203,-6217.729913,919.314598
1390.165564,7328.038826,-4441.235652,459.657299
1390.165893,7846.182985,-4959.379811,2374.896044
1390.166222,8512.368333,-7031.956449,2451.505594
1390.166552,7698.141797,-5995.668130,1378.971896
1390.166881,5699.585753,-4737.318029,-306.438199
1390.167210,6069.688724,-5847.626942,-229.828649
1390.167539,7920.203579,-7476.080014,1532.190996
1390.167868,7994.224174,-7994.224174,2298.286494
1390.168198,8290.306550,-6069.688724,1072.533697
1390.168527,7179.997637,-4885.359217,-229.828649
1390.168856,7254.018232,-7254.018232,919.314598
1390.169185,7328.038826,-8882.471304,2374.896044
1390.169514,6735.874072,-8142.265362,1455.581446
1390.169844,4663.297435,-7254.018232,-383.047749
1390.170173,3330.926739,-7105.977043,-612.876398
1390.170502,5033.400406,-8364.327145,612.876398
1390.170831,7328.038826,-9400.615463,2757.943793
1390.171160,8290.306550,-5847.626942,1991.848295
1390.171490,7328.038826,-3849.070898,612.876398
1390.171819,7254.018232,-4071.132681,0.000000
1390.172148,7772.162391,-6143.709319,2374.896044
1390.172477,8438.347739,-6513.812290,1991.848295
1390.172806,7105.977043,-5477.523971,766.095498
1390.173135,5699.585753,-4515.256246,-229.828649
1390.173465,6957.935855,-7550.100608,459.657299
1390.173794,7920.203579,-9252.574275,2757.943793
1390.174123,8068.244768,-8438.347739,2834.553343
1390.174452,7476.080014,-5181.441594,459.657299
1390.174781,6439.791695,-4811.338623,383.047749
1390.175111,7031.956449,-6587.832884,1378.971896
1390.175440,7105.977043,-7328.038826,1915.238745
1390.175769,6143.709319,-6661.853478,766.095498
1390.176098,4885.359217,-5625.565159,-689.485948
1390.176427,5403.503377,-7031.956449,459.657299
1390.176757,7105.977043,-8512.368333,2604.724693
1390.177086,7772.162391,-7254.018232,2298.286494
1390.177415,7550.100608,-5107.421000,536.266849
1390.177744,7328.038826,-3923.091493,0.000000
1390.178073,8364.327145,-4959.379811,536.266849
1390.178403,9030.512492,-6809.894666,2221.676944
1390.178732,7550.100608,-6365.771101,1762.019645
1390.179061,5847.626942,-5477.523971,-306.438199
1390.179390,5255.462188,-6735.874072,-459.657299
1390.179719,6735.874072,-8142.265362,2068.457845
1390.180049,8290.306550,-8290.306550,2681.334243
1390.180378,7994.224174,-5847.626942,1838.629195
1390.180707,6735.874072,-4663.297435,536.266849
1390.181036,6809.894666,-6365.771101,919.314598
1390.181365,6513.812290,-8364.327145,1302.362347
1390.181694,5403.503377,-9252.574275,919.314598
1390.182023,4515.256246,-7698.141797,0.000000
1390.182352,4367.215058,-7772.162391,-536.266849
1390.182682,5551.544565,-10510.924376,1455.581446
1390.183011,6587.832884,-10214.842000,2451.505594
1390.183340,6291.750507,-7402.059420,842.705048
1390.183669,5699.585753,-5625.565159,-766.095498
1390.183998,6883.915261,-5699.585753,766.095498
1390.184327,7550.100608,-7772.162391,1838.629195
1390.184656,7179.997637,-8586.388927,2221.676944
1390.184985,5551.544565,-7476.080014,995.924147
1390.185315,4737.318029,-6365.771101,-766.095498
1390.185644,5255.462188,-8142.265362,0.000000
1390.185973,6143.709319,-9474.636058,2451.505594
1390.186302,7031.956449,-7772.162391,2068.457845
1390.186631,7031.956449,-6513.812290,1072.533697
1390.186960,7254.018232,-5403.503377,1149.143247
1390.187289,7402.059420,-6439.791695,1532.190996
1390.187618,7698.141797,-7698.141797,3294.210641
1390.187948,6661.853478,-6661.853478,1685.410096
1390.188277,4663.297435,-6365.771101,153.219100
1390.188606,3775.050304,-6587.832884,919.314598
1390.188935,4885.359217,-8808.450710,1762.019645
1390.189264,5625.565159,-9252.574275,1915.238745
1390.189593,4737.318029,-7920.203579,1149.143247
1390.189922,3997.112087,-7402.059420,-153.219100
1390.190251,4811.338623,-8512.368333,0.000000
1390.190581,5477.523971,-10214.842000,1762.019645
1390.190910,5181.441594,-10807.006753,1455.581446
1390.191239,3775.050304,-9622.677246,0.000000
1390.191568,2886.803174,-9326.594869,-536.266849
1390.191897,3552.988522,-10584.944971,1072.533697
1390.192226,5255.462188,-10214.842000,2374.896044
1390.192555,6217.729913,-9474.636058,2451.505594
1390.192884,5847.626942,-7179.997637,1685.410096
1390.193214,5181.441594,-6439.791695,689.485948
1390.193543,5181.441594,-5921.647536,1302.362347
1390.193872,6217.729913,-6883.915261,1991.848295
1390.194201,6217.729913,-7328.038826,2068.457845
1390.194530,4737.318029,-7179.997637,1455.581446
1390.194859,3034.844362,-10214.842000,919.314598
1390.195188,3256.906145,-9918.759623,536.266849
1390.195518,3552.988522,-10436.903782,0.000000
1390.195847,3404.947333,-11843.295072,76.609550
1390.196176,3701.029710,-11991.336260,1991.848295
1390.196505,4145.153275,-10955.047942,1302.362347
1390.196834,4663.297435,-8882.471304,689.485948
1390.197163,5255.462188,-6365.771101,0.000000
1390.197492,6513.812290,-6587.832884,919.314598
1390.197821,6809.894666,-6735.874072,1762.019645
1390.198151,6957.935855,-7624.121203,2374.896044
1390.198480,7254.018232,-6735.874072,2298.286494
1390.198809,6143.709319,-5773.606348,1072.533697
1390.199138,5551.544565,-8882.471304,383.047749
1390.199467,3997.112087,-9844.739029,1072.533697
1390.199796,3404.947333,-11177.109724,919.314598
1390.200125,3478.967927,-10362.883188,766.095498
1390.200454,3775.050304,-8660.409521,689.485948
1390.200784,4589.276840,-8512.368333,153.219100
1390.201113,5551.544565,-8808.450710,766.095498
1390.201442,5921.647536,-8290.306550,1532.190996
1390.201771,6143.709319,-7846.182985,1838.629195
1390.202100,7105.977043,-6143.709319,2068.457845
1390.202429,6291.750507,-5551.544565,1608.800546
1390.202758,5625.565159,-8068.244768,153.219100
1390.203087,4367.215058,-9548.656652,766.095498
1390.203417,3404.947333,-10066.800811,383.047749
1390.203746,3552.988522,-9918.759623,-76.609550
1390.204075,3849.070898,-10140.821405,0.000000
1390.204404,4811.338623,-11177.109724,1225.752797
1390.204733,4959.379811,-12213.398043,1685.410096
1390.205062,4219.173869,-11251.130318,2374.896044
1390.205391,4441.235652,-8808.450710,1532.190996
1390.205720,4737.318029,-5847.626942,1149.143247
1390.206050,5995.668130,-3404.947333,1149.143247
1390.206379,6883.915261,-4515.256246,1532.190996
1390.206708,7179.997637,-4737.318029,1302.362347
1390.207037,6957.935855,-5847.626942,1838.629195
1390.207366,5625.565159,-7402.059420,919.314598
1390.207695,4145.153275,-8734.430116,536.266849
1390.208024,2812.782580,-11177.109724,383.047749
1390.208353,2590.720797,-12287.418637,0.000000
1390.208683,1924.535449,-12435.459826,0.000000
1390.209012,3108.864956,-11991.336260,-229.828649
1390.209341,4737.318029,-11029.068536,153.219100
1390.209670,6143.709319,-9622.677246,1455.581446
1390.209999,5477.523971,-9696.697840,1762.019645
1390.210328,4145.153275,-8438.347739,1532.190996
1390.210657,3997.112087,-7772.162391,1685.410096
1390.210987,5107.421000,-6365.771101,2068.457845
1390.211316,6291.750507,-4885.359217,3064.381992
1390.211645,6809.894666,-4811.338623,2604.724693
1390.211974,6217.729913,-5403.503377,1149.143247
1390.212303,4959.379811,-6883.915261,229.828649
1390.212632,4441.235652,-8660.409521,-612.876398
1390.212961,4737.318029,-9992.780217,-459.657299
1390.213290,4737.318029,-12657.521608,612.876398
1390.213620,4737.318029,-13397.727550,1455.581446
1390.213949,5181.441594,-12287.418637,1838.629195
1390.214278,5181.441594,-9770.718434,1685.410096
1390.214607,4737.318029,-8290.306550,1532.190996
1390.214936,3997.112087,-7994.224174,1455.581446
1390.215265,4663.297435,-6365.771101,1532.190996
1390.215594,4811.338623,-6143.709319,1532.190996
1390.215923,5181.441594,-5477.523971,1915.238745
1390.216253,5107.421000,-5625.565159,1149.143247
1390.216582,5403.503377,-6513.812290,689.485948
1390.216911,5255.462188,-7105.977043,306.438199
1390.217240,4959.379811,-8438.347739,459.657299
1390.217569,5033.400406,-10584.944971,766.095498
1390.217898,4737.318029,-11769.274478,536.266849
1390.218227,4811.338623,-12509.480420,919.314598
1390.218556,5551.544565,-11621.233289,1532.190996
1390.218886,5847.626942,-9918.759623,2374.896044
1390.219215,5921.647536,-9178.553681,2451.505594
1390.219544,5477.523971,-7402.059420,2221.676944
1390.219873,4737.318029,-6513.812290,1455.581446
1390.220202,4441.235652,-5181.441594,766.095498
1390.220531,3701.029710,-5773.606348,0.000000
1390.220860,3849.070898,-6365.771101,-459.657299
1390.221189,4441.235652,-7031.956449,-995.924147
1390.221519,5181.441594,-8438.347739,229.828649
1390.221848,6143.709319,-9326.594869,995.924147
1390.222177,5921.647536,-11547.212695,1072.533697
1390.222506,5625.565159,-11695.253884,1149.143247
1390.222835,4811.338623,-11769.274478,1455.581446
1390.223164,4811.338623,-10955.047942,1762.019645
1390.223493,5033.400406,-9474.636058,2757.943793
1390.223822,5255.462188,-8438.347739,2604.724693
1390.224152,5255.462188,-6587.832884,3370.820191
1390.224481,5699.585753,-5995.668130,2987.772442
1390.224810,5847.626942,-5625.565159,2987.772442
1390.225139,5107.421000,-5403.503377,1991.848295
1390.225468,4663.297435,-6365.771101,1072.533697
1390.225797,4737.318029,-7328.038826,766.095498
1390.226126,5181.441594,-8586.388927,1149.143247
1390.226455,5107.421000,-10510.924376,995.924147
1390.226785,5181.441594,-10881.027347,1378.971896
1390.227114,5107.421000,-11917.315666,1762.019645
1390.227443,4515.256246,-11621.233289,1838.629195
1390.227772,4663.297435,-10881.027347,2757.943793
1390.228101,5699.585753,-7846.182985,3447.429741
1390.228430,6513.812290,-6217.729913,3753.867940
1390.228759,7105.977043,-4885.359217,4826.401637
1390.229089,7254.018232,-3552.988522,4213.525239
1390.229418,7328.038826,-2516.700203,4136.915689
1390.229747,6587.832884,-3330.926739,2834.553343
1390.230076,5921.647536,-5107.421000,2374.896044
1390.230405,6291.750507,-7328.038826,2757.943793
1390.230734,6957.935855,-8216.285956,2757.943793
1390.231063,7105.977043,-8808.450710,3677.258390
1390.231392,6735.874072,-9178.553681,3907.087040
1390.231722,6291.750507,-8808.450710,3217.601092
1390.232051,5329.482782,-8808.450710,2834.553343
1390.232380,4293.194464,-8586.388927,2451.505594
1390.232709,4737.318029,-7624.121203,3140.991542
1390.233038,5181.441594,-6735.874072,3447.429741
1390.233367,6143.709319,-5847.626942,4366.744339
1390.233696,7179.997637,-4663.297435,4443.353888
1390.234025,8734.430116,-3849.070898,5362.668486
1390.234355,9252.574275,-3478.967927,5209.449386
1390.234684,9252.574275,-3552.988522,4443.353888
1390.235013,8734.430116,-4885.359217,4826.401637
1390.235342,8956.491898,-5995.668130,4060.306139
1390.235671,7772.162391,-8216.285956,4136.915689
1390.236000,6883.915261,-9252.574275,4290.134789
1390.236329,5773.606348,-10140.821405,3830.477490
1390.236658,5181.441594,-10807.006753,3983.696590
1390.236988,4071.132681,-9400.615463,4443.353888
1390.237317,2812.782580,-9178.553681,3677.258390
1390.237646,2886.803174,-7772.162391,3064.381992
1390.237975,3775.050304,-6513.812290,3677.258390
1390.238304,5477.523971,-5921.647536,4673.182538
1390.238633,8216.285956,-4367.215058,5669.106685
1390.238962,9400.615463,-4293.194464,6818.249932
1390.239291,10140.821405,-3775.050304,6281.983084
1390.239621,10214.842000,-3404.947333,5439.278036
1390.239950,9992.780217,-3923.091493,5975.544884
1390.240279,9622.677246,-4441.235652,4979.620737
1390.240608,8882.471304,-6217.729913,4749.792088
1390.240937,7920.203579,-6809.894666,4519.963438
1390.241266,6883.915261,-7624.121203,3830.477490
1390.241595,5551.544565,-8956.491898,4443.353888
1390.241924,4589.276840,-8956.491898,3907.087040
1390.242254,3478.967927,-10066.800811,3600.648841
1390.242583,2516.700203,-8956.491898,3064.381992
1390.242912,1554.432478,-8882.471304,3064.381992
1390.243241,2960.823768,-8882.471304,3294.210641
1390.243570,4811.338623,-7550.100608,3983.696590
1390.243899,7328.038826,-6735.874072,4903.011187
1390.244228,9400.615463,-4441.235652,5975.544884
1390.244558,11029.068536,-3256.906145,6435.202183
1390.244887,10955.047942,-2368.659014,5745.716235
1390.245216,9474.636058,-2294.638420,5132.839837
1390.245545,8808.450710,-3182.885551,4213.525239
1390.245874,7846.182985,-5403.503377,3907.087040
1390.246203,6587.832884,-7105.977043,4060.306139
1390.246532,5847.626942,-8142.265362,2757.943793
1390.246861,4885.359217,-9548.656652,2221.676944
1390.247191,4145.153275,-10066.800811,2374.896044
1390.247520,4515.256246,-10214.842000,2681.334243
1390.247849,5329.482782,-8586.388927,2987.772442
1390.248178,6143.709319,-7031.956449,3447.429741
1390.248507,7550.100608,-5329.482782,3907.087040
1390.248836,9696.697840,-3923.091493,5132.839837
1390.249165,10584.944971,-4367.215058,4979.620737
1390.249494,10362.883188,-4515.256246,4519.963438
1390.249824,9030.512492,-5181.441594,3370.820191
1390.250153,7105.977043,-5921.647536,2451.505594
1390.250482,5551.544565,-7031.956449,2528.115143
1390.250811,5551.544565,-8068.244768,2451.505594
1390.251140,5181.441594,-8142.265362,2911.162892
1390.251469,5403.503377,-7920.203579,3524.039291
1390.251798,6291.750507,-7328.038826,3983.696590
1390.252127,7994.224174,-7105.977043,3830.477490
1390.252457,7624.121203,-6809.894666,4443.353888
1390.252786,7328.038826,-6291.750507,4290.134789
1390.253115,7402.059420,-5477.523971,3524.039291
1390.253444,7550.100608,-3627.009116,3753.867940
1390.253773,8808.450710,-3182.885551,3753.867940
1390.254102,8956.491898,-3627.009116,3753.867940
1390.254431,8438.347739,-4515.256246,3907.087040
1390.254760,7698.141797,-5995.668130,3217.601092
1390.255090,6883.915261,-8438.347739,3217.601092
1390.255419,5551.544565,-10288.862594,3524.039291
1390.255748,4663.297435,-11695.253884,3140.991542
1390.256077,3923.091493,-11177.109724,2834.553343
1390.256406,3256.906145,-9844.739029,2681.334243
1390.256735,4219.173869,-7994.224174,2757.943793
1390.257064,5625.565159,-5477.523971,2681.334243
1390.257393,7254.018232,-5107.421000,3677.258390
1390.257723,7920.203579,-4737.318029,4979.620737
1390.258052,9104.533087,-3775.050304,6358.592633
1390.258381,10066.800811,-2590.720797,6205.373534
1390.258710,10807.006753,-1924.535449,5592.497135
1390.259039,10510.924376,-2590.720797,5898.935335
1390.259368,9252.574275,-3923.091493,4290.134789
1390.259697,7105.977043,-5403.503377,3983.696590
1390.260026,5921.647536,-7698.141797,2681.334243
1390.260356,4885.359217,-10510.924376,2987.772442
1390.260685,3923.091493,-12509.480420,3294.210641
1390.261014,3256.906145,-12509.480420,4060.306139
1390.261343,3108.864956,-11473.192101,3370.820191
1390.261672,3478.967927,-8586.388927,3217.601092
1390.262001,5477.523971,-6143.709319,3217.601092
1390.262330,7179.997637,-4737.318029,4519.963438
1390.262660,9622.677246,-1998.556043,5362.668486
1390.262989,10288.862594,-1850.514855,5745.716235
1390.263318,10658.965565,-148.041188,5515.887586
1390.263647,10362.883188,-1850.514855,5745.716235
1390.263976,9400.615463,-4885.359217,5898.935335
1390.264305,8216.285956,-6809.894666,4826.401637
1390.264634,6883.915261,-8364.327145,3983.696590
1390.264963,7476.080014,-8660.409521,3370.820191
1390.265293,6957.935855,-10658.965565,4136.915689
1390.265622,5551.544565,-9400.615463,3524.039291
1390.265951,4737.318029,-8290.306550,2451.505594
1390.266280,3775.050304,-7624.121203,2298.286494
1390.266609,4145.153275,-7328.038826,3370.820191
1390.266938,6143.709319,-6365.771101,4060.306139
1390.267267,7031.956449,-5329.482782,4290.134789
1390.267596,6513.812290,-4071.132681,3370.820191
1390.267926,6365.771101,-3552.988522,3064.381992
1390.268255,8216.285956,-4515.256246,4213.525239
1390.268584,9622.677246,-4293.194464,4826.401637
1390.268913,9030.512492,-4367.215058,3983.696590
1390.269242,7994.224174,-5625.565159,2911.162892
1390.269571,6661.853478,-8290.306550,2834.553343
1390.269900,6735.874072,-9252.574275,2911.162892
1390.270229,7254.018232,-9474.636058,2604.724693
1390.270559,6957.935855,-9030.512492,2604.724693
1390.270888,5181.441594,-7698.141797,1455.581446
1390.271217,4441.235652,-7402.059420,536.266849
1390.271546,5477.523971,-8068.244768,2298.286494
1390.271875,6661.853478,-6291.750507,2374.896044
1390.272204,7105.977043,-4219.173869,1532.190996
1390.272533,6735.874072,-3552.988522,1455.581446
1390.272862,7179.997637,-3849.070898,1225.752797
1390.273192,7920.203579,-5255.462188,2374.896044
1390.273521,9474.636058,-6439.791695,3677.258390
1390.273850,9918.759623,-6217.729913,3294.210641
1390.274179,9326.594869,-7031.956449,2451.505594
1390.274508,6513.812290,-8734.430116,1608.800546
1390.274837,4441.235652,-9844.739029,1532.190996
1390.275166,5033.400406,-9474.636058,995.924147
1390.275495,6217.729913,-7179.997637,1149.143247
1390.275825,6957.935855,-5403.503377,766.095498
1390.276154,7328.038826,-6143.709319,766.095498
1390.276483,7328.038826,-6883.915261,1302.362347
1390.276812,6143.709319,-5403.503377,766.095498
1390.277141,5847.626942,-4663.297435,-229.828649
1390.277470,6513.812290,-4071.132681,-459.657299
1390.277799,7179.997637,-6217.729913,919.314598
1390.278129,8364.327145,-7254.018232,1685.410096
1390.278458,8734.430116,-6513.812290,1302.362347
1390.278787,8808.450710,-6217.729913,919.314598
1390.279115,7846.182985,-6439.791695,612.876398
1390.279444,7254.018232,-7550.100608,689.485948
1390.279773,6439.791695,-7624.121203,995.924147
1390.280102,5181.441594,-7624.121203,919.314598
1390.280431,4885.359217,-6957.935855,229.828649
1390.280761,5329.482782,-6587.832884,229.828649
1390.281090,5699.585753,-7105.977043,1149.143247
1390.281419,6587.832884,-6735.874072,1378.971896
1390.281748,7179.997637,-5625.565159,1378.971896
1390.282077,7254.018232,-4589.276840,153.219100
1390.282406,7920.203579,-4071.132681,842.705048
1390.282735,8734.430116,-4737.318029,1685.410096
1390.283065,8142.265362,-4885.359217,459.657299
1390.283394,6143.709319,-6661.853478,-383.047749
1390.283723,5995.668130,-8068.244768,0.000000
1390.284052,7550.100608,-9104.533087,689.485948
1390.284381,8438.347739,-9252.574275,1762.019645
1390.284710,7328.038826,-8586.388927,1685.410096
1390.285040,6735.874072,-8290.306550,766.095498
1390.285369,6661.853478,-7254.018232,306.438199
1390.285698,6217.729913,-6735.874072,153.219100
1390.286027,6883.915261,-5921.647536,1149.143247
1390.286356,7105.977043,-5847.626942,995.924147
1390.286685,7105.977043,-7031.956449,1455.581446
1390.287015,7402.059420,-7031.956449,2068.457845
1390.287344,8364.327145,-5181.441594,2911.162892
1390.287673,9474.636058,-4737.318029,2451.505594
1390.288002,7846.182985,-4737.318029,2068.457845
1390.288331,7031.956449,-5255.462188,1685.410096
1390.288660,7105.977043,-6365.771101,689.485948
1390.288989,6439.791695,-5625.565159,1225.752797
1390.289319,5773.606348,-6661.853478,1455.581446
1390.289648,5847.626942,-7698.141797,689.485948
1390.289977,5847.626942,-9400.615463,919.314598
1390.290306,5995.668130,-8808.450710,2068.457845
1390.290635,7105.977043,-7105.977043,1838.629195
1390.290964,7105.977043,-6883.915261,2068.457845
1390.291294,6143.709319,-5625.565159,1225.752797
1390.291623,6735.874072,-5477.523971,1149.143247
1390.291952,7402.059420,-4367.215058,1455.581446
1390.292281,6809.894666,-4367.215058,1149.143247
1390.292610,5773.606348,-6143.709319,1302.362347
1390.292939,6069.688724,-7846.182985,2145.067394
1390.293269,6439.791695,-8290.306550,1991.848295
1390.293598,7476.080014,-6143.709319,2298.286494
1390.293927,7031.956449,-5329.482782,1455.581446
1390.294256,6883.915261,-6143.709319,1608.800546
1390.294585,6957.935855,-7105.977043,1685.410096
1390.294914,7624.121203,-5403.503377,1149.143247
1390.295243,7328.038826,-4885.359217,919.314598
1390.295573,6957.935855,-6809.894666,1072.533697
1390.295902,6365.771101,-9918.759623,919.314598
1390.296231,6661.853478,-8438.347739,919.314598
1390.296560,7550.100608,-6143.709319,1378.971896
1390.296889,8068.244768,-4885.359217,842.705048
1390.297218,7402.059420,-5773.606348,919.314598
1390.297548,6661.853478,-7179.997637,459.657299
1390.297877,6735.874072,-6439.791695,-306.438199
1390.298206,7328.038826,-5921.647536,459.657299
1390.298535,6883.915261,-6587.832884,383.047749
1390.298864,5921.647536,-9696.697840,995.924147
1390.299193,6143.709319,-10288.862594,1608.800546
1390.299523,7402.059420,-7105.977043,1072.533697
1390.299852,8364.327145,-5699.585753,1455.581446
1390.300181,8660.409521,-5847.626942,1915.238745
1390.300510,8068.244768,-5921.647536,1378.971896
1390.300839,7105.977043,-5995.668130,229.828649
1390.301168,7179.997637,-3701.029710,229.828649
1390.301497,6661.853478,-4737.318029,-306.438199
1390.301827,6069.688724,-7550.100608,919.314598
1390.302156,6587.832884,-8734.430116,766.095498
1390.302485,7179.997637,-7179.997637,536.266849
1390.302814,7254.018232,-5033.400406,153.219100
1390.303143,6661.853478,-5995.668130,306.438199
1390.303472,6291.750507,-7476.080014,153.219100
1390.303802,6143.709319,-6661.853478,153.219100
1390.304131,6587.832884,-6143.709319,1072.533697
1390.304460,7105.977043,-6217.729913,1455.581446
1390.304789,5995.668130,-8364.327145,1915.238745
1390.305118,5847.626942,-8808.450710,1378.971896
1390.305447,5921.647536,-6217.729913,995.924147
1390.305777,6809.894666,-4441.235652,1455.581446
1390.306106,7624.121203,-4589.276840,919.314598
1390.306435,7328.038826,-5403.503377,995.924147
1390.306764,6513.812290,-6217.729913,536.266849
1390.307093,6809.894666,-5255.462188,0.000000
1390.307422,7105.977043,-5329.482782,229.828649
1390.307752,6365.771101,-7920.203579,306.438199
1390.308081,5773.606348,-9326.594869,1149.143247
1390.308410,7179.997637,-8512.368333,689.485948
1390.308739,8586.388927,-6217.729913,0.000000
1390.309068,8734.430116,-6291.750507,1149.143247
1390.309397,7550.100608,-7550.100608,1762.019645
1390.309726,7179.997637,-6883.915261,306.438199
1390.310056,6883.915261,-5847.626942,76.609550
1390.310385,7105.977043,-5329.482782,1302.362347
1390.310714,7550.100608,-7179.997637,1762.019645
1390.311043,7179.997637,-9030.512492,1838.629195
1390.311372,5329.482782,-7624.121203,1225.752797
1390.311701,5921.647536,-4885.359217,689.485948
1390.312031,7254.018232,-4663.297435,1225.752797
1390.312360,7179.997637,-6291.750507,1455.581446
1390.312689,6957.935855,-6883.915261,1149.143247
1390.313018,7105.977043,-5995.668130,459.657299
1390.313347,7031.956449,-5329.482782,153.219100
1390.313676,6809.894666,-7254.018232,1149.143247
1390.314006,6365.771101,-8438.347739,1838.629195
1390.314335,7105.977043,-8512.368333,1378.971896
1390.314664,7550.100608,-6735.874072,1378.971896
1390.314993,7698.141797,-4663.297435,1685.410096
1390.315322,7772.162391,-5329.482782,1149.143247
1390.315651,7624.121203,-5847.626942,536.266849
1390.315980,7031.956449,-5477.523971,995.924147
1390.316310,7105.977043,-5181.441594,1072.533697
1390.316639,6809.894666,-6365.771101,1838.629195
1390.316968,5847.626942,-7846.182985,2374.896044
1390.317297,6143.709319,-8808.450710,1762.019645
1390.317626,6735.874072,-6661.853478,1225.752797
1390.317955,6587.832884,-4885.359217,1225.752797
1390.318285,6883.915261,-5403.503377,1302.362347
1390.318614,6513.812290,-6069.688724,1762.019645
1390.318943,6735.874072,-5921.647536,1072.533697
1390.319272,7105.977043,-5033.400406,1072.533697
1390.319601,7179.997637,-6365.771101,2145.067394
1390.319930,7105.977043,-8364.327145,2068.457845
1390.320260,5699.585753,-8364.327145,842.705048
1390.320589,5921.647536,-6957.935855,229.828649
1390.320918,6957.935855,-5255.462188,-229.828649
1390.321247,7402.059420,-5921.647536,536.266849
1390.321576,7105.977043,-7476.080014,612.876398
1390.321905,7402.059420,-6957.935855,536.266849
1390.322234,7624.121203,-5921.647536,612.876398
1390.322564,7402.059420,-6661.853478,612.876398
1390.322893,6809.894666,-8364.327145,1915.238745
1390.323222,7031.956449,-8586.388927,1225.752797
1390.323551,6735.874072,-7772.162391,919.314598
1390.323880,6365.771101,-5107.421000,1378.971896
1390.324209,8068.244768,-4737.318029,2068.457845
1390.324539,8586.388927,-5403.503377,1991.848295
1390.324868,7105.977043,-5847.626942,1149.143247
1390.325197,6217.729913,-5107.421000,76.609550
1390.325526,6217.729913,-4959.379811,0.000000
1390.325855,6217.729913,-7031.956449,383.047749
1390.326184,5921.647536,-9252.574275,1072.533697
1390.326514,7254.018232,-8956.491898,1302.362347
1390.326843,8068.244768,-6587.832884,1225.752797
1390.327172,7328.038826,-6143.709319,459.657299
1390.327501,5773.606348,-6217.729913,76.609550
1390.327830,5551.544565,-6439.791695,-689.485948
1390.328159,6513.812290,-5699.585753,-459.657299
1390.328488,7105.977043,-5477.523971,689.485948
1390.328818,7476.080014,-7105.977043,1915.238745
1390.329147,8364.327145,-8068.244768,1532.190996
1390.329476,7179.997637,-7698.141797,1685.410096
1390.329805,6809.894666,-5551.544565,842.705048
1390.330134,7328.038826,-4219.173869,919.314598
1390.330463,7772.162391,-5329.482782,919.314598
1390.330793,7402.059420,-5551.544565,383.047749
1390.331122,6661.853478,-5699.585753,459.657299
1390.331451,7179.997637,-5181.441594,0.000000
1390.331780,6883.915261,-6217.729913,306.438199
1390.332109,5625.565159,-8660.409521,1532.190996
1390.332438,5773.606348,-8882.471304,995.924147
1390.332768,7550.100608,-7179.997637,459.657299
1390.333097,7550.100608,-5995.668130,1378.971896
1390.333426,7105.977043,-5477.523971,766.095498
1390.333755,6513.812290,-6587.832884,153.219100
1390.334084,6883.915261,-6143.709319,459.657299
1390.334413,7402.059420,-5551.544565,995.924147
1390.334742,7920.203579,-6735.874072,2068.457845
1390.335072,7105.977043,-8734.430116,2451.505594
1390.335401,6439.791695,-9696.697840,1915.238745
1390.335730,6291.750507,-7624.121203,1072.533697
1390.336059,6587.832884,-5699.585753,1532.190996
1390.336388,6957.935855,-5255.462188,1302.362347
1390.336717,6661.853478,-5847.626942,1149.143247
1390.337047,6365.771101,-6069.688724,459.657299
1390.337376,7328.038826,-5329.482782,1149.143247
1390.337705,7550.100608,-5477.523971,919.314598
1390.338034,6735.874072,-7031.956449,1149.143247
1390.338363,6883.915261,-8586.388927,1225.752797
1390.338692,7179.997637,-7105.977043,1225.752797
1390.339022,8142.265362,-5847.626942,1225.752797
1390.339351,7994.224174,-4885.359217,1762.019645
1390.339680,7698.141797,-5107.421000,1149.143247
1390.340009,6809.894666,-7031.956449,536.266849
1390.340338,7031.956449,-6439.791695,1149.143247
1390.340667,7105.977043,-7254.018232,1762.019645
1390.340996,7402.059420,-8216.285956,2298.286494
1390.341326,5625.565159,-9178.553681,2681.334243
1390.341655,5403.503377,-7476.080014,1225.752797
1390.341984,6217.729913,-4589.276840,536.266849
1390.342313,6809.894666,-4219.173869,919.314598
1390.342642,7031.956449,-4811.338623,689.485948
1390.342971,6661.853478,-5107.421000,1072.533697
1390.343301,7550.100608,-5699.585753,1302.362347
1390.343630,8290.306550,-5477.523971,2221.676944
1390.343959,7179.997637,-6587.832884,1838.629195
1390.344288,6883.915261,-8290.306550,1762.019645
1390.344617,6143.709319,-8216.285956,306.438199
1390.344946,6957.935855,-6069.688724,612.876398
1390.345276,7920.203579,-5403.503377,536.266849
1390.345605,7846.182985,-6291.750507,919.314598
1390.345934,7550.100608,-7105.977043,1991.848295
1390.346263,6735.874072,-7105.977043,459.657299
1390.346592,7105.977043,-6365.771101,1149.143247
1390.346921,7402.059420,-6883.915261,2221.676944
1390.347250,7105.977043,-7846.182985,2221.676944
1390.347580,6439.791695,-8364.327145,1225.752797
1390.347909,6069.688724,-6883.915261,1378.971896
1390.348238,7476.080014,-4737.318029,1072.533697
1390.348567,7328.038826,-4811.338623,1072.533697
1390.348896,6069.688724,-6217.729913,1838.629195
1390.349225,6143.709319,-6217.729913,153.219100
1390.349555,7105.977043,-6365.771101,842.705048
1390.349884,6735.874072,-7254.018232,1149.143247
1390.350213,6809.894666,-8142.265362,1762.019645
1390.350542,6809.894666,-8882.471304,689.485948
1390.350871,6883.915261,-7476.080014,306.438199
1390.351200,7031.956449,-3997.112087,306.438199
1390.351530,7179.997637,-4737.318029,76.609550
1390.351859,6957.935855,-5773.606348,1225.752797
1390.352188,7031.956449,-6143.709319,612.876398
1390.352517,7772.162391,-6661.853478,995.924147
1390.352846,8882.471304,-6809.894666,1608.800546
1390.353175,7698.141797,-8882.471304,2987.772442
1390.353504,6365.771101,-8364.327145,1608.800546
1390.353834,6365.771101,-7624.121203,1225.752797
1390.354163,7031.956449,-4441.235652,1072.533697
1390.354492,6735.874072,-3627.009116,229.828649
1390.354821,6069.688724,-4885.359217,1532.190996
1390.355150,6217.729913,-5921.647536,842.705048
1390.355479,7031.956449,-6365.771101,995.924147
1390.355809,6957.935855,-5773.606348,1225.752797
1390.356138,7031.956449,-6809.894666,1608.800546
1390.356467,6809.894666,-8808.450710,919.314598
1390.356796,6513.812290,-7920.203579,612.876398
1390.357125,6587.832884,-5625.565159,0.000000
1390.357454,7624.121203,-4885.359217,-153.219100
1390.357784,7624.121203,-5773.606348,76.609550
1390.358113,7624.121203,-7402.059420,459.657299
1390.358442,8142.265362,-7402.059420,995.924147
1390.358771,8882.471304,-5995.668130,1915.238745
1390.359100,8142.265362,-7476.080014,1762.019645
1390.359429,6735.874072,-7994.224174,2298.286494
1390.359759,5921.647536,-7994.224174,919.314598
1390.360088,6365.771101,-5847.626942,612.876398
1390.360417,7031.956449,-4441.235652,766.095498
1390.360746,6883.915261,-4959.379811,689.485948
1390.361075,7328.038826,-5625.565159,229.828649
1390.361404,7550.100608,-5995.668130,1225.752797
1390.361733,7179.997637,-5625.565159,689.485948
1390.362063,6661.853478,-6365.771101,919.314598
1390.362392,6069.688724,-8216.285956,1532.190996
1390.362721,5921.647536,-8956.491898,689.485948
1390.363050,6883.915261,-7179.997637,383.047749
1390.363379,7550.100608,-5403.503377,1072.533697
1390.363708,7105.977043,-5921.647536,383.047749
1390.364038,6883.915261,-6587.832884,153.219100
1390.364367,6587.832884,-7105.977043,536.266849
1390.364696,6957.935855,-7402.059420,995.924147
1390.365025,7328.038826,-7031.956449,1991.848295
1390.365354,6957.935855,-7550.100608,1915.238745
1390.365683,6217.729913,-7994.224174,995.924147
1390.366013,5847.626942,-6069.688724,1532.190996
1390.366342,6809.894666,-4367.215058,995.924147
1390.366671,7402.059420,-3923.091493,842.705048
1390.367000,7624.121203,-4811.338623,1838.629195
1390.367329,7105.977043,-6957.935855,1762.019645
1390.367658,7328.038826,-5995.668130,2068.457845
1390.367987,7105.977043,-5921.647536,1532.190996
1390.368317,6439.791695,-7105.977043,1302.362347
1390.368646,5847.626942,-7994.224174,76.609550
1390.368975,6069.688724,-7476.080014,229.828649
1390.369304,7105.977043,-5995.668130,536.266849
1390.369633,7402.059420,-5403.503377,383.047749
1390.369962,7550.100608,-5625.565159,995.924147
1390.370292,7476.080014,-7402.059420,1225.752797
1390.370621,7624.121203,-7105.977043,1532.190996
1390.370950,7994.224174,-6661.853478,1225.752797
1390.371279,6587.832884,-8216.285956,1378.971896
1390.371608,5255.462188,-8438.347739,1608.800546
1390.371937,5921.647536,-8068.244768,229.828649
1390.372267,6809.894666,-6365.771101,842.705048
1390.372596,7846.182985,-4737.318029,1302.362347
1390.372925,8512.368333,-5551.544565,1302.362347
1390.373254,7402.059420,-5551.544565,1685.410096
1390.373583,7179.997637,-6661.853478,1149.143247
1390.373912,7698.141797,-5847.626942,1072.533697
1390.374241,6957.935855,-5773.606348,1532.190996
1390.374571,5699.585753,-7476.080014,-153.219100
1390.374900,5403.503377,-7105.977043,0.000000
1390.375229,7105.977043,-6291.750507,306.438199
1390.375558,8364.327145,-5477.523971,766.095498
1390.375887,7994.224174,-6069.688724,2298.286494
1390.376216,7254.018232,-6809.894666,1302.362347
1390.376546,6291.750507,-6883.915261,306.438199
1390.376875,6291.750507,-6957.935855,1302.362347
1390.377204,7031.956449,-7105.977043,1378.971896
1390.377533,7328.038826,-7846.182985,2221.676944
1390.377862,6513.812290,-8216.285956,1455.581446
1390.378191,6957.935855,-7105.977043,1378.971896
1390.378521,7105.977043,-4811.338623,1455.581446
1390.378850,6661.853478,-5477.523971,1225.752797
1390.379179,5921.647536,-5403.503377,995.924147
1390.379508,6143.709319,-6217.729913,0.000000
1390.379837,6587.832884,-5329.482782,766.095498
1390.380166,6883.915261,-5403.503377,842.705048
1390.380495,6809.894666,-7920.203579,1149.143247
1390.380825,6069.688724,-8290.306550,0.000000
1390.381154,6809.894666,-8586.388927,536.266849
1390.381483,7402.059420,-6291.750507,612.876398
1390.381812,7550.100608,-6217.729913,689.485948
1390.382141,7550.100608,-7179.997637,612.876398
1390.382470,6883.915261,-6513.812290,306.438199
1390.382799,7105.977043,-6661.853478,995.924147
1390.383128,7772.162391,-5921.647536,1532.190996
1390.383457,7328.038826,-7031.956449,2221.676944
1390.383786,6883.915261,-8438.347739,1378.971896
1390.384115,5921.647536,-7772.162391,995.924147
1390.384444,6587.832884,-5995.668130,1685.410096
1390.384773,7846.182985,-4737.318029,919.314598
1390.385102,7031.956449,-5107.421000,689.485948
1390.385431,6661.853478,-6883.915261,766.095498
1390.385760,7328.038826,-6439.791695,229.828649
1390.386089,6587.832884,-5995.668130,459.657299
1390.386418,6365.771101,-7105.977043,995.924147
1390.386748,6587.832884,-9400.615463,612.876398
1390.387077,7254.018232,-8438.347739,1149.143247
1390.387406,7624.121203,-6217.729913,919.314598
1390.387735,7846.182985,-4885.359217,612.876398
1390.388064,7920.203579,-5107.421000,766.095498
1390.388393,7031.956449,-6661.853478,459.657299
1390.388722,7254.018232,-6883.915261,1149.143247
1390.389051,7994.224174,-5699.585753,2068.457845
1390.389380,7772.162391,-6809.894666,1378.971896
1390.389709,6069.688724,-6587.832884,1991.848295
1390.390038,5847.626942,-7476.080014,1072.533697
1390.390367,7105.977043,-5551.544565,919.314598
1390.390696,7476.080014,-3997.112087,1225.752797
1390.391025,7698.141797,-5107.421000,1302.362347
1390.391354,7105.977043,-5847.626942,1302.362347
1390.391683,6735.874072,-6883.915261,1685.410096
1390.392012,6513.812290,-5551.544565,995.924147
1390.392341,6365.771101,-6069.688724,689.485948
1390.392670,5551.544565,-7476.080014,1072.533697
1390.393000,5477.523971,-8068.244768,-306.438199
1390.393329,6587.832884,-7105.977043,536.266849
1390.393658,7698.141797,-5477.523971,766.095498
1390.393987,7624.121203,-6365.771101,842.705048
1390.394316,7328.038826,-6439.791695,1149.143247
1390.394645,7105.977043,-7179.997637,919.314598
1390.394974,7846.182985,-6957.935855,1149.143247
1390.395303,7994.224174,-6513.812290,1838.629195
1390.395632,7179.997637,-7698.141797,1302.362347
1390.395961,5329.482782,-8142.265362,76.609550
1390.396290,5625.565159,-7550.100608,612.876398
1390.396619,7105.977043,-6143.709319,919.314598
1390.396948,7476.080014,-4959.379811,1302.362347
1390.397277,6661.853478,-6439.791695,2451.505594
1390.397606,6957.935855,-7328.038826,1608.800546
1390.397935,7772.162391,-5551.544565,1225.752797
1390.398264,7105.977043,-6217.729913,1455.581446
1390.398593,6217.729913,-6883.915261,1378.971896
1390.398922,5773.606348,-7920.203579,766.095498
1390.399251,6217.729913,-7698.141797,536.266849
1390.399581,7031.956449,-5773.606348,306.438199
1390.399910,7328.038826,-6143.709319,1685.410096
1390.400239,7402.059420,-6957.935855,536.266849
1390.400568,6587.832884,-7550.100608,1149.143247
1390.400897,6291.750507,-7105.977043,1608.800546
1390.401226,7105.977043,-6661.853478,1455.581446
1390.401555,6883.915261,-7698.141797,1762.019645
1390.401884,6069.688724,-7031.956449,1455.581446
1390.402213,6365.771101,-7105.977043,995.924147
1390.402542,7402.059420,-4737.318029,1378.971896
1390.402871,7846.182985,-4071.132681,2145.067394
1390.403200,7698.141797,-4515.256246,2374.896044
1390.403529,7031.956449,-5107.421000,1685.410096
1390.403858,6883.915261,-5921.647536,919.314598
1390.404187,7624.121203,-4885.359217,1378.971896
1390.404516,6957.935855,-5995.668130,1378.971896
1390.404845,6735.874072,-7550.100608,689.485948
1390.405174,6661.853478,-7994.224174,383.047749
1390.405503,6883.915261,-7105.977043,612.876398
1390.405832,6883.915261,-5033.400406,383.047749
1390.406162,6587.832884,-6883.915261,766.095498
1390.406491,6809.894666,-7179.997637,1685.410096
1390.406820,7179.997637,-7105.977043,919.314598
1390.407149,7624.121203,-6513.812290,1455.581446
1390.407478,7920.203579,-6661.853478,1915.238745
1390.407807,6957.935855,-7179.997637,919.314598
1390.408136,5847.626942,-7624.121203,383.047749
1390.408465,5699.585753,-6883.915261,0.000000
1390.408794,7031.956449,-5255.462188,536.266849
1390.409123,7772.162391,-5477.523971,1685.410096
1390.409452,7254.018232,-6661.853478,1072.533697
1390.409781,7105.977043,-6661.853478,919.314598
1390.410110,6957.935855,-5921.647536,536.266849
1390.410439,6513.812290,-5921.647536,153.219100
1390.410768,5921.647536,-7698.141797,995.924147
1390.411097,6291.750507,-8586.388927,459.657299
1390.411426,7105.977043,-7476.080014,995.924147
1390.411755,7550.100608,-6439.791695,1302.362347
1390.412084,7550.100608,-4959.379811,1149.143247
1390.412414,7105.977043,-5995.668130,1532.190996
1390.412743,6809.894666,-7105.977043,1072.533697
1390.413072,7105.977043,-5995.668130,995.924147
1390.413401,7179.997637,-6217.729913,1225.752797
1390.413730,6735.874072,-7328.038826,766.095498
1390.414059,5255.462188,-7328.038826,995.924147
1390.414388,5921.647536,-7476.080014,842.705048
1390.414717,6809.894666,-4959.379811,612.876398
1390.415046,7328.038826,-4959.379811,1378.971896
1390.415375,7624.121203,-5847.626942,1762.019645
1390.415704,7698.141797,-5921.647536,1302.362347
1390.416033,7105.977043,-5921.647536,842.705048
1390.416362,7550.100608,-4885.359217,842.705048
1390.416691,6883.915261,-6883.915261,383.047749
1390.417020,6513.812290,-7179.997637,1072.533697
1390.417349,6365.771101,-7624.121203,0.000000
1390.417678,7476.080014,-6661.853478,459.657299
1390.418007,8142.265362,-4885.359217,842.705048
1390.418336,7254.018232,-5699.585753,612.876398
1390.418665,7179.997637,-7402.059420,919.314598
1390.418995,8290.306550,-6439.791695,1378.971896
1390.419324,8216.285956,-6439.791695,1072.533697
1390.419653,7179.997637,-7179.997637,1915.238745
1390.419982,6291.750507,-8660.409521,1838.629195
1390.420311,6069.688724,-8068.244768,153.219100
1390.420640,6217.729913,-6513.812290,919.314598
1390.420969,7772.162391,-5107.421000,1608.800546
1390.421298,7550.100608,-5181.441594,1762.019645
1390.421627,6735.874072,-6143.709319,766.095498
1390.421956,6735.874072,-6883.915261,1532.190996
1390.422285,8216.285956,-5255.462188,1302.362347
1390.422614,7772.162391,-6735.874072,842.705048
1390.422943,5995.668130,-7254.018232,995.924147
1390.423272,5699.585753,-8438.347739,0.000000
1390.423601,6291.750507,-7179.997637,-612.876398
1390.423930,6365.771101,-6217.729913,383.047749
1390.424259,7105.977043,-6661.853478,919.314598
1390.424588,7254.018232,-6365.771101,1685.410096
1390.424917,6217.729913,-7105.977043,536.266849
1390.425246,6217.729913,-5921.647536,1762.019645
1390.425576,7402.059420,-6661.853478,1991.848295
1390.425905,7920.203579,-7698.141797,1915.238745
1390.426234,5773.606348,-7624.121203,2068.457845
1390.426563,5773.606348,-6883.915261,1532.190996
