#time,accel_x,accel_y,accel_z
1432.918733,7031.956449,-6661.853478,995.924147
1432.919064,6883.915261,-7105.977043,536.266849
1432.919394,6957.935855,-6735.874072,919.314598
1432.919725,7031.956449,-6661.853478,612.876398
1432.920055,7550.100608,-6735.874072,689.485948
1432.920386,7105.977043,-6513.812290,1378.971896
1432.920716,7105.977043,-6661.853478,766.095498
1432.921047,7550.100608,-6143.709319,536.266849
1432.921377,7105.977043,-6661.853478,995.924147
1432.921708,7179.997637,-6291.750507,766.095498
1432.922038,7328.038826,-6365.771101,1072.533697
1432.922369,7402.059420,-6365.771101,1149.143247
1432.922699,7254.018232,-6291.750507,1072.533697
1432.923030,7179.997637,-5995.668130,1302.362347
1432.923360,6735.874072,-6587.832884,766.095498
1432.923691,6735.874072,-6513.812290,919.314598
1432.924021,6587.832884,-6513.812290,919.314598
1432.924352,6735.874072,-6365.771101,995.924147
1432.924682,6735.874072,-6883.915261,1455.581446
1432.925013,6957.935855,-6809.894666,1378.971896
1432.925343,6661.853478,-6513.812290,919.314598
1432.925674,6587.832884,-6809.894666,1149.143247
1432.926004,6365.771101,-6883.915261,1838.629195
1432.926335,6809.894666,-7105.977043,919.314598
1432.926665,6809.894666,-6883.915261,1149.143247
1432.926996,6217.729913,-6735.874072,995.924147
1432.927326,6661.853478,-7105.977043,842.705048
1432.927657,6809.894666,-6143.709319,1225.752797
1432.927987,6957.935855,-6513.812290,1072.533697
1432.928318,7105.977043,-6439.791695,1149.143247
1432.928648,7031.956449,-6365.771101,1225.752797
1432.928979,7105.977043,-6661.853478,1225.752797
1432.929309,7105.977043,-6513.812290,1225.752797
1432.929640,7328.038826,-5921.647536,919.314598
1432.929971,7179.997637,-6587.832884,995.924147
1432.930301,6957.935855,-6439.791695,919.314598
1432.930632,6809.894666,-6957.935855,1378.971896
1432.930962,6809.894666,-6587.832884,995.924147
1432.931293,6809.894666,-6661.853478,1072.533697
1432.931623,7031.956449,-6513.812290,1302.362347
1432.931954,7031.956449,-6957.935855,1072.533697
1432.932284,7031.956449,-6513.812290,1455.581446
1432.932615,7105.977043,-6661.853478,1225.752797
1432.932945,6809.894666,-6809.894666,766.095498
1432.933276,6735.874072,-6513.812290,995.924147
1432.933606,7105.977043,-6809.894666,919.314598
1432.933937,6809.894666,-7105.977043,766.095498
1432.934267,6957.935855,-6883.915261,842.705048
1432.934598,6883.915261,-7031.956449,612.876398
1432.934928,6809.894666,-6809.894666,1302.362347
1432.935259,7105.977043,-6661.853478,306.438199
1432.935589,7105.977043,-6735.874072,766.095498
1432.935920,7402.059420,-6439.791695,919.314598
1432.936250,7179.997637,-6439.791695,1072.533697
1432.936581,7328.038826,-6069.688724,1455.581446
1432.936911,7254.018232,-5847.626942,919.314598
1432.937242,7476.080014,-6217.729913,919.314598
1432.937572,7105.977043,-6291.750507,1072.533697
1432.937903,7031.956449,-6365.771101,1149.143247
1432.938233,6883.915261,-5995.668130,1225.752797
1432.938564,6883.915261,-6587.832884,1149.143247
1432.938894,6883.915261,-6291.750507,1072.533697
1432.939225,6883.915261,-6661.853478,612.876398
1432.939555,6735.874072,-6809.894666,842.705048
1432.939886,7179.997637,-6439.791695,1378.971896
1432.940216,6883.915261,-6661.853478,1149.143247
1432.940547,6957.935855,-6957.935855,1302.362347
1432.940877,7105.977043,-6809.894666,1455.581446
1432.941208,7031.956449,-6513.812290,536.266849
1432.941538,6513.812290,-6735.874072,689.485948
1432.941869,6291.750507,-6957.935855,919.314598
1432.942199,6883.915261,-6957.935855,1072.533697
1432.942530,7105.977043,-6661.853478,1225.752797
1432.942861,6883.915261,-6957.935855,919.314598
1432.943191,7105.977043,-6735.874072,995.924147
1432.943522,6957.935855,-6735.874072,1225.752797
1432.943852,7105.977043,-6291.750507,995.924147
1432.944183,6735.874072,-5699.585753,459.657299
1432.944513,7328.038826,-6439.791695,842.705048
1432.944844,7105.977043,-6291.750507,995.924147
1432.945174,6809.894666,-6513.812290,1225.752797
1432.945505,6809.894666,-6513.812290,1149.143247
1432.945835,7105.977043,-6291.750507,1302.362347
1432.946166,6809.894666,-6513.812290,1225.752797
1432.946496,6439.791695,-6587.832884,842.705048
1432.946827,6587.832884,-6809.894666,919.314598
1432.947157,7179.997637,-6587.832884,1225.752797
1432.947488,6957.935855,-6365.771101,1149.143247
1432.947818,6883.915261,-6365.771101,995.924147
1432.948149,6957.935855,-6513.812290,995.924147
1432.948479,6883.915261,-6661.853478,689.485948
1432.948810,6735.874072,-6439.791695,1149.143247
1432.949140,6957.935855,-7105.977043,919.314598
1432.949471,7105.977043,-6957.935855,842.705048
1432.949801,7328.038826,-6587.832884,1072.533697
1432.950132,7105.977043,-6291.750507,1149.143247
1432.950462,7179.997637,-6513.812290,306.438199
1432.950793,7179.997637,-6661.853478,1072.533697
1432.951123,7254.018232,-6735.874072,995.924147
1432.951454,7476.080014,-6365.771101,1072.533697
1432.951784,7920.203579,-5699.585753,842.705048
1432.952115,7328.038826,-6439.791695,1072.533697
1432.952445,7328.038826,-6217.729913,1149.143247
1432.952776,6957.935855,-6217.729913,1072.533697
1432.953106,7031.956449,-6217.729913,842.705048
1432.953437,6809.894666,-6883.915261,1302.362347
1432.953767,7105.977043,-6439.791695,766.095498
1432.954098,6957.935855,-6513.812290,919.314598
1432.954428,7105.977043,-6735.874072,1072.533697
1432.954759,6883.915261,-6883.915261,1225.752797
1432.955090,6661.853478,-6809.894666,1225.752797
1432.955420,6587.832884,-6809.894666,1455.581446
1432.955751,7105.977043,-6587.832884,842.705048
1432.956081,6809.894666,-7031.956449,689.485948
1432.956412,6809.894666,-6809.894666,1149.143247
1432.956742,6217.729913,-6809.894666,919.314598
1432.957073,7105.977043,-6883.915261,995.924147
1432.957403,7105.977043,-6291.750507,1685.410096
1432.957734,6883.915261,-6587.832884,1072.533697
1432.958064,7254.018232,-6587.832884,919.314598
1432.958395,7105.977043,-6809.894666,919.314598
1432.958725,7031.956449,-6735.874072,842.705048
1432.959056,6957.935855,-6513.812290,842.705048
1432.959386,7402.059420,-5921.647536,1532.190996
1432.959717,7105.977043,-6439.791695,1225.752797
1432.960047,7105.977043,-6809.894666,1072.533697
1432.960378,6883.915261,-6217.729913,919.314598
1432.960708,6883.915261,-5995.668130,919.314598
1432.961039,7105.977043,-6513.812290,1608.800546
1432.961369,6661.853478,-6291.750507,1072.533697
1432.961700,6735.874072,-6957.935855,1149.143247
1432.962030,6883.915261,-6957.935855,1149.143247
1432.962361,6883.915261,-6587.832884,612.876398
1432.962691,6957.935855,-6735.874072,766.095498
1432.963022,6661.853478,-7031.956449,1225.752797
1432.963352,6883.915261,-7105.977043,1149.143247
1432.963683,6809.894666,-7105.977043,919.314598
1432.964013,6957.935855,-6587.832884,1378.971896
1432.964344,7031.956449,-6439.791695,842.705048
1432.964674,7254.018232,-6365.771101,1225.752797
1432.965005,7105.977043,-6439.791695,1072.533697
1432.965335,7105.977043,-6587.832884,766.095498
1432.965666,7476.080014,-6513.812290,1149.143247
1432.965996,7105.977043,-6365.771101,995.924147
1432.966327,7179.997637,-5995.668130,1072.533697
1432.966657,7254.018232,-6217.729913,995.924147
1432.966988,7254.018232,-6069.688724,1225.752797
1432.967318,7476.080014,-6291.750507,842.705048
1432.967649,7105.977043,-6513.812290,1149.143247
1432.967980,7105.977043,-6439.791695,459.657299
1432.968310,7105.977043,-6365.771101,612.876398
1432.968641,6735.874072,-5995.668130,1685.410096
1432.968971,6883.915261,-6587.832884,919.314598
1432.969302,7105.977043,-6661.853478,1378.971896
1432.969632,6883.915261,-6587.832884,1149.143247
1432.969963,6957.935855,-6587.832884,1149.143247
1432.970293,6883.915261,-6439.791695,995.924147
1432.970624,6883.915261,-7105.977043,842.705048
1432.970954,7031.956449,-7031.956449,536.266849
1432.971285,7031.956449,-6735.874072,1532.190996
1432.971615,7105.977043,-7105.977043,612.876398
1432.971946,7031.956449,-6587.832884,1225.752797
1432.972276,7031.956449,-6513.812290,1149.143247
1432.972607,7105.977043,-6661.853478,689.485948
1432.972937,6957.935855,-6587.832884,919.314598
1432.973268,7105.977043,-6957.935855,536.266849
1432.973598,6735.874072,-6587.832884,1225.752797
1432.973929,7402.059420,-5995.668130,1149.143247
1432.974259,7179.997637,-6513.812290,1302.362347
1432.974590,6809.894666,-6587.832884,1225.752797
1432.974920,6883.915261,-6661.853478,1302.362347
1432.975251,7105.977043,-6365.771101,612.876398
1432.975581,6883.915261,-6735.874072,1072.533697
1432.975912,6957.935855,-6439.791695,1149.143247
1432.976242,7105.977043,-6661.853478,919.314598
1432.976573,7031.956449,-6809.894666,1149.143247
1432.976903,6809.894666,-6587.832884,919.314598
1432.977234,6439.791695,-6513.812290,459.657299
1432.977564,6661.853478,-6809.894666,995.924147
1432.977895,6883.915261,-6587.832884,919.314598
1432.978225,6735.874072,-7031.956449,766.095498
1432.978556,6587.832884,-6661.853478,1149.143247
1432.978886,6809.894666,-6809.894666,1149.143247
1432.979217,7105.977043,-6439.791695,1149.143247
1432.979547,7031.956449,-6439.791695,1149.143247
1432.979878,7179.997637,-6661.853478,689.485948
1432.980208,7179.997637,-6661.853478,1149.143247
1432.980539,7624.121203,-6069.688724,1225.752797
1432.980870,7031.956449,-6365.771101,919.314598
1432.981200,7179.997637,-5995.668130,919.314598
1432.981531,7254.018232,-5995.668130,995.924147
1432.981860,7105.977043,-6291.750507,766.095498
1432.982189,7179.997637,-6365.771101,1685.410096
1432.982519,7105.977043,-6217.729913,919.314598
1432.982848,7328.038826,-6217.729913,536.266849
1432.983178,6661.853478,-6661.853478,1149.143247
1432.983507,6661.853478,-6513.812290,995.924147
1432.983837,7031.956449,-6661.853478,1225.752797
1432.984166,6883.915261,-7105.977043,1149.143247
1432.984496,6513.812290,-6587.832884,1149.143247
1432.984825,6957.935855,-6661.853478,919.314598
1432.985155,7031.956449,-6883.915261,1378.971896
1432.985484,6587.832884,-6587.832884,1072.533697
1432.985813,6735.874072,-6587.832884,766.095498
1432.986143,6587.832884,-6957.935855,919.314598
1432.986472,6957.935855,-6735.874072,766.095498
1432.986802,7105.977043,-6587.832884,1378.971896
1432.987131,6809.894666,-6587.832884,995.924147
1432.987461,7179.997637,-6957.935855,919.314598
1432.987790,7105.977043,-6735.874072,919.314598
1432.988120,6883.915261,-7105.977043,919.314598
1432.988449,7550.100608,-6365.771101,1302.362347
1432.988779,7105.977043,-6217.729913,919.314598
1432.989108,7179.997637,-6587.832884,1149.143247
1432.989438,7031.956449,-6217.729913,1225.752797
1432.989767,7328.038826,-6217.729913,1455.581446
1432.990096,6809.894666,-6217.729913,919.314598
1432.990426,6587.832884,-6365.771101,919.314598
1432.990755,6661.853478,-6587.832884,995.924147
1432.991085,6809.894666,-7105.977043,612.876398
1432.991414,6661.853478,-6957.935855,1378.971896
1432.991744,6661.853478,-6809.894666,1302.362347
1432.992073,7031.956449,-6883.915261,842.705048
1432.992403,6957.935855,-6809.894666,1225.752797
1432.992732,7031.956449,-7105.977043,995.924147
1432.993062,6587.832884,-6809.894666,995.924147
1432.993391,6587.832884,-6587.832884,689.485948
1432.993720,7105.977043,-7031.956449,842.705048
1432.994050,7105.977043,-6735.874072,766.095498
1432.994379,7402.059420,-5773.606348,689.485948
1432.994709,6957.935855,-6809.894666,995.924147
1432.995038,6883.915261,-6439.791695,1072.533697
1432.995368,6809.894666,-6587.832884,612.876398
1432.995697,7105.977043,-6735.874072,689.485948
1432.996027,7476.080014,-6513.812290,1378.971896
1432.996356,7402.059420,-6291.750507,995.924147
1432.996686,7698.141797,-5773.606348,1532.190996
1432.997015,7328.038826,-6069.688724,1149.143247
1432.997345,7476.080014,-5921.647536,2068.457845
1432.997674,6957.935855,-6217.729913,995.924147
1432.998003,6883.915261,-6365.771101,1225.752797
1432.998333,6883.915261,-6587.832884,766.095498
1432.998662,6883.915261,-6809.894666,1072.533697
1432.998992,6513.812290,-6217.729913,1378.971896
1432.999321,6217.729913,-6809.894666,1072.533697
1432.999651,6587.832884,-7031.956449,919.314598
1432.999980,6587.832884,-6883.915261,1072.533697
1433.000310,6883.915261,-6883.915261,842.705048
1433.000639,6587.832884,-6513.812290,995.924147
1433.000969,6883.915261,-6809.894666,1149.143247
1433.001298,6957.935855,-7105.977043,842.705048
1433.001627,7179.997637,-6513.812290,1302.362347
1433.001957,7179.997637,-6217.729913,1838.629195
1433.002286,7179.997637,-6883.915261,842.705048
1433.002616,6957.935855,-6883.915261,766.095498
1433.002945,6883.915261,-7105.977043,842.705048
1433.003275,7328.038826,-7105.977043,766.095498
1433.003604,7624.121203,-6365.771101,1302.362347
1433.003934,7254.018232,-6217.729913,1072.533697
1433.004263,7105.977043,-6883.915261,995.924147
1433.004593,7031.956449,-6513.812290,1302.362347
1433.004922,7105.977043,-6217.729913,612.876398
1433.005251,6217.729913,-6587.832884,1149.143247
1433.005581,6587.832884,-6439.791695,1072.533697
1433.005910,6883.915261,-6957.935855,995.924147
1433.006240,6661.853478,-7031.956449,1072.533697
1433.006569,6809.894666,-7105.977043,1302.362347
1433.006899,6883.915261,-7105.977043,842.705048
1433.007228,6957.935855,-7105.977043,1149.143247
1433.007558,6957.935855,-6809.894666,1225.752797
1433.007887,7105.977043,-6883.915261,1072.533697
1433.008217,6439.791695,-6735.874072,1225.752797
1433.008546,7031.956449,-6809.894666,919.314598
1433.008876,7254.018232,-6217.729913,995.924147
1433.009205,7105.977043,-6661.853478,612.876398
1433.009534,7031.956449,-5847.626942,919.314598
1433.009864,7328.038826,-6439.791695,995.924147
1433.010193,7105.977043,-6513.812290,1072.533697
1433.010523,7105.977043,-6365.771101,995.924147
1433.010852,7179.997637,-6069.688724,995.924147
1433.011182,7624.121203,-6291.750507,1378.971896
1433.011511,7476.080014,-6291.750507,1302.362347
1433.011841,7105.977043,-6513.812290,1149.143247
1433.012170,6957.935855,-6291.750507,919.314598
1433.012500,6957.935855,-6069.688724,1149.143247
1433.012829,6809.894666,-6883.915261,995.924147
1433.013158,6661.853478,-6513.812290,919.314598
1433.013488,7105.977043,-6439.791695,919.314598
1433.013817,7105.977043,-6217.729913,1149.143247
1433.014147,6809.894666,-7105.977043,1455.581446
1433.014476,6661.853478,-6661.853478,1302.362347
1433.014806,6735.874072,-6735.874072,919.314598
1433.015135,6735.874072,-6883.915261,689.485948
1433.015465,6809.894666,-7105.977043,766.095498
1433.015794,6513.812290,-7031.956449,995.924147
1433.016124,7179.997637,-6809.894666,919.314598
1433.016453,7105.977043,-6513.812290,1225.752797
1433.016782,7105.977043,-6661.853478,842.705048
1433.017112,7328.038826,-6735.874072,842.705048
1433.017441,7105.977043,-6587.832884,766.095498
1433.017771,7031.956449,-6587.832884,995.924147
1433.018100,6957.935855,-6217.729913,1149.143247
1433.018430,7328.038826,-5773.606348,1532.190996
1433.018759,7031.956449,-6513.812290,995.924147
1433.019089,6883.915261,-6513.812290,919.314598
1433.019418,6957.935855,-6365.771101,842.705048
1433.019748,6809.894666,-6661.853478,995.924147
1433.020077,6661.853478,-6217.729913,1302.362347
1433.020407,6587.832884,-6439.791695,995.924147
1433.020736,7031.956449,-7105.977043,1149.143247
1433.021065,7105.977043,-6735.874072,1302.362347
1433.021395,7105.977043,-6587.832884,689.485948
1433.021724,7179.997637,-6883.915261,1149.143247
1433.022054,6661.853478,-6957.935855,842.705048
1433.022383,6587.832884,-6809.894666,766.095498
1433.022713,6513.812290,-6883.915261,919.314598
1433.023042,6587.832884,-6513.812290,1455.581446
1433.023372,7402.059420,-7105.977043,766.095498
1433.023701,7105.977043,-6365.771101,1378.971896
1433.024031,7254.018232,-6661.853478,1072.533697
1433.024360,7402.059420,-6809.894666,612.876398
1433.024689,7476.080014,-6291.750507,1225.752797
1433.025019,7254.018232,-6661.853478,1149.143247
1433.025348,7328.038826,-6069.688724,1225.752797
1433.025678,7476.080014,-6217.729913,1149.143247
1433.026007,7624.121203,-5625.565159,766.095498
1433.026337,6957.935855,-6513.812290,1302.362347
1433.026666,7031.956449,-6439.791695,1378.971896
1433.026996,7031.956449,-6217.729913,919.314598
1433.027325,6809.894666,-6143.709319,1455.581446
1433.027655,6587.832884,-6587.832884,1608.800546
1433.027984,7031.956449,-6587.832884,995.924147
1433.028314,7031.956449,-6735.874072,1378.971896
1433.028643,6957.935855,-6513.812290,995.924147
1433.028972,6957.935855,-6735.874072,612.876398
1433.029302,6661.853478,-6661.853478,1838.629195
1433.029631,6735.874072,-7031.956449,383.047749
1433.029961,6809.894666,-6957.935855,842.705048
1433.030290,6661.853478,-6809.894666,1072.533697
1433.030620,7105.977043,-6883.915261,1378.971896
1433.030949,7105.977043,-6365.771101,1149.143247
1433.031279,6735.874072,-6217.729913,612.876398
1433.031608,7031.956449,-6291.750507,766.095498
1433.031938,7105.977043,-6069.688724,1072.533697
1433.032267,7328.038826,-5551.544565,995.924147
1433.032596,7698.141797,-5403.503377,919.314598
1433.032926,8364.327145,-5477.523971,1149.143247
1433.033255,8882.471304,-6661.853478,1149.143247
1433.033585,7994.224174,-6735.874072,1225.752797
1433.033914,7031.956449,-6661.853478,306.438199
1433.034244,5847.626942,-7402.059420,0.000000
1433.034573,6069.688724,-6957.935855,153.219100
1433.034903,6883.915261,-6513.812290,842.705048
1433.035232,7772.162391,-6143.709319,1455.581446
1433.035562,8512.368333,-6069.688724,1762.019645
1433.035891,8512.368333,-4293.194464,1455.581446
1433.036220,7698.141797,-4219.173869,919.314598
1433.036550,7994.224174,-5181.441594,1378.971896
1433.036879,7624.121203,-4589.276840,919.314598
1433.037209,8438.347739,-5403.503377,842.705048
1433.037538,8512.368333,-5107.421000,842.705048
1433.037868,7994.224174,-5699.585753,536.266849
1433.038197,7994.224174,-6439.791695,536.266849
1433.038527,8290.306550,-4959.379811,612.876398
1433.038856,8882.471304,-6217.729913,536.266849
1433.039186,8660.409521,-5921.647536,766.095498
1433.039515,8216.285956,-5107.421000,689.485948
1433.039845,7846.182985,-5477.523971,76.609550
1433.040174,8142.265362,-4737.318029,842.705048
1433.040503,8956.491898,-4663.297435,766.095498
1433.040833,9178.553681,-3701.029710,1608.800546
1433.041162,9030.512492,-4145.153275,1915.238745
1433.041492,9326.594869,-3256.906145,1532.190996
1433.041821,9622.677246,-3404.947333,1455.581446
1433.042151,9326.594869,-3552.988522,1608.800546
1433.042480,9474.636058,-2516.700203,1149.143247
1433.042810,9400.615463,-3182.885551,1378.971896
1433.043139,9622.677246,-3404.947333,1838.629195
1433.043469,9844.739029,-3552.988522,1302.362347
1433.043798,9696.697840,-4811.338623,1838.629195
1433.044127,9252.574275,-4589.276840,1149.143247
1433.044457,8734.430116,-5551.544565,1225.752797
1433.044786,7698.141797,-5033.400406,1072.533697
1433.045116,7254.018232,-5551.544565,842.705048
1433.045445,7698.141797,-5477.523971,1072.533697
1433.045775,8290.306550,-4737.318029,1302.362347
1433.046104,8512.368333,-4959.379811,842.705048
1433.046434,8438.347739,-4663.297435,995.924147
1433.046763,8216.285956,-5107.421000,306.438199
1433.047093,7920.203579,-5107.421000,76.609550
1433.047422,9252.574275,-4663.297435,459.657299
1433.047752,9770.718434,-4293.194464,459.657299
1433.048081,10066.800811,-4219.173869,383.047749
1433.048410,9696.697840,-4737.318029,1149.143247
1433.048740,9622.677246,-3552.988522,306.438199
1433.049069,9696.697840,-4071.132681,842.705048
1433.049399,9992.780217,-3997.112087,1149.143247
1433.049728,9252.574275,-3997.112087,1149.143247
1433.050058,8882.471304,-4589.276840,1455.581446
1433.050387,8808.450710,-3997.112087,2068.457845
1433.050717,8660.409521,-4737.318029,1225.752797
1433.051046,8808.450710,-4441.235652,1915.238745
1433.051376,8808.450710,-4589.276840,1838.629195
1433.051705,8586.388927,-4589.276840,1915.238745
1433.052034,8364.327145,-4515.256246,612.876398
1433.052364,8142.265362,-4515.256246,536.266849
1433.052693,9030.512492,-4219.173869,76.609550
1433.053023,9548.656652,-4589.276840,383.047749
1433.053352,10140.821405,-3923.091493,689.485948
1433.053682,9474.636058,-4515.256246,0.000000
1433.054011,8808.450710,-4885.359217,0.000000
1433.054341,9104.533087,-5107.421000,-229.828649
1433.054670,8882.471304,-6143.709319,766.095498
1433.055000,8956.491898,-5921.647536,1915.238745
1433.055329,8882.471304,-5403.503377,1762.019645
1433.055658,8808.450710,-5699.585753,1838.629195
1433.055988,8216.285956,-5329.482782,1991.848295
1433.056317,8808.450710,-4367.215058,2374.896044
1433.056647,9178.553681,-3478.967927,1378.971896
1433.056976,9178.553681,-2442.679609,995.924147
1433.057306,9696.697840,-1850.514855,612.876398
1433.057635,10140.821405,-1702.473667,536.266849
1433.057965,10140.821405,-1184.329507,842.705048
1433.058294,10436.903782,-1776.494261,153.219100
1433.058624,10140.821405,-3182.885551,536.266849
1433.058953,9474.636058,-4515.256246,306.438199
1433.059283,8290.306550,-6587.832884,229.828649
1433.059612,8068.244768,-7179.997637,1072.533697
1433.059941,7624.121203,-8364.327145,995.924147
1433.060271,7105.977043,-9474.636058,612.876398
1433.060600,6809.894666,-7476.080014,842.705048
1433.060930,6661.853478,-6735.874072,0.000000
1433.061259,7254.018232,-5699.585753,995.924147
1433.061589,8512.368333,-3849.070898,1225.752797
1433.061918,9918.759623,-2960.823768,1532.190996
1433.062248,10214.842000,-1036.288319,1915.238745
1433.062577,10807.006753,0.000000,766.095498
1433.062907,10881.027347,0.000000,842.705048
1433.063236,11621.233289,0.000000,1302.362347
1433.063565,12139.377449,-888.247130,1762.019645
1433.063895,12731.542202,-1184.329507,1838.629195
1433.064224,11917.315666,-2960.823768,1762.019645
1433.064554,10214.842000,-4737.318029,1225.752797
1433.064883,8364.327145,-7476.080014,1838.629195
1433.065213,7105.977043,-8956.491898,1149.143247
1433.065542,5551.544565,-8882.471304,-459.657299
1433.065872,3923.091493,-8956.491898,-536.266849
1433.066201,4071.132681,-8290.306550,-1072.533697
1433.066531,5995.668130,-7476.080014,-229.828649
1433.066860,7476.080014,-7105.977043,842.705048
1433.067190,8808.450710,-4515.256246,1378.971896
1433.067519,9992.780217,-3034.844362,1532.190996
1433.067848,10214.842000,-518.144159,1378.971896
1433.068178,10658.965565,-592.164754,1072.533697
1433.068507,11769.274478,148.041188,1378.971896
1433.068837,13619.789333,666.185348,1149.143247
1433.069166,13175.665768,-1850.514855,1838.629195
1433.069496,13323.706956,-2146.597232,2451.505594
1433.069825,12509.480420,-3330.926739,2068.457845
1433.070155,10288.862594,-4219.173869,1838.629195
1433.070484,7402.059420,-6513.812290,1378.971896
1433.070814,5403.503377,-7402.059420,76.609550
1433.071143,4145.153275,-7994.224174,-1072.533697
1433.071472,3701.029710,-8290.306550,-995.924147
1433.071802,4959.379811,-6143.709319,-1302.362347
1433.072131,7402.059420,-5329.482782,0.000000
1433.072461,10362.883188,-4071.132681,766.095498
1433.072790,11547.212695,-2368.659014,2145.067394
1433.073120,12139.377449,-1776.494261,1532.190996
1433.073449,11103.089130,-1998.556043,1915.238745
1433.073779,10288.862594,-2368.659014,1225.752797
1433.074108,10066.800811,-3997.112087,995.924147
1433.074438,9400.615463,-4663.297435,1378.971896
1433.074767,8882.471304,-7179.997637,2068.457845
1433.075096,9104.533087,-7994.224174,2374.896044
1433.075426,8364.327145,-7476.080014,1838.629195
1433.075755,7254.018232,-6069.688724,536.266849
1433.076085,6809.894666,-2664.741391,-229.828649
1433.076414,7328.038826,-3627.009116,-383.047749
1433.076744,8882.471304,-3330.926739,0.000000
1433.077073,9622.677246,-2368.659014,1225.752797
1433.077403,9992.780217,-2886.803174,1302.362347
1433.077732,9992.780217,-1036.288319,306.438199
1433.078062,10214.842000,-3182.885551,919.314598
1433.078391,10584.944971,-4811.338623,1608.800546
1433.078721,10436.903782,-6217.729913,2068.457845
1433.079050,9696.697840,-5995.668130,1915.238745
1433.079379,8290.306550,-4219.173869,76.609550
1433.079709,7476.080014,-5107.421000,0.000000
1433.080038,8068.244768,-5255.462188,536.266849
1433.080368,7920.203579,-7920.203579,1455.581446
1433.080697,8068.244768,-7698.141797,2298.286494
1433.081026,7402.059420,-5181.441594,1149.143247
1433.081355,6957.935855,-3923.091493,-536.266849
1433.081685,6513.812290,-4737.318029,229.828649
1433.082014,7550.100608,-6069.688724,1915.238745
1433.082343,9252.574275,-4071.132681,689.485948
1433.082672,9548.656652,-962.267725,689.485948
1433.083001,10362.883188,-888.247130,536.266849
1433.083331,11769.274478,-962.267725,1225.752797
1433.083660,10881.027347,-3478.967927,2298.286494
1433.083989,9844.739029,-5107.421000,1608.800546
1433.084318,9622.677246,-3849.070898,1225.752797
1433.084647,10288.862594,-3701.029710,1685.410096
1433.084977,10510.924376,-4441.235652,1991.848295
1433.085306,10066.800811,-5921.647536,1991.848295
1433.085635,8956.491898,-4663.297435,459.657299
1433.085964,7698.141797,-4367.215058,153.219100
1433.086293,7254.018232,-5921.647536,536.266849
1433.086623,7402.059420,-7179.997637,1608.800546
1433.086952,6513.812290,-6957.935855,-306.438199
1433.087281,4959.379811,-6217.729913,-1072.533697
1433.087610,5181.441594,-6957.935855,0.000000
1433.087939,7402.059420,-7179.997637,1149.143247
1433.088269,9326.594869,-5033.400406,1072.533697
1433.088598,9400.615463,-2960.823768,383.047749
1433.088927,9474.636058,-3701.029710,459.657299
1433.089256,9844.739029,-6217.729913,1532.190996
1433.089585,9104.533087,-8586.388927,2681.334243
1433.089915,8364.327145,-5329.482782,1455.581446
1433.090244,8142.265362,-2516.700203,0.000000
1433.090573,8438.347739,-4515.256246,1072.533697
1433.090902,9474.636058,-4737.318029,2911.162892
1433.091231,11177.109724,-4071.132681,3294.210641
1433.091561,11103.089130,-1776.494261,2374.896044
1433.091890,9918.759623,-1332.370696,1455.581446
1433.092219,8068.244768,-4441.235652,1455.581446
1433.092548,6513.812290,-5033.400406,919.314598
1433.092877,4737.318029,-6291.750507,-383.047749
1433.093207,6513.812290,-7328.038826,-153.219100
1433.093536,7624.121203,-8438.347739,1225.752797
1433.093865,8142.265362,-9030.512492,1838.629195
1433.094194,7402.059420,-8808.450710,995.924147
1433.094523,5847.626942,-9622.677246,0.000000
1433.094852,4145.153275,-8956.491898,0.000000
1433.095182,3404.947333,-9474.636058,-612.876398
1433.095511,4219.173869,-8660.409521,306.438199
1433.095840,6217.729913,-5847.626942,229.828649
1433.096169,6809.894666,-5551.544565,612.876398
1433.096498,8142.265362,-3775.050304,1685.410096
1433.096828,9548.656652,-5477.523971,2068.457845
1433.097157,9474.636058,-4737.318029,2145.067394
1433.097486,8216.285956,-3849.070898,919.314598
1433.097815,6957.935855,-6069.688724,1149.143247
1433.098144,7105.977043,-4589.276840,689.485948
1433.098474,6883.915261,-7846.182985,1838.629195
1433.098803,8364.327145,-5403.503377,1455.581446
1433.099132,8808.450710,-3330.926739,1378.971896
1433.099461,9252.574275,-5625.565159,2757.943793
1433.099790,7550.100608,-4885.359217,1685.410096
1433.100120,5773.606348,-4959.379811,536.266849
1433.100449,4737.318029,-4663.297435,-536.266849
1433.100778,5699.585753,-5403.503377,0.000000
1433.101107,6809.894666,-6883.915261,919.314598
1433.101436,7846.182985,-5699.585753,1378.971896
1433.101766,8512.368333,-7994.224174,995.924147
1433.102095,8586.388927,-6661.853478,1532.190996
1433.102424,7920.203579,-8586.388927,1378.971896
1433.102753,7402.059420,-9252.574275,1685.410096
1433.103082,6217.729913,-7920.203579,76.609550
1433.103412,5255.462188,-9104.533087,-1072.533697
1433.103741,4293.194464,-9696.697840,0.000000
1433.104070,4885.359217,-9770.718434,1532.190996
1433.104399,6291.750507,-7920.203579,689.485948
1433.104728,6661.853478,-7328.038826,1072.533697
1433.105058,5329.482782,-7254.018232,1302.362347
1433.105387,5773.606348,-5033.400406,612.876398
1433.105716,6439.791695,-5699.585753,536.266849
1433.106045,7105.977043,-4959.379811,536.266849
1433.106374,7772.162391,-4071.132681,1302.362347
1433.106704,9030.512492,-5625.565159,1838.629195
1433.107033,9326.594869,-6365.771101,2145.067394
1433.107362,7920.203579,-7920.203579,2068.457845
1433.107691,6365.771101,-6217.729913,766.095498
1433.108020,5551.544565,-6957.935855,153.219100
1433.108350,6143.709319,-6957.935855,1225.752797
1433.108679,7550.100608,-6809.894666,1762.019645
1433.109008,8142.265362,-6661.853478,1225.752797
1433.109337,6809.894666,-4663.297435,1608.800546
1433.109666,5847.626942,-7179.997637,919.314598
1433.109996,6365.771101,-6513.812290,842.705048
1433.110325,6217.729913,-6217.729913,995.924147
1433.110654,6439.791695,-5181.441594,689.485948
1433.110983,7031.956449,-3182.885551,0.000000
1433.111312,7772.162391,-5181.441594,919.314598
1433.111642,8068.244768,-5847.626942,1455.581446
1433.111971,8068.244768,-8068.244768,1685.410096
1433.112300,7550.100608,-6587.832884,1838.629195
1433.112629,6069.688724,-7402.059420,459.657299
1433.112958,5995.668130,-8290.306550,1149.143247
1433.113288,6957.935855,-6883.915261,1225.752797
1433.113617,7476.080014,-7476.080014,1225.752797
1433.113946,7772.162391,-5329.482782,1915.238745
1433.114275,7846.182985,-4515.256246,919.314598
1433.114604,6365.771101,-6143.709319,-153.219100
1433.114934,4959.379811,-7105.977043,459.657299
1433.115263,5773.606348,-6587.832884,383.047749
1433.115592,6809.894666,-5403.503377,0.000000
1433.115921,7846.182985,-5699.585753,1149.143247
1433.116250,8438.347739,-5921.647536,1302.362347
1433.116580,8956.491898,-6513.812290,1991.848295
1433.116909,9104.533087,-7624.121203,2298.286494
1433.117238,7328.038826,-8068.244768,1532.190996
1433.117567,6069.688724,-8290.306550,459.657299
1433.117896,5255.462188,-7698.141797,612.876398
1433.118226,5995.668130,-8364.327145,689.485948
1433.118555,7031.956449,-7328.038826,1762.019645
1433.118884,6661.853478,-6957.935855,1455.581446
1433.119213,6365.771101,-6365.771101,459.657299
1433.119542,5477.523971,-6069.688724,0.000000
1433.119871,4589.276840,-6439.791695,-153.219100
1433.120201,5699.585753,-6735.874072,0.000000
1433.120530,7105.977043,-5181.441594,76.609550
1433.120859,8586.388927,-5403.503377,689.485948
1433.121188,9030.512492,-5033.400406,1302.362347
1433.121517,9030.512492,-6365.771101,1378.971896
1433.121847,8512.368333,-8068.244768,2145.067394
1433.122176,7402.059420,-8512.368333,1838.629195
1433.122505,6217.729913,-8290.306550,1072.533697
1433.122834,5773.606348,-7550.100608,842.705048
1433.123163,6069.688724,-7624.121203,1915.238745
1433.123493,6883.915261,-6291.750507,1455.581446
1433.123822,6809.894666,-5921.647536,1608.800546
1433.124151,6217.729913,-4663.297435,842.705048
1433.124480,6439.791695,-4737.318029,76.609550
1433.124809,5477.523971,-5921.647536,153.219100
1433.125139,6217.729913,-5699.585753,842.705048
1433.125468,7994.224174,-4441.235652,612.876398
1433.125797,9178.553681,-4441.235652,995.924147
1433.126126,9326.594869,-4885.359217,1685.410096
1433.126455,9326.594869,-6735.874072,2068.457845
1433.126785,8660.409521,-7624.121203,1532.190996
1433.127114,6439.791695,-8956.491898,1532.190996
1433.127443,5033.400406,-8216.285956,2145.067394
1433.127772,5699.585753,-7698.141797,1149.143247
1433.128101,5995.668130,-7402.059420,1455.581446
1433.128431,6365.771101,-7031.956449,1378.971896
1433.128760,7105.977043,-4441.235652,1072.533697
1433.129089,7105.977043,-4071.132681,229.828649
1433.129418,6439.791695,-5403.503377,306.438199
1433.129747,6365.771101,-5847.626942,229.828649
1433.130077,6735.874072,-6587.832884,-229.828649
1433.130406,7328.038826,-6439.791695,306.438199
1433.130735,7476.080014,-6217.729913,919.314598
1433.131064,8290.306550,-6513.812290,536.266849
1433.131393,7550.100608,-7179.997637,1225.752797
1433.131723,7105.977043,-9030.512492,1685.410096
1433.132052,7402.059420,-8586.388927,919.314598
1433.132381,5403.503377,-9400.615463,1532.190996
1433.132710,4367.215058,-9474.636058,1378.971896
1433.133039,4663.297435,-8216.285956,1072.533697
1433.133369,5551.544565,-6957.935855,1455.581446
1433.133698,6957.935855,-5329.482782,1149.143247
1433.134027,7550.100608,-4663.297435,1532.190996
1433.134356,7402.059420,-3849.070898,612.876398
1433.134685,6217.729913,-4293.194464,-536.266849
1433.135015,6587.832884,-4885.359217,0.000000
1433.135344,7550.100608,-5477.523971,153.219100
1433.135673,9104.533087,-6809.894666,1455.581446
1433.136002,8512.368333,-7698.141797,2068.457845
1433.136331,8808.450710,-6587.832884,2298.286494
1433.136661,8586.388927,-8142.265362,2528.115143
1433.136990,7179.997637,-8216.285956,1838.629195
1433.137319,5329.482782,-8216.285956,1608.800546
1433.137648,4885.359217,-7846.182985,842.705048
1433.137977,5329.482782,-7031.956449,1149.143247
1433.138307,6069.688724,-6513.812290,1762.019645
1433.138636,7328.038826,-5773.606348,1838.629195
1433.138965,7772.162391,-4071.132681,1072.533697
1433.139294,7105.977043,-4293.194464,919.314598
1433.139623,7105.977043,-4737.318029,459.657299
1433.139953,7105.977043,-5181.441594,383.047749
1433.140282,7328.038826,-4959.379811,306.438199
1433.140611,7772.162391,-4367.215058,842.705048
1433.140940,9178.553681,-6439.791695,1838.629195
1433.141269,10362.883188,-6513.812290,2451.505594
1433.141599,9030.512492,-7698.141797,2834.553343
1433.141928,7105.977043,-8290.306550,1838.629195
1433.142257,5255.462188,-7920.203579,766.095498
1433.142586,4737.318029,-7254.018232,229.828649
1433.142915,4959.379811,-7772.162391,842.705048
1433.143245,5773.606348,-7476.080014,1225.752797
1433.143574,6365.771101,-5921.647536,689.485948
1433.143903,5995.668130,-5255.462188,306.438199
1433.144232,5255.462188,-6217.729913,0.000000
1433.144561,5921.647536,-6069.688724,306.438199
1433.144890,6809.894666,-6883.915261,153.219100
1433.145220,7994.224174,-6143.709319,76.609550
1433.145549,8142.265362,-6069.688724,995.924147
1433.145878,8586.388927,-6661.853478,1532.190996
1433.146207,9326.594869,-7179.997637,1915.238745
1433.146536,7846.182985,-8216.285956,1838.629195
1433.146866,5995.668130,-8512.368333,1302.362347
1433.147195,5255.462188,-8364.327145,919.314598
1433.147524,4811.338623,-9030.512492,612.876398
1433.147853,4737.318029,-8216.285956,1149.143247
1433.148182,5403.503377,-6513.812290,612.876398
1433.148512,6661.853478,-5551.544565,536.266849
1433.148841,6735.874072,-4589.276840,229.828649
1433.149170,6735.874072,-5107.421000,689.485948
1433.149499,7476.080014,-5477.523971,306.438199
1433.149828,7772.162391,-5255.462188,536.266849
1433.150158,7920.203579,-4811.338623,766.095498
1433.150487,8956.491898,-6217.729913,1149.143247
1433.150816,10214.842000,-5625.565159,1225.752797
1433.151145,10732.986159,-6217.729913,2604.724693
1433.151474,9474.636058,-7402.059420,2834.553343
1433.151804,7698.141797,-7698.141797,1685.410096
1433.152133,5329.482782,-7179.997637,689.485948
1433.152462,3923.091493,-8438.347739,0.000000
1433.152791,3997.112087,-7476.080014,459.657299
1433.153120,4959.379811,-6883.915261,842.705048
1433.153450,6143.709319,-5995.668130,536.266849
1433.153779,6957.935855,-5107.421000,842.705048
1433.154108,7328.038826,-5773.606348,842.705048
1433.154437,7402.059420,-5181.441594,919.314598
1433.154766,6883.915261,-5255.462188,1072.533697
1433.155096,7105.977043,-6439.791695,536.266849
1433.155425,7550.100608,-5477.523971,766.095498
1433.155754,8216.285956,-7179.997637,1838.629195
1433.156083,8808.450710,-7550.100608,2911.162892
1433.156412,9030.512492,-7328.038826,2451.505594
1433.156742,7550.100608,-8512.368333,1838.629195
1433.157071,5551.544565,-7846.182985,1072.533697
1433.157400,3997.112087,-7476.080014,536.266849
1433.157729,4071.132681,-8808.450710,-306.438199
1433.158058,4367.215058,-6809.894666,536.266849
1433.158388,5551.544565,-6069.688724,306.438199
1433.158717,6587.832884,-5773.606348,612.876398
1433.159046,7031.956449,-4515.256246,1225.752797
1433.159375,7402.059420,-5625.565159,919.314598
1433.159704,7624.121203,-4515.256246,766.095498
1433.160034,7994.224174,-4293.194464,919.314598
1433.160363,8512.368333,-5625.565159,1302.362347
1433.160692,8956.491898,-6439.791695,2221.676944
1433.161021,9178.553681,-7179.997637,2681.334243
1433.161350,8290.306550,-7328.038826,2374.896044
1433.161680,6735.874072,-9622.677246,2374.896044
1433.162009,5403.503377,-8882.471304,1455.581446
1433.162338,4071.132681,-8438.347739,459.657299
1433.162667,3478.967927,-8142.265362,0.000000
1433.162996,4737.318029,-7328.038826,306.438199
1433.163326,5403.503377,-5625.565159,-383.047749
1433.163655,7031.956449,-5033.400406,76.609550
1433.163984,7179.997637,-5107.421000,1072.533697
1433.164313,8068.244768,-5995.668130,689.485948
1433.164642,7920.203579,-4885.359217,766.095498
1433.164972,7624.121203,-4959.379811,1072.533697
1433.165301,9178.553681,-5699.585753,1225.752797
1433.165630,9696.697840,-5033.400406,1608.800546
1433.165959,9252.574275,-6809.894666,2757.943793
1433.166288,9400.615463,-6587.832884,2681.334243
1433.166618,8882.471304,-7550.100608,2987.772442
1433.166947,6069.688724,-7550.100608,1532.190996
1433.167276,3775.050304,-7179.997637,0.000000
1433.167605,3478.967927,-8586.388927,0.000000
1433.167934,4811.338623,-8068.244768,-229.828649
1433.168264,5995.668130,-5107.421000,0.000000
1433.168593,6735.874072,-4737.318029,459.657299
1433.168922,7624.121203,-5921.647536,612.876398
1433.169251,7105.977043,-5033.400406,842.705048
1433.169580,6513.812290,-5255.462188,153.219100
1433.169909,7105.977043,-5551.544565,153.219100
1433.170239,8216.285956,-5551.544565,1072.533697
1433.170568,7994.224174,-8142.265362,1685.410096
1433.170897,8364.327145,-7550.100608,2221.676944
1433.171226,7994.224174,-7698.141797,1685.410096
1433.171555,7328.038826,-9104.533087,2374.896044
1433.171885,5995.668130,-7402.059420,1378.971896
1433.172214,5625.565159,-7476.080014,229.828649
1433.172543,5625.565159,-6883.915261,612.876398
1433.172872,6809.894666,-5995.668130,306.438199
1433.173201,7624.121203,-5255.462188,536.266849
1433.173531,7105.977043,-4145.153275,229.828649
1433.173860,6365.771101,-5699.585753,229.828649
1433.174189,6957.935855,-5255.462188,-383.047749
1433.174518,6883.915261,-5329.482782,612.876398
1433.174847,7846.182985,-5181.441594,1072.533697
1433.175177,9326.594869,-5699.585753,1685.410096
1433.175506,10066.800811,-5033.400406,2451.505594
1433.175835,9474.636058,-6735.874072,2911.162892
1433.176164,8734.430116,-8216.285956,2221.676944
1433.176493,7179.997637,-7772.162391,1455.581446
1433.176823,5255.462188,-8660.409521,766.095498
1433.177152,4589.276840,-8882.471304,76.609550
1433.177481,4959.379811,-8290.306550,995.924147
1433.177810,5551.544565,-8216.285956,383.047749
1433.178139,5847.626942,-6513.812290,153.219100
1433.178469,5847.626942,-4737.318029,-536.266849
1433.178798,5847.626942,-6365.771101,306.438199
1433.179127,6587.832884,-5477.523971,0.000000
1433.179456,6957.935855,-5255.462188,229.828649
1433.179785,7550.100608,-5477.523971,383.047749
1433.180115,9030.512492,-5477.523971,1072.533697
1433.180444,11177.109724,-5477.523971,2145.067394
1433.180773,11251.130318,-5477.523971,2604.724693
1433.181102,9622.677246,-7254.018232,2987.772442
1433.181431,8142.265362,-7550.100608,2221.676944
1433.181761,6143.709319,-7920.203579,612.876398
1433.182090,4959.379811,-7624.121203,0.000000
1433.182419,4219.173869,-9030.512492,536.266849
1433.182748,4589.276840,-8586.388927,0.000000
1433.183078,4959.379811,-7179.997637,76.609550
1433.183407,5033.400406,-5625.565159,0.000000
1433.183736,5551.544565,-5255.462188,-766.095498
1433.184066,6291.750507,-6291.750507,153.219100
1433.184395,7179.997637,-6143.709319,842.705048
1433.184724,8512.368333,-5773.606348,1455.581446
1433.185054,9030.512492,-4589.276840,1915.238745
1433.185383,9474.636058,-4959.379811,2068.457845
1433.185712,10807.006753,-4737.318029,3064.381992
1433.186041,10140.821405,-6587.832884,3140.991542
1433.186371,8586.388927,-8216.285956,1608.800546
1433.186700,6365.771101,-7402.059420,2374.896044
1433.187029,5329.482782,-8290.306550,536.266849
1433.187359,4367.215058,-7772.162391,306.438199
1433.187688,3997.112087,-7772.162391,229.828649
1433.188017,5181.441594,-6587.832884,0.000000
1433.188347,5847.626942,-5403.503377,-306.438199
1433.188676,5329.482782,-6809.894666,536.266849
1433.189005,5921.647536,-5477.523971,842.705048
1433.189335,7624.121203,-5107.421000,459.657299
1433.189664,8290.306550,-4441.235652,1225.752797
1433.189993,8956.491898,-4071.132681,1455.581446
1433.190323,10140.821405,-5033.400406,2298.286494
1433.190652,11473.192101,-5255.462188,3064.381992
1433.190981,9844.739029,-6883.915261,3140.991542
1433.191311,7698.141797,-7624.121203,2068.457845
1433.191640,5551.544565,-7920.203579,842.705048
1433.191969,3330.926739,-10288.862594,0.000000
1433.192299,2442.679609,-9992.780217,0.000000
1433.192628,3478.967927,-9622.677246,536.266849
1433.192957,4737.318029,-7476.080014,0.000000
1433.193286,5181.441594,-5995.668130,0.000000
1433.193616,5329.482782,-7179.997637,153.219100
1433.193945,6217.729913,-5551.544565,0.000000
1433.194274,6735.874072,-4737.318029,76.609550
1433.194604,7994.224174,-4737.318029,459.657299
1433.194933,9474.636058,-3330.926739,1378.971896
1433.195262,10807.006753,-5551.544565,2451.505594
1433.195592,10807.006753,-6069.688724,2528.115143
1433.195921,9400.615463,-7179.997637,3217.601092
1433.196250,8142.265362,-7105.977043,2834.553343
1433.196580,6661.853478,-6513.812290,1762.019645
1433.196909,5699.585753,-7624.121203,1762.019645
1433.197238,5255.462188,-7772.162391,1149.143247
1433.197568,4959.379811,-7698.141797,995.924147
1433.197897,4663.297435,-6587.832884,919.314598
1433.198226,4441.235652,-5403.503377,-766.095498
1433.198556,3849.070898,-6143.709319,-459.657299
1433.198885,4515.256246,-6587.832884,-536.266849
1433.199214,5847.626942,-7105.977043,76.609550
1433.199543,7920.203579,-5995.668130,995.924147
1433.199873,9844.739029,-4737.318029,1991.848295
1433.200202,11177.109724,-4959.379811,2374.896044
1433.200531,11251.130318,-5033.400406,3140.991542
1433.200861,10288.862594,-6957.935855,3140.991542
1433.201190,8364.327145,-7624.121203,2145.067394
1433.201519,6439.791695,-7402.059420,1455.581446
1433.201849,5181.441594,-7105.977043,612.876398
1433.202178,5255.462188,-8290.306550,459.657299
1433.202507,5847.626942,-8216.285956,1455.581446
1433.202837,6291.750507,-6217.729913,612.876398
1433.203166,4959.379811,-6143.709319,-459.657299
1433.203495,3923.091493,-6587.832884,-1149.143247
1433.203825,3478.967927,-7402.059420,-1302.362347
1433.204154,4441.235652,-7179.997637,-1149.143247
1433.204483,6513.812290,-7179.997637,689.485948
1433.204813,9178.553681,-6291.750507,2145.067394
1433.205142,11399.171507,-5329.482782,2987.772442
1433.205471,11547.212695,-4737.318029,3140.991542
1433.205801,10510.924376,-5773.606348,3140.991542
1433.206130,9178.553681,-6883.915261,4136.915689
1433.206459,7105.977043,-7550.100608,1072.533697
1433.206788,4441.235652,-7846.182985,306.438199
1433.207118,3849.070898,-7624.121203,229.828649
1433.207447,5477.523971,-8068.244768,229.828649
1433.207776,6883.915261,-6883.915261,919.314598
1433.208106,5625.565159,-6217.729913,229.828649
1433.208435,5181.441594,-6069.688724,-766.095498
1433.208764,4811.338623,-5477.523971,-612.876398
1433.209094,5995.668130,-5329.482782,-536.266849
1433.209423,7105.977043,-6957.935855,153.219100
1433.209752,8808.450710,-5255.462188,1149.143247
1433.210082,9844.739029,-5329.482782,1991.848295
1433.210411,10510.924376,-5699.585753,2298.286494
1433.210740,10140.821405,-5625.565159,3447.429741
1433.211070,10288.862594,-6439.791695,3447.429741
1433.211399,8882.471304,-5847.626942,2374.896044
1433.211728,6143.709319,-6069.688724,842.705048
1433.212058,4663.297435,-7624.121203,919.314598
1433.212387,4663.297435,-7105.977043,919.314598
1433.212716,5625.565159,-6661.853478,459.657299
1433.213045,5107.421000,-6587.832884,229.828649
1433.213375,4885.359217,-6291.750507,-153.219100
1433.213704,4441.235652,-6883.915261,-1608.800546
1433.214033,4737.318029,-7179.997637,0.000000
1433.214363,6291.750507,-6587.832884,0.000000
1433.214692,8734.430116,-5033.400406,153.219100
1433.215021,9400.615463,-5329.482782,2068.457845
1433.215351,10066.800811,-6143.709319,2681.334243
1433.215680,10881.027347,-7254.018232,3600.648841
1433.216009,9474.636058,-7402.059420,2834.553343
1433.216339,6957.935855,-7772.162391,1685.410096
1433.216668,5403.503377,-5847.626942,766.095498
1433.216997,5181.441594,-8068.244768,0.000000
1433.217327,5403.503377,-8512.368333,995.924147
1433.217656,6513.812290,-6217.729913,459.657299
1433.217985,7254.018232,-6217.729913,842.705048
1433.218315,5921.647536,-5921.647536,153.219100
1433.218644,3997.112087,-7179.997637,-766.095498
1433.218973,4219.173869,-7105.977043,-842.705048
1433.219303,5181.441594,-7476.080014,-229.828649
1433.219632,7105.977043,-6809.894666,536.266849
1433.219961,8956.491898,-5181.441594,1991.848295
1433.220290,10510.924376,-5995.668130,2757.943793
1433.220620,10807.006753,-6587.832884,3830.477490
1433.220949,9326.594869,-6735.874072,3217.601092
1433.221278,7624.121203,-6587.832884,2221.676944
1433.221608,5699.585753,-5033.400406,842.705048
1433.221937,5625.565159,-6883.915261,1225.752797
1433.222266,6735.874072,-7179.997637,1378.971896
1433.222596,7254.018232,-4737.318029,1685.410096
1433.222925,6883.915261,-5107.421000,842.705048
1433.223254,6513.812290,-5625.565159,76.609550
1433.223584,5033.400406,-6291.750507,0.000000
1433.223913,5403.503377,-6513.812290,-459.657299
1433.224242,6735.874072,-5255.462188,0.000000
1433.224572,7105.977043,-5625.565159,383.047749
1433.224901,7846.182985,-5921.647536,919.314598
1433.225230,8882.471304,-6957.935855,2298.286494
1433.225560,9178.553681,-7550.100608,3140.991542
1433.225889,8216.285956,-7105.977043,2681.334243
1433.226218,5847.626942,-6809.894666,1302.362347
1433.226547,5255.462188,-7179.997637,1149.143247
1433.226877,6365.771101,-7624.121203,1685.410096
1433.227206,8068.244768,-7476.080014,2068.457845
1433.227535,7105.977043,-4737.318029,1762.019645
1433.227865,6513.812290,-5403.503377,689.485948
1433.228194,5329.482782,-7031.956449,383.047749
1433.228523,4737.318029,-6587.832884,-536.266849
1433.228853,4737.318029,-7031.956449,-689.485948
1433.229182,4811.338623,-7550.100608,0.000000
1433.229511,6365.771101,-7402.059420,306.438199
1433.229841,7624.121203,-6735.874072,842.705048
1433.230170,8512.368333,-7031.956449,1762.019645
1433.230499,8290.306550,-7698.141797,1991.848295
1433.230829,7698.141797,-8808.450710,2068.457845
1433.231158,5921.647536,-8438.347739,1302.362347
1433.231487,5847.626942,-7031.956449,995.924147
1433.231817,6883.915261,-7328.038826,1149.143247
1433.232146,7698.141797,-6513.812290,1608.800546
1433.232475,8142.265362,-5551.544565,1455.581446
1433.232805,7624.121203,-5625.565159,1225.752797
1433.233134,7105.977043,-4589.276840,383.047749
1433.233463,5995.668130,-4959.379811,76.609550
1433.233792,5773.606348,-5255.462188,0.000000
1433.234122,6439.791695,-5921.647536,-306.438199
1433.234451,6661.853478,-6957.935855,306.438199
1433.234780,7328.038826,-5107.421000,1225.752797
1433.235110,8512.368333,-6587.832884,1685.410096
1433.235439,9252.574275,-7105.977043,2757.943793
1433.235768,8290.306550,-8068.244768,2451.505594
1433.236098,6735.874072,-7624.121203,1685.410096
1433.236427,5551.544565,-5773.606348,459.657299
1433.236756,5847.626942,-7772.162391,1455.581446
1433.237086,7698.141797,-6809.894666,1915.238745
1433.237415,8956.491898,-3627.009116,919.314598
1433.237744,8216.285956,-4737.318029,1455.581446
1433.238074,7402.059420,-5329.482782,1225.752797
1433.238403,6217.729913,-5847.626942,0.000000
1433.238732,5773.606348,-5699.585753,-306.438199
1433.239062,6587.832884,-4959.379811,0.000000
1433.239391,7550.100608,-5403.503377,-689.485948
1433.239720,7105.977043,-6439.791695,306.438199
1433.240050,7846.182985,-8364.327145,1532.190996
1433.240379,9400.615463,-8364.327145,2451.505594
1433.240708,8290.306550,-8068.244768,1532.190996
1433.241037,6365.771101,-7402.059420,1685.410096
1433.241367,4589.276840,-8660.409521,995.924147
1433.241696,4959.379811,-9178.553681,612.876398
1433.242025,6143.709319,-7179.997637,1685.410096
1433.242355,7328.038826,-4959.379811,919.314598
1433.242684,7772.162391,-4811.338623,1302.362347
1433.243013,6957.935855,-5921.647536,1225.752797
1433.243343,5773.606348,-6217.729913,229.828649
1433.243672,5255.462188,-4885.359217,-229.828649
1433.244001,5551.544565,-5477.523971,-459.657299
1433.244331,7105.977043,-5699.585753,0.000000
1433.244660,8290.306550,-5995.668130,689.485948
1433.244989,9178.553681,-7550.100608,1455.581446
1433.245319,8142.265362,-9104.533087,2068.457845
1433.245648,6365.771101,-9622.677246,2068.457845
1433.245977,5477.523971,-7328.038826,306.438199
1433.246307,5033.400406,-7550.100608,76.609550
1433.246636,5773.606348,-7105.977043,995.924147
1433.246965,7254.018232,-7031.956449,2451.505594
1433.247294,9178.553681,-5477.523971,2451.505594
1433.247624,8882.471304,-2886.803174,1072.533697
1433.247953,7772.162391,-4071.132681,1532.190996
1433.248282,6883.915261,-3552.988522,229.828649
1433.248612,6365.771101,-4885.359217,0.000000
1433.248941,6513.812290,-6513.812290,689.485948
1433.249270,7698.141797,-5255.462188,1072.533697
1433.249600,8586.388927,-5551.544565,842.705048
1433.249929,8438.347739,-6587.832884,2451.505594
1433.250258,7402.059420,-9178.553681,1685.410096
1433.250588,6735.874072,-9992.780217,1455.581446
1433.250917,5181.441594,-8068.244768,536.266849
1433.251246,4811.338623,-8142.265362,536.266849
1433.251576,6809.894666,-7179.997637,995.924147
1433.251905,7772.162391,-6883.915261,2068.457845
1433.252234,7772.162391,-5107.421000,1991.848295
1433.252564,7550.100608,-4441.235652,1072.533697
1433.252893,6735.874072,-5477.523971,1149.143247
1433.253222,6365.771101,-4811.338623,0.000000
1433.253552,5255.462188,-6365.771101,-842.705048
1433.253881,5329.482782,-6883.915261,0.000000
1433.254210,5921.647536,-8586.388927,612.876398
1433.254539,7105.977043,-7772.162391,995.924147
1433.254869,7846.182985,-7772.162391,1762.019645
1433.255198,7698.141797,-9474.636058,1685.410096
1433.255527,6661.853478,-9252.574275,1072.533697
1433.255857,4663.297435,-8882.471304,612.876398
1433.256186,4737.318029,-7772.162391,459.657299
1433.256515,6217.729913,-7328.038826,1225.752797
1433.256845,6957.935855,-6809.894666,1685.410096
1433.257174,7772.162391,-5033.400406,2068.457845
1433.257503,8290.306550,-4219.173869,2298.286494
1433.257833,7772.162391,-4441.235652,1532.190996
1433.258162,6661.853478,-4441.235652,842.705048
1433.258491,6365.771101,-3997.112087,306.438199
1433.258821,7031.956449,-5033.400406,612.876398
1433.259150,7846.182985,-5625.565159,919.314598
1433.259479,7846.182985,-6513.812290,1378.971896
1433.259809,7772.162391,-7476.080014,1455.581446
1433.260138,7846.182985,-8734.430116,1608.800546
1433.260467,7254.018232,-8882.471304,1455.581446
1433.260796,5921.647536,-7105.977043,383.047749
1433.261126,5403.503377,-7105.977043,459.657299
1433.261455,6439.791695,-6291.750507,1302.362347
1433.261784,8808.450710,-5181.441594,1991.848295
1433.262114,9548.656652,-3478.967927,2451.505594
1433.262443,8364.327145,-3108.864956,1762.019645
1433.262772,7105.977043,-4441.235652,766.095498
1433.263102,6291.750507,-4885.359217,459.657299
1433.263431,6439.791695,-6069.688724,76.609550
1433.263760,7402.059420,-7105.977043,306.438199
1433.264090,7179.997637,-6661.853478,459.657299
1433.264419,7476.080014,-7698.141797,612.876398
1433.264748,7031.956449,-8734.430116,689.485948
1433.265078,6513.812290,-9696.697840,1838.629195
1433.265407,6883.915261,-9770.718434,919.314598
1433.265736,5625.565159,-9030.512492,306.438199
1433.266066,4071.132681,-8882.471304,0.000000
1433.266395,4737.318029,-8142.265362,536.266849
1433.266724,7105.977043,-6217.729913,2068.457845
1433.267054,9030.512492,-3849.070898,1378.971896
1433.267383,9030.512492,-2960.823768,1532.190996
1433.267712,8216.285956,-3627.009116,919.314598
1433.268041,7920.203579,-4885.359217,766.095498
1433.268371,7179.997637,-5625.565159,459.657299
1433.268700,7105.977043,-6513.812290,459.657299
1433.269029,7105.977043,-7328.038826,612.876398
1433.269359,7624.121203,-7402.059420,689.485948
1433.269688,7624.121203,-8956.491898,2298.286494
1433.270017,7328.038826,-9400.615463,1915.238745
1433.270347,6439.791695,-8734.430116,1149.143247
1433.270676,5255.462188,-8216.285956,306.438199
1433.271005,4293.194464,-8068.244768,153.219100
1433.271335,4959.379811,-7772.162391,1225.752797
1433.271664,6661.853478,-5699.585753,1072.533697
1433.271993,7624.121203,-3552.988522,1838.629195
1433.272323,8216.285956,-2738.761985,1838.629195
1433.272652,8586.388927,-2886.803174,1532.190996
1433.272981,8660.409521,-3330.926739,1378.971896
1433.273311,7624.121203,-4737.318029,1762.019645
1433.273640,7846.182985,-4885.359217,612.876398
1433.273969,7846.182985,-6143.709319,689.485948
1433.274298,8512.368333,-5995.668130,1838.629195
1433.274628,8364.327145,-7772.162391,1378.971896
1433.274957,7105.977043,-9178.553681,1532.190996
1433.275286,5107.421000,-9474.636058,1072.533697
1433.275616,4367.215058,-9844.739029,0.000000
1433.275945,4737.318029,-8512.368333,459.657299
1433.276274,4885.359217,-7550.100608,919.314598
1433.276604,6069.688724,-6587.832884,995.924147
1433.276933,7179.997637,-5181.441594,1302.362347
1433.277262,8438.347739,-4515.256246,1455.581446
1433.277592,7846.182985,-3627.009116,842.705048
1433.277921,6957.935855,-4737.318029,536.266849
1433.278250,7105.977043,-5773.606348,612.876398
1433.278580,8142.265362,-5921.647536,612.876398
1433.278909,8660.409521,-6587.832884,1302.362347
1433.279238,8586.388927,-7031.956449,2374.896044
1433.279568,8290.306550,-7105.977043,2221.676944
1433.279897,6957.935855,-8586.388927,1225.752797
1433.280226,4663.297435,-9992.780217,0.000000
1433.280556,2738.761985,-9696.697840,536.266849
1433.280885,2960.823768,-10732.986159,76.609550
1433.281214,3552.988522,-9252.574275,306.438199
1433.281543,4589.276840,-6587.832884,459.657299
1433.281872,7476.080014,-5033.400406,612.876398
1433.282201,8734.430116,-4071.132681,1838.629195
1433.282531,8660.409521,-4293.194464,1685.410096
1433.282860,8586.388927,-4071.132681,1225.752797
1433.283189,8142.265362,-3552.988522,0.000000
1433.283518,8068.244768,-3775.050304,766.095498
1433.283847,8808.450710,-5773.606348,1378.971896
1433.284176,9622.677246,-7031.956449,2145.067394
1433.284505,9548.656652,-6587.832884,2911.162892
1433.284834,9104.533087,-7846.182985,2834.553343
1433.285163,6809.894666,-8512.368333,1762.019645
1433.285492,3923.091493,-8364.327145,76.609550
1433.285821,2664.741391,-9474.636058,-306.438199
1433.286151,3923.091493,-7846.182985,0.000000
1433.286480,5181.441594,-6883.915261,459.657299
1433.286809,6957.935855,-5773.606348,1149.143247
1433.287138,7550.100608,-4663.297435,766.095498
1433.287467,7402.059420,-4737.318029,766.095498
1433.287796,6735.874072,-4589.276840,229.828649
1433.288125,7772.162391,-5329.482782,842.705048
1433.288454,9326.594869,-4663.297435,1072.533697
1433.288783,9474.636058,-5255.462188,1302.362347
1433.289112,9400.615463,-6143.709319,1838.629195
1433.289441,9474.636058,-6439.791695,1685.410096
1433.289771,7772.162391,-8216.285956,1455.581446
1433.290100,5699.585753,-9770.718434,1838.629195
1433.290429,5033.400406,-9326.594869,0.000000
1433.290758,4441.235652,-8438.347739,-229.828649
1433.291087,4441.235652,-9252.574275,995.924147
1433.291416,5699.585753,-7846.182985,766.095498
1433.291745,6587.832884,-4589.276840,229.828649
1433.292074,6957.935855,-4367.215058,229.828649
1433.292403,7179.997637,-4737.318029,919.314598
1433.292732,7254.018232,-4663.297435,306.438199
1433.293062,7254.018232,-5921.647536,153.219100
1433.293391,7624.121203,-4885.359217,76.609550
1433.293720,9474.636058,-5847.626942,1532.190996
1433.294049,10288.862594,-5699.585753,1608.800546
1433.294378,9548.656652,-5921.647536,2451.505594
1433.294707,8660.409521,-7846.182985,2298.286494
1433.295036,7328.038826,-8512.368333,1532.190996
1433.295365,5477.523971,-8364.327145,842.705048
1433.295694,4441.235652,-9104.533087,229.828649
1433.296023,4737.318029,-8660.409521,1608.800546
1433.296352,5477.523971,-6661.853478,689.485948
1433.296682,5995.668130,-5033.400406,153.219100
1433.297011,6587.832884,-4367.215058,1302.362347
1433.297340,7550.100608,-4737.318029,689.485948
1433.297669,7476.080014,-4737.318029,229.828649
1433.297998,7105.977043,-4515.256246,383.047749
1433.298327,7772.162391,-5329.482782,612.876398
1433.298656,9104.533087,-5699.585753,1915.238745
1433.298985,9474.636058,-6661.853478,2221.676944
1433.299314,9030.512492,-6587.832884,2451.505594
1433.299643,8364.327145,-6735.874072,1915.238745
1433.299972,7105.977043,-9104.533087,2145.067394
1433.300302,6439.791695,-9178.553681,2145.067394
1433.300631,5255.462188,-8660.409521,1149.143247
1433.300960,4441.235652,-7476.080014,306.438199
1433.301289,3997.112087,-7476.080014,153.219100
1433.301618,4811.338623,-5699.585753,689.485948
1433.301947,6587.832884,-4885.359217,0.000000
1433.302276,6217.729913,-6587.832884,536.266849
1433.302605,5699.585753,-5921.647536,76.609550
1433.302934,6143.709319,-5551.544565,-612.876398
1433.303263,7328.038826,-5995.668130,766.095498
1433.303593,9030.512492,-6069.688724,2068.457845
1433.303922,10214.842000,-7105.977043,2451.505594
1433.304251,9400.615463,-6883.915261,2604.724693
1433.304580,7846.182985,-7920.203579,2757.943793
1433.304909,6587.832884,-8660.409521,1455.581446
1433.305238,5181.441594,-7772.162391,536.266849
1433.305567,4071.132681,-8290.306550,306.438199
1433.305896,5107.421000,-8734.430116,842.705048
1433.306225,6883.915261,-7624.121203,1838.629195
1433.306554,6513.812290,-5181.441594,919.314598
1433.306883,6217.729913,-4441.235652,153.219100
1433.307213,5847.626942,-4367.215058,-229.828649
1433.307542,6217.729913,-4737.318029,-459.657299
1433.307871,7031.956449,-4959.379811,919.314598
1433.308200,9178.553681,-5033.400406,2374.896044
1433.308529,10214.842000,-5403.503377,2451.505594
1433.308858,9474.636058,-5107.421000,2834.553343
1433.309187,8882.471304,-5329.482782,2451.505594
1433.309516,8216.285956,-7550.100608,2221.676944
1433.309845,6439.791695,-8438.347739,1762.019645
1433.310174,4885.359217,-8216.285956,1149.143247
1433.310503,4885.359217,-7920.203579,383.047749
1433.310833,5847.626942,-8438.347739,842.705048
1433.311162,5847.626942,-8586.388927,1072.533697
1433.311491,6291.750507,-6883.915261,766.095498
1433.311820,5921.647536,-5403.503377,0.000000
1433.312149,5255.462188,-5847.626942,-383.047749
1433.312478,5181.441594,-5477.523971,-612.876398
1433.312807,6439.791695,-5255.462188,153.219100
1433.313136,8808.450710,-5403.503377,995.924147
1433.313465,10066.800811,-4959.379811,2757.943793
1433.313794,10362.883188,-4811.338623,2911.162892
1433.314124,9992.780217,-5033.400406,2451.505594
1433.314453,7698.141797,-7624.121203,2221.676944
1433.314782,6365.771101,-8956.491898,1378.971896
1433.315111,5773.606348,-8956.491898,766.095498
1433.315440,5477.523971,-9474.636058,1762.019645
1433.315769,5847.626942,-8956.491898,1225.752797
1433.316098,5847.626942,-8290.306550,1225.752797
1433.316427,5107.421000,-5107.421000,0.000000
1433.316756,4589.276840,-5403.503377,-1225.752797
1433.317085,4663.297435,-7105.977043,0.000000
1433.317414,5255.462188,-7031.956449,0.000000
1433.317744,6439.791695,-4589.276840,-383.047749
1433.318073,7105.977043,-4219.173869,1072.533697
1433.318402,9622.677246,-4367.215058,1302.362347
1433.318731,11399.171507,-4737.318029,2374.896044
1433.319060,11769.274478,-6513.812290,3753.867940
1433.319389,11029.068536,-6809.894666,2911.162892
1433.319718,8290.306550,-7105.977043,2911.162892
1433.320047,5477.523971,-8734.430116,1455.581446
1433.320376,4737.318029,-8216.285956,919.314598
1433.320705,6217.729913,-8364.327145,459.657299
1433.321034,6809.894666,-7476.080014,1455.581446
1433.321364,6143.709319,-4811.338623,612.876398
1433.321693,6661.853478,-4959.379811,0.000000
1433.322022,5625.565159,-3849.070898,-536.266849
1433.322351,4737.318029,-5255.462188,-842.705048
1433.322680,5477.523971,-4515.256246,-229.828649
1433.323009,7772.162391,-3034.844362,-153.219100
1433.323338,8956.491898,-6439.791695,1762.019645
1433.323667,10881.027347,-6513.812290,3677.258390
1433.323996,11103.089130,-7846.182985,4060.306139
1433.324325,8808.450710,-7254.018232,2528.115143
1433.324654,5773.606348,-8512.368333,1455.581446
1433.324984,5033.400406,-8586.388927,612.876398
1433.325313,4737.318029,-8808.450710,0.000000
1433.325642,5107.421000,-8808.450710,766.095498
1433.325971,5847.626942,-8586.388927,1532.190996
1433.326300,6143.709319,-7550.100608,536.266849
1433.326629,4737.318029,-5033.400406,-919.314598
1433.326958,3701.029710,-5995.668130,-1532.190996
1433.327287,5181.441594,-4589.276840,-1608.800546
1433.327616,6735.874072,-4885.359217,0.000000
1433.327945,9474.636058,-6291.750507,1378.971896
1433.328275,11103.089130,-4959.379811,3677.258390
1433.328604,11029.068536,-5255.462188,3140.991542
1433.328933,9104.533087,-6217.729913,2451.505594
1433.329262,6217.729913,-6809.894666,2298.286494
1433.329591,5477.523971,-8586.388927,995.924147
1433.329920,5625.565159,-8586.388927,689.485948
1433.330249,5255.462188,-9770.718434,2298.286494
1433.330578,6217.729913,-8438.347739,1838.629195
1433.330907,6513.812290,-8956.491898,1149.143247
1433.331236,5551.544565,-6439.791695,842.705048
1433.331565,4367.215058,-4959.379811,-1225.752797
1433.331895,3701.029710,-6143.709319,-1762.019645
1433.332224,4219.173869,-5921.647536,-1532.190996
1433.332553,6143.709319,-6957.935855,-459.657299
1433.332882,9548.656652,-5625.565159,1762.019645
1433.333211,11547.212695,-4071.132681,2987.772442
1433.333540,11399.171507,-4071.132681,3447.429741
1433.333869,9918.759623,-5181.441594,2757.943793
1433.334198,8216.285956,-6069.688724,1915.238745
1433.334527,6735.874072,-6587.832884,1532.190996
1433.334856,6735.874072,-7328.038826,1149.143247
1433.335185,6439.791695,-8586.388927,1532.190996
1433.335515,6809.894666,-8956.491898,1838.629195
1433.335844,8142.265362,-6587.832884,1532.190996
1433.336173,7624.121203,-6143.709319,1762.019645
1433.336502,5625.565159,-4737.318029,0.000000
1433.336831,4145.153275,-5921.647536,-766.095498
1433.337160,3552.988522,-6809.894666,-1378.971896
1433.337489,3923.091493,-6957.935855,-383.047749
1433.337818,5995.668130,-6661.853478,536.266849
1433.338147,8216.285956,-4589.276840,689.485948
1433.338476,10584.944971,-3404.947333,2757.943793
1433.338806,11843.295072,-4367.215058,3294.210641
1433.339135,11029.068536,-6439.791695,3907.087040
1433.339464,9030.512492,-6735.874072,3140.991542
1433.339793,6291.750507,-8142.265362,1608.800546
1433.340122,5551.544565,-6883.915261,383.047749
1433.340451,5181.441594,-7550.100608,842.705048
1433.340780,7105.977043,-8586.388927,1608.800546
1433.341109,7772.162391,-7328.038826,1455.581446
1433.341438,5847.626942,-6069.688724,459.657299
1433.341767,4145.153275,-6439.791695,-995.924147
1433.342096,3775.050304,-5773.606348,-1072.533697
1433.342426,3775.050304,-6513.812290,-2068.457845
1433.342755,5033.400406,-6513.812290,-383.047749
1433.343084,6883.915261,-6217.729913,1455.581446
1433.343413,8734.430116,-6217.729913,1762.019645
1433.343742,9770.718434,-5329.482782,3447.429741
1433.344071,10214.842000,-6809.894666,3064.381992
1433.344400,9696.697840,-7550.100608,2298.286494
1433.344729,7550.100608,-7550.100608,1915.238745
1433.345058,6513.812290,-7402.059420,1225.752797
1433.345387,7179.997637,-6883.915261,766.095498
1433.345716,7698.141797,-6439.791695,2451.505594
1433.346046,7550.100608,-6365.771101,1455.581446
1433.346375,5847.626942,-5403.503377,306.438199
1433.346704,3923.091493,-6809.894666,-383.047749
1433.347033,3478.967927,-7179.997637,-1455.581446
1433.347362,4367.215058,-6217.729913,-1302.362347
1433.347691,5107.421000,-6069.688724,-536.266849
1433.348020,7254.018232,-6217.729913,306.438199
1433.348349,9030.512492,-5995.668130,1762.019645
1433.348678,9918.759623,-5995.668130,2604.724693
1433.349007,10510.924376,-6735.874072,2834.553343
1433.349337,10288.862594,-7476.080014,2834.553343
1433.349666,9326.594869,-5921.647536,2298.286494
1433.349995,7402.059420,-7179.997637,995.924147
1433.350324,7550.100608,-5921.647536,1455.581446
1433.350653,7698.141797,-4811.338623,1149.143247
1433.350982,7254.018232,-5625.565159,1225.752797
1433.351311,5921.647536,-4737.318029,0.000000
1433.351640,4367.215058,-8216.285956,-766.095498
1433.351969,2664.741391,-8586.388927,-689.485948
1433.352298,2516.700203,-8808.450710,-766.095498
1433.352627,4737.318029,-7846.182985,-766.095498
1433.352957,6735.874072,-6513.812290,766.095498
1433.353286,8142.265362,-6587.832884,1378.971896
1433.353615,9696.697840,-6809.894666,2374.896044
1433.353944,10288.862594,-6439.791695,2528.115143
1433.354273,9326.594869,-7624.121203,2221.676944
1433.354602,7772.162391,-6291.750507,2145.067394
1433.354931,6661.853478,-6735.874072,1225.752797
1433.355260,6587.832884,-7105.977043,689.485948
1433.355589,5995.668130,-6365.771101,995.924147
1433.355918,6957.935855,-6069.688724,1149.143247
1433.356247,6883.915261,-5107.421000,306.438199
1433.356577,5255.462188,-6735.874072,-383.047749
1433.356906,4071.132681,-7402.059420,-536.266849
1433.357235,3997.112087,-7031.956449,-1225.752797
1433.357564,5255.462188,-7328.038826,-76.609550
1433.357893,7772.162391,-6883.915261,1302.362347
1433.358222,9474.636058,-5625.565159,2221.676944
1433.358551,10584.944971,-4515.256246,2528.115143
1433.358880,9770.718434,-6069.688724,3677.258390
1433.359209,8882.471304,-6217.729913,2834.553343
1433.359538,7698.141797,-4737.318029,1838.629195
1433.359868,6661.853478,-5847.626942,1225.752797
1433.360197,6735.874072,-6883.915261,1608.800546
1433.360526,7698.141797,-5847.626942,2068.457845
1433.360855,7254.018232,-6291.750507,1302.362347
1433.361184,6069.688724,-5255.462188,76.609550
1433.361513,4663.297435,-6957.935855,0.000000
1433.361842,4589.276840,-8068.244768,-536.266849
1433.362171,4589.276840,-7550.100608,-842.705048
1433.362500,4737.318029,-7328.038826,0.000000
1433.362829,6217.729913,-7105.977043,-229.828649
1433.363158,8068.244768,-6143.709319,995.924147
1433.363488,9770.718434,-6513.812290,3064.381992
1433.363817,10288.862594,-7254.018232,2834.553343
1433.364146,9178.553681,-6069.688724,2221.676944
1433.364475,6957.935855,-6069.688724,995.924147
1433.364804,5773.606348,-6587.832884,612.876398
1433.365133,6809.894666,-7550.100608,2145.067394
1433.365462,8142.265362,-6809.894666,2068.457845
1433.365791,7698.141797,-5921.647536,1378.971896
1433.366120,6513.812290,-5107.421000,76.609550
1433.366449,5181.441594,-7920.203579,0.000000
1433.366778,4441.235652,-7994.224174,306.438199
1433.367108,4663.297435,-7624.121203,-229.828649
1433.367437,5107.421000,-7846.182985,-689.485948
1433.367766,5995.668130,-6217.729913,919.314598
1433.368095,7105.977043,-6587.832884,1072.533697
1433.368424,7920.203579,-6587.832884,1378.971896
1433.368753,7550.100608,-6143.709319,1915.238745
1433.369082,8882.471304,-7031.956449,2681.334243
1433.369411,8512.368333,-5625.565159,2145.067394
1433.369740,7254.018232,-5921.647536,2451.505594
1433.370069,7031.956449,-5921.647536,1838.629195
1433.370399,8438.347739,-4811.338623,1225.752797
1433.370728,7994.224174,-5255.462188,1378.971896
1433.371057,7328.038826,-4219.173869,536.266849
1433.371386,6217.729913,-7550.100608,1685.410096
1433.371715,4959.379811,-7550.100608,383.047749
1433.372044,4219.173869,-7476.080014,-306.438199
1433.372373,5033.400406,-6069.688724,0.000000
1433.372702,7402.059420,-5699.585753,766.095498
1433.373031,8364.327145,-6069.688724,1455.581446
1433.373360,8808.450710,-6143.709319,2068.457845
1433.373689,8142.265362,-7031.956449,2221.676944
1433.374019,8068.244768,-6291.750507,1685.410096
1433.374348,6735.874072,-7031.956449,1149.143247
1433.374677,5995.668130,-8660.409521,766.095498
1433.375006,6143.709319,-7994.224174,1762.019645
1433.375335,7031.956449,-7179.997637,1608.800546
1433.375664,8216.285956,-6143.709319,383.047749
1433.375993,7031.956449,-4737.318029,842.705048
1433.376322,5403.503377,-7105.977043,-229.828649
1433.376651,4589.276840,-7698.141797,-919.314598
1433.376980,3775.050304,-7179.997637,-229.828649
1433.377309,5255.462188,-7402.059420,229.828649
1433.377639,7105.977043,-6735.874072,459.657299
1433.377968,8142.265362,-5699.585753,1225.752797
1433.378297,9326.594869,-6217.729913,1762.019645
1433.378626,9548.656652,-6439.791695,2068.457845
1433.378955,8660.409521,-6735.874072,2145.067394
1433.379284,7402.059420,-5995.668130,919.314598
1433.379613,6661.853478,-6143.709319,383.047749
1433.379942,6365.771101,-7698.141797,919.314598
1433.380271,7105.977043,-7402.059420,1302.362347
1433.380600,7772.162391,-5699.585753,2068.457845
1433.380930,7179.997637,-4959.379811,536.266849
1433.381259,5995.668130,-5625.565159,0.000000
1433.381588,4959.379811,-6439.791695,-842.705048
1433.381917,4737.318029,-6217.729913,-995.924147
1433.382246,5995.668130,-6809.894666,153.219100
1433.382575,8142.265362,-6069.688724,1762.019645
1433.382904,9474.636058,-5403.503377,1838.629195
1433.383233,10214.842000,-5699.585753,2834.553343
1433.383566,9400.615463,-7476.080014,2681.334243
1433.383895,8142.265362,-7846.182985,1608.800546
1433.384224,6217.729913,-7105.977043,689.485948
1433.384553,5181.441594,-7402.059420,306.438199
1433.384882,6587.832884,-7624.121203,1072.533697
1433.385211,7105.977043,-6957.935855,842.705048
1433.385540,7031.956449,-6587.832884,995.924147
1433.385869,6957.935855,-5107.421000,383.047749
1433.386198,7328.038826,-6365.771101,1455.581446
1433.386527,6883.915261,-6809.894666,919.314598
1433.386857,5403.503377,-5699.585753,76.609550
1433.387186,5329.482782,-5181.441594,-612.876398
1433.387515,6883.915261,-5699.585753,76.609550
1433.387844,8808.450710,-5477.523971,1455.581446
1433.388173,10140.821405,-6217.729913,2987.772442
1433.388502,9326.594869,-7920.203579,2757.943793
1433.388831,8142.265362,-6439.791695,2068.457845
1433.389160,5107.421000,-7254.018232,1455.581446
1433.389489,4663.297435,-7994.224174,0.000000
1433.389818,4737.318029,-7994.224174,689.485948
1433.390147,5699.585753,-7402.059420,919.314598
1433.390476,6143.709319,-5551.544565,612.876398
1433.390805,6513.812290,-4959.379811,306.438199
1433.391134,6143.709319,-6735.874072,689.485948
1433.391463,5625.565159,-7402.059420,459.657299
1433.391792,5625.565159,-6661.853478,229.828649
1433.392121,6957.935855,-5625.565159,229.828649
1433.392450,8734.430116,-5329.482782,1072.533697
1433.392779,8808.450710,-5551.544565,1685.410096
1433.393108,9400.615463,-6069.688724,1685.410096
1433.393437,9326.594869,-7328.038826,2374.896044
1433.393766,8586.388927,-7031.956449,2068.457845
1433.394095,7031.956449,-7476.080014,1915.238745
1433.394424,5773.606348,-7698.141797,1915.238745
1433.394753,5551.544565,-7846.182985,842.705048
1433.395082,5329.482782,-6439.791695,383.047749
1433.395411,5403.503377,-5551.544565,0.000000
1433.395740,6069.688724,-5329.482782,842.705048
1433.396069,6143.709319,-5625.565159,459.657299
1433.396398,5921.647536,-5477.523971,306.438199
1433.396727,6069.688724,-5625.565159,1072.533697
1433.397056,7624.121203,-6217.729913,1455.581446
1433.397385,9474.636058,-4589.276840,1915.238745
1433.397714,10066.800811,-4367.215058,2068.457845
1433.398043,10584.944971,-5255.462188,2757.943793
1433.398373,9770.718434,-6217.729913,2451.505594
1433.398702,6661.853478,-8956.491898,1225.752797
1433.399031,4589.276840,-8808.450710,383.047749
1433.399360,3997.112087,-9326.594869,-153.219100
1433.399689,4589.276840,-10436.903782,612.876398
1433.400018,4367.215058,-8586.388927,1302.362347
1433.400347,5773.606348,-7105.977043,306.438199
1433.400676,6291.750507,-5773.606348,153.219100
1433.401005,5625.565159,-5033.400406,0.000000
1433.401334,5551.544565,-6587.832884,76.609550
1433.401663,6217.729913,-6439.791695,919.314598
1433.401992,7476.080014,-7105.977043,1225.752797
1433.402321,7772.162391,-6365.771101,1072.533697
1433.402650,8364.327145,-5847.626942,1685.410096
1433.402979,9178.553681,-7550.100608,2451.505594
1433.403308,9104.533087,-7772.162391,2528.115143
1433.403637,7105.977043,-8660.409521,1991.848295
1433.403966,4959.379811,-8660.409521,459.657299
1433.404295,3552.988522,-9030.512492,536.266849
1433.404624,3330.926739,-9400.615463,306.438199
1433.404953,3775.050304,-9252.574275,229.828649
1433.405282,5181.441594,-6661.853478,536.266849
1433.405611,5921.647536,-5699.585753,536.266849
1433.405940,5995.668130,-6217.729913,1149.143247
1433.406269,6439.791695,-5699.585753,1072.533697
1433.406598,6883.915261,-4515.256246,229.828649
1433.406927,8216.285956,-3701.029710,612.876398
1433.407256,9696.697840,-4293.194464,2221.676944
1433.407585,11029.068536,-5255.462188,2987.772442
1433.407914,10214.842000,-5773.606348,2911.162892
1433.408243,7772.162391,-6957.935855,2221.676944
1433.408572,5921.647536,-8956.491898,1302.362347
1433.408901,3627.009116,-10955.047942,689.485948
1433.409230,2072.576638,-11843.295072,-306.438199
1433.409559,1850.514855,-11843.295072,-536.266849
1433.409889,3108.864956,-11621.233289,383.047749
1433.410218,3552.988522,-9992.780217,0.000000
1433.410547,3256.906145,-8512.368333,-229.828649
1433.410876,3775.050304,-9030.512492,1149.143247
1433.411205,4737.318029,-7698.141797,842.705048
1433.411534,4737.318029,-5329.482782,1915.238745
1433.411863,6809.894666,-4811.338623,2604.724693
1433.412192,9326.594869,-4441.235652,2221.676944
1433.412521,9178.553681,-5403.503377,3140.991542
1433.412850,7550.100608,-6291.750507,2068.457845
1433.413179,6291.750507,-6291.750507,459.657299
1433.413508,4737.318029,-9992.780217,1608.800546
1433.413837,3330.926739,-13101.645173,1225.752797
1433.414166,1850.514855,-13767.830521,-459.657299
1433.414495,1702.473667,-12953.603985,-612.876398
1433.414824,2294.638420,-12583.501014,306.438199
1433.415153,3775.050304,-11251.130318,1762.019645
1433.415482,4959.379811,-7624.121203,1608.800546
1433.415811,4515.256246,-4737.318029,-229.828649
1433.416140,4293.194464,-5699.585753,536.266849
1433.416469,5625.565159,-6439.791695,919.314598
1433.416798,5921.647536,-7920.203579,1915.238745
1433.417127,6217.729913,-6587.832884,1225.752797
1433.417456,5995.668130,-6291.750507,1149.143247
1433.417785,5181.441594,-9844.739029,2221.676944
1433.418114,5181.441594,-11473.192101,1991.848295
1433.418443,4367.215058,-10214.842000,1378.971896
1433.418772,4145.153275,-11177.109724,689.485948
1433.419101,3997.112087,-12657.521608,1838.629195
1433.419430,3849.070898,-12509.480420,2068.457845
1433.419759,3330.926739,-11695.253884,1608.800546
1433.420088,2960.823768,-7920.203579,229.828649
1433.420417,3034.844362,-6513.812290,153.219100
1433.420746,3775.050304,-6883.915261,1072.533697
1433.421076,4515.256246,-7105.977043,2298.286494
1433.421405,4959.379811,-5329.482782,689.485948
1433.421734,6217.729913,-4811.338623,-306.438199
1433.422063,6587.832884,-6291.750507,612.876398
1433.422392,7402.059420,-8956.491898,1608.800546
1433.422721,7920.203579,-10288.862594,2834.553343
1433.423050,6809.894666,-8142.265362,766.095498
1433.423379,5329.482782,-8438.347739,-229.828649
1433.423708,5921.647536,-9918.759623,1378.971896
1433.424037,7772.162391,-11843.295072,2298.286494
1433.424366,7550.100608,-9548.656652,2145.067394
1433.424695,5329.482782,-6661.853478,383.047749
1433.425024,4515.256246,-6513.812290,-459.657299
1433.425353,3849.070898,-7624.121203,-153.219100
1433.425682,3182.885551,-10584.944971,383.047749
1433.426011,2368.659014,-10214.842000,0.000000
1433.426340,2294.638420,-8586.388927,-995.924147
1433.426669,2590.720797,-8142.265362,-536.266849
1433.426998,4663.297435,-9252.574275,919.314598
1433.427327,7105.977043,-8882.471304,2221.676944
1433.427656,7624.121203,-8290.306550,2451.505594
1433.427985,6365.771101,-7772.162391,2451.505594
1433.428314,6217.729913,-7179.997637,1991.848295
1433.428643,7772.162391,-6439.791695,2528.115143
1433.428972,8216.285956,-6365.771101,2068.457845
1433.429301,7105.977043,-5847.626942,2451.505594
1433.429630,6143.709319,-7402.059420,2757.943793
1433.429959,5477.523971,-7624.121203,2451.505594
1433.430288,4367.215058,-6439.791695,689.485948
1433.430617,2664.741391,-7105.977043,-1225.752797
1433.430946,2294.638420,-10436.903782,-1302.362347
1433.431275,2072.576638,-13027.624579,153.219100
1433.431604,3182.885551,-13545.768739,842.705048
1433.431933,3849.070898,-11177.109724,1149.143247
1433.432262,4663.297435,-9400.615463,766.095498
1433.432592,3997.112087,-10584.944971,919.314598
1433.432921,3701.029710,-11547.212695,2145.067394
1433.433250,4737.318029,-9770.718434,1532.190996
1433.433579,5625.565159,-7402.059420,1532.190996
1433.433908,6513.812290,-6069.688724,2451.505594
1433.434237,7328.038826,-7254.018232,2911.162892
1433.434566,6291.750507,-8068.244768,3370.820191
1433.434895,4293.194464,-9326.594869,1762.019645
1433.435224,2220.617826,-9030.512492,383.047749
1433.435553,1554.432478,-8882.471304,-689.485948
1433.435882,2146.597232,-10955.047942,76.609550
1433.436211,3923.091493,-10732.986159,766.095498
1433.436540,4441.235652,-10658.965565,1608.800546
1433.436869,4737.318029,-8956.491898,1455.581446
1433.437198,5477.523971,-8068.244768,1608.800546
1433.437527,6217.729913,-6587.832884,1685.410096
1433.437856,5921.647536,-5921.647536,842.705048
1433.438185,5625.565159,-6883.915261,536.266849
1433.438514,5773.606348,-7328.038826,1149.143247
1433.438843,6217.729913,-8438.347739,1685.410096
1433.439172,6883.915261,-9474.636058,2911.162892
1433.439501,5181.441594,-8660.409521,1532.190996
1433.439830,3256.906145,-10510.924376,0.000000
1433.440159,2072.576638,-12065.356855,-612.876398
1433.440488,2368.659014,-12361.439231,-1455.581446
1433.440817,3256.906145,-11917.315666,0.000000
1433.441146,4367.215058,-9400.615463,229.828649
1433.441475,4663.297435,-8216.285956,1149.143247
1433.441804,4737.318029,-7328.038826,1838.629195
1433.442133,5995.668130,-6439.791695,2451.505594
1433.442462,7254.018232,-4885.359217,2834.553343
1433.442791,8216.285956,-2960.823768,2145.067394
1433.443120,7994.224174,-2516.700203,1762.019645
1433.443449,7994.224174,-3775.050304,766.095498
1433.443779,7772.162391,-6365.771101,1838.629195
1433.444108,6439.791695,-7846.182985,1072.533697
1433.444437,6069.688724,-9252.574275,689.485948
1433.444766,6365.771101,-10362.883188,1532.190996
1433.445095,6809.894666,-10658.965565,842.705048
1433.445424,4737.318029,-11103.089130,842.705048
1433.445753,3478.967927,-10955.047942,383.047749
1433.446082,3108.864956,-10436.903782,-536.266849
1433.446411,1554.432478,-11251.130318,-1378.971896
1433.446740,518.144159,-11621.233289,-766.095498
1433.447069,1258.350101,-12435.459826,-229.828649
1433.447398,2812.782580,-11251.130318,-536.266849
1433.447727,4071.132681,-9030.512492,153.219100
1433.448056,6143.709319,-7328.038826,76.609550
1433.448385,7402.059420,-5033.400406,0.000000
1433.448714,7179.997637,-6661.853478,2604.724693
1433.449043,7476.080014,-7254.018232,2298.286494
1433.449372,7179.997637,-8068.244768,3370.820191
1433.449701,8290.306550,-5995.668130,3294.210641
1433.450030,8216.285956,-7031.956449,2987.772442
1433.450359,7031.956449,-7031.956449,3447.429741
1433.450688,5033.400406,-7698.141797,2451.505594
1433.451017,3701.029710,-7698.141797,153.219100
1433.451346,1480.411884,-8068.244768,0.000000
1433.451675,962.267725,-10955.047942,306.438199
1433.452004,1480.411884,-11695.253884,-842.705048
1433.452333,1998.556043,-10362.883188,0.000000
1433.452662,2812.782580,-9696.697840,-459.657299
1433.452991,4589.276840,-8438.347739,229.828649
1433.453320,5551.544565,-7846.182985,383.047749
1433.453649,6365.771101,-9844.739029,1608.800546
1433.453978,6291.750507,-10436.903782,2145.067394
1433.454307,6291.750507,-10066.800811,2298.286494
1433.454636,4959.379811,-9918.759623,2604.724693
1433.454965,4737.318029,-8660.409521,2528.115143
1433.455295,4811.338623,-9252.574275,3217.601092
1433.455624,4737.318029,-7328.038826,3217.601092
1433.455953,4885.359217,-6883.915261,2987.772442
1433.456282,5033.400406,-6809.894666,2451.505594
1433.456611,4811.338623,-7105.977043,1991.848295
1433.456940,4811.338623,-7550.100608,1762.019645
1433.457269,4811.338623,-7550.100608,1149.143247
1433.457598,4071.132681,-8216.285956,1378.971896
1433.457927,4589.276840,-9252.574275,1532.190996
1433.458256,5255.462188,-9548.656652,1991.848295
1433.458585,5403.503377,-10140.821405,2374.896044
1433.458914,4959.379811,-9918.759623,1915.238745
1433.459243,4959.379811,-9474.636058,2221.676944
1433.459572,6143.709319,-8660.409521,2911.162892
1433.459901,7179.997637,-7179.997637,3907.087040
1433.460230,7550.100608,-5699.585753,4519.963438
1433.460559,7698.141797,-4811.338623,4519.963438
1433.460888,7698.141797,-5181.441594,3370.820191
1433.461217,7402.059420,-5107.421000,2987.772442
1433.461546,6883.915261,-5033.400406,2068.457845
1433.461875,6883.915261,-5699.585753,2911.162892
1433.462204,6809.894666,-6513.812290,2221.676944
1433.462533,6439.791695,-7698.141797,3064.381992
1433.462862,6513.812290,-8216.285956,3907.087040
1433.463191,6513.812290,-8068.244768,4290.134789
1433.463520,5773.606348,-7105.977043,3830.477490
1433.463849,5551.544565,-7179.997637,3370.820191
1433.464178,6513.812290,-6365.771101,4060.306139
1433.464507,7846.182985,-5847.626942,4749.792088
1433.464836,8882.471304,-4811.338623,4596.572988
1433.465165,9030.512492,-3923.091493,4979.620737
1433.465494,8882.471304,-4515.256246,4519.963438
1433.465823,8142.265362,-5107.421000,4596.572988
1433.466152,7179.997637,-5921.647536,3830.477490
1433.466481,6735.874072,-6217.729913,2604.724693
1433.466811,7105.977043,-7105.977043,3140.991542
1433.467140,6735.874072,-8142.265362,3447.429741
1433.467469,5255.462188,-9548.656652,3983.696590
1433.467798,5033.400406,-10140.821405,3370.820191
1433.468127,3552.988522,-10510.924376,3217.601092
1433.468456,3108.864956,-10140.821405,3064.381992
1433.468785,3108.864956,-9770.718434,3830.477490
1433.469114,4219.173869,-8808.450710,4136.915689
1433.469443,5847.626942,-7476.080014,4290.134789
1433.469772,7031.956449,-6217.729913,5132.839837
1433.470101,8438.347739,-5699.585753,5975.544884
1433.470430,9030.512492,-5033.400406,6052.154434
1433.470759,9030.512492,-3849.070898,5898.935335
1433.471088,8438.347739,-3552.988522,4903.011187
1433.471417,8438.347739,-3182.885551,4749.792088
1433.471746,8808.450710,-3330.926739,5209.449386
1433.472075,8734.430116,-4663.297435,4673.182538
1433.472404,7920.203579,-5107.421000,5669.106685
1433.472733,7476.080014,-6365.771101,4596.572988
1433.473062,6069.688724,-8734.430116,3983.696590
1433.473391,4959.379811,-9178.553681,3907.087040
1433.473720,4441.235652,-10436.903782,3677.258390
1433.474049,4219.173869,-9622.677246,3830.477490
1433.474378,4071.132681,-9400.615463,3677.258390
1433.474707,3849.070898,-9400.615463,3370.820191
1433.475036,4885.359217,-8290.306550,4290.134789
1433.475365,6883.915261,-5921.647536,3830.477490
1433.475694,8438.347739,-5107.421000,4979.620737
1433.476023,8882.471304,-3478.967927,5439.278036
1433.476352,9252.574275,-2368.659014,5439.278036
1433.476681,9770.718434,-1998.556043,4979.620737
1433.477010,9178.553681,-2072.576638,4903.011187
1433.477339,8142.265362,-4367.215058,4596.572988
1433.477668,7920.203579,-6217.729913,3907.087040
1433.477998,7550.100608,-7772.162391,3907.087040
1433.478327,6365.771101,-8068.244768,3524.039291
1433.478656,6217.729913,-9474.636058,2528.115143
1433.478985,5255.462188,-9474.636058,3370.820191
1433.479314,5847.626942,-9844.739029,3294.210641
1433.479643,6143.709319,-8660.409521,3753.867940
1433.479972,7031.956449,-5995.668130,4596.572988
1433.480301,7920.203579,-4959.379811,3753.867940
1433.480630,8216.285956,-4663.297435,3677.258390
1433.480959,8068.244768,-5329.482782,3217.601092
1433.481288,7550.100608,-5107.421000,2834.553343
1433.481617,6587.832884,-5329.482782,2757.943793
1433.481946,6291.750507,-6439.791695,2757.943793
1433.482275,6439.791695,-7328.038826,3677.258390
1433.482604,6809.894666,-7698.141797,4136.915689
1433.482933,7550.100608,-7476.080014,4826.401637
1433.483262,7624.121203,-6735.874072,5132.839837
1433.483591,7402.059420,-6809.894666,4519.963438
1433.483920,7328.038826,-6365.771101,3907.087040
1433.484249,7105.977043,-5625.565159,3830.477490
1433.484578,6883.915261,-5329.482782,3677.258390
1433.484907,6883.915261,-5033.400406,3140.991542
1433.485236,7179.997637,-3849.070898,2987.772442
1433.485565,7624.121203,-4145.153275,3447.429741
1433.485894,7994.224174,-5107.421000,4290.134789
1433.486223,7179.997637,-6217.729913,3294.210641
1433.486552,6143.709319,-9104.533087,3294.210641
1433.486881,5255.462188,-10658.965565,2987.772442
1433.487210,4811.338623,-10584.944971,3140.991542
1433.487539,4071.132681,-9918.759623,2757.943793
1433.487868,4293.194464,-8586.388927,3064.381992
1433.488198,5403.503377,-7698.141797,2911.162892
1433.488527,6587.832884,-5921.647536,3064.381992
1433.488856,7105.977043,-5255.462188,4443.353888
1433.489185,8438.347739,-4737.318029,5515.887586
1433.489514,9252.574275,-3923.091493,5439.278036
1433.489843,9030.512492,-3849.070898,5669.106685
1433.490172,9844.739029,-2220.617826,5056.230287
1433.490501,10288.862594,-3108.864956,4596.572988
1433.490830,8882.471304,-4293.194464,3677.258390
1433.491159,7698.141797,-6217.729913,3370.820191
1433.491488,6365.771101,-8290.306550,2604.724693
1433.491817,5255.462188,-9326.594869,2604.724693
1433.492146,4293.194464,-12065.356855,3370.820191
1433.492475,3997.112087,-12435.459826,4136.915689
1433.492804,4441.235652,-10658.965565,4366.744339
1433.493133,4811.338623,-8068.244768,3524.039291
1433.493462,5329.482782,-4959.379811,3677.258390
1433.493791,7179.997637,-3923.091493,4519.963438
1433.494120,9400.615463,-3552.988522,4826.401637
1433.494449,9548.656652,-2220.617826,5209.449386
1433.494778,9770.718434,-1332.370696,5439.278036
1433.495107,9326.594869,-2590.720797,4979.620737
1433.495436,7772.162391,-5403.503377,5056.230287
1433.495765,6883.915261,-8216.285956,5056.230287
1433.496095,7328.038826,-9252.574275,4290.134789
1433.496424,7772.162391,-8512.368333,4060.306139
1433.496753,6365.771101,-9622.677246,4213.525239
1433.497082,5255.462188,-8734.430116,3294.210641
1433.497411,4737.318029,-7402.059420,3140.991542
1433.497740,4811.338623,-7105.977043,3064.381992
1433.498069,5329.482782,-6143.709319,4290.134789
1433.498398,7179.997637,-5033.400406,5209.449386
1433.498727,8660.409521,-5403.503377,5132.839837
1433.499056,7846.182985,-5033.400406,5515.887586
1433.499385,7402.059420,-5107.421000,4979.620737
1433.499714,7846.182985,-5699.585753,4826.401637
1433.500043,7920.203579,-4811.338623,4979.620737
1433.500372,7402.059420,-5033.400406,3983.696590
1433.500701,6883.915261,-5921.647536,3140.991542
1433.501030,6513.812290,-8808.450710,4213.525239
1433.501359,6661.853478,-10584.944971,4749.792088
1433.501688,6883.915261,-9030.512492,4749.792088
1433.502017,6291.750507,-8068.244768,4136.915689
1433.502346,4959.379811,-7772.162391,3217.601092
1433.502675,4589.276840,-8290.306550,3140.991542
1433.503004,5477.523971,-7328.038826,4366.744339
1433.503333,7328.038826,-4441.235652,4136.915689
1433.503663,7550.100608,-2368.659014,4060.306139
1433.503992,7550.100608,-2738.761985,3294.210641
1433.504321,8290.306550,-5699.585753,4213.525239
1433.504650,8882.471304,-6217.729913,5132.839837
1433.504979,9104.533087,-6587.832884,5362.668486
1433.505308,8512.368333,-6661.853478,4979.620737
1433.505637,6513.812290,-7031.956449,3983.696590
1433.505966,5477.523971,-9918.759623,3140.991542
1433.506295,5403.503377,-8808.450710,4213.525239
1433.506624,6217.729913,-6291.750507,4366.744339
1433.506953,7254.018232,-6069.688724,3370.820191
1433.507282,6809.894666,-6291.750507,3677.258390
1433.507611,5847.626942,-5107.421000,3217.601092
1433.507940,5551.544565,-4515.256246,1915.238745
1433.508269,4959.379811,-5995.668130,1991.848295
1433.508598,6365.771101,-6587.832884,3064.381992
1433.508927,8808.450710,-6291.750507,2911.162892
1433.509256,9178.553681,-5329.482782,3907.087040
1433.509585,7846.182985,-5699.585753,3064.381992
1433.509914,7105.977043,-8068.244768,1915.238745
1433.510243,6957.935855,-7698.141797,2374.896044
1433.510572,6735.874072,-6809.894666,1915.238745
1433.510901,6513.812290,-8290.306550,2681.334243
1433.511230,6291.750507,-9326.594869,2911.162892
1433.511560,6069.688724,-9178.553681,3294.210641
1433.511889,6957.935855,-6217.729913,3370.820191
1433.512218,8586.388927,-3182.885551,3370.820191
1433.512547,8734.430116,-3404.947333,2528.115143
1433.512876,7476.080014,-4737.318029,2604.724693
1433.513205,7550.100608,-5699.585753,2451.505594
1433.513534,7476.080014,-4663.297435,1378.971896
1433.513863,7550.100608,-3923.091493,536.266849
1433.514192,6809.894666,-6883.915261,229.828649
1433.514521,7624.121203,-8734.430116,1762.019645
1433.514850,8068.244768,-7920.203579,1915.238745
1433.515179,7105.977043,-8586.388927,919.314598
1433.515508,6069.688724,-8956.491898,1532.190996
1433.515837,5995.668130,-9474.636058,1532.190996
1433.516166,4959.379811,-9696.697840,1532.190996
1433.516495,4219.173869,-7920.203579,1455.581446
1433.516824,4885.359217,-5255.462188,919.314598
1433.517153,6735.874072,-4885.359217,1149.143247
1433.517482,7328.038826,-5773.606348,3064.381992
1433.517811,8586.388927,-4441.235652,3600.648841
1433.518140,9178.553681,-3034.844362,1915.238745
1433.518469,8438.347739,-2442.679609,1302.362347
1433.518798,7550.100608,-5107.421000,1991.848295
1433.519128,8216.285956,-6587.832884,2221.676944
1433.519457,9030.512492,-5699.585753,1225.752797
1433.519786,7550.100608,-5995.668130,306.438199
1433.520115,5773.606348,-8882.471304,-536.266849
1433.520444,4811.338623,-9770.718434,-842.705048
1433.520773,4589.276840,-9326.594869,-383.047749
1433.521102,4737.318029,-9474.636058,229.828649
1433.521431,5329.482782,-9770.718434,1532.190996
1433.521760,5033.400406,-8660.409521,1685.410096
1433.522089,5625.565159,-5847.626942,1915.238745
1433.522418,8068.244768,-4071.132681,2451.505594
1433.522747,10436.903782,-3997.112087,2987.772442
1433.523076,9548.656652,-3182.885551,2681.334243
1433.523405,8216.285956,-3108.864956,1302.362347
1433.523734,7179.997637,-3182.885551,229.828649
1433.524063,7105.977043,-4663.297435,-459.657299
1433.524392,7846.182985,-7105.977043,689.485948
1433.524721,8068.244768,-7254.018232,1378.971896
1433.525050,7031.956449,-8512.368333,-229.828649
1433.525379,5773.606348,-9030.512492,-383.047749
1433.525708,5403.503377,-10436.903782,0.000000
1433.526037,6291.750507,-10214.842000,689.485948
1433.526366,5847.626942,-9696.697840,459.657299
1433.526695,4959.379811,-8882.471304,1838.629195
1433.527025,6365.771101,-5403.503377,995.924147
1433.527354,7402.059420,-4589.276840,2681.334243
1433.527683,8142.265362,-3997.112087,3600.648841
1433.528012,8586.388927,-3552.988522,2987.772442
1433.528341,8216.285956,-2368.659014,2298.286494
1433.528670,7624.121203,-2960.823768,1225.752797
1433.528999,7994.224174,-4293.194464,1455.581446
1433.529328,9992.780217,-5107.421000,1072.533697
1433.529657,9770.718434,-5773.606348,1225.752797
1433.529986,7476.080014,-7105.977043,0.000000
1433.530315,5181.441594,-8586.388927,-1225.752797
1433.530644,4959.379811,-10510.924376,-842.705048
1433.530973,4441.235652,-12139.377449,-689.485948
1433.531302,3552.988522,-12583.501014,76.609550
1433.531631,3997.112087,-10732.986159,612.876398
1433.531960,5699.585753,-8882.471304,1915.238745
1433.532289,7624.121203,-7105.977043,3370.820191
1433.532618,9326.594869,-4811.338623,3753.867940
1433.532947,9252.574275,-2368.659014,2528.115143
1433.533276,7698.141797,-1184.329507,1915.238745
1433.533605,6957.935855,-1554.432478,306.438199
1433.533934,7698.141797,-2516.700203,0.000000
1433.534263,8660.409521,-2886.803174,612.876398
1433.534592,8808.450710,-4515.256246,1072.533697
1433.534922,8216.285956,-8438.347739,842.705048
1433.535251,7328.038826,-9104.533087,919.314598
1433.535580,5551.544565,-10436.903782,0.000000
1433.535909,4811.338623,-10584.944971,-383.047749
1433.536238,3182.885551,-12065.356855,76.609550
1433.536567,2886.803174,-10584.944971,0.000000
1433.536896,4367.215058,-6069.688724,153.219100
1433.537225,6735.874072,-6439.791695,2298.286494
1433.537554,8956.491898,-3923.091493,2681.334243
1433.537883,8956.491898,-2442.679609,2911.162892
1433.538212,8660.409521,-3404.947333,2681.334243
1433.538541,8808.450710,-2368.659014,1762.019645
1433.538870,9030.512492,-3330.926739,1915.238745
1433.539199,9548.656652,-4071.132681,536.266849
1433.539528,9030.512492,-3701.029710,-153.219100
1433.539857,7476.080014,-6439.791695,-766.095498
1433.540186,6735.874072,-7920.203579,-1072.533697
1433.540515,5847.626942,-9178.553681,-306.438199
1433.540844,5255.462188,-11621.233289,0.000000
1433.541173,4219.173869,-13397.727550,153.219100
1433.541502,2960.823768,-12139.377449,689.485948
1433.541831,4145.153275,-8364.327145,612.876398
1433.542160,7105.977043,-6661.853478,1915.238745
1433.542490,9474.636058,-4145.153275,3370.820191
1433.542819,9178.553681,-3034.844362,2834.553343
1433.543148,8364.327145,-1480.411884,1915.238745
1433.543477,7550.100608,-1406.391290,1762.019645
1433.543806,8216.285956,-3404.947333,1378.971896
1433.544135,9474.636058,-3997.112087,1532.190996
1433.544464,9548.656652,-4737.318029,536.266849
1433.544793,8290.306550,-6143.709319,229.828649
1433.545122,6883.915261,-8956.491898,0.000000
1433.545451,5625.565159,-11769.274478,76.609550
1433.545780,3775.050304,-12065.356855,-459.657299
1433.546109,1850.514855,-12213.398043,-612.876398
1433.546438,1850.514855,-11621.233289,-842.705048
1433.546767,3627.009116,-9030.512492,842.705048
1433.547096,6439.791695,-7105.977043,2374.896044
1433.547425,9770.718434,-4885.359217,3753.867940
1433.547754,10584.944971,-3034.844362,4136.915689
1433.548083,9918.759623,-1628.453072,2757.943793
1433.548412,8512.368333,-2294.638420,2145.067394
1433.548741,8068.244768,-2368.659014,1378.971896
1433.549070,8882.471304,-1924.535449,383.047749
1433.549399,9400.615463,-3108.864956,383.047749
1433.549728,8586.388927,-5625.565159,689.485948
1433.550057,7772.162391,-7846.182985,612.876398
1433.550387,6143.709319,-10584.944971,229.828649
1433.550716,4441.235652,-11473.192101,153.219100
1433.551045,2590.720797,-12879.583391,919.314598
1433.551374,2738.761985,-11991.336260,0.000000
1433.551703,3256.906145,-9178.553681,919.314598
1433.552032,6513.812290,-7624.121203,2374.896044
1433.552361,9400.615463,-3923.091493,2374.896044
1433.552690,9400.615463,-1702.473667,2528.115143
1433.553019,8734.430116,-2220.617826,2528.115143
1433.553348,8808.450710,-888.247130,2068.457845
1433.553677,8364.327145,-2664.741391,612.876398
1433.554006,8956.491898,-3849.070898,766.095498
1433.554335,10140.821405,-3923.091493,1685.410096
1433.554664,9326.594869,-8438.347739,995.924147
1433.554993,6587.832884,-8512.368333,-306.438199
1433.555322,3997.112087,-10288.862594,-1149.143247
1433.555651,4663.297435,-12657.521608,-919.314598
1433.555980,2886.803174,-12731.542202,76.609550
1433.556309,2590.720797,-12139.377449,689.485948
1433.556638,4219.173869,-7624.121203,536.266849
1433.556967,6439.791695,-6587.832884,2528.115143
1433.557296,9696.697840,-4959.379811,4443.353888
1433.557625,10362.883188,-2294.638420,4136.915689
1433.557954,9400.615463,-2368.659014,3064.381992
1433.558284,8216.285956,-814.226536,536.266849
1433.558613,7624.121203,-3034.844362,689.485948
1433.558942,8586.388927,-3849.070898,689.485948
1433.559271,8438.347739,-4885.359217,0.000000
1433.559600,7179.997637,-7328.038826,0.000000
1433.559929,5921.647536,-9030.512492,-612.876398
1433.560258,5181.441594,-11029.068536,-459.657299
1433.560587,4589.276840,-12213.398043,153.219100
1433.560916,3478.967927,-12361.439231,0.000000
1433.561245,3627.009116,-12435.459826,76.609550
1433.561574,5329.482782,-8364.327145,1608.800546
1433.561903,6957.935855,-5995.668130,1762.019645
1433.562232,9178.553681,-4219.173869,2834.553343
1433.562561,10140.821405,-1850.514855,3370.820191
1433.562890,9400.615463,-1776.494261,1838.629195
1433.563219,8808.450710,-666.185348,1685.410096
1433.563548,8142.265362,-3182.885551,1532.190996
1433.563877,9326.594869,-4293.194464,1149.143247
1433.564206,9104.533087,-4293.194464,306.438199
1433.564535,7476.080014,-6143.709319,-689.485948
1433.564864,5551.544565,-7994.224174,-766.095498
1433.565193,5329.482782,-10214.842000,-612.876398
1433.565522,5255.462188,-11177.109724,76.609550
1433.565852,3997.112087,-12435.459826,0.000000
1433.566181,3701.029710,-11177.109724,1225.752797
1433.566510,4811.338623,-8734.430116,1455.581446
1433.566839,6809.894666,-7402.059420,2604.724693
1433.567168,9104.533087,-4145.153275,3600.648841
1433.567497,9474.636058,-1702.473667,2604.724693
1433.567826,8364.327145,-962.267725,1455.581446
1433.568155,7254.018232,-1332.370696,995.924147
1433.568484,7624.121203,-3701.029710,-229.828649
1433.568813,8660.409521,-4441.235652,536.266849
1433.569142,8660.409521,-5699.585753,919.314598
1433.569471,7920.203579,-7994.224174,0.000000
1433.569800,6439.791695,-9474.636058,0.000000
1433.570129,5329.482782,-10881.027347,383.047749
1433.570458,4885.359217,-10881.027347,-612.876398
1433.570787,3627.009116,-12361.439231,842.705048
1433.571116,4145.153275,-10955.047942,766.095498
1433.571445,5329.482782,-7476.080014,1455.581446
1433.571774,7476.080014,-6513.812290,3140.991542
1433.572103,10066.800811,-3849.070898,4903.011187
1433.572432,9622.677246,-2146.597232,3140.991542
1433.572761,8364.327145,-2220.617826,2298.286494
1433.573090,7105.977043,-2368.659014,995.924147
1433.573419,6809.894666,-3108.864956,153.219100
1433.573749,7179.997637,-4589.276840,-383.047749
1433.574078,7105.977043,-5551.544565,-842.705048
1433.574407,7402.059420,-7402.059420,306.438199
1433.574736,7105.977043,-9992.780217,229.828649
1433.575065,5921.647536,-11473.192101,459.657299
1433.575394,5107.421000,-11177.109724,689.485948
1433.575723,4885.359217,-11695.253884,383.047749
1433.576052,4367.215058,-9992.780217,842.705048
1433.576381,4885.359217,-6735.874072,1532.190996
1433.576710,7624.121203,-4589.276840,1762.019645
1433.577039,10066.800811,-2960.823768,3830.477490
1433.577368,10658.965565,-888.247130,2987.772442
1433.577697,9326.594869,-1850.514855,2451.505594
1433.578026,7698.141797,-2960.823768,1915.238745
1433.578355,7179.997637,-4589.276840,306.438199
1433.578684,7254.018232,-4737.318029,536.266849
1433.579013,7846.182985,-5033.400406,76.609550
1433.579342,7624.121203,-6513.812290,-229.828649
1433.579671,6143.709319,-8956.491898,153.219100
1433.580000,5329.482782,-9918.759623,0.000000
1433.580329,4663.297435,-9992.780217,-383.047749
1433.580658,4367.215058,-11695.253884,229.828649
1433.580987,4737.318029,-11325.150913,1608.800546
1433.581316,6365.771101,-8142.265362,1991.848295
1433.581646,8290.306550,-5403.503377,2528.115143
1433.581975,9696.697840,-4441.235652,3370.820191
1433.582304,10658.965565,-2664.741391,3140.991542
1433.582633,9548.656652,-1924.535449,1838.629195
1433.582962,7698.141797,-2812.782580,76.609550
1433.583291,6143.709319,-4367.215058,-153.219100
1433.583620,6809.894666,-5773.606348,-383.047749
1433.583949,7179.997637,-6661.853478,-536.266849
1433.584278,6587.832884,-7698.141797,-766.095498
1433.584607,6217.729913,-9252.574275,0.000000
1433.584936,6439.791695,-9696.697840,-306.438199
1433.585265,5847.626942,-10732.986159,459.657299
1433.585594,4515.256246,-11029.068536,919.314598
1433.585923,4145.153275,-8808.450710,919.314598
1433.586252,5477.523971,-5329.482782,842.705048
1433.586582,7328.038826,-4811.338623,1915.238745
1433.586911,9992.780217,-4071.132681,3907.087040
1433.587240,10807.006753,-2294.638420,3983.696590
1433.587569,9548.656652,-2664.741391,2681.334243
1433.587898,7698.141797,-2072.576638,842.705048
1433.588227,7105.977043,-5107.421000,536.266849
1433.588556,6957.935855,-5773.606348,-459.657299
1433.588885,5995.668130,-5625.565159,-1302.362347
1433.589214,4663.297435,-7698.141797,-995.924147
1433.589543,5403.503377,-9252.574275,-1608.800546
1433.589873,5995.668130,-10214.842000,-536.266849
1433.590202,6069.688724,-11399.171507,995.924147
1433.590531,6587.832884,-10881.027347,766.095498
1433.590860,5995.668130,-9474.636058,1455.581446
1433.591189,6513.812290,-7254.018232,1915.238745
1433.591518,8142.265362,-4589.276840,2298.286494
1433.591847,10288.862594,-3627.009116,3140.991542
1433.592176,10658.965565,-2442.679609,3524.039291
1433.592505,9400.615463,-2368.659014,2451.505594
1433.592834,7550.100608,-2812.782580,536.266849
1433.593164,7105.977043,-4293.194464,-536.266849
1433.593493,7105.977043,-5625.565159,-76.609550
1433.593822,6513.812290,-5995.668130,-1149.143247
1433.594151,5329.482782,-8216.285956,-1378.971896
1433.594480,4959.379811,-9992.780217,-306.438199
1433.594809,5847.626942,-10140.821405,229.828649
1433.595138,5477.523971,-10807.006753,76.609550
1433.595467,4737.318029,-10955.047942,1225.752797
1433.595796,5181.441594,-9918.759623,1455.581446
1433.596125,6217.729913,-7402.059420,2068.457845
1433.596454,7846.182985,-4737.318029,3753.867940
1433.596784,9844.739029,-3404.947333,3370.820191
1433.597113,10436.903782,-1850.514855,3064.381992
1433.597442,8364.327145,-1850.514855,2145.067394
1433.597771,7105.977043,-3478.967927,995.924147
1433.598100,6439.791695,-5477.523971,995.924147
1433.598429,6439.791695,-5921.647536,-306.438199
1433.598758,5625.565159,-6735.874072,-689.485948
1433.599087,4959.379811,-8956.491898,-766.095498
1433.599416,5551.544565,-9622.677246,-612.876398
1433.599745,5773.606348,-10510.924376,-229.828649
1433.600075,5773.606348,-9992.780217,1455.581446
1433.600404,5921.647536,-9992.780217,1838.629195
1433.600733,5921.647536,-8586.388927,2145.067394
1433.601062,6217.729913,-4441.235652,2757.943793
1433.601391,8512.368333,-3552.988522,3294.210641
1433.601720,10881.027347,-2368.659014,4060.306139
1433.602049,10362.883188,-1702.473667,4136.915689
1433.602378,9252.574275,-2368.659014,2528.115143
1433.602707,7846.182985,-3552.988522,612.876398
1433.603036,6365.771101,-6069.688724,306.438199
1433.603365,5847.626942,-7846.182985,-842.705048
1433.603695,5847.626942,-7920.203579,-842.705048
1433.604024,5107.421000,-9326.594869,-842.705048
1433.604353,4663.297435,-9622.677246,-1685.410096
1433.604682,3997.112087,-10584.944971,-306.438199
1433.605011,4071.132681,-10362.883188,153.219100
1433.605340,4959.379811,-10732.986159,919.314598
1433.605669,6513.812290,-8734.430116,2681.334243
1433.605998,8512.368333,-5625.565159,3447.429741
1433.606327,10140.821405,-3849.070898,3907.087040
1433.606656,11177.109724,-1998.556043,4443.353888
1433.606986,10732.986159,-296.082377,3294.210641
1433.607315,9474.636058,-740.205942,766.095498
1433.607644,7920.203579,-2960.823768,689.485948
1433.607973,7031.956449,-6513.812290,0.000000
1433.608302,7105.977043,-7994.224174,0.000000
1433.608631,6143.709319,-8364.327145,-383.047749
1433.608960,4959.379811,-10140.821405,-1378.971896
1433.609289,4737.318029,-10807.006753,-1532.190996
1433.609618,3627.009116,-11621.233289,-459.657299
1433.609947,3923.091493,-11251.130318,0.000000
1433.610276,4441.235652,-10288.862594,919.314598
1433.610606,4885.359217,-8660.409521,1455.581446
1433.610935,6735.874072,-5773.606348,2221.676944
1433.611264,9104.533087,-3256.906145,2987.772442
1433.611593,10881.027347,-2368.659014,4060.306139
1433.611922,11621.233289,-2368.659014,3983.696590
1433.612251,11399.171507,-1628.453072,3140.991542
1433.612580,9622.677246,-2072.576638,1685.410096
1433.612909,7031.956449,-4811.338623,-1149.143247
1433.613238,5773.606348,-5995.668130,-1149.143247
1433.613567,5329.482782,-6661.853478,-1915.238745
1433.613897,5329.482782,-8586.388927,-2528.115143
1433.614226,4515.256246,-10362.883188,-612.876398
1433.614555,3627.009116,-11843.295072,-459.657299
1433.614884,3552.988522,-12065.356855,0.000000
1433.615213,3552.988522,-11843.295072,1225.752797
1433.615542,4737.318029,-8734.430116,1762.019645
1433.615871,7031.956449,-5107.421000,1762.019645
1433.616200,9252.574275,-3849.070898,4749.792088
1433.616529,11103.089130,-2664.741391,4903.011187
1433.616858,11547.212695,0.000000,3524.039291
1433.617187,10288.862594,-370.102971,2451.505594
1433.617517,9252.574275,-1924.535449,1532.190996
1433.617846,7846.182985,-5033.400406,995.924147
1433.618175,7031.956449,-7476.080014,153.219100
1433.618504,4885.359217,-8068.244768,-1302.362347
1433.618833,3923.091493,-9252.574275,-2221.676944
1433.619162,4589.276840,-11843.295072,-1608.800546
1433.619491,3478.967927,-12361.439231,-919.314598
1433.619820,3404.947333,-12953.603985,-153.219100
1433.620149,3404.947333,-11917.315666,229.828649
1433.620478,4145.153275,-8438.347739,1072.533697
1433.620808,6735.874072,-6069.688724,2221.676944
1433.621137,10362.883188,-4145.153275,4749.792088
1433.621466,12139.377449,-2294.638420,5439.278036
1433.621795,11991.336260,0.000000,4213.525239
1433.622124,11251.130318,740.205942,3524.039291
1433.622453,11251.130318,-1036.288319,2374.896044
1433.622782,9104.533087,-3330.926739,689.485948
1433.623111,6513.812290,-6291.750507,0.000000
1433.623440,5033.400406,-6957.935855,-1455.581446
1433.623769,4145.153275,-9400.615463,-2451.505594
1433.624098,3404.947333,-10955.047942,-1378.971896
1433.624428,2442.679609,-13545.768739,-919.314598
1433.624757,2590.720797,-13101.645173,229.828649
1433.625086,3108.864956,-11547.212695,229.828649
1433.625415,3404.947333,-9474.636058,1072.533697
1433.625744,6587.832884,-5921.647536,3064.381992
1433.626073,10288.862594,-3849.070898,3753.867940
1433.626402,11547.212695,-1480.411884,4443.353888
1433.626731,11843.295072,2220.617826,4903.011187
1433.627060,11769.274478,1110.308913,2681.334243
1433.627389,10658.965565,-370.102971,1685.410096
1433.627719,8956.491898,-3923.091493,1532.190996
1433.628048,9474.636058,-5921.647536,383.047749
1433.628377,7254.018232,-7254.018232,-536.266849
1433.628706,4441.235652,-9622.677246,-1302.362347
1433.629035,2664.741391,-12509.480420,-2834.553343
1433.629364,2294.638420,-13915.871710,-1838.629195
1433.629693,2072.576638,-12953.603985,-1302.362347
1433.630022,1850.514855,-12435.459826,-1072.533697
1433.630351,2886.803174,-9696.697840,306.438199
1433.630680,6291.750507,-6439.791695,2604.724693
1433.631009,10362.883188,-4737.318029,4749.792088
1433.631339,12657.521608,-1776.494261,5515.887586
1433.631668,12805.562797,2368.659014,4979.620737
1433.631997,12879.583391,2072.576638,2374.896044
1433.632326,11177.109724,296.082377,2145.067394
1433.632655,9548.656652,-3552.988522,1915.238745
1433.632984,7772.162391,-5477.523971,0.000000
1433.633313,5699.585753,-6587.832884,-2221.676944
1433.633642,3701.029710,-10807.006753,-1991.848295
1433.633971,3034.844362,-14804.118840,-1991.848295
1433.634300,2442.679609,-15248.242405,-1072.533697
1433.634630,1184.329507,-15100.201217,-1072.533697
1433.634959,962.267725,-14063.912898,-1302.362347
1433.635288,1480.411884,-11103.089130,-536.266849
1433.635617,4293.194464,-6883.915261,1762.019645
1433.635946,7920.203579,-4293.194464,2757.943793
1433.636275,11325.150913,-1406.391290,4826.401637
1433.636604,13397.727550,1406.391290,5286.058936
1433.636933,13619.789333,2368.659014,4596.572988
1433.637262,13323.706956,3775.050304,2911.162892
1433.637591,11399.171507,-518.144159,1149.143247
1433.637921,9992.780217,-4441.235652,1225.752797
1433.638250,8290.306550,-6069.688724,-229.828649
1433.638579,5107.421000,-10140.821405,-1915.238745
1433.638908,2886.803174,-11547.212695,-2068.457845
1433.639237,1184.329507,-14211.954086,-2681.334243
1433.639566,1036.288319,-15544.324782,-1302.362347
1433.639895,1184.329507,-15026.180623,0.000000
1433.640224,1850.514855,-10362.883188,536.266849
1433.640553,4293.194464,-6069.688724,612.876398
1433.640882,7920.203579,-5107.421000,3064.381992
1433.641211,11251.130318,-2220.617826,4519.963438
1433.641541,12657.521608,74.020594,4903.011187
1433.641870,13175.665768,2516.700203,4290.134789
1433.642199,12287.418637,2442.679609,1072.533697
1433.642528,10955.047942,-592.164754,1455.581446
1433.642857,10066.800811,-3627.009116,842.705048
1433.643186,8808.450710,-6291.750507,612.876398
1433.643515,7105.977043,-9474.636058,-459.657299
1433.643844,4219.173869,-11473.192101,-1838.629195
1433.644173,1776.494261,-14211.954086,-2221.676944
1433.644502,1406.391290,-15174.221811,-689.485948
1433.644832,888.247130,-14285.974681,-1149.143247
1433.645161,592.164754,-10584.944971,-766.095498
1433.645490,2960.823768,-7698.141797,919.314598
1433.645819,7624.121203,-4441.235652,2987.772442
1433.646148,11547.212695,-3552.988522,4443.353888
1433.646477,12953.603985,-666.185348,5439.278036
1433.646806,13027.624579,1406.391290,4136.915689
1433.647135,12065.356855,1184.329507,2451.505594
1433.647464,10288.862594,0.000000,1532.190996
1433.647793,9548.656652,-3552.988522,1302.362347
1433.648122,8956.491898,-5255.462188,0.000000
1433.648452,5847.626942,-8808.450710,-919.314598
1433.648781,3108.864956,-11991.336260,-1225.752797
1433.649110,2368.659014,-13841.851115,-1762.019645
1433.649439,1184.329507,-14582.057057,-919.314598
1433.649768,444.123565,-15322.262999,-689.485948
1433.650097,1258.350101,-11843.295072,0.000000
1433.650426,4441.235652,-8142.265362,1072.533697
1433.650755,8438.347739,-5107.421000,3294.210641
1433.651084,11473.192101,-2294.638420,4596.572988
1433.651413,12509.480420,370.102971,5362.668486
1433.651743,12287.418637,2516.700203,3294.210641
1433.652072,11769.274478,2812.782580,2451.505594
1433.652401,10881.027347,444.123565,1608.800546
1433.652730,10510.924376,-2664.741391,842.705048
1433.653059,8956.491898,-5699.585753,536.266849
1433.653388,6291.750507,-9622.677246,-612.876398
1433.653717,3552.988522,-11621.233289,-1838.629195
1433.654046,1332.370696,-13767.830521,-1302.362347
1433.654375,888.247130,-15026.180623,-766.095498
1433.654704,370.102971,-15396.283594,-1149.143247
1433.655033,888.247130,-12583.501014,229.828649
1433.655363,3108.864956,-7476.080014,76.609550
1433.655692,7402.059420,-5551.544565,2604.724693
1433.656021,11695.253884,-3627.009116,5132.839837
1433.656350,12879.583391,-518.144159,4903.011187
1433.656679,12583.501014,2516.700203,3064.381992
1433.657008,12139.377449,2886.803174,2145.067394
1433.657337,11251.130318,0.000000,1302.362347
1433.657666,9918.759623,-2368.659014,306.438199
1433.657995,8734.430116,-5477.523971,0.000000
1433.658324,6513.812290,-8734.430116,-612.876398
1433.658654,4367.215058,-12953.603985,-1072.533697
1433.658983,2368.659014,-15396.283594,-919.314598
1433.659312,1702.473667,-15840.407159,-536.266849
1433.659641,1110.308913,-15692.365970,-612.876398
1433.659970,1406.391290,-12509.480420,0.000000
1433.660299,2516.700203,-7031.956449,-229.828649
1433.660628,7328.038826,-4959.379811,2374.896044
1433.660957,11325.150913,-2664.741391,4979.620737
1433.661286,11695.253884,518.144159,4903.011187
1433.661615,11547.212695,1258.350101,2681.334243
1433.661944,11473.192101,1998.556043,2451.505594
1433.662274,11029.068536,370.102971,766.095498
1433.662603,10362.883188,-3923.091493,995.924147
1433.662932,9622.677246,-5699.585753,1455.581446
1433.663261,6883.915261,-9252.574275,-1072.533697
1433.663590,3775.050304,-11325.150913,-1991.848295
1433.663919,2072.576638,-13027.624579,-2221.676944
1433.664248,1628.453072,-15988.448347,-1225.752797
1433.664577,1184.329507,-15766.386565,-766.095498
1433.664906,888.247130,-13101.645173,0.000000
1433.665235,2738.761985,-7476.080014,536.266849
1433.665565,7624.121203,-4663.297435,2451.505594
1433.665894,10807.006753,-3627.009116,4903.011187
1433.666223,11769.274478,296.082377,5362.668486
1433.666552,11843.295072,2442.679609,3600.648841
1433.666881,11547.212695,4367.215058,1762.019645
1433.667210,10732.986159,592.164754,1685.410096
1433.667539,10807.006753,-3404.947333,1378.971896
1433.667868,9474.636058,-5847.626942,1455.581446
1433.668197,6217.729913,-9030.512492,-1149.143247
1433.668526,3108.864956,-11917.315666,-1685.410096
1433.668855,2220.617826,-14508.036463,-1302.362347
1433.669185,2738.761985,-16506.592507,-1225.752797
1433.669514,1702.473667,-16580.613101,612.876398
1433.669843,740.205942,-12509.480420,76.609550
1433.670172,2368.659014,-7920.203579,459.657299
1433.670501,7179.997637,-5033.400406,2374.896044
1433.670830,11103.089130,-2516.700203,4979.620737
1433.671159,11473.192101,-740.205942,4213.525239
1433.671488,10881.027347,666.185348,3524.039291
1433.671817,11325.150913,2516.700203,2374.896044
1433.672146,11251.130318,296.082377,2068.457845
1433.672476,11103.089130,-2886.803174,1762.019645
1433.672805,9622.677246,-4885.359217,1302.362347
1433.673134,6661.853478,-8882.471304,-842.705048
1433.673463,4071.132681,-11177.109724,-1608.800546
1433.673792,2516.700203,-13027.624579,-1225.752797
1433.674121,2738.761985,-14730.098246,-306.438199
1433.674450,2146.597232,-15322.262999,536.266849
1433.674779,1480.411884,-11769.274478,919.314598
1433.675108,3997.112087,-7402.059420,1455.581446
1433.675437,8438.347739,-6365.771101,3677.258390
1433.675767,11325.150913,-2664.741391,5132.839837
1433.676096,10288.862594,-740.205942,3830.477490
1433.676425,10140.821405,1184.329507,2834.553343
1433.676754,10732.986159,2590.720797,1302.362347
1433.677083,10510.924376,222.061783,383.047749
1433.677412,9992.780217,-3404.947333,919.314598
1433.677741,9400.615463,-5477.523971,1225.752797
1433.678070,6439.791695,-9474.636058,-306.438199
1433.678399,3330.926739,-11843.295072,-1455.581446
1433.678728,1776.494261,-13101.645173,-1378.971896
1433.679057,2738.761985,-15914.427753,-612.876398
1433.679387,2738.761985,-15100.201217,229.828649
1433.679716,2368.659014,-10214.842000,0.000000
1433.680045,4441.235652,-6513.812290,689.485948
1433.680374,8882.471304,-4145.153275,2834.553343
1433.680703,11769.274478,-2294.638420,4673.182538
1433.681032,11325.150913,-740.205942,4826.401637
1433.681361,10658.965565,1998.556043,3447.429741
1433.681690,10584.944971,1628.453072,1072.533697
1433.682019,10214.842000,-1924.535449,766.095498
1433.682348,9252.574275,-5699.585753,1225.752797
1433.682678,8660.409521,-6143.709319,-689.485948
1433.683007,4145.153275,-9104.533087,-2834.553343
1433.683336,2368.659014,-11917.315666,-2528.115143
1433.683665,2664.741391,-13693.809927,-1455.581446
1433.683994,2960.823768,-15174.221811,0.000000
1433.684323,2368.659014,-14211.954086,383.047749
1433.684652,2220.617826,-10807.006753,306.438199
1433.684981,4367.215058,-6439.791695,766.095498
1433.685310,8512.368333,-5551.544565,2834.553343
1433.685639,11769.274478,-2072.576638,5209.449386
1433.685968,11695.253884,0.000000,3753.867940
1433.686298,10510.924376,1110.308913,1991.848295
1433.686627,9992.780217,1702.473667,842.705048
1433.686956,9622.677246,-2072.576638,536.266849
1433.687285,9918.759623,-3627.009116,689.485948
1433.687614,8068.244768,-6365.771101,-306.438199
1433.687943,5847.626942,-9918.759623,-1608.800546
1433.688273,4663.297435,-11917.315666,-995.924147
1433.688602,3182.885551,-13989.892304,-383.047749
1433.688931,2886.803174,-14063.912898,383.047749
1433.689260,3182.885551,-12953.603985,536.266849
1433.689589,2886.803174,-9326.594869,536.266849
1433.689918,4885.359217,-6069.688724,995.924147
1433.690248,9770.718434,-4071.132681,4290.134789
1433.690577,11769.274478,-2368.659014,4596.572988
1433.690906,11103.089130,-444.123565,3830.477490
1433.691235,10881.027347,1184.329507,2451.505594
1433.691564,10140.821405,-518.144159,383.047749
1433.691893,9326.594869,-3627.009116,842.705048
1433.692223,7328.038826,-6069.688724,229.828649
1433.692552,6809.894666,-7105.977043,-995.924147
1433.692881,4515.256246,-9622.677246,-1608.800546
1433.693210,3627.009116,-12805.562797,-689.485948
1433.693539,3552.988522,-13767.830521,-383.047749
1433.693868,3627.009116,-13471.748144,536.266849
1433.694198,3330.926739,-13101.645173,536.266849
1433.694527,3552.988522,-9104.533087,1455.581446
1433.694856,6365.771101,-6217.729913,2298.286494
1433.695185,10584.944971,-4293.194464,4826.401637
1433.695514,12065.356855,-2664.741391,5439.278036
1433.695843,10584.944971,0.000000,4673.182538
1433.696173,9474.636058,2146.597232,1302.362347
1433.696502,8068.244768,-370.102971,536.266849
1433.696831,7105.977043,-3256.906145,536.266849
1433.697160,7031.956449,-6439.791695,-306.438199
1433.697489,5995.668130,-8216.285956,76.609550
1433.697818,4589.276840,-10362.883188,-612.876398
1433.698148,3627.009116,-12583.501014,-612.876398
1433.698477,3404.947333,-13027.624579,0.000000
1433.698806,4071.132681,-12583.501014,536.266849
1433.699135,4293.194464,-11843.295072,919.314598
1433.699464,4367.215058,-7476.080014,1915.238745
1433.699793,7105.977043,-4737.318029,1838.629195
1433.700123,10436.903782,-2812.782580,3753.867940
1433.700452,11695.253884,-518.144159,4213.525239
1433.700781,11029.068536,-666.185348,3600.648841
1433.701110,10288.862594,-962.267725,2451.505594
1433.701439,8512.368333,-2146.597232,995.924147
1433.701768,7994.224174,-5181.441594,0.000000
1433.702098,7105.977043,-6735.874072,-459.657299
1433.702427,6587.832884,-8290.306550,-1532.190996
1433.702756,4959.379811,-9992.780217,-2068.457845
1433.703085,4367.215058,-11399.171507,-1225.752797
1433.703414,4589.276840,-11843.295072,-306.438199
1433.703743,4959.379811,-11917.315666,766.095498
1433.704073,5477.523971,-10288.862594,1532.190996
1433.704402,5551.544565,-8882.471304,1838.629195
1433.704731,7624.121203,-4959.379811,2757.943793
1433.705060,10214.842000,-2368.659014,3983.696590
1433.705389,11473.192101,-1554.432478,4366.744339
1433.705719,11547.212695,222.061783,2987.772442
1433.706048,9474.636058,-1924.535449,2068.457845
1433.706377,7550.100608,-2812.782580,229.828649
1433.706706,5921.647536,-5625.565159,-1072.533697
1433.707035,5773.606348,-8142.265362,-612.876398
1433.707364,5773.606348,-9252.574275,-1302.362347
1433.707694,4515.256246,-10732.986159,-1532.190996
1433.708023,4441.235652,-11769.274478,-1455.581446
1433.708352,4737.318029,-11843.295072,-689.485948
1433.708681,5181.441594,-12213.398043,919.314598
1433.709010,5329.482782,-9992.780217,919.314598
1433.709339,4811.338623,-7402.059420,1378.971896
1433.709669,6587.832884,-4515.256246,2681.334243
1433.709998,9992.780217,-3330.926739,3064.381992
1433.710327,11177.109724,-2220.617826,4979.620737
1433.710656,11473.192101,0.000000,4826.401637
1433.710985,10658.965565,-1480.411884,2451.505594
1433.711314,8290.306550,-2294.638420,1149.143247
1433.711644,5773.606348,-5403.503377,0.000000
1433.711973,5329.482782,-7994.224174,-1225.752797
1433.712302,4737.318029,-7328.038826,-1991.848295
1433.712631,3627.009116,-10658.965565,-2298.286494
1433.712960,4293.194464,-11621.233289,-1838.629195
1433.713289,4737.318029,-12139.377449,0.000000
1433.713619,5329.482782,-11325.150913,1762.019645
1433.713948,5181.441594,-9548.656652,1149.143247
1433.714277,5329.482782,-7772.162391,1838.629195
1433.714606,8290.306550,-4071.132681,2068.457845
1433.714935,9918.759623,-3552.988522,4136.915689
1433.715264,11103.089130,-1850.514855,4519.963438
1433.715594,10658.965565,-1480.411884,3217.601092
1433.715923,9326.594869,-1332.370696,2298.286494
1433.716252,8364.327145,-2590.720797,612.876398
1433.716581,6883.915261,-6735.874072,0.000000
1433.716910,6439.791695,-7772.162391,153.219100
1433.717239,6069.688724,-8808.450710,-689.485948
1433.717569,4663.297435,-9326.594869,-1685.410096
1433.717898,3478.967927,-9622.677246,-1608.800546
1433.718227,4367.215058,-11251.130318,-766.095498
1433.718556,5477.523971,-9622.677246,0.000000
1433.718885,5181.441594,-9770.718434,1608.800546
1433.719214,5847.626942,-7550.100608,2451.505594
1433.719544,8808.450710,-3923.091493,3370.820191
1433.719873,10881.027347,-2886.803174,4596.572988
1433.720202,11547.212695,-2590.720797,4749.792088
1433.720531,10881.027347,-2368.659014,4749.792088
1433.720860,9178.553681,-2368.659014,1991.848295
1433.721189,6217.729913,-3775.050304,-612.876398
1433.721519,4737.318029,-6513.812290,-995.924147
1433.721848,5255.462188,-7550.100608,-1455.581446
1433.722177,4367.215058,-8808.450710,-2068.457845
1433.722506,4515.256246,-10066.800811,-1225.752797
1433.722835,4959.379811,-9992.780217,-612.876398
1433.723164,5625.565159,-10584.944971,229.828649
1433.723494,5403.503377,-10140.821405,1225.752797
1433.723823,5107.421000,-9030.512492,1072.533697
1433.724152,6143.709319,-7179.997637,1532.190996
1433.724481,8216.285956,-3182.885551,2451.505594
1433.724810,10140.821405,-2590.720797,3524.039291
1433.725139,11917.315666,-1554.432478,6205.373534
1433.725469,11695.253884,-2146.597232,4290.134789
1433.725798,9252.574275,-3108.864956,2911.162892
1433.726127,6217.729913,-3552.988522,536.266849
1433.726456,5329.482782,-6735.874072,-919.314598
1433.726785,5181.441594,-7698.141797,-919.314598
1433.727114,4737.318029,-8734.430116,-1608.800546
1433.727444,4589.276840,-9770.718434,-1532.190996
1433.727773,4811.338623,-9918.759623,-995.924147
1433.728102,4737.318029,-11695.253884,689.485948
1433.728431,5181.441594,-9992.780217,229.828649
1433.728760,5773.606348,-9622.677246,1762.019645
1433.729089,6661.853478,-7179.997637,2068.457845
1433.729419,8512.368333,-4737.318029,2911.162892
