#time,accel_x,accel_y,accel_z
1159.461802,7105.977043,-6809.894666,1149.143247
1159.462133,7105.977043,-6513.812290,842.705048
1159.462463,6883.915261,-6735.874072,842.705048
1159.462794,6883.915261,-6809.894666,842.705048
1159.463124,7031.956449,-7105.977043,1149.143247
1159.463455,7031.956449,-6661.853478,1149.143247
1159.463785,6883.915261,-6587.832884,842.705048
1159.464116,7179.997637,-6661.853478,1378.971896
1159.464446,6735.874072,-6291.750507,1149.143247
1159.464776,6809.894666,-6513.812290,1072.533697
1159.465107,7328.038826,-6291.750507,842.705048
1159.465437,7105.977043,-6291.750507,1225.752797
1159.465768,7031.956449,-6587.832884,1072.533697
1159.466098,6883.915261,-6365.771101,1149.143247
1159.466429,7031.956449,-6439.791695,1072.533697
1159.466759,6735.874072,-6661.853478,766.095498
1159.467090,6883.915261,-6365.771101,1072.533697
1159.467420,6957.935855,-6661.853478,1225.752797
1159.467750,7105.977043,-6809.894666,1149.143247
1159.468081,6809.894666,-6513.812290,995.924147
1159.468411,7105.977043,-6439.791695,919.314598
1159.468742,7105.977043,-6291.750507,1608.800546
1159.469072,7105.977043,-6365.771101,1149.143247
1159.469403,6957.935855,-6439.791695,995.924147
1159.469733,6883.915261,-6513.812290,1149.143247
1159.470063,7105.977043,-6513.812290,1302.362347
1159.470394,6661.853478,-6883.915261,1149.143247
1159.470724,6809.894666,-6513.812290,919.314598
1159.471055,7031.956449,-6661.853478,1225.752797
1159.471385,7105.977043,-6661.853478,1302.362347
1159.471716,7105.977043,-6883.915261,1838.629195
1159.472046,7031.956449,-6735.874072,1072.533697
1159.472377,6809.894666,-6661.853478,919.314598
1159.472707,6957.935855,-6513.812290,995.924147
1159.473037,6883.915261,-6587.832884,919.314598
1159.473368,6587.832884,-6291.750507,1685.410096
1159.473698,6513.812290,-6365.771101,995.924147
1159.474029,6957.935855,-6365.771101,919.314598
1159.474359,6883.915261,-6439.791695,1072.533697
1159.474690,7031.956449,-6957.935855,1455.581446
1159.475020,6957.935855,-6439.791695,1149.143247
1159.475351,6957.935855,-6513.812290,842.705048
1159.475681,6957.935855,-6883.915261,1072.533697
1159.476011,7105.977043,-6661.853478,766.095498
1159.476342,7402.059420,-6735.874072,612.876398
1159.476672,7031.956449,-6513.812290,842.705048
1159.477003,6735.874072,-6217.729913,919.314598
1159.477333,6957.935855,-6513.812290,689.485948
1159.477664,6957.935855,-6809.894666,995.924147
1159.477994,6957.935855,-6439.791695,1378.971896
1159.478325,6809.894666,-6143.709319,1149.143247
1159.478655,6957.935855,-6439.791695,766.095498
1159.478985,6957.935855,-6513.812290,1072.533697
1159.479316,7179.997637,-6439.791695,612.876398
1159.479646,7105.977043,-6587.832884,1149.143247
1159.479977,7105.977043,-6735.874072,1072.533697
1159.480307,7031.956449,-6217.729913,766.095498
1159.480638,7179.997637,-6513.812290,766.095498
1159.480968,7105.977043,-6291.750507,842.705048
1159.481298,7031.956449,-6883.915261,995.924147
1159.481629,6957.935855,-6291.750507,766.095498
1159.481959,6957.935855,-6587.832884,1149.143247
1159.482290,6809.894666,-6291.750507,1991.848295
1159.482620,7105.977043,-6439.791695,1149.143247
1159.482951,7254.018232,-6291.750507,1225.752797
1159.483281,6957.935855,-6809.894666,1225.752797
1159.483612,7105.977043,-7105.977043,1072.533697
1159.483942,6809.894666,-6069.688724,1532.190996
1159.484272,6883.915261,-6735.874072,1302.362347
1159.484603,7105.977043,-6661.853478,1149.143247
1159.484933,6957.935855,-6587.832884,1072.533697
1159.485264,7105.977043,-6587.832884,842.705048
1159.485594,6735.874072,-6439.791695,842.705048
1159.485925,6735.874072,-6513.812290,1149.143247
1159.486255,6587.832884,-7031.956449,1225.752797
1159.486586,6883.915261,-6365.771101,1378.971896
1159.486916,6809.894666,-6513.812290,1455.581446
1159.487246,6661.853478,-6513.812290,1149.143247
1159.487577,6587.832884,-6809.894666,1072.533697
1159.487907,6883.915261,-6661.853478,1302.362347
1159.488238,6957.935855,-6439.791695,766.095498
1159.488568,6809.894666,-6291.750507,995.924147
1159.488899,6661.853478,-6661.853478,1149.143247
1159.489229,7031.956449,-6735.874072,1378.971896
1159.489560,7031.956449,-6809.894666,1072.533697
1159.489890,6735.874072,-6883.915261,1455.581446
1159.490220,6957.935855,-6735.874072,1149.143247
1159.490551,6957.935855,-6661.853478,766.095498
1159.490881,6883.915261,-6661.853478,1149.143247
1159.491212,6735.874072,-6809.894666,1072.533697
1159.491542,7031.956449,-5921.647536,1149.143247
1159.491873,7105.977043,-6513.812290,766.095498
1159.492203,7105.977043,-6513.812290,842.705048
1159.492533,7105.977043,-6587.832884,995.924147
1159.492864,7328.038826,-6291.750507,995.924147
1159.493194,7105.977043,-6735.874072,1149.143247
1159.493525,7105.977043,-6513.812290,1302.362347
1159.493855,7031.956449,-6735.874072,842.705048
1159.494186,7031.956449,-6513.812290,1072.533697
1159.494516,7179.997637,-6439.791695,1762.019645
1159.494847,6809.894666,-6809.894666,1072.533697
1159.495177,6883.915261,-6143.709319,536.266849
1159.495507,6809.894666,-6365.771101,995.924147
1159.495838,7031.956449,-6439.791695,842.705048
1159.496168,7105.977043,-6143.709319,1455.581446
1159.496499,7254.018232,-6143.709319,995.924147
1159.496829,7105.977043,-6365.771101,919.314598
1159.497160,6513.812290,-6661.853478,1685.410096
1159.497490,7254.018232,-6957.935855,1455.581446
1159.497821,7031.956449,-6587.832884,1225.752797
1159.498151,6957.935855,-6439.791695,995.924147
1159.498481,6809.894666,-6513.812290,919.314598
1159.498812,6957.935855,-6735.874072,995.924147
1159.499142,6957.935855,-6809.894666,1608.800546
1159.499473,6809.894666,-6513.812290,1149.143247
1159.499803,6809.894666,-6809.894666,1225.752797
1159.500134,7105.977043,-6365.771101,1072.533697
1159.500464,6809.894666,-6513.812290,1149.143247
1159.500794,6661.853478,-6513.812290,1302.362347
1159.501125,6735.874072,-6735.874072,766.095498
1159.501455,6735.874072,-6365.771101,995.924147
1159.501786,6809.894666,-6735.874072,1072.533697
1159.502116,6809.894666,-6513.812290,536.266849
1159.502447,6883.915261,-6957.935855,995.924147
1159.502777,7031.956449,-6883.915261,919.314598
1159.503108,7105.977043,-6735.874072,995.924147
1159.503438,6735.874072,-6587.832884,689.485948
1159.503768,6957.935855,-6883.915261,1225.752797
1159.504099,6661.853478,-6587.832884,1072.533697
1159.504429,6883.915261,-6587.832884,1225.752797
1159.504760,6957.935855,-6809.894666,919.314598
1159.505090,7179.997637,-6513.812290,383.047749
1159.505421,6883.915261,-6883.915261,919.314598
1159.505751,6957.935855,-6957.935855,766.095498
1159.506082,6883.915261,-6735.874072,919.314598
1159.506412,7031.956449,-6365.771101,842.705048
1159.506742,7550.100608,-6661.853478,1302.362347
1159.507073,7105.977043,-6291.750507,1072.533697
1159.507403,7105.977043,-6439.791695,995.924147
1159.507734,7031.956449,-6513.812290,1072.533697
1159.508064,6957.935855,-6143.709319,689.485948
1159.508395,7179.997637,-6143.709319,842.705048
1159.508725,7031.956449,-6439.791695,919.314598
1159.509056,7105.977043,-6513.812290,536.266849
1159.509386,6957.935855,-6587.832884,1149.143247
1159.509716,7550.100608,-6735.874072,1455.581446
1159.510047,7105.977043,-6291.750507,612.876398
1159.510377,7105.977043,-6809.894666,919.314598
1159.510708,7179.997637,-6439.791695,919.314598
1159.511038,7254.018232,-6513.812290,919.314598
1159.511369,7031.956449,-6143.709319,1072.533697
1159.511699,7105.977043,-6661.853478,919.314598
1159.512029,7105.977043,-6587.832884,842.705048
1159.512360,7105.977043,-6809.894666,1072.533697
1159.512690,7179.997637,-6513.812290,1225.752797
1159.513021,6809.894666,-6809.894666,1072.533697
1159.513351,6957.935855,-6661.853478,842.705048
1159.513682,6661.853478,-6587.832884,689.485948
1159.514012,6883.915261,-6513.812290,1072.533697
1159.514343,6661.853478,-6143.709319,612.876398
1159.514673,6809.894666,-6513.812290,995.924147
1159.515003,6883.915261,-6735.874072,995.924147
1159.515334,7105.977043,-6735.874072,995.924147
1159.515664,7105.977043,-6439.791695,1302.362347
1159.515995,6587.832884,-6143.709319,1608.800546
1159.516325,7031.956449,-6735.874072,1149.143247
1159.516656,6587.832884,-6513.812290,919.314598
1159.516986,6587.832884,-6661.853478,766.095498
1159.517317,7031.956449,-7105.977043,536.266849
1159.517647,7031.956449,-6661.853478,1072.533697
1159.517977,6735.874072,-6661.853478,919.314598
1159.518308,6735.874072,-6661.853478,1149.143247
1159.518638,6883.915261,-6661.853478,1225.752797
1159.518969,7105.977043,-6809.894666,995.924147
1159.519299,6809.894666,-6587.832884,1685.410096
1159.519630,7105.977043,-6365.771101,1149.143247
1159.519960,7031.956449,-6809.894666,612.876398
1159.520291,7254.018232,-6809.894666,1149.143247
1159.520621,7105.977043,-6809.894666,1072.533697
1159.520951,6883.915261,-6809.894666,1149.143247
1159.521282,6735.874072,-6661.853478,1149.143247
1159.521612,6957.935855,-6735.874072,919.314598
1159.521943,7105.977043,-6809.894666,842.705048
1159.522273,7179.997637,-6661.853478,1072.533697
1159.522604,7105.977043,-6365.771101,919.314598
1159.522934,7328.038826,-6439.791695,1072.533697
1159.523264,7624.121203,-7105.977043,1378.971896
1159.523595,7179.997637,-6587.832884,766.095498
1159.523925,7179.997637,-6809.894666,1072.533697
1159.524256,7105.977043,-6439.791695,842.705048
1159.524586,7105.977043,-6661.853478,919.314598
1159.524917,6587.832884,-6365.771101,842.705048
1159.525247,7031.956449,-6291.750507,76.609550
1159.525578,7105.977043,-6439.791695,919.314598
1159.525908,7105.977043,-6661.853478,1072.533697
1159.526238,6809.894666,-6365.771101,766.095498
1159.526569,7328.038826,-6439.791695,459.657299
1159.526899,7105.977043,-6439.791695,995.924147
1159.527230,7031.956449,-6439.791695,1608.800546
1159.527559,7105.977043,-6439.791695,1072.533697
1159.527889,7254.018232,-6217.729913,1302.362347
1159.528218,7031.956449,-5921.647536,1072.533697
1159.528548,6809.894666,-6587.832884,1149.143247
1159.528878,6661.853478,-6587.832884,1302.362347
1159.529207,6735.874072,-6513.812290,919.314598
1159.529537,7105.977043,-6735.874072,1149.143247
1159.529866,6883.915261,-6587.832884,1149.143247
1159.530196,7031.956449,-6513.812290,1225.752797
1159.530525,7105.977043,-6809.894666,1225.752797
1159.530855,7105.977043,-6291.750507,1838.629195
1159.531184,6587.832884,-6439.791695,1072.533697
1159.531514,6661.853478,-6883.915261,1149.143247
1159.531844,7105.977043,-6809.894666,1072.533697
1159.532173,7031.956449,-6957.935855,1149.143247
1159.532503,6735.874072,-6217.729913,1072.533697
1159.532832,6587.832884,-6735.874072,1072.533697
1159.533162,6883.915261,-6735.874072,1302.362347
1159.533491,6735.874072,-7105.977043,1072.533697
1159.533821,7105.977043,-6809.894666,995.924147
1159.534151,7105.977043,-6291.750507,1225.752797
1159.534480,6957.935855,-6365.771101,1149.143247
1159.534810,6957.935855,-6513.812290,919.314598
1159.535139,6735.874072,-6439.791695,919.314598
1159.535469,7179.997637,-6735.874072,1072.533697
1159.535798,6809.894666,-6513.812290,919.314598
1159.536128,6809.894666,-6513.812290,919.314598
1159.536457,7105.977043,-6513.812290,1225.752797
1159.536787,6957.935855,-6809.894666,919.314598
1159.537117,6883.915261,-7105.977043,1455.581446
1159.537446,7031.956449,-6587.832884,995.924147
1159.537776,6957.935855,-6513.812290,612.876398
1159.538105,7031.956449,-6439.791695,1149.143247
1159.538435,7105.977043,-6883.915261,1685.410096
1159.538764,7328.038826,-6069.688724,1455.581446
1159.539094,6661.853478,-6217.729913,1072.533697
1159.539423,7105.977043,-6291.750507,995.924147
1159.539753,7031.956449,-6735.874072,612.876398
1159.540083,7550.100608,-6143.709319,536.266849
1159.540412,7105.977043,-6735.874072,1072.533697
1159.540742,7328.038826,-6587.832884,842.705048
1159.541071,7105.977043,-6365.771101,919.314598
1159.541401,7031.956449,-6217.729913,612.876398
1159.541730,7031.956449,-6513.812290,1455.581446
1159.542060,7105.977043,-6365.771101,1149.143247
1159.542389,7328.038826,-6439.791695,1225.752797
1159.542719,7105.977043,-6587.832884,1072.533697
1159.543049,6957.935855,-6587.832884,1072.533697
1159.543378,6735.874072,-6735.874072,1225.752797
1159.543708,6957.935855,-6587.832884,842.705048
1159.544037,6809.894666,-6661.853478,1072.533697
1159.544367,6809.894666,-6439.791695,842.705048
1159.544696,7105.977043,-6587.832884,842.705048
1159.545026,7031.956449,-6587.832884,1225.752797
1159.545356,7254.018232,-6661.853478,842.705048
1159.545685,7031.956449,-6439.791695,1302.362347
1159.546015,6957.935855,-6365.771101,1915.238745
1159.546344,6809.894666,-6439.791695,1149.143247
1159.546674,6883.915261,-6661.853478,995.924147
1159.547003,6661.853478,-6883.915261,995.924147
1159.547333,6735.874072,-6513.812290,995.924147
1159.547662,6957.935855,-6439.791695,536.266849
1159.547992,6809.894666,-6809.894666,842.705048
1159.548322,6957.935855,-6883.915261,995.924147
1159.548651,6957.935855,-6661.853478,1072.533697
1159.548981,6513.812290,-6217.729913,1302.362347
1159.549310,7254.018232,-6661.853478,1302.362347
1159.549640,7031.956449,-6587.832884,1225.752797
1159.549969,6957.935855,-6735.874072,919.314598
1159.550299,6957.935855,-6661.853478,1225.752797
1159.550628,7105.977043,-6143.709319,1455.581446
1159.550958,6883.915261,-6439.791695,842.705048
1159.551288,6883.915261,-6661.853478,1225.752797
1159.551617,6883.915261,-6587.832884,995.924147
1159.551947,6883.915261,-6661.853478,919.314598
1159.552276,6883.915261,-6883.915261,1302.362347
1159.552606,6587.832884,-6439.791695,919.314598
1159.552935,7031.956449,-6587.832884,1149.143247
1159.553265,7328.038826,-6587.832884,1072.533697
1159.553594,7105.977043,-6809.894666,2068.457845
1159.553924,7179.997637,-6439.791695,1225.752797
1159.554254,6957.935855,-6439.791695,1072.533697
1159.554583,7105.977043,-6513.812290,1225.752797
1159.554913,7105.977043,-6513.812290,1225.752797
1159.555242,7105.977043,-5921.647536,689.485948
1159.555572,6883.915261,-6439.791695,842.705048
1159.555901,6735.874072,-6439.791695,1378.971896
1159.556231,6957.935855,-6439.791695,995.924147
1159.556561,6957.935855,-6439.791695,1072.533697
1159.556890,7179.997637,-6291.750507,1225.752797
1159.557220,6957.935855,-6217.729913,995.924147
1159.557549,7031.956449,-6587.832884,995.924147
1159.557879,7031.956449,-6513.812290,919.314598
1159.558208,7105.977043,-6217.729913,689.485948
1159.558538,7105.977043,-6883.915261,1149.143247
1159.558867,6957.935855,-6439.791695,1072.533697
1159.559197,6809.894666,-6291.750507,1072.533697
1159.559527,6809.894666,-6513.812290,1225.752797
1159.559856,7031.956449,-6365.771101,1302.362347
1159.560186,6957.935855,-6587.832884,1225.752797
1159.560515,6735.874072,-6587.832884,689.485948
1159.560845,6883.915261,-6661.853478,766.095498
1159.561174,7254.018232,-7105.977043,1149.143247
1159.561504,7031.956449,-6513.812290,1072.533697
1159.561833,7105.977043,-6513.812290,1225.752797
1159.562163,6883.915261,-6661.853478,995.924147
1159.562493,6809.894666,-6883.915261,612.876398
1159.562822,7105.977043,-7031.956449,1149.143247
1159.563152,6957.935855,-6883.915261,995.924147
1159.563481,6957.935855,-6957.935855,1072.533697
1159.563811,6883.915261,-6809.894666,1149.143247
1159.564140,7031.956449,-6291.750507,1302.362347
1159.564470,7031.956449,-6513.812290,1225.752797
1159.564799,7105.977043,-6587.832884,1225.752797
1159.565129,7031.956449,-6587.832884,536.266849
1159.565459,7031.956449,-6735.874072,842.705048
1159.565788,7105.977043,-6735.874072,995.924147
1159.566118,6883.915261,-6661.853478,1072.533697
1159.566447,6957.935855,-6587.832884,1149.143247
1159.566777,6883.915261,-6439.791695,919.314598
1159.567106,7031.956449,-6513.812290,1072.533697
1159.567436,6883.915261,-6439.791695,1072.533697
1159.567766,6883.915261,-6513.812290,919.314598
1159.568095,6809.894666,-6439.791695,995.924147
1159.568425,6883.915261,-6439.791695,995.924147
1159.568754,6883.915261,-6217.729913,1378.971896
1159.569084,7105.977043,-6439.791695,842.705048
1159.569413,7179.997637,-6513.812290,306.438199
1159.569743,7105.977043,-6661.853478,995.924147
1159.570072,7031.956449,-6661.853478,1072.533697
1159.570402,6809.894666,-5773.606348,766.095498
1159.570732,6957.935855,-6439.791695,919.314598
1159.571061,7105.977043,-6661.853478,919.314598
1159.571391,6957.935855,-6587.832884,1149.143247
1159.571720,7179.997637,-6217.729913,229.828649
1159.572050,7328.038826,-6587.832884,842.705048
1159.572379,7031.956449,-6439.791695,1072.533697
1159.572709,7031.956449,-6587.832884,1225.752797
1159.573038,7254.018232,-6365.771101,919.314598
1159.573368,7105.977043,-6439.791695,919.314598
1159.573698,6957.935855,-6735.874072,766.095498
1159.574027,6957.935855,-6587.832884,842.705048
1159.574357,6883.915261,-6883.915261,1072.533697
1159.574686,6883.915261,-6735.874072,1072.533697
1159.575016,7105.977043,-6587.832884,1225.752797
1159.575345,6735.874072,-6143.709319,689.485948
1159.575675,6957.935855,-6587.832884,919.314598
1159.576004,7105.977043,-6661.853478,919.314598
1159.576334,7402.059420,-5699.585753,919.314598
1159.576664,7698.141797,-5329.482782,1149.143247
1159.576993,8290.306550,-5403.503377,1072.533697
1159.577323,8290.306550,-5773.606348,1532.190996
1159.577652,8142.265362,-5847.626942,1225.752797
1159.577982,7328.038826,-6365.771101,536.266849
1159.578311,5921.647536,-7328.038826,0.000000
1159.578641,5773.606348,-7105.977043,0.000000
1159.578970,6365.771101,-7254.018232,612.876398
1159.579300,7179.997637,-6735.874072,995.924147
1159.579630,7994.224174,-6291.750507,1149.143247
1159.579959,8216.285956,-5403.503377,1608.800546
1159.580289,8586.388927,-4515.256246,1149.143247
1159.580618,8068.244768,-4959.379811,1302.362347
1159.580948,8438.347739,-4071.132681,766.095498
1159.581277,8882.471304,-3923.091493,1225.752797
1159.581607,8882.471304,-3997.112087,1532.190996
1159.581937,8512.368333,-4071.132681,919.314598
1159.582266,8438.347739,-5255.462188,1685.410096
1159.582596,8512.368333,-4293.194464,459.657299
1159.582925,8586.388927,-5107.421000,1302.362347
1159.583255,8586.388927,-5255.462188,1532.190996
1159.583584,8512.368333,-5033.400406,919.314598
1159.583914,8142.265362,-5181.441594,383.047749
1159.584243,7698.141797,-5107.421000,1149.143247
1159.584573,7624.121203,-6217.729913,612.876398
1159.584903,8142.265362,-5181.441594,1225.752797
1159.585232,8364.327145,-4885.359217,1149.143247
1159.585562,8734.430116,-5255.462188,995.924147
1159.585891,8438.347739,-4367.215058,1532.190996
1159.586221,8586.388927,-4441.235652,1072.533697
1159.586550,8734.430116,-3775.050304,536.266849
1159.586880,8586.388927,-3701.029710,1225.752797
1159.587209,9030.512492,-4811.338623,766.095498
1159.587539,9178.553681,-5033.400406,1225.752797
1159.587869,8808.450710,-5699.585753,1378.971896
1159.588198,8142.265362,-5921.647536,689.485948
1159.588528,7994.224174,-6439.791695,1149.143247
1159.588857,7772.162391,-6735.874072,1149.143247
1159.589187,7476.080014,-6661.853478,1225.752797
1159.589516,7328.038826,-6217.729913,1225.752797
1159.589846,7698.141797,-5847.626942,1149.143247
1159.590175,7846.182985,-4367.215058,842.705048
1159.590505,8216.285956,-4885.359217,842.705048
1159.590835,8216.285956,-5181.441594,842.705048
1159.591164,8142.265362,-5107.421000,612.876398
1159.591494,7846.182985,-4811.338623,306.438199
1159.591823,8364.327145,-4737.318029,919.314598
1159.592153,8512.368333,-6291.750507,842.705048
1159.592482,8586.388927,-6957.935855,1072.533697
1159.592812,7920.203579,-6587.832884,766.095498
1159.593142,8216.285956,-6291.750507,766.095498
1159.593471,7772.162391,-5847.626942,689.485948
1159.593801,7846.182985,-6291.750507,919.314598
1159.594130,7698.141797,-6217.729913,1149.143247
1159.594460,7772.162391,-5477.523971,1378.971896
1159.594789,7105.977043,-5329.482782,766.095498
1159.595119,7179.997637,-4737.318029,1072.533697
1159.595448,7772.162391,-5477.523971,995.924147
1159.595778,8438.347739,-5551.544565,1838.629195
1159.596108,8438.347739,-5033.400406,1532.190996
1159.596437,8290.306550,-5181.441594,1302.362347
1159.596767,8364.327145,-5699.585753,1532.190996
1159.597096,8142.265362,-6661.853478,1685.410096
1159.597426,7772.162391,-6809.894666,1991.848295
1159.597755,7105.977043,-7105.977043,689.485948
1159.598085,6291.750507,-7550.100608,766.095498
1159.598414,5773.606348,-7550.100608,229.828649
1159.598744,5699.585753,-7624.121203,459.657299
1159.599074,5477.523971,-7105.977043,459.657299
1159.599403,5477.523971,-7105.977043,76.609550
1159.599733,5551.544565,-7105.977043,229.828649
1159.600062,6217.729913,-7105.977043,0.000000
1159.600392,6439.791695,-6735.874072,0.000000
1159.600721,7105.977043,-6365.771101,459.657299
1159.601051,7772.162391,-6809.894666,842.705048
1159.601380,8216.285956,-7031.956449,1838.629195
1159.601710,8364.327145,-7031.956449,1455.581446
1159.602040,8290.306550,-5625.565159,2298.286494
1159.602369,8216.285956,-6143.709319,1685.410096
1159.602699,7772.162391,-6143.709319,1838.629195
1159.603028,7254.018232,-6513.812290,1762.019645
1159.603358,7254.018232,-5847.626942,1455.581446
1159.603687,6587.832884,-5255.462188,1608.800546
1159.604017,6291.750507,-5995.668130,1685.410096
1159.604347,5921.647536,-5773.606348,1302.362347
1159.604676,5921.647536,-4885.359217,1225.752797
1159.605006,6661.853478,-4589.276840,766.095498
1159.605335,7328.038826,-5551.544565,1149.143247
1159.605665,7179.997637,-6069.688724,1302.362347
1159.605994,7179.997637,-6661.853478,689.485948
1159.606324,7031.956449,-6439.791695,689.485948
1159.606653,6883.915261,-6365.771101,229.828649
1159.606983,7328.038826,-8142.265362,1532.190996
1159.607313,7476.080014,-7624.121203,1762.019645
1159.607642,7105.977043,-7031.956449,919.314598
1159.607972,5921.647536,-6883.915261,919.314598
1159.608301,6439.791695,-7105.977043,1608.800546
1159.608631,6217.729913,-7550.100608,995.924147
1159.608960,5329.482782,-7550.100608,1302.362347
1159.609290,5033.400406,-7105.977043,1302.362347
1159.609619,5847.626942,-7031.956449,1378.971896
1159.609949,6513.812290,-6513.812290,1455.581446
1159.610279,6661.853478,-6439.791695,1149.143247
1159.610608,7105.977043,-5847.626942,995.924147
1159.610938,7031.956449,-5995.668130,995.924147
1159.611267,7254.018232,-5699.585753,612.876398
1159.611597,7476.080014,-5403.503377,919.314598
1159.611926,7550.100608,-6587.832884,995.924147
1159.612256,7994.224174,-6439.791695,842.705048
1159.612585,7550.100608,-6587.832884,1302.362347
1159.612915,6809.894666,-7105.977043,919.314598
1159.613245,7105.977043,-7402.059420,1072.533697
1159.613574,7105.977043,-7698.141797,919.314598
1159.613904,6809.894666,-7254.018232,1225.752797
1159.614233,6809.894666,-7254.018232,995.924147
1159.614563,6809.894666,-6661.853478,1532.190996
1159.614892,7179.997637,-6217.729913,1455.581446
1159.615222,7476.080014,-6291.750507,1378.971896
1159.615552,7402.059420,-5847.626942,1532.190996
1159.615881,7179.997637,-5625.565159,1149.143247
1159.616211,7105.977043,-5847.626942,1455.581446
1159.616540,6587.832884,-5847.626942,1149.143247
1159.616870,6587.832884,-5403.503377,919.314598
1159.617199,6809.894666,-5329.482782,1378.971896
1159.617529,7328.038826,-5551.544565,919.314598
1159.617858,7105.977043,-6365.771101,306.438199
1159.618188,6883.915261,-6587.832884,306.438199
1159.618518,7105.977043,-7105.977043,229.828649
1159.618847,7254.018232,-7105.977043,766.095498
1159.619177,7402.059420,-7328.038826,995.924147
1159.619506,7031.956449,-7105.977043,919.314598
1159.619836,6957.935855,-6957.935855,766.095498
1159.620165,6661.853478,-7105.977043,1378.971896
1159.620495,7550.100608,-6883.915261,1072.533697
1159.620824,7698.141797,-6661.853478,1838.629195
1159.621154,7624.121203,-6513.812290,1838.629195
1159.621484,7105.977043,-5995.668130,1608.800546
1159.621813,6883.915261,-5847.626942,1762.019645
1159.622143,7031.956449,-5551.544565,1149.143247
1159.622472,7179.997637,-5625.565159,1455.581446
1159.622802,7254.018232,-5699.585753,1838.629195
1159.623131,6809.894666,-5477.523971,1225.752797
1159.623461,7105.977043,-5921.647536,612.876398
1159.623790,6217.729913,-7254.018232,612.876398
1159.624120,6291.750507,-7698.141797,766.095498
1159.624450,6513.812290,-7772.162391,383.047749
1159.624779,6143.709319,-7179.997637,0.000000
1159.625109,5773.606348,-7550.100608,76.609550
1159.625438,5921.647536,-7624.121203,229.828649
1159.625768,6513.812290,-7698.141797,995.924147
1159.626097,7105.977043,-7328.038826,1302.362347
1159.626427,7772.162391,-6957.935855,1378.971896
1159.626757,7772.162391,-7031.956449,2221.676944
1159.627086,7920.203579,-6439.791695,1991.848295
1159.627416,7254.018232,-5921.647536,1915.238745
1159.627745,7179.997637,-5403.503377,1455.581446
1159.628075,7105.977043,-6217.729913,1455.581446
1159.628404,6735.874072,-6365.771101,1762.019645
1159.628734,6513.812290,-5995.668130,1608.800546
1159.629063,6069.688724,-5847.626942,766.095498
1159.629393,5699.585753,-5921.647536,612.876398
1159.629722,5921.647536,-6365.771101,536.266849
1159.630052,6365.771101,-6661.853478,612.876398
1159.630381,6661.853478,-6291.750507,459.657299
1159.630711,6809.894666,-7105.977043,536.266849
1159.631040,6957.935855,-7031.956449,76.609550
1159.631370,7328.038826,-6217.729913,306.438199
1159.631699,7624.121203,-7179.997637,612.876398
1159.632029,8216.285956,-6883.915261,1149.143247
1159.632358,8734.430116,-6735.874072,1762.019645
1159.632688,9030.512492,-6735.874072,1762.019645
1159.633017,8290.306550,-6513.812290,1685.410096
1159.633347,7550.100608,-6809.894666,1378.971896
1159.633676,7105.977043,-6069.688724,1149.143247
1159.634006,7031.956449,-5995.668130,1149.143247
1159.634335,6661.853478,-6217.729913,1149.143247
1159.634665,6587.832884,-5921.647536,1225.752797
1159.634994,6661.853478,-5847.626942,766.095498
1159.635324,6069.688724,-5403.503377,689.485948
1159.635653,5773.606348,-5699.585753,995.924147
1159.635982,5921.647536,-6217.729913,536.266849
1159.636312,6365.771101,-6587.832884,459.657299
1159.636641,6513.812290,-7105.977043,536.266849
1159.636971,7105.977043,-6661.853478,0.000000
1159.637300,6809.894666,-6809.894666,229.828649
1159.637630,7328.038826,-7476.080014,536.266849
1159.637959,7772.162391,-7994.224174,612.876398
1159.638289,8216.285956,-7105.977043,1378.971896
1159.638618,8142.265362,-7105.977043,1225.752797
1159.638948,7402.059420,-7105.977043,1072.533697
1159.639277,7105.977043,-7105.977043,1455.581446
1159.639607,7105.977043,-7105.977043,1608.800546
1159.639936,7402.059420,-6143.709319,1608.800546
1159.640266,6735.874072,-5329.482782,1149.143247
1159.640595,6587.832884,-5255.462188,919.314598
1159.640925,7105.977043,-5403.503377,1455.581446
1159.641254,7254.018232,-5699.585753,1532.190996
1159.641584,6735.874072,-5551.544565,1378.971896
1159.641913,6439.791695,-4811.338623,612.876398
1159.642243,6587.832884,-5921.647536,459.657299
1159.642572,6661.853478,-6143.709319,306.438199
1159.642901,7179.997637,-7105.977043,459.657299
1159.643231,7328.038826,-7031.956449,229.828649
1159.643560,7328.038826,-7254.018232,383.047749
1159.643890,7624.121203,-7550.100608,612.876398
1159.644219,7624.121203,-7698.141797,919.314598
1159.644549,7328.038826,-7476.080014,459.657299
1159.644878,7179.997637,-7105.977043,842.705048
1159.645208,6883.915261,-7328.038826,919.314598
1159.645537,6735.874072,-7402.059420,1378.971896
1159.645867,7031.956449,-7031.956449,1762.019645
1159.646196,6735.874072,-6513.812290,2068.457845
1159.646526,6291.750507,-6513.812290,1532.190996
1159.646855,6365.771101,-5551.544565,1532.190996
1159.647185,6735.874072,-5403.503377,1455.581446
1159.647514,7402.059420,-5107.421000,1608.800546
1159.647844,7105.977043,-5625.565159,1532.190996
1159.648173,6883.915261,-5551.544565,612.876398
1159.648503,6291.750507,-5773.606348,919.314598
1159.648832,5773.606348,-6513.812290,383.047749
1159.649161,5921.647536,-7031.956449,689.485948
1159.649491,6661.853478,-7105.977043,842.705048
1159.649820,6735.874072,-7402.059420,536.266849
1159.650150,6661.853478,-7476.080014,306.438199
1159.650479,6883.915261,-7772.162391,76.609550
1159.650809,6735.874072,-7772.162391,459.657299
1159.651138,7254.018232,-7772.162391,919.314598
1159.651468,7476.080014,-7920.203579,1838.629195
1159.651797,7624.121203,-7550.100608,1532.190996
1159.652127,7476.080014,-7105.977043,1762.019645
1159.652456,7105.977043,-6217.729913,1532.190996
1159.652786,7105.977043,-6143.709319,1378.971896
1159.653115,6957.935855,-5551.544565,1608.800546
1159.653445,6513.812290,-6217.729913,1762.019645
1159.653774,6439.791695,-4959.379811,1225.752797
1159.654104,6291.750507,-5773.606348,612.876398
1159.654433,5995.668130,-6291.750507,766.095498
1159.654763,6143.709319,-6439.791695,919.314598
1159.655092,6587.832884,-6587.832884,766.095498
1159.655422,6513.812290,-6513.812290,76.609550
1159.655751,7105.977043,-6735.874072,459.657299
1159.656080,7402.059420,-7031.956449,459.657299
1159.656410,7624.121203,-6661.853478,459.657299
1159.656739,7476.080014,-6809.894666,842.705048
1159.657069,7920.203579,-6883.915261,919.314598
1159.657398,7698.141797,-7105.977043,1149.143247
1159.657728,8512.368333,-7105.977043,1455.581446
1159.658057,8586.388927,-7031.956449,1685.410096
1159.658387,7476.080014,-7031.956449,1455.581446
1159.658716,7031.956449,-6513.812290,1532.190996
1159.659046,6513.812290,-6069.688724,766.095498
1159.659375,6439.791695,-5921.647536,995.924147
1159.659705,6513.812290,-6217.729913,1608.800546
1159.660034,6513.812290,-5773.606348,1072.533697
1159.660364,6217.729913,-5329.482782,766.095498
1159.660693,6143.709319,-5329.482782,536.266849
1159.661023,6143.709319,-5995.668130,1072.533697
1159.661352,6143.709319,-6291.750507,612.876398
1159.661682,6513.812290,-6883.915261,536.266849
1159.662011,6587.832884,-6957.935855,383.047749
1159.662340,7254.018232,-6735.874072,536.266849
1159.662670,7105.977043,-7179.997637,612.876398
1159.662999,7550.100608,-7846.182985,919.314598
1159.663329,7698.141797,-8142.265362,995.924147
1159.663658,7624.121203,-7476.080014,1302.362347
1159.663988,7476.080014,-7624.121203,1532.190996
1159.664317,7254.018232,-7328.038826,1455.581446
1159.664647,7105.977043,-7105.977043,1378.971896
1159.664976,7105.977043,-6661.853478,1685.410096
1159.665306,6957.935855,-5551.544565,1991.848295
1159.665635,7105.977043,-5107.421000,1072.533697
1159.665965,6809.894666,-4959.379811,1608.800546
1159.666294,6661.853478,-5255.462188,1532.190996
1159.666624,6365.771101,-5625.565159,1455.581446
1159.666953,6365.771101,-4959.379811,383.047749
1159.667283,6365.771101,-6143.709319,76.609550
1159.667612,6439.791695,-6143.709319,459.657299
1159.667942,6957.935855,-7031.956449,459.657299
1159.668271,6957.935855,-7402.059420,383.047749
1159.668600,7254.018232,-6883.915261,766.095498
1159.668930,7105.977043,-7698.141797,689.485948
1159.669259,7846.182985,-7772.162391,1072.533697
1159.669589,7772.162391,-7846.182985,995.924147
1159.669918,7179.997637,-7698.141797,919.314598
1159.670248,6809.894666,-7254.018232,919.314598
1159.670577,6809.894666,-7920.203579,1455.581446
1159.670907,7402.059420,-7105.977043,1991.848295
1159.671236,7105.977043,-6587.832884,1838.629195
1159.671566,6809.894666,-6217.729913,1532.190996
1159.671895,6809.894666,-5255.462188,1762.019645
1159.672225,6735.874072,-5181.441594,1378.971896
1159.672554,6957.935855,-4885.359217,1608.800546
1159.672884,7031.956449,-4737.318029,1149.143247
1159.673213,6513.812290,-4589.276840,536.266849
1159.673543,6513.812290,-5329.482782,1072.533697
1159.673872,6513.812290,-6291.750507,536.266849
1159.674202,6587.832884,-6957.935855,766.095498
1159.674531,6735.874072,-7105.977043,536.266849
1159.674861,7254.018232,-7105.977043,306.438199
1159.675190,6957.935855,-7550.100608,459.657299
1159.675519,7031.956449,-8290.306550,153.219100
1159.675849,7105.977043,-7994.224174,306.438199
1159.676178,7402.059420,-8142.265362,919.314598
1159.676508,7179.997637,-7846.182985,1072.533697
1159.676837,7105.977043,-7402.059420,1455.581446
1159.677167,7179.997637,-7402.059420,1455.581446
1159.677496,7105.977043,-6217.729913,1608.800546
1159.677826,7402.059420,-5477.523971,1532.190996
1159.678155,6587.832884,-5773.606348,1915.238745
1159.678485,6661.853478,-5107.421000,1378.971896
1159.678814,6365.771101,-5107.421000,1072.533697
1159.679144,6143.709319,-5033.400406,766.095498
1159.679473,5995.668130,-5699.585753,1149.143247
1159.679803,6587.832884,-5699.585753,1225.752797
1159.680132,6735.874072,-5551.544565,612.876398
1159.680462,7105.977043,-6069.688724,536.266849
1159.680791,7846.182985,-6883.915261,995.924147
1159.681121,7328.038826,-7105.977043,612.876398
1159.681450,7179.997637,-7105.977043,612.876398
1159.681779,7550.100608,-6735.874072,229.828649
1159.682109,7994.224174,-6957.935855,536.266849
1159.682438,8364.327145,-7105.977043,1378.971896
1159.682768,8216.285956,-7550.100608,1532.190996
1159.683097,7920.203579,-7624.121203,1455.581446
1159.683427,7476.080014,-7328.038826,919.314598
1159.683756,6957.935855,-7105.977043,1378.971896
1159.684086,6217.729913,-7031.956449,1302.362347
1159.684415,6439.791695,-6587.832884,1378.971896
1159.684745,5699.585753,-5847.626942,919.314598
1159.685074,5773.606348,-5625.565159,1072.533697
1159.685404,6513.812290,-5403.503377,689.485948
1159.685733,6291.750507,-5551.544565,766.095498
1159.686063,6365.771101,-5329.482782,459.657299
1159.686392,6365.771101,-6069.688724,459.657299
1159.686722,6439.791695,-6883.915261,612.876398
1159.687051,6957.935855,-6957.935855,153.219100
1159.687381,6661.853478,-7328.038826,842.705048
1159.687710,7328.038826,-6883.915261,459.657299
1159.688040,7550.100608,-7476.080014,766.095498
1159.688369,8142.265362,-7846.182985,1762.019645
1159.688698,7920.203579,-7476.080014,1225.752797
1159.689028,7624.121203,-6661.853478,1149.143247
1159.689357,7179.997637,-6809.894666,1608.800546
1159.689687,7179.997637,-6661.853478,1915.238745
1159.690016,7105.977043,-5847.626942,2068.457845
1159.690346,7031.956449,-5181.441594,1838.629195
1159.690675,6661.853478,-5255.462188,1455.581446
1159.691005,6439.791695,-5107.421000,1149.143247
1159.691334,6513.812290,-5921.647536,1838.629195
1159.691664,6365.771101,-5625.565159,1072.533697
1159.691993,6365.771101,-5625.565159,306.438199
1159.692323,6217.729913,-6217.729913,383.047749
1159.692652,6587.832884,-6661.853478,612.876398
1159.692982,6735.874072,-7105.977043,842.705048
1159.693311,6735.874072,-7031.956449,153.219100
1159.693641,6883.915261,-7105.977043,536.266849
1159.693970,7105.977043,-7772.162391,536.266849
1159.694300,7920.203579,-8142.265362,1149.143247
1159.694629,7772.162391,-7402.059420,995.924147
1159.694958,7402.059420,-7402.059420,919.314598
1159.695288,7254.018232,-7179.997637,1302.362347
1159.695617,7402.059420,-7402.059420,1532.190996
1159.695947,7476.080014,-6809.894666,2528.115143
1159.696276,7328.038826,-5921.647536,1915.238745
1159.696606,6957.935855,-5699.585753,1532.190996
1159.696935,6661.853478,-5033.400406,1455.581446
1159.697265,6809.894666,-5551.544565,1608.800546
1159.697594,6883.915261,-5477.523971,1762.019645
1159.697924,6735.874072,-4885.359217,1072.533697
1159.698253,6513.812290,-5773.606348,1149.143247
1159.698583,6291.750507,-5921.647536,766.095498
1159.698912,6513.812290,-7105.977043,842.705048
1159.699242,6365.771101,-7105.977043,536.266849
1159.699571,6439.791695,-6883.915261,536.266849
1159.699901,6735.874072,-7402.059420,459.657299
1159.700230,6661.853478,-7624.121203,229.828649
1159.700560,6883.915261,-7994.224174,-153.219100
1159.700889,6957.935855,-8364.327145,1149.143247
1159.701219,7402.059420,-7994.224174,1149.143247
1159.701548,7402.059420,-7772.162391,1455.581446
1159.701877,7550.100608,-6661.853478,1991.848295
1159.702207,7179.997637,-6957.935855,1838.629195
1159.702536,6957.935855,-5921.647536,1532.190996
1159.702866,6587.832884,-5255.462188,1149.143247
1159.703195,6439.791695,-5181.441594,1072.533697
1159.703525,6661.853478,-4811.338623,1225.752797
1159.703854,6291.750507,-5181.441594,1072.533697
1159.704184,6365.771101,-5477.523971,1149.143247
1159.704513,6291.750507,-5477.523971,766.095498
1159.704843,6809.894666,-5921.647536,612.876398
1159.705172,7179.997637,-6217.729913,919.314598
1159.705502,6957.935855,-6957.935855,76.609550
1159.705831,7031.956449,-7254.018232,536.266849
1159.706161,7105.977043,-7105.977043,383.047749
1159.706490,7402.059420,-7031.956449,0.000000
1159.706820,7402.059420,-7994.224174,612.876398
1159.707149,8068.244768,-7105.977043,689.485948
1159.707479,8808.450710,-7476.080014,1608.800546
1159.707808,8660.409521,-7105.977043,1915.238745
1159.708137,7698.141797,-7031.956449,1685.410096
1159.708467,7476.080014,-6661.853478,1378.971896
1159.708796,6809.894666,-6291.750507,1532.190996
1159.709126,6809.894666,-6069.688724,1072.533697
1159.709455,7105.977043,-5995.668130,1608.800546
1159.709785,6735.874072,-5255.462188,919.314598
1159.710114,6439.791695,-5773.606348,919.314598
1159.710444,6291.750507,-5329.482782,919.314598
1159.710773,6217.729913,-6069.688724,612.876398
1159.711103,5699.585753,-6439.791695,459.657299
1159.711432,5995.668130,-6291.750507,153.219100
1159.711762,6143.709319,-7105.977043,306.438199
1159.712091,6513.812290,-7105.977043,459.657299
1159.712421,6809.894666,-7402.059420,536.266849
1159.712750,7031.956449,-7105.977043,842.705048
1159.713080,7476.080014,-7105.977043,612.876398
1159.713409,8068.244768,-7698.141797,1378.971896
1159.713739,8438.347739,-7105.977043,1685.410096
1159.714068,8290.306550,-7031.956449,1685.410096
1159.714397,7476.080014,-6661.853478,1685.410096
1159.714727,7179.997637,-6587.832884,1685.410096
1159.715056,7031.956449,-6143.709319,1762.019645
1159.715386,6883.915261,-5995.668130,1762.019645
1159.715715,6735.874072,-5995.668130,1302.362347
1159.716045,6217.729913,-5477.523971,1225.752797
1159.716374,6069.688724,-6143.709319,1302.362347
1159.716704,6365.771101,-5921.647536,1149.143247
1159.717033,6587.832884,-5403.503377,536.266849
1159.717363,6217.729913,-5921.647536,229.828649
1159.717692,6365.771101,-5995.668130,689.485948
1159.718022,6957.935855,-6365.771101,536.266849
1159.718351,7105.977043,-6735.874072,383.047749
1159.718681,6957.935855,-6587.832884,612.876398
1159.719010,7328.038826,-7328.038826,689.485948
1159.719340,7920.203579,-7846.182985,1225.752797
1159.719669,7846.182985,-7772.162391,1225.752797
1159.719999,7254.018232,-7402.059420,1225.752797
1159.720328,7254.018232,-7179.997637,1149.143247
1159.720658,7328.038826,-7920.203579,1608.800546
1159.720987,7254.018232,-7624.121203,1915.238745
1159.721316,6883.915261,-6291.750507,1378.971896
1159.721646,6809.894666,-5403.503377,1378.971896
1159.721975,6735.874072,-5181.441594,1302.362347
1159.722305,6957.935855,-5181.441594,1532.190996
1159.722634,7254.018232,-4737.318029,1762.019645
1159.722964,6883.915261,-4589.276840,1225.752797
1159.723293,6809.894666,-5255.462188,536.266849
1159.723623,6587.832884,-5773.606348,536.266849
1159.723952,6587.832884,-6513.812290,612.876398
1159.724282,6513.812290,-6957.935855,76.609550
1159.724611,6809.894666,-7105.977043,1149.143247
1159.724941,7105.977043,-7772.162391,383.047749
1159.725270,7179.997637,-8438.347739,536.266849
1159.725600,7105.977043,-8586.388927,459.657299
1159.725929,6883.915261,-8142.265362,306.438199
1159.726259,6957.935855,-8068.244768,536.266849
1159.726588,7179.997637,-7920.203579,1149.143247
1159.726918,7179.997637,-7105.977043,1608.800546
1159.727247,7105.977043,-6143.709319,1991.848295
1159.727576,7031.956449,-5773.606348,1762.019645
1159.727906,6661.853478,-5181.441594,1455.581446
1159.728235,6809.894666,-5181.441594,1685.410096
1159.728565,6809.894666,-5329.482782,1378.971896
1159.728894,6439.791695,-5107.421000,1225.752797
1159.729224,6439.791695,-5181.441594,612.876398
1159.729553,6587.832884,-5921.647536,919.314598
1159.729883,6513.812290,-6439.791695,842.705048
1159.730212,6735.874072,-6957.935855,689.485948
1159.730542,6661.853478,-6809.894666,383.047749
1159.730871,7105.977043,-6735.874072,459.657299
1159.731201,7179.997637,-7105.977043,612.876398
1159.731530,6957.935855,-7402.059420,536.266849
1159.731860,6957.935855,-7328.038826,229.828649
1159.732189,7402.059420,-6883.915261,536.266849
1159.732518,7698.141797,-7105.977043,1149.143247
1159.732848,7994.224174,-7476.080014,1378.971896
1159.733177,7772.162391,-7624.121203,1915.238745
1159.733507,7624.121203,-7254.018232,1455.581446
1159.733836,7698.141797,-6587.832884,1532.190996
1159.734166,6661.853478,-6587.832884,1225.752797
1159.734495,6809.894666,-6365.771101,1838.629195
1159.734825,6661.853478,-5699.585753,1225.752797
1159.735154,6365.771101,-5551.544565,1149.143247
1159.735483,6069.688724,-5551.544565,612.876398
1159.735813,6365.771101,-5625.565159,612.876398
1159.736142,6291.750507,-5773.606348,536.266849
1159.736472,6291.750507,-6217.729913,459.657299
1159.736801,6291.750507,-6439.791695,689.485948
1159.737131,6365.771101,-6587.832884,383.047749
1159.737460,6217.729913,-6883.915261,0.000000
1159.737789,7254.018232,-7179.997637,612.876398
1159.738119,7624.121203,-7624.121203,842.705048
1159.738448,7920.203579,-7994.224174,1225.752797
1159.738778,8290.306550,-7550.100608,1532.190996
1159.739107,7994.224174,-7402.059420,1378.971896
1159.739437,7550.100608,-6809.894666,1608.800546
1159.739766,7624.121203,-6143.709319,1225.752797
1159.740095,7179.997637,-6291.750507,1532.190996
1159.740425,6513.812290,-6217.729913,1455.581446
1159.740754,6365.771101,-5107.421000,1455.581446
1159.741084,6365.771101,-4959.379811,383.047749
1159.741413,6291.750507,-5847.626942,689.485948
1159.741743,5921.647536,-6069.688724,689.485948
1159.742072,6291.750507,-5921.647536,612.876398
1159.742401,6587.832884,-5847.626942,689.485948
1159.742731,7328.038826,-5773.606348,919.314598
1159.743060,6809.894666,-7105.977043,306.438199
1159.743390,7476.080014,-7179.997637,612.876398
1159.743719,7328.038826,-7031.956449,536.266849
1159.744049,7772.162391,-7031.956449,1149.143247
1159.744378,7846.182985,-7105.977043,1838.629195
1159.744707,8290.306550,-7402.059420,1072.533697
1159.745037,7920.203579,-7402.059420,1225.752797
1159.745366,7328.038826,-7031.956449,1149.143247
1159.745696,7254.018232,-7105.977043,1608.800546
1159.746025,7179.997637,-6439.791695,2374.896044
1159.746355,6957.935855,-6587.832884,1455.581446
1159.746684,6217.729913,-5847.626942,1225.752797
1159.747014,5921.647536,-5699.585753,1302.362347
1159.747343,6217.729913,-5699.585753,842.705048
1159.747672,6661.853478,-5625.565159,1608.800546
1159.748002,6735.874072,-5403.503377,1455.581446
1159.748331,7105.977043,-5625.565159,1149.143247
1159.748661,7105.977043,-5921.647536,1072.533697
1159.748990,6809.894666,-6069.688724,612.876398
1159.749320,6513.812290,-6143.709319,689.485948
1159.749649,7179.997637,-6735.874072,842.705048
1159.749978,7254.018232,-7105.977043,1149.143247
1159.750308,7254.018232,-7476.080014,995.924147
1159.750637,7105.977043,-7328.038826,383.047749
1159.750967,7105.977043,-7698.141797,306.438199
1159.751296,7105.977043,-8068.244768,842.705048
1159.751626,6735.874072,-7846.182985,1149.143247
1159.751955,6957.935855,-7698.141797,1532.190996
1159.752284,6735.874072,-7179.997637,1532.190996
1159.752614,6365.771101,-6291.750507,1225.752797
1159.752943,6365.771101,-5847.626942,1455.581446
1159.753273,6883.915261,-5699.585753,2145.067394
1159.753602,7624.121203,-4367.215058,1915.238745
1159.753932,7105.977043,-4515.256246,1838.629195
1159.754261,6957.935855,-4663.297435,1532.190996
1159.754590,6883.915261,-5033.400406,1302.362347
1159.754920,7031.956449,-5107.421000,383.047749
1159.755249,7105.977043,-6513.812290,612.876398
1159.755579,6735.874072,-7031.956449,0.000000
1159.755908,6513.812290,-7105.977043,459.657299
1159.756238,6957.935855,-7105.977043,229.828649
1159.756567,7328.038826,-7846.182985,76.609550
1159.756897,7179.997637,-7994.224174,306.438199
1159.757226,7624.121203,-7550.100608,766.095498
1159.757555,8142.265362,-7105.977043,919.314598
1159.757885,7920.203579,-7105.977043,1838.629195
1159.758214,7550.100608,-7105.977043,1302.362347
1159.758544,7105.977043,-6661.853478,1455.581446
1159.758873,6809.894666,-6735.874072,1532.190996
1159.759203,6883.915261,-6143.709319,1378.971896
1159.759532,7031.956449,-5699.585753,1455.581446
1159.759861,6809.894666,-5773.606348,1532.190996
1159.760191,6809.894666,-5921.647536,1225.752797
1159.760520,6513.812290,-6069.688724,1225.752797
1159.760850,6143.709319,-6217.729913,536.266849
1159.761179,5773.606348,-6291.750507,459.657299
1159.761509,5625.565159,-6957.935855,612.876398
1159.761838,5921.647536,-6883.915261,383.047749
1159.762167,6439.791695,-7031.956449,306.438199
1159.762497,7105.977043,-6809.894666,306.438199
1159.762826,7105.977043,-7254.018232,306.438199
1159.763156,7328.038826,-7328.038826,1072.533697
1159.763485,8216.285956,-7105.977043,842.705048
1159.763815,8216.285956,-7179.997637,1685.410096
1159.764144,8216.285956,-7402.059420,1762.019645
1159.764473,7698.141797,-7031.956449,1838.629195
1159.764803,7698.141797,-6365.771101,1608.800546
1159.765132,7105.977043,-5921.647536,1608.800546
1159.765462,6513.812290,-5699.585753,1149.143247
1159.765791,6809.894666,-6217.729913,1378.971896
1159.766121,6439.791695,-5255.462188,919.314598
1159.766450,6143.709319,-5403.503377,1072.533697
1159.766779,5847.626942,-5329.482782,689.485948
1159.767109,5773.606348,-5403.503377,1455.581446
1159.767438,5995.668130,-5699.585753,1149.143247
1159.767768,6439.791695,-5551.544565,383.047749
1159.768097,6809.894666,-5995.668130,229.828649
1159.768427,7402.059420,-6809.894666,766.095498
1159.768756,7994.224174,-6957.935855,689.485948
1159.769086,8068.244768,-7105.977043,1149.143247
1159.769415,7920.203579,-7846.182985,995.924147
1159.769744,7698.141797,-7698.141797,1225.752797
1159.770074,7105.977043,-7772.162391,1762.019645
1159.770403,7105.977043,-7698.141797,995.924147
1159.770733,7179.997637,-7328.038826,1149.143247
1159.771062,7328.038826,-7105.977043,1608.800546
1159.771392,7328.038826,-6143.709319,1762.019645
1159.771721,6661.853478,-5181.441594,2221.676944
1159.772050,6513.812290,-5107.421000,1378.971896
1159.772380,6513.812290,-5329.482782,1149.143247
1159.772709,6809.894666,-5255.462188,1149.143247
1159.773039,6661.853478,-5181.441594,1072.533697
1159.773368,6513.812290,-5699.585753,689.485948
1159.773698,6513.812290,-6217.729913,612.876398
1159.774027,6513.812290,-7476.080014,766.095498
1159.774356,6883.915261,-7624.121203,536.266849
1159.774686,7105.977043,-7846.182985,153.219100
1159.775015,7105.977043,-7698.141797,536.266849
1159.775345,6735.874072,-8216.285956,536.266849
1159.775674,6513.812290,-8142.265362,383.047749
1159.776004,6809.894666,-8290.306550,995.924147
1159.776333,7105.977043,-7920.203579,1072.533697
1159.776662,7328.038826,-7105.977043,1302.362347
1159.776992,7550.100608,-6735.874072,2145.067394
1159.777321,7402.059420,-6291.750507,2298.286494
1159.777651,6661.853478,-5255.462188,1991.848295
1159.777980,6513.812290,-5255.462188,1762.019645
1159.778310,6587.832884,-5181.441594,1532.190996
1159.778639,6735.874072,-5477.523971,1378.971896
1159.778968,6809.894666,-5773.606348,1149.143247
1159.779298,7031.956449,-5625.565159,1149.143247
1159.779627,5995.668130,-6069.688724,766.095498
1159.779957,6143.709319,-6217.729913,612.876398
1159.780286,6217.729913,-6439.791695,76.609550
1159.780616,7031.956449,-7476.080014,153.219100
1159.780945,6957.935855,-7031.956449,306.438199
1159.781275,7105.977043,-6661.853478,536.266849
1159.781604,7328.038826,-6735.874072,612.876398
1159.781933,7698.141797,-6291.750507,689.485948
1159.782263,8734.430116,-7105.977043,1149.143247
1159.782592,8956.491898,-6365.771101,1532.190996
1159.782922,8512.368333,-6513.812290,1378.971896
1159.783251,7624.121203,-6513.812290,1532.190996
1159.783581,7254.018232,-7105.977043,1072.533697
1159.783910,7105.977043,-7105.977043,1225.752797
1159.784239,6661.853478,-6587.832884,1532.190996
1159.784569,6735.874072,-6365.771101,1455.581446
1159.784898,6439.791695,-6143.709319,1378.971896
1159.785228,5847.626942,-5995.668130,1455.581446
1159.785557,6291.750507,-6069.688724,842.705048
1159.785887,5477.523971,-5403.503377,383.047749
1159.786216,6143.709319,-5625.565159,153.219100
1159.786545,6069.688724,-6291.750507,0.000000
1159.786875,6439.791695,-6365.771101,612.876398
1159.787204,6809.894666,-6809.894666,229.828649
1159.787534,7402.059420,-6809.894666,459.657299
1159.787863,7772.162391,-7031.956449,536.266849
1159.788193,8142.265362,-7994.224174,1149.143247
1159.788522,7846.182985,-7698.141797,1225.752797
1159.788851,7550.100608,-8068.244768,1302.362347
1159.789181,7624.121203,-7402.059420,766.095498
1159.789510,7105.977043,-7254.018232,1608.800546
1159.789840,7105.977043,-7328.038826,1532.190996
1159.790169,7105.977043,-6513.812290,1532.190996
1159.790499,6735.874072,-5699.585753,1532.190996
1159.790828,6587.832884,-5107.421000,1302.362347
1159.791157,6291.750507,-4885.359217,1225.752797
1159.791487,6587.832884,-4885.359217,1608.800546
1159.791816,6365.771101,-4737.318029,995.924147
1159.792146,6291.750507,-5107.421000,689.485948
1159.792475,6217.729913,-5847.626942,383.047749
1159.792805,6365.771101,-6809.894666,383.047749
1159.793134,7105.977043,-7179.997637,689.485948
1159.793464,7550.100608,-6735.874072,383.047749
1159.793793,7772.162391,-7476.080014,842.705048
1159.794122,7846.182985,-7920.203579,1072.533697
1159.794452,7698.141797,-7994.224174,842.705048
1159.794781,7698.141797,-7328.038826,1072.533697
1159.795111,7402.059420,-7179.997637,1072.533697
1159.795440,7105.977043,-7402.059420,1072.533697
1159.795770,6735.874072,-6661.853478,1762.019645
1159.796099,7105.977043,-6587.832884,1915.238745
1159.796428,7031.956449,-5921.647536,1455.581446
1159.796758,7031.956449,-5329.482782,1455.581446
1159.797087,6883.915261,-5551.544565,1532.190996
1159.797417,7254.018232,-4959.379811,1685.410096
1159.797746,6661.853478,-5181.441594,1302.362347
1159.798076,6809.894666,-5477.523971,1149.143247
1159.798405,6957.935855,-5625.565159,1072.533697
1159.798734,7031.956449,-6587.832884,612.876398
1159.799064,6217.729913,-6809.894666,459.657299
1159.799393,6365.771101,-7105.977043,612.876398
1159.799723,6217.729913,-7624.121203,689.485948
1159.800052,6365.771101,-7624.121203,229.828649
1159.800382,6291.750507,-8808.450710,306.438199
1159.800711,6291.750507,-8068.244768,0.000000
1159.801040,6439.791695,-7994.224174,306.438199
1159.801370,7254.018232,-7920.203579,919.314598
1159.801699,7920.203579,-7328.038826,1838.629195
1159.802029,7846.182985,-6513.812290,1455.581446
1159.802358,7328.038826,-6365.771101,1762.019645
1159.802688,7105.977043,-5995.668130,1685.410096
1159.803017,7105.977043,-5699.585753,1915.238745
1159.803347,7031.956449,-4959.379811,2145.067394
1159.803676,6957.935855,-5181.441594,1532.190996
1159.804005,6809.894666,-5033.400406,1149.143247
1159.804335,6513.812290,-5847.626942,1072.533697
1159.804664,6439.791695,-6217.729913,995.924147
1159.804994,6143.709319,-5995.668130,306.438199
1159.805323,5995.668130,-6365.771101,153.219100
1159.805653,6587.832884,-6069.688724,-306.438199
1159.805982,7105.977043,-6883.915261,306.438199
1159.806311,7328.038826,-7105.977043,383.047749
1159.806641,7550.100608,-6883.915261,536.266849
1159.806970,7772.162391,-7105.977043,766.095498
1159.807300,7994.224174,-6661.853478,1149.143247
1159.807629,8586.388927,-6809.894666,1302.362347
1159.807959,8512.368333,-6735.874072,1302.362347
1159.808288,7772.162391,-7031.956449,1455.581446
1159.808617,7105.977043,-6809.894666,1302.362347
1159.808947,6957.935855,-6217.729913,1225.752797
1159.809276,6883.915261,-6439.791695,1455.581446
1159.809606,6809.894666,-5995.668130,1915.238745
1159.809935,6291.750507,-7031.956449,1225.752797
1159.810265,5699.585753,-6587.832884,1149.143247
1159.810594,5551.544565,-5921.647536,612.876398
1159.810923,5551.544565,-6069.688724,612.876398
1159.811253,5699.585753,-6143.709319,229.828649
1159.811582,5625.565159,-6735.874072,383.047749
1159.811912,6365.771101,-6513.812290,306.438199
1159.812241,6809.894666,-6513.812290,536.266849
1159.812571,7476.080014,-6217.729913,76.609550
1159.812900,7624.121203,-6735.874072,229.828649
1159.813229,7772.162391,-7846.182985,995.924147
1159.813559,7624.121203,-7624.121203,1072.533697
1159.813888,7254.018232,-7402.059420,1608.800546
1159.814218,7624.121203,-7328.038826,1149.143247
1159.814547,7402.059420,-7105.977043,1225.752797
1159.814877,7328.038826,-7402.059420,1685.410096
1159.815206,7105.977043,-6217.729913,1685.410096
1159.815536,6957.935855,-6217.729913,1685.410096
1159.815865,6143.709319,-5477.523971,1378.971896
1159.816194,6143.709319,-4959.379811,1149.143247
1159.816524,6217.729913,-5773.606348,1685.410096
1159.816853,6069.688724,-5255.462188,1302.362347
1159.817183,6365.771101,-5403.503377,536.266849
1159.817512,5921.647536,-5921.647536,919.314598
1159.817842,6883.915261,-6069.688724,766.095498
1159.818171,7105.977043,-7105.977043,612.876398
1159.818500,7846.182985,-6291.750507,459.657299
1159.818830,7624.121203,-6735.874072,536.266849
1159.819159,7550.100608,-7179.997637,842.705048
1159.819489,7772.162391,-7698.141797,766.095498
1159.819818,8068.244768,-7624.121203,689.485948
1159.820148,7772.162391,-7772.162391,1302.362347
1159.820477,7402.059420,-7402.059420,1149.143247
1159.820806,7031.956449,-7105.977043,1302.362347
1159.821136,7105.977043,-6661.853478,1378.971896
1159.821465,7179.997637,-6661.853478,1685.410096
1159.821795,6809.894666,-5847.626942,2068.457845
1159.822124,6957.935855,-5107.421000,1762.019645
1159.822454,6661.853478,-4441.235652,1072.533697
1159.822783,7105.977043,-4737.318029,1532.190996
1159.823112,7624.121203,-5403.503377,1915.238745
1159.823442,7328.038826,-5773.606348,1532.190996
1159.823771,6661.853478,-5921.647536,689.485948
1159.824101,5921.647536,-6291.750507,76.609550
1159.824430,5847.626942,-7179.997637,0.000000
1159.824760,6365.771101,-7772.162391,383.047749
1159.825089,6587.832884,-8068.244768,383.047749
1159.825418,6439.791695,-8068.244768,76.609550
1159.825748,6883.915261,-7772.162391,459.657299
1159.826077,7105.977043,-8068.244768,229.828649
1159.826407,7328.038826,-8364.327145,1072.533697
1159.826736,7254.018232,-8142.265362,1608.800546
1159.827066,7328.038826,-7179.997637,1762.019645
1159.827395,7179.997637,-6439.791695,1762.019645
1159.827725,7105.977043,-5921.647536,1915.238745
1159.828054,7105.977043,-5477.523971,2068.457845
1159.828383,7179.997637,-5625.565159,1762.019645
1159.828713,7031.956449,-4959.379811,1455.581446
1159.829042,6513.812290,-4811.338623,995.924147
1159.829372,6809.894666,-5255.462188,612.876398
1159.829701,5995.668130,-5699.585753,383.047749
1159.830031,6069.688724,-6143.709319,153.219100
1159.830360,5995.668130,-6439.791695,76.609550
1159.830689,6735.874072,-6809.894666,995.924147
1159.831018,7105.977043,-6957.935855,536.266849
1159.831348,7476.080014,-6883.915261,689.485948
1159.831677,7328.038826,-7328.038826,842.705048
1159.832006,7846.182985,-6809.894666,536.266849
1159.832335,7698.141797,-7105.977043,995.924147
1159.832664,8586.388927,-6883.915261,842.705048
1159.832993,8586.388927,-7105.977043,1455.581446
1159.833323,8216.285956,-7402.059420,2145.067394
1159.833652,7846.182985,-6661.853478,1608.800546
1159.833981,7402.059420,-6069.688724,1532.190996
1159.834310,7328.038826,-6217.729913,1302.362347
1159.834639,6809.894666,-5995.668130,1608.800546
1159.834968,6291.750507,-6291.750507,1225.752797
1159.835298,5847.626942,-5699.585753,536.266849
1159.835627,5477.523971,-5847.626942,153.219100
1159.835956,5551.544565,-5847.626942,306.438199
1159.836285,5921.647536,-6217.729913,383.047749
1159.836614,6291.750507,-6809.894666,766.095498
1159.836943,6513.812290,-6217.729913,842.705048
1159.837273,6809.894666,-6513.812290,229.828649
1159.837602,7402.059420,-6883.915261,689.485948
1159.837931,7698.141797,-7105.977043,612.876398
1159.838260,8142.265362,-7772.162391,919.314598
1159.838589,7698.141797,-7550.100608,1455.581446
1159.838919,7772.162391,-7550.100608,1225.752797
1159.839248,7994.224174,-7476.080014,1455.581446
1159.839577,7624.121203,-7105.977043,1838.629195
1159.839906,7550.100608,-6883.915261,1455.581446
1159.840235,6809.894666,-6365.771101,1225.752797
1159.840564,6291.750507,-5699.585753,1608.800546
1159.840894,6587.832884,-5773.606348,1072.533697
1159.841223,6513.812290,-5181.441594,1838.629195
1159.841552,6069.688724,-5625.565159,1302.362347
1159.841881,5995.668130,-5255.462188,459.657299
1159.842210,5995.668130,-5477.523971,536.266849
1159.842539,6217.729913,-5921.647536,383.047749
1159.842869,6957.935855,-5773.606348,536.266849
1159.843198,7179.997637,-6883.915261,612.876398
1159.843527,7920.203579,-7179.997637,536.266849
1159.843856,7624.121203,-7105.977043,689.485948
1159.844185,7328.038826,-7402.059420,1378.971896
1159.844515,7846.182985,-7698.141797,1378.971896
1159.844844,7994.224174,-8068.244768,1378.971896
1159.845173,7476.080014,-7254.018232,1072.533697
1159.845502,7105.977043,-7179.997637,459.657299
1159.845831,6809.894666,-6883.915261,689.485948
1159.846160,6809.894666,-6735.874072,1455.581446
1159.846490,6735.874072,-6439.791695,1838.629195
1159.846819,6735.874072,-5403.503377,1302.362347
1159.847148,6735.874072,-4737.318029,1685.410096
1159.847477,6809.894666,-5181.441594,1915.238745
1159.847806,7031.956449,-5477.523971,1685.410096
1159.848135,7031.956449,-5625.565159,1378.971896
1159.848465,6883.915261,-5403.503377,1149.143247
1159.848794,6735.874072,-5773.606348,1225.752797
1159.849123,6365.771101,-7105.977043,766.095498
1159.849452,5995.668130,-7179.997637,459.657299
1159.849781,6439.791695,-7254.018232,229.828649
1159.850110,6365.771101,-7328.038826,306.438199
1159.850440,6217.729913,-7920.203579,306.438199
1159.850769,6513.812290,-7920.203579,536.266849
1159.851098,6661.853478,-7698.141797,689.485948
1159.851427,6883.915261,-7550.100608,612.876398
1159.851756,7402.059420,-6957.935855,1685.410096
1159.852086,7624.121203,-6809.894666,1915.238745
1159.852415,7920.203579,-6587.832884,2221.676944
1159.852744,7476.080014,-6069.688724,1762.019645
1159.853073,7105.977043,-5403.503377,1685.410096
1159.853402,7105.977043,-5625.565159,1072.533697
1159.853731,6809.894666,-5477.523971,1455.581446
1159.854061,6439.791695,-5625.565159,1302.362347
1159.854390,5995.668130,-5847.626942,842.705048
1159.854719,5847.626942,-5773.606348,536.266849
1159.855048,5995.668130,-6143.709319,383.047749
1159.855377,6143.709319,-6957.935855,459.657299
1159.855706,6513.812290,-7179.997637,383.047749
1159.856036,7031.956449,-7179.997637,536.266849
1159.856365,7476.080014,-6661.853478,1072.533697
1159.856694,7254.018232,-7105.977043,229.828649
1159.857023,7328.038826,-7105.977043,306.438199
1159.857352,7920.203579,-7105.977043,919.314598
1159.857682,8882.471304,-7105.977043,1378.971896
1159.858011,9104.533087,-7031.956449,1608.800546
1159.858340,8364.327145,-6809.894666,2068.457845
1159.858669,7476.080014,-6439.791695,1378.971896
1159.858998,6735.874072,-5995.668130,1225.752797
1159.859327,6957.935855,-6957.935855,1991.848295
1159.859657,6883.915261,-6069.688724,1685.410096
1159.859986,6365.771101,-5773.606348,995.924147
1159.860315,5773.606348,-5551.544565,842.705048
1159.860644,5773.606348,-6291.750507,153.219100
1159.860973,5995.668130,-6587.832884,612.876398
1159.861302,6143.709319,-6439.791695,153.219100
1159.861632,6143.709319,-6513.812290,383.047749
1159.861961,6661.853478,-6439.791695,0.000000
1159.862290,7105.977043,-6587.832884,612.876398
1159.862619,7105.977043,-6809.894666,536.266849
1159.862948,7402.059420,-7105.977043,612.876398
1159.863277,7402.059420,-7179.997637,536.266849
1159.863607,7698.141797,-7624.121203,1225.752797
1159.863936,7920.203579,-8142.265362,1532.190996
1159.864265,7624.121203,-7550.100608,1455.581446
1159.864594,6957.935855,-7254.018232,1072.533697
1159.864923,6883.915261,-6883.915261,1532.190996
1159.865253,6883.915261,-6365.771101,1991.848295
1159.865582,7105.977043,-5995.668130,1838.629195
1159.865911,6883.915261,-5181.441594,1455.581446
1159.866240,6735.874072,-4885.359217,1455.581446
1159.866569,6513.812290,-5255.462188,919.314598
1159.866898,6143.709319,-5033.400406,1455.581446
1159.867228,6291.750507,-5403.503377,842.705048
1159.867557,6809.894666,-5329.482782,612.876398
1159.867886,6809.894666,-5995.668130,612.876398
1159.868215,6957.935855,-6809.894666,842.705048
1159.868544,7328.038826,-6957.935855,459.657299
1159.868873,7476.080014,-7328.038826,459.657299
1159.869203,7402.059420,-7624.121203,1225.752797
1159.869532,7846.182985,-7920.203579,1455.581446
1159.869861,7105.977043,-7624.121203,995.924147
1159.870190,7254.018232,-7698.141797,689.485948
1159.870519,6735.874072,-7179.997637,612.876398
1159.870849,6661.853478,-7254.018232,995.924147
1159.871178,7105.977043,-6957.935855,1685.410096
1159.871507,7328.038826,-6513.812290,1762.019645
1159.871836,6883.915261,-5403.503377,1838.629195
1159.872165,6809.894666,-4885.359217,1608.800546
1159.872494,6439.791695,-4885.359217,1455.581446
1159.872824,6883.915261,-5329.482782,1455.581446
1159.873153,7328.038826,-6143.709319,1455.581446
1159.873482,6661.853478,-5699.585753,766.095498
1159.873811,6217.729913,-6217.729913,459.657299
1159.874140,6217.729913,-7105.977043,306.438199
1159.874469,6735.874072,-7402.059420,689.485948
1159.874799,6957.935855,-7179.997637,689.485948
1159.875128,6587.832884,-7254.018232,76.609550
1159.875457,6587.832884,-7846.182985,229.828649
1159.875786,6809.894666,-7772.162391,153.219100
1159.876115,6957.935855,-7328.038826,1455.581446
1159.876444,7328.038826,-7105.977043,919.314598
1159.876774,7624.121203,-6513.812290,1225.752797
1159.877103,7698.141797,-6587.832884,1762.019645
1159.877432,7328.038826,-6587.832884,2451.505594
1159.877761,7179.997637,-6143.709319,2145.067394
1159.878090,6735.874072,-5773.606348,1378.971896
1159.878420,6735.874072,-5699.585753,1378.971896
1159.878749,6809.894666,-5699.585753,1302.362347
1159.879078,7105.977043,-5551.544565,842.705048
1159.879407,6513.812290,-5995.668130,1072.533697
1159.879736,6439.791695,-5551.544565,689.485948
1159.880065,6661.853478,-5699.585753,383.047749
1159.880395,6513.812290,-6365.771101,459.657299
1159.880724,6513.812290,-6143.709319,0.000000
1159.881053,6735.874072,-6587.832884,383.047749
1159.881382,7179.997637,-6217.729913,306.438199
1159.881711,7179.997637,-6735.874072,306.438199
1159.882040,7846.182985,-7476.080014,153.219100
1159.882370,8734.430116,-7402.059420,1685.410096
1159.882699,9104.533087,-7179.997637,1532.190996
1159.883028,8290.306550,-7031.956449,1762.019645
1159.883357,7476.080014,-6883.915261,1302.362347
1159.883686,7328.038826,-6513.812290,1532.190996
1159.884016,7402.059420,-6809.894666,1685.410096
1159.884345,7105.977043,-6069.688724,1915.238745
1159.884674,6513.812290,-5625.565159,1302.362347
1159.885003,5995.668130,-5551.544565,919.314598
1159.885332,5921.647536,-5477.523971,689.485948
1159.885661,5477.523971,-5995.668130,153.219100
1159.885991,5699.585753,-5921.647536,0.000000
1159.886320,5699.585753,-5921.647536,383.047749
1159.886649,6513.812290,-6365.771101,76.609550
1159.886978,6365.771101,-7105.977043,153.219100
1159.887307,7105.977043,-7920.203579,536.266849
1159.887636,7402.059420,-7698.141797,612.876398
1159.887966,7624.121203,-7550.100608,459.657299
1159.888295,7550.100608,-8290.306550,1302.362347
1159.888624,7476.080014,-7772.162391,1302.362347
1159.888953,7550.100608,-7920.203579,1225.752797
1159.889282,7402.059420,-7550.100608,1225.752797
1159.889611,7105.977043,-6513.812290,1991.848295
1159.889941,7105.977043,-6439.791695,1225.752797
1159.890270,6957.935855,-5625.565159,1685.410096
1159.890599,6883.915261,-5403.503377,1532.190996
1159.890928,7105.977043,-4811.338623,1455.581446
1159.891257,6883.915261,-4737.318029,1991.848295
1159.891587,6217.729913,-5477.523971,1378.971896
1159.891916,5995.668130,-5033.400406,766.095498
1159.892245,6587.832884,-5921.647536,842.705048
1159.892574,6957.935855,-6217.729913,1225.752797
1159.892903,6957.935855,-6217.729913,919.314598
1159.893232,7105.977043,-6661.853478,689.485948
1159.893562,7476.080014,-6809.894666,383.047749
1159.893891,7402.059420,-7179.997637,536.266849
1159.894220,7105.977043,-7105.977043,612.876398
1159.894549,7328.038826,-7550.100608,995.924147
1159.894878,7698.141797,-7476.080014,689.485948
1159.895207,7254.018232,-7254.018232,383.047749
1159.895537,7105.977043,-7476.080014,229.828649
1159.895866,7254.018232,-7105.977043,1915.238745
1159.896195,7105.977043,-7179.997637,1685.410096
1159.896524,6883.915261,-6661.853478,1455.581446
1159.896853,6439.791695,-5921.647536,1378.971896
1159.897183,6883.915261,-5995.668130,1149.143247
1159.897512,6513.812290,-5329.482782,1685.410096
1159.897841,6661.853478,-5107.421000,1302.362347
1159.898170,6735.874072,-5181.441594,995.924147
1159.898499,6587.832884,-5329.482782,1149.143247
1159.898828,6587.832884,-5847.626942,995.924147
1159.899158,6143.709319,-6809.894666,383.047749
1159.899487,6143.709319,-6809.894666,153.219100
1159.899816,6587.832884,-7105.977043,383.047749
1159.900145,6661.853478,-7105.977043,1149.143247
1159.900474,7328.038826,-7846.182985,919.314598
1159.900803,7328.038826,-8142.265362,536.266849
1159.901133,7105.977043,-7328.038826,919.314598
1159.901462,7328.038826,-7624.121203,766.095498
1159.901791,7772.162391,-7476.080014,1762.019645
1159.902120,7328.038826,-6661.853478,1762.019645
1159.902449,7402.059420,-6735.874072,1762.019645
1159.902779,7031.956449,-5921.647536,1685.410096
1159.903108,6809.894666,-5625.565159,1991.848295
1159.903437,6809.894666,-5625.565159,1455.581446
1159.903766,6587.832884,-5329.482782,919.314598
1159.904095,6291.750507,-5847.626942,1149.143247
1159.904424,6217.729913,-5995.668130,995.924147
1159.904754,6735.874072,-5699.585753,842.705048
1159.905083,6291.750507,-6365.771101,306.438199
1159.905412,6365.771101,-6661.853478,459.657299
1159.905741,6809.894666,-7105.977043,459.657299
1159.906070,7105.977043,-7105.977043,459.657299
1159.906399,7105.977043,-6735.874072,842.705048
1159.906729,7328.038826,-7031.956449,383.047749
1159.907058,7550.100608,-6883.915261,383.047749
1159.907387,7772.162391,-7254.018232,1225.752797
1159.907716,8808.450710,-7328.038826,1378.971896
1159.908045,7994.224174,-7254.018232,1915.238745
1159.908374,7698.141797,-7031.956449,1685.410096
1159.908704,6883.915261,-6883.915261,995.924147
1159.909033,7105.977043,-5995.668130,1149.143247
1159.909362,7179.997637,-5921.647536,919.314598
1159.909691,6809.894666,-6143.709319,1532.190996
1159.910020,6365.771101,-5625.565159,1225.752797
1159.910350,6143.709319,-5847.626942,842.705048
1159.910679,5847.626942,-5403.503377,1072.533697
1159.911008,6291.750507,-6217.729913,1072.533697
1159.911337,6217.729913,-5847.626942,689.485948
1159.911666,5995.668130,-6365.771101,612.876398
1159.911995,6587.832884,-6587.832884,612.876398
1159.912325,7179.997637,-6217.729913,919.314598
1159.912654,7179.997637,-6957.935855,536.266849
1159.912983,7550.100608,-7328.038826,842.705048
1159.913312,7476.080014,-7328.038826,919.314598
1159.913641,7920.203579,-7698.141797,1302.362347
1159.913970,7550.100608,-7105.977043,995.924147
1159.914300,7402.059420,-7105.977043,1685.410096
1159.914629,7402.059420,-7031.956449,1225.752797
1159.914958,6957.935855,-6809.894666,1455.581446
1159.915287,7105.977043,-6587.832884,1608.800546
1159.915616,6587.832884,-5847.626942,1608.800546
1159.915946,6661.853478,-6069.688724,1838.629195
1159.916275,6513.812290,-5477.523971,1685.410096
1159.916604,6291.750507,-5329.482782,1302.362347
1159.916933,6439.791695,-4959.379811,766.095498
1159.917262,5995.668130,-5329.482782,612.876398
1159.917591,6735.874072,-5847.626942,459.657299
1159.917921,6809.894666,-6069.688724,0.000000
1159.918250,7179.997637,-6587.832884,-383.047749
1159.918579,7476.080014,-7624.121203,766.095498
1159.918908,7328.038826,-7698.141797,459.657299
1159.919237,7105.977043,-7698.141797,842.705048
1159.919566,7402.059420,-7476.080014,612.876398
1159.919896,7920.203579,-8068.244768,919.314598
1159.920225,7772.162391,-7772.162391,1225.752797
1159.920554,7179.997637,-7328.038826,1302.362347
1159.920883,7031.956449,-7031.956449,1072.533697
1159.921212,6957.935855,-6291.750507,1455.581446
1159.921541,7105.977043,-6587.832884,1991.848295
1159.921871,7179.997637,-5847.626942,1685.410096
1159.922200,7105.977043,-4663.297435,1302.362347
1159.922529,6809.894666,-4737.318029,1072.533697
1159.922858,7105.977043,-5107.421000,1072.533697
1159.923187,6883.915261,-5847.626942,1149.143247
1159.923517,7031.956449,-6439.791695,995.924147
1159.923846,6143.709319,-6143.709319,306.438199
1159.924175,5847.626942,-6809.894666,0.000000
1159.924504,5847.626942,-7328.038826,766.095498
1159.924833,6661.853478,-7920.203579,842.705048
1159.925162,7105.977043,-7994.224174,919.314598
1159.925492,7105.977043,-7179.997637,153.219100
1159.925821,6513.812290,-7624.121203,689.485948
1159.926150,7254.018232,-7994.224174,612.876398
1159.926479,7328.038826,-7846.182985,1149.143247
1159.926808,7698.141797,-7179.997637,1378.971896
1159.927137,7254.018232,-6365.771101,1455.581446
1159.927467,6809.894666,-5847.626942,1685.410096
1159.927796,7031.956449,-6069.688724,1838.629195
1159.928125,6957.935855,-5847.626942,1991.848295
1159.928454,7105.977043,-5107.421000,1532.190996
1159.928783,6735.874072,-4885.359217,1302.362347
1159.929113,6143.709319,-5255.462188,1225.752797
1159.929442,6217.729913,-5847.626942,842.705048
1159.929771,6143.709319,-6069.688724,766.095498
1159.930100,6217.729913,-5995.668130,383.047749
1159.930429,6587.832884,-6513.812290,766.095498
1159.930758,6809.894666,-7105.977043,536.266849
1159.931088,7179.997637,-6809.894666,459.657299
1159.931417,7328.038826,-6587.832884,306.438199
1159.931746,7254.018232,-6587.832884,536.266849
1159.932075,8216.285956,-7031.956449,306.438199
1159.932404,8586.388927,-7105.977043,1225.752797
1159.932732,8734.430116,-6439.791695,1149.143247
1159.933061,7846.182985,-6809.894666,1455.581446
1159.933390,7105.977043,-6809.894666,1762.019645
1159.933719,7328.038826,-7105.977043,1225.752797
1159.934048,7031.956449,-7105.977043,1991.848295
1159.934377,6957.935855,-6809.894666,1762.019645
1159.934706,6439.791695,-6513.812290,1455.581446
1159.935035,6143.709319,-5921.647536,1378.971896
1159.935364,5551.544565,-5921.647536,766.095498
1159.935694,5847.626942,-6217.729913,459.657299
1159.936023,5847.626942,-5921.647536,766.095498
1159.936352,6069.688724,-5773.606348,383.047749
1159.936681,6883.915261,-5995.668130,153.219100
1159.937010,6957.935855,-6069.688724,76.609550
1159.937339,7328.038826,-6809.894666,842.705048
1159.937668,7772.162391,-6661.853478,689.485948
1159.937997,7698.141797,-7328.038826,919.314598
1159.938326,7624.121203,-7402.059420,995.924147
1159.938655,7846.182985,-7994.224174,1378.971896
1159.938984,7772.162391,-7846.182985,1302.362347
1159.939313,7179.997637,-7402.059420,1302.362347
1159.939643,7550.100608,-7105.977043,1455.581446
1159.939972,7105.977043,-6809.894666,1532.190996
1159.940301,6809.894666,-6217.729913,1608.800546
1159.940630,6735.874072,-5921.647536,1685.410096
1159.940959,6439.791695,-5699.585753,1532.190996
1159.941288,6143.709319,-5329.482782,842.705048
1159.941617,5847.626942,-5329.482782,919.314598
1159.941946,5699.585753,-5329.482782,459.657299
1159.942275,6069.688724,-5847.626942,766.095498
1159.942604,6735.874072,-5551.544565,919.314598
1159.942933,7031.956449,-6365.771101,689.485948
1159.943262,7254.018232,-6439.791695,612.876398
1159.943591,7179.997637,-7402.059420,383.047749
1159.943921,7476.080014,-7402.059420,459.657299
1159.944250,8068.244768,-7031.956449,1149.143247
1159.944579,7920.203579,-7624.121203,919.314598
1159.944908,7994.224174,-7402.059420,1225.752797
1159.945237,7550.100608,-7328.038826,1149.143247
1159.945566,7328.038826,-7031.956449,766.095498
1159.945895,7105.977043,-6957.935855,1455.581446
1159.946224,7402.059420,-6957.935855,1685.410096
1159.946553,6883.915261,-6069.688724,1378.971896
1159.946882,6587.832884,-5847.626942,919.314598
1159.947211,6957.935855,-5773.606348,1762.019645
1159.947540,7402.059420,-5699.585753,1685.410096
1159.947870,6735.874072,-5625.565159,1838.629195
1159.948199,6661.853478,-5773.606348,919.314598
1159.948528,6661.853478,-5477.523971,536.266849
1159.948857,6513.812290,-6217.729913,229.828649
1159.949186,6513.812290,-7254.018232,995.924147
1159.949515,6513.812290,-7105.977043,689.485948
1159.949844,6439.791695,-7105.977043,229.828649
1159.950173,5995.668130,-7031.956449,0.000000
1159.950502,6661.853478,-7772.162391,383.047749
1159.950831,6735.874072,-8142.265362,459.657299
1159.951160,7105.977043,-7994.224174,842.705048
1159.951489,7476.080014,-7105.977043,1225.752797
1159.951818,7698.141797,-7105.977043,1455.581446
1159.952148,7920.203579,-6883.915261,1915.238745
1159.952477,7550.100608,-6735.874072,1838.629195
1159.952806,7105.977043,-5921.647536,1455.581446
1159.953135,7179.997637,-4959.379811,1455.581446
1159.953464,7105.977043,-4959.379811,1608.800546
1159.953793,6587.832884,-5033.400406,1378.971896
1159.954122,6513.812290,-5699.585753,1378.971896
1159.954451,6217.729913,-5699.585753,1225.752797
1159.954780,6069.688724,-5551.544565,383.047749
1159.955109,6217.729913,-5699.585753,306.438199
1159.955438,6439.791695,-5699.585753,536.266849
1159.955767,7105.977043,-6883.915261,459.657299
1159.956097,7772.162391,-7254.018232,919.314598
1159.956426,7550.100608,-6735.874072,766.095498
1159.956755,7328.038826,-7105.977043,536.266849
1159.957084,7402.059420,-7105.977043,459.657299
1159.957413,7772.162391,-7698.141797,766.095498
1159.957742,8586.388927,-7624.121203,1838.629195
1159.958071,8586.388927,-7254.018232,1915.238745
1159.958400,7772.162391,-6661.853478,1532.190996
1159.958729,6957.935855,-6217.729913,1378.971896
1159.959058,6587.832884,-6513.812290,1455.581446
1159.959387,6735.874072,-6069.688724,1455.581446
1159.959716,6809.894666,-6069.688724,1455.581446
1159.960046,6513.812290,-5699.585753,1149.143247
1159.960375,6069.688724,-5625.565159,842.705048
1159.960704,6143.709319,-5699.585753,995.924147
1159.961033,6217.729913,-6069.688724,842.705048
1159.961362,6587.832884,-6069.688724,0.000000
1159.961691,6291.750507,-6957.935855,306.438199
1159.962020,6587.832884,-6809.894666,459.657299
1159.962349,7254.018232,-7179.997637,-76.609550
1159.962678,7179.997637,-7328.038826,536.266849
1159.963007,7328.038826,-7402.059420,995.924147
1159.963336,7402.059420,-8068.244768,842.705048
1159.963665,7254.018232,-7179.997637,1302.362347
1159.963994,7402.059420,-7624.121203,995.924147
1159.964324,7550.100608,-7179.997637,1608.800546
1159.964653,7031.956449,-7105.977043,1225.752797
1159.964982,7105.977043,-7031.956449,1532.190996
1159.965311,6513.812290,-5995.668130,2298.286494
1159.965640,6735.874072,-5403.503377,1378.971896
1159.965969,6587.832884,-5255.462188,1302.362347
1159.966298,6069.688724,-5477.523971,1302.362347
1159.966627,6217.729913,-5551.544565,1302.362347
1159.966956,5847.626942,-5033.400406,459.657299
1159.967285,6661.853478,-5403.503377,612.876398
1159.967614,6735.874072,-5551.544565,459.657299
1159.967943,6513.812290,-6587.832884,612.876398
1159.968273,7105.977043,-6883.915261,153.219100
1159.968602,7550.100608,-6883.915261,842.705048
1159.968931,8068.244768,-7328.038826,1072.533697
1159.969260,8068.244768,-7402.059420,1302.362347
1159.969589,7920.203579,-7328.038826,1302.362347
1159.969918,8068.244768,-7105.977043,153.219100
1159.970247,7772.162391,-7031.956449,919.314598
1159.970576,7402.059420,-7105.977043,1455.581446
1159.970905,7550.100608,-6883.915261,1532.190996
1159.971234,7179.997637,-5921.647536,1762.019645
1159.971563,7031.956449,-5995.668130,1532.190996
1159.971892,6735.874072,-5995.668130,1378.971896
1159.972221,6809.894666,-5847.626942,1225.752797
1159.972551,6513.812290,-5477.523971,1225.752797
1159.972880,6291.750507,-4959.379811,1762.019645
1159.973209,6735.874072,-5995.668130,1149.143247
1159.973538,6143.709319,-6513.812290,995.924147
1159.973867,6217.729913,-6661.853478,536.266849
1159.974196,6439.791695,-6513.812290,689.485948
1159.974525,6735.874072,-6809.894666,153.219100
1159.974854,6809.894666,-7105.977043,612.876398
1159.975183,7105.977043,-7328.038826,612.876398
1159.975512,7254.018232,-7476.080014,153.219100
1159.975841,6735.874072,-7105.977043,1378.971896
1159.976170,7031.956449,-7550.100608,766.095498
1159.976500,7179.997637,-7550.100608,1149.143247
1159.976829,7550.100608,-7624.121203,1608.800546
1159.977158,7624.121203,-7105.977043,2374.896044
1159.977487,6809.894666,-6217.729913,1608.800546
1159.977816,6957.935855,-6439.791695,1685.410096
1159.978145,6883.915261,-5699.585753,1532.190996
1159.978474,7031.956449,-5847.626942,1608.800546
1159.978803,6365.771101,-5329.482782,1915.238745
1159.979132,6513.812290,-5255.462188,995.924147
1159.979461,6291.750507,-6365.771101,919.314598
1159.979790,6513.812290,-5847.626942,1072.533697
1159.980119,6439.791695,-6217.729913,536.266849
1159.980449,6735.874072,-5699.585753,229.828649
1159.980778,6513.812290,-6809.894666,306.438199
1159.981107,7476.080014,-7031.956449,919.314598
1159.981436,7698.141797,-6809.894666,0.000000
1159.981765,7624.121203,-6957.935855,306.438199
1159.982094,7624.121203,-7031.956449,919.314598
1159.982423,8586.388927,-7402.059420,1378.971896
1159.982752,8808.450710,-6957.935855,1532.190996
1159.983081,7994.224174,-7105.977043,1225.752797
1159.983410,7328.038826,-7031.956449,1532.190996
1159.983739,7105.977043,-6661.853478,1072.533697
1159.984068,6957.935855,-6587.832884,1225.752797
1159.984397,7031.956449,-5625.565159,1685.410096
1159.984727,6809.894666,-5847.626942,1225.752797
1159.985056,6365.771101,-5625.565159,1149.143247
1159.985385,6291.750507,-5921.647536,919.314598
1159.985714,6365.771101,-5995.668130,842.705048
1159.986043,6143.709319,-5921.647536,459.657299
1159.986372,6365.771101,-6661.853478,919.314598
1159.986701,6143.709319,-6587.832884,76.609550
1159.987030,6439.791695,-6957.935855,459.657299
1159.987359,6957.935855,-7254.018232,536.266849
1159.987688,6883.915261,-7105.977043,153.219100
1159.988017,7254.018232,-7179.997637,1149.143247
1159.988346,7624.121203,-7402.059420,995.924147
1159.988676,7328.038826,-7698.141797,1378.971896
1159.989005,7402.059420,-7920.203579,766.095498
1159.989334,7031.956449,-7105.977043,1608.800546
1159.989663,7179.997637,-7105.977043,1455.581446
1159.989992,7105.977043,-6957.935855,1762.019645
1159.990321,6661.853478,-6291.750507,1838.629195
1159.990650,6809.894666,-6365.771101,1685.410096
1159.990979,6513.812290,-5921.647536,2068.457845
1159.991308,6439.791695,-5255.462188,1149.143247
1159.991637,6439.791695,-5403.503377,1302.362347
1159.991966,6809.894666,-5033.400406,1072.533697
1159.992295,6513.812290,-5329.482782,766.095498
1159.992624,6439.791695,-5477.523971,459.657299
1159.992954,6957.935855,-5921.647536,76.609550
1159.993283,7105.977043,-6587.832884,689.485948
1159.993612,7402.059420,-6883.915261,995.924147
1159.993941,7402.059420,-7179.997637,919.314598
1159.994270,7476.080014,-7476.080014,612.876398
1159.994599,7772.162391,-8068.244768,995.924147
1159.994928,7920.203579,-7994.224174,1072.533697
1159.995257,7698.141797,-7254.018232,1302.362347
1159.995586,7031.956449,-7105.977043,1378.971896
1159.995915,6883.915261,-7179.997637,1225.752797
1159.996244,6957.935855,-6957.935855,1991.848295
1159.996573,6957.935855,-6291.750507,1915.238745
1159.996903,6883.915261,-5107.421000,2068.457845
1159.997232,7031.956449,-5477.523971,1225.752797
1159.997561,6735.874072,-5107.421000,1225.752797
1159.997890,6587.832884,-5625.565159,919.314598
1159.998219,6661.853478,-5477.523971,1455.581446
1159.998548,6513.812290,-4737.318029,995.924147
1159.998877,6291.750507,-6217.729913,459.657299
1159.999206,6069.688724,-6809.894666,229.828649
1159.999535,6217.729913,-7179.997637,229.828649
1159.999864,6661.853478,-7624.121203,306.438199
1160.000193,7105.977043,-7254.018232,766.095498
1160.000522,7105.977043,-7920.203579,383.047749
1160.000852,6957.935855,-8068.244768,383.047749
1160.001181,6883.915261,-8216.285956,459.657299
1160.001510,7254.018232,-7179.997637,1072.533697
1160.001839,7476.080014,-6883.915261,1455.581446
1160.002168,7624.121203,-6809.894666,1762.019645
1160.002497,7476.080014,-5921.647536,1685.410096
1160.002826,7254.018232,-5403.503377,1532.190996
1160.003155,7105.977043,-5107.421000,1455.581446
1160.003484,7476.080014,-5477.523971,1532.190996
1160.003813,7254.018232,-5403.503377,1455.581446
1160.004142,6587.832884,-5477.523971,919.314598
1160.004471,6217.729913,-6069.688724,306.438199
1160.004800,5773.606348,-6217.729913,76.609550
1160.005130,6069.688724,-6809.894666,459.657299
1160.005459,6809.894666,-6587.832884,536.266849
1160.005788,7179.997637,-6661.853478,689.485948
1160.006117,7698.141797,-6883.915261,0.000000
1160.006446,7179.997637,-7328.038826,689.485948
1160.006775,7105.977043,-7698.141797,842.705048
1160.007104,7624.121203,-6587.832884,0.000000
1160.007433,7994.224174,-6735.874072,1072.533697
1160.007762,8660.409521,-7328.038826,919.314598
1160.008091,8586.388927,-7476.080014,1991.848295
1160.008420,7624.121203,-6735.874072,1915.238745
1160.008749,7105.977043,-5699.585753,1225.752797
1160.009079,7328.038826,-5107.421000,1302.362347
1160.009408,7402.059420,-6069.688724,2068.457845
1160.009737,6587.832884,-6365.771101,1915.238745
1160.010066,5847.626942,-5847.626942,1149.143247
1160.010395,5403.503377,-5625.565159,459.657299
1160.010724,5625.565159,-6217.729913,1072.533697
1160.011053,5847.626942,-6365.771101,995.924147
1160.011382,6143.709319,-6661.853478,536.266849
1160.011711,6143.709319,-6661.853478,229.828649
1160.012040,6291.750507,-6809.894666,459.657299
1160.012369,7105.977043,-7031.956449,612.876398
1160.012698,7624.121203,-7254.018232,612.876398
1160.013027,7846.182985,-7179.997637,919.314598
1160.013357,7846.182985,-7772.162391,1149.143247
1160.013686,7772.162391,-7550.100608,1608.800546
1160.014015,7920.203579,-7698.141797,1302.362347
1160.014344,7698.141797,-7105.977043,1455.581446
1160.014673,7328.038826,-6809.894666,1838.629195
1160.015002,7105.977043,-6809.894666,2068.457845
1160.015331,7105.977043,-5995.668130,1915.238745
1160.015660,6661.853478,-5477.523971,1608.800546
1160.015989,6513.812290,-4737.318029,1225.752797
1160.016318,6217.729913,-4737.318029,1225.752797
1160.016647,5995.668130,-5625.565159,1685.410096
1160.016976,6069.688724,-5477.523971,689.485948
1160.017306,6143.709319,-5403.503377,76.609550
1160.017635,6661.853478,-5625.565159,153.219100
1160.017964,6957.935855,-6513.812290,612.876398
1160.018293,7254.018232,-6883.915261,383.047749
1160.018622,7254.018232,-7179.997637,919.314598
1160.018951,7328.038826,-7179.997637,229.828649
1160.019280,7402.059420,-7550.100608,689.485948
1160.019609,7994.224174,-7698.141797,1302.362347
1160.019938,7994.224174,-7550.100608,1685.410096
1160.020267,7772.162391,-7402.059420,1072.533697
1160.020596,7254.018232,-7254.018232,1149.143247
1160.020925,7105.977043,-6957.935855,1685.410096
1160.021255,7254.018232,-6883.915261,2068.457845
1160.021584,6883.915261,-6365.771101,1685.410096
1160.021913,6439.791695,-5551.544565,1149.143247
1160.022242,6735.874072,-5329.482782,1225.752797
1160.022571,7105.977043,-5181.441594,1149.143247
1160.022900,6587.832884,-5625.565159,1072.533697
1160.023229,6735.874072,-6143.709319,1225.752797
1160.023558,6365.771101,-5773.606348,919.314598
1160.023887,6365.771101,-6439.791695,689.485948
1160.024216,6291.750507,-7105.977043,306.438199
1160.024545,6365.771101,-7402.059420,536.266849
1160.024874,6661.853478,-7772.162391,536.266849
1160.025203,6735.874072,-7846.182985,383.047749
1160.025533,6809.894666,-8142.265362,459.657299
1160.025862,6957.935855,-7772.162391,612.876398
1160.026191,7179.997637,-7846.182985,842.705048
1160.026520,7328.038826,-7105.977043,842.705048
1160.026849,7698.141797,-7105.977043,1455.581446
1160.027178,7994.224174,-5995.668130,1762.019645
1160.027507,7476.080014,-5551.544565,1225.752797
1160.027836,6735.874072,-5921.647536,1762.019645
1160.028165,6587.832884,-5477.523971,1838.629195
1160.028494,6661.853478,-5477.523971,1762.019645
1160.028823,6513.812290,-5255.462188,1762.019645
1160.029152,6439.791695,-5403.503377,995.924147
1160.029482,5625.565159,-5773.606348,689.485948
1160.029811,5921.647536,-6069.688724,536.266849
1160.030140,5847.626942,-6143.709319,0.000000
1160.030469,6513.812290,-6661.853478,306.438199
1160.030798,7105.977043,-7105.977043,689.485948
1160.031127,7624.121203,-6957.935855,919.314598
1160.031456,8142.265362,-6513.812290,995.924147
1160.031785,7550.100608,-7031.956449,766.095498
1160.032114,7846.182985,-6735.874072,459.657299
1160.032444,8290.306550,-7031.956449,1149.143247
1160.032773,8586.388927,-7031.956449,1685.410096
1160.033102,8364.327145,-7105.977043,2068.457845
1160.033431,7772.162391,-6291.750507,1455.581446
1160.033760,7254.018232,-6217.729913,1302.362347
1160.034090,6883.915261,-6291.750507,1532.190996
1160.034419,7328.038826,-6217.729913,1838.629195
1160.034748,6587.832884,-5699.585753,1532.190996
1160.035077,6365.771101,-5995.668130,995.924147
1160.035406,6069.688724,-5699.585753,1072.533697
1160.035735,5995.668130,-6217.729913,536.266849
1160.036065,6217.729913,-5995.668130,459.657299
1160.036394,6513.812290,-6143.709319,536.266849
1160.036723,6217.729913,-6439.791695,459.657299
1160.037052,6365.771101,-6661.853478,306.438199
1160.037381,6661.853478,-7105.977043,229.828649
1160.037710,7328.038826,-6957.935855,229.828649
1160.038040,7105.977043,-7698.141797,459.657299
1160.038369,7402.059420,-7698.141797,919.314598
1160.038698,7476.080014,-7994.224174,995.924147
1160.039027,7476.080014,-8216.285956,1149.143247
1160.039356,7254.018232,-7328.038826,1532.190996
1160.039686,7179.997637,-7402.059420,1685.410096
1160.040015,7328.038826,-6735.874072,1991.848295
1160.040344,6809.894666,-5847.626942,1685.410096
1160.040673,6587.832884,-5773.606348,1378.971896
1160.041002,6365.771101,-4737.318029,1225.752797
1160.041331,6365.771101,-4737.318029,1455.581446
1160.041661,6513.812290,-4589.276840,1072.533697
1160.041990,6513.812290,-4885.359217,995.924147
1160.042319,6217.729913,-4885.359217,1608.800546
1160.042648,6661.853478,-5847.626942,306.438199
1160.042977,6735.874072,-6661.853478,306.438199
1160.043307,6883.915261,-6883.915261,459.657299
1160.043636,7105.977043,-7402.059420,229.828649
1160.043965,7550.100608,-7179.997637,842.705048
1160.044294,7846.182985,-7846.182985,1149.143247
1160.044623,8142.265362,-8216.285956,1225.752797
1160.044952,7920.203579,-7624.121203,919.314598
1160.045282,7772.162391,-8142.265362,842.705048
1160.045611,7254.018232,-7031.956449,1149.143247
1160.045940,6883.915261,-6957.935855,1378.971896
1160.046269,6809.894666,-6143.709319,1608.800546
1160.046598,6661.853478,-5551.544565,1225.752797
1160.046927,7105.977043,-5181.441594,919.314598
1160.047257,6735.874072,-4737.318029,1455.581446
1160.047586,6587.832884,-5403.503377,1149.143247
1160.047915,6513.812290,-5847.626942,842.705048
1160.048244,6439.791695,-5847.626942,919.314598
1160.048573,6365.771101,-6439.791695,1225.752797
1160.048903,6217.729913,-6883.915261,459.657299
1160.049232,6513.812290,-7254.018232,842.705048
1160.049561,6735.874072,-7476.080014,459.657299
1160.049890,6587.832884,-6587.832884,306.438199
1160.050219,7105.977043,-7254.018232,536.266849
1160.050548,7254.018232,-7550.100608,995.924147
1160.050878,7179.997637,-7402.059420,842.705048
1160.051207,7105.977043,-7105.977043,842.705048
1160.051536,7031.956449,-6883.915261,1455.581446
1160.051865,7550.100608,-7254.018232,1838.629195
1160.052194,7476.080014,-6809.894666,1608.800546
1160.052524,6883.915261,-6587.832884,1532.190996
1160.052853,7031.956449,-6513.812290,1762.019645
1160.053182,6957.935855,-6069.688724,1685.410096
1160.053511,6661.853478,-5995.668130,1378.971896
1160.053840,6291.750507,-5625.565159,1149.143247
1160.054169,6291.750507,-6143.709319,842.705048
1160.054499,6513.812290,-5773.606348,689.485948
1160.054828,6217.729913,-6365.771101,919.314598
1160.055157,6513.812290,-6069.688724,689.485948
1160.055486,6809.894666,-6365.771101,459.657299
1160.055815,7179.997637,-6661.853478,459.657299
1160.056144,7402.059420,-6735.874072,1302.362347
1160.056474,7179.997637,-6883.915261,76.609550
1160.056803,7254.018232,-7031.956449,306.438199
1160.057132,7772.162391,-6735.874072,612.876398
1160.057461,8142.265362,-7402.059420,1532.190996
1160.057790,8956.491898,-7550.100608,1838.629195
1160.058120,8586.388927,-6957.935855,1991.848295
1160.058449,7550.100608,-6735.874072,1838.629195
1160.058778,7254.018232,-6291.750507,1455.581446
1160.059107,6661.853478,-5921.647536,1455.581446
1160.059436,7105.977043,-5995.668130,1762.019645
1160.059765,6883.915261,-5773.606348,1685.410096
1160.060095,6217.729913,-4959.379811,766.095498
1160.060424,5625.565159,-5329.482782,459.657299
1160.060753,6291.750507,-5921.647536,536.266849
1160.061082,6069.688724,-6069.688724,229.828649
1160.061411,6143.709319,-6439.791695,229.828649
1160.061741,6365.771101,-6661.853478,306.438199
1160.062070,7105.977043,-6587.832884,76.609550
1160.062399,7328.038826,-7105.977043,383.047749
1160.062728,7624.121203,-7624.121203,612.876398
1160.063057,7624.121203,-7698.141797,842.705048
1160.063386,7698.141797,-7698.141797,842.705048
1160.063716,7550.100608,-7179.997637,842.705048
1160.064045,7476.080014,-7328.038826,1302.362347
1160.064374,7105.977043,-7105.977043,1378.971896
1160.064703,6883.915261,-7031.956449,1532.190996
1160.065032,6587.832884,-6439.791695,1455.581446
1160.065361,6439.791695,-5995.668130,1608.800546
1160.065691,6365.771101,-5551.544565,919.314598
1160.066020,6365.771101,-5107.421000,1225.752797
1160.066349,6217.729913,-5773.606348,1225.752797
1160.066678,7105.977043,-5403.503377,919.314598
1160.067007,6957.935855,-5033.400406,842.705048
1160.067337,6809.894666,-5329.482782,766.095498
1160.067666,7031.956449,-5847.626942,306.438199
1160.067995,7254.018232,-6513.812290,459.657299
1160.068324,7772.162391,-7105.977043,689.485948
1160.068653,7846.182985,-6957.935855,689.485948
1160.068982,7994.224174,-7031.956449,689.485948
1160.069312,7328.038826,-7402.059420,995.924147
1160.069641,7920.203579,-7254.018232,1302.362347
1160.069970,7328.038826,-7550.100608,995.924147
1160.070299,7105.977043,-8068.244768,919.314598
1160.070628,6883.915261,-7698.141797,1149.143247
1160.070957,6957.935855,-7476.080014,1455.581446
1160.071287,7105.977043,-6957.935855,1608.800546
1160.071616,6735.874072,-6735.874072,1762.019645
1160.071945,6587.832884,-5847.626942,1455.581446
1160.072274,6661.853478,-5181.441594,1149.143247
1160.072603,6661.853478,-5181.441594,1685.410096
1160.072933,7328.038826,-5255.462188,1378.971896
1160.073262,7179.997637,-5107.421000,1532.190996
1160.073591,6439.791695,-5255.462188,1455.581446
1160.073920,6513.812290,-5625.565159,842.705048
1160.074249,6439.791695,-5921.647536,459.657299
1160.074578,6513.812290,-7179.997637,766.095498
1160.074908,6957.935855,-7476.080014,459.657299
1160.075237,6513.812290,-7550.100608,0.000000
1160.075566,5921.647536,-8068.244768,153.219100
1160.075895,6587.832884,-8216.285956,1072.533697
1160.076224,7105.977043,-8068.244768,995.924147
1160.076554,7105.977043,-7846.182985,919.314598
1160.076883,7402.059420,-7550.100608,1685.410096
1160.077212,7920.203579,-7105.977043,2145.067394
1160.077541,7254.018232,-6439.791695,1608.800546
1160.077870,6809.894666,-5773.606348,1532.190996
1160.078199,6735.874072,-5329.482782,1685.410096
1160.078529,6957.935855,-5403.503377,1685.410096
1160.078858,6513.812290,-4589.276840,1532.190996
1160.079187,6439.791695,-5033.400406,1378.971896
1160.079516,6143.709319,-5181.441594,0.000000
1160.079845,6143.709319,-5921.647536,536.266849
1160.080174,6291.750507,-6587.832884,766.095498
1160.080504,6513.812290,-7179.997637,76.609550
1160.080833,6809.894666,-7402.059420,76.609550
1160.081162,7105.977043,-7476.080014,229.828649
1160.081491,7105.977043,-7105.977043,383.047749
1160.081820,7105.977043,-7328.038826,306.438199
1160.082150,7772.162391,-6957.935855,229.828649
1160.082479,8438.347739,-7031.956449,1378.971896
1160.082808,9178.553681,-7031.956449,1762.019645
1160.083137,8808.450710,-6365.771101,2298.286494
1160.083466,7994.224174,-5699.585753,2451.505594
1160.083795,7624.121203,-5699.585753,1838.629195
1160.084125,7328.038826,-5921.647536,1532.190996
1160.084454,7031.956449,-5699.585753,1608.800546
1160.084783,6809.894666,-5921.647536,1455.581446
1160.085112,6217.729913,-5995.668130,1149.143247
1160.085441,5403.503377,-6365.771101,536.266849
1160.085771,5477.523971,-6809.894666,306.438199
1160.086100,5625.565159,-7105.977043,306.438199
1160.086429,5995.668130,-7476.080014,0.000000
1160.086758,6069.688724,-6735.874072,306.438199
1160.087087,6513.812290,-6883.915261,536.266849
1160.087416,7105.977043,-7179.997637,919.314598
1160.087746,7698.141797,-6809.894666,1378.971896
1160.088075,7550.100608,-6809.894666,1225.752797
1160.088404,7920.203579,-6883.915261,1149.143247
1160.088733,7624.121203,-7179.997637,1149.143247
1160.089062,7920.203579,-7476.080014,1685.410096
1160.089391,8068.244768,-7624.121203,1455.581446
1160.089721,7105.977043,-7179.997637,1455.581446
1160.090050,6513.812290,-6587.832884,1532.190996
1160.090379,6143.709319,-6809.894666,1225.752797
1160.090708,5921.647536,-6513.812290,2068.457845
1160.091037,6143.709319,-6143.709319,1225.752797
1160.091367,5995.668130,-5477.523971,1225.752797
1160.091696,6291.750507,-5403.503377,1225.752797
1160.092025,6735.874072,-4885.359217,1072.533697
1160.092354,6809.894666,-4515.256246,689.485948
1160.092683,6661.853478,-5181.441594,459.657299
1160.093012,7031.956449,-5477.523971,229.828649
1160.093342,7698.141797,-5995.668130,536.266849
1160.093671,8068.244768,-7105.977043,995.924147
1160.094000,7624.121203,-7179.997637,842.705048
1160.094329,7772.162391,-7624.121203,842.705048
1160.094658,7846.182985,-7920.203579,919.314598
1160.094988,7772.162391,-8364.327145,1072.533697
1160.095317,7920.203579,-8290.306550,1685.410096
1160.095646,7328.038826,-7994.224174,1455.581446
1160.095975,6883.915261,-7179.997637,1532.190996
1160.096304,6587.832884,-6735.874072,1762.019645
1160.096633,6587.832884,-5625.565159,919.314598
1160.096963,6513.812290,-5107.421000,383.047749
1160.097292,6291.750507,-4663.297435,1302.362347
1160.097621,6735.874072,-4885.359217,1149.143247
1160.097950,7105.977043,-5033.400406,1685.410096
1160.098279,6957.935855,-5255.462188,1608.800546
1160.098608,6439.791695,-5477.523971,536.266849
1160.098938,6439.791695,-6069.688724,536.266849
1160.099267,6513.812290,-7105.977043,689.485948
1160.099596,7031.956449,-7698.141797,76.609550
1160.099925,6735.874072,-7402.059420,995.924147
1160.100254,6957.935855,-8216.285956,383.047749
1160.100584,6661.853478,-8142.265362,229.828649
1160.100913,6809.894666,-8142.265362,536.266849
1160.101242,7105.977043,-7994.224174,383.047749
1160.101571,7328.038826,-7031.956449,536.266849
1160.101900,7179.997637,-7105.977043,1225.752797
1160.102229,7328.038826,-6217.729913,1608.800546
1160.102559,7105.977043,-5921.647536,1608.800546
1160.102888,6735.874072,-6069.688724,1762.019645
1160.103217,6735.874072,-5625.565159,1532.190996
1160.103546,7105.977043,-5625.565159,1532.190996
1160.103875,6883.915261,-5477.523971,1225.752797
1160.104204,6217.729913,-5921.647536,1149.143247
1160.104534,5921.647536,-5995.668130,842.705048
1160.104863,6291.750507,-6587.832884,689.485948
1160.105192,6735.874072,-6439.791695,459.657299
1160.105521,6587.832884,-6587.832884,1072.533697
1160.105850,6957.935855,-6439.791695,459.657299
1160.106180,7105.977043,-6957.935855,306.438199
1160.106509,6957.935855,-6809.894666,536.266849
1160.106838,7179.997637,-7031.956449,536.266849
1160.107167,7772.162391,-6735.874072,766.095498
1160.107496,8364.327145,-7031.956449,1072.533697
1160.107825,8290.306550,-6809.894666,1455.581446
1160.108155,8290.306550,-6809.894666,1991.848295
1160.108484,8290.306550,-6587.832884,1915.238745
1160.108813,7772.162391,-5551.544565,2068.457845
1160.109142,7920.203579,-6365.771101,1532.190996
1160.109471,7031.956449,-5847.626942,1302.362347
1160.109801,6513.812290,-5773.606348,1225.752797
1160.110130,6143.709319,-5921.647536,842.705048
1160.110459,6365.771101,-5181.441594,1455.581446
1160.110788,5477.523971,-5995.668130,229.828649
1160.111117,5551.544565,-5921.647536,689.485948
1160.111446,4737.318029,-6439.791695,0.000000
1160.111776,6217.729913,-7254.018232,383.047749
1160.112105,6513.812290,-6735.874072,842.705048
1160.112434,6809.894666,-7105.977043,536.266849
1160.112763,7105.977043,-6809.894666,229.828649
1160.113092,7476.080014,-7550.100608,919.314598
1160.113421,8216.285956,-8734.430116,1685.410096
1160.113751,8734.430116,-7994.224174,1378.971896
1160.114080,7846.182985,-7402.059420,1378.971896
1160.114409,7254.018232,-7179.997637,1455.581446
1160.114738,6957.935855,-7105.977043,1302.362347
1160.115067,6661.853478,-6661.853478,1991.848295
1160.115397,6883.915261,-6217.729913,766.095498
1160.115726,6513.812290,-5477.523971,1838.629195
1160.116055,6069.688724,-4885.359217,919.314598
1160.116384,6217.729913,-5107.421000,919.314598
1160.116713,6217.729913,-5329.482782,842.705048
1160.117042,6217.729913,-5625.565159,612.876398
1160.117372,6365.771101,-6143.709319,612.876398
1160.117701,6809.894666,-5921.647536,689.485948
1160.118030,7105.977043,-6365.771101,383.047749
1160.118359,7402.059420,-7476.080014,919.314598
1160.118688,7698.141797,-7105.977043,766.095498
1160.119018,7772.162391,-7402.059420,919.314598
1160.119347,8216.285956,-7402.059420,1378.971896
1160.119676,8216.285956,-7550.100608,766.095498
1160.120005,7698.141797,-8068.244768,842.705048
1160.120334,7105.977043,-7994.224174,995.924147
1160.120663,7105.977043,-7254.018232,1302.362347
1160.120993,7624.121203,-6513.812290,2221.676944
1160.121322,7105.977043,-6661.853478,1838.629195
1160.121651,6809.894666,-5329.482782,1608.800546
1160.121980,6735.874072,-5033.400406,1378.971896
1160.122309,6587.832884,-4589.276840,995.924147
1160.122638,7105.977043,-4589.276840,1915.238745
1160.122968,7179.997637,-5329.482782,1608.800546
1160.123297,6735.874072,-5477.523971,995.924147
1160.123626,5995.668130,-6217.729913,766.095498
1160.123955,5773.606348,-6661.853478,383.047749
1160.124284,5995.668130,-7179.997637,766.095498
1160.124614,6513.812290,-8068.244768,842.705048
1160.124943,6587.832884,-7772.162391,766.095498
1160.125272,6735.874072,-7624.121203,306.438199
1160.125601,6439.791695,-7402.059420,995.924147
1160.125930,6735.874072,-7994.224174,459.657299
1160.126259,7105.977043,-8068.244768,1072.533697
1160.126589,7698.141797,-7328.038826,1302.362347
1160.126918,7846.182985,-6735.874072,1838.629195
1160.127247,7328.038826,-5773.606348,1838.629195
1160.127576,6883.915261,-6069.688724,1762.019645
1160.127905,6735.874072,-5699.585753,1455.581446
1160.128235,6809.894666,-5625.565159,1608.800546
1160.128564,6661.853478,-5403.503377,1378.971896
1160.128893,6291.750507,-5403.503377,1608.800546
1160.129222,6365.771101,-5995.668130,995.924147
1160.129551,6365.771101,-6365.771101,766.095498
1160.129880,6587.832884,-5625.565159,919.314598
1160.130210,6735.874072,-5995.668130,1149.143247
1160.130539,6587.832884,-5921.647536,536.266849
1160.130868,6809.894666,-6439.791695,306.438199
1160.131197,7179.997637,-6365.771101,612.876398
1160.131526,8216.285956,-5921.647536,229.828649
1160.131855,8808.450710,-7179.997637,153.219100
1160.132185,8290.306550,-7105.977043,612.876398
1160.132514,7772.162391,-7624.121203,766.095498
1160.132843,7698.141797,-7698.141797,766.095498
1160.133172,8068.244768,-7328.038826,2145.067394
1160.133501,8290.306550,-7624.121203,2068.457845
1160.133831,7550.100608,-7105.977043,1991.848295
1160.134160,6439.791695,-6291.750507,1455.581446
1160.134489,5995.668130,-5921.647536,1072.533697
1160.134818,6439.791695,-5847.626942,995.924147
1160.135148,6439.791695,-5995.668130,1532.190996
1160.135477,6217.729913,-5403.503377,689.485948
1160.135806,5773.606348,-5403.503377,229.828649
1160.136135,5847.626942,-4959.379811,306.438199
1160.136465,5995.668130,-6291.750507,536.266849
1160.136794,6883.915261,-6883.915261,536.266849
1160.137123,6513.812290,-6587.832884,306.438199
1160.137452,6957.935855,-7105.977043,459.657299
1160.137782,7031.956449,-7179.997637,919.314598
1160.138111,7920.203579,-8290.306550,1455.581446
1160.138440,8142.265362,-8142.265362,1608.800546
1160.138769,7624.121203,-7402.059420,1072.533697
1160.139099,7328.038826,-7105.977043,1455.581446
1160.139428,6883.915261,-6735.874072,1915.238745
1160.139757,7105.977043,-7105.977043,1608.800546
1160.140087,7254.018232,-6143.709319,1838.629195
1160.140416,6587.832884,-4811.338623,1072.533697
1160.140745,6291.750507,-4663.297435,1072.533697
1160.141074,6217.729913,-5329.482782,1455.581446
1160.141404,6439.791695,-5477.523971,1149.143247
1160.141733,6143.709319,-5551.544565,919.314598
1160.142062,6365.771101,-5255.462188,842.705048
1160.142391,7105.977043,-6069.688724,536.266849
1160.142721,7031.956449,-6143.709319,842.705048
1160.143050,7105.977043,-6883.915261,383.047749
1160.143379,7105.977043,-7031.956449,536.266849
1160.143708,7920.203579,-6661.853478,306.438199
1160.144038,8290.306550,-7328.038826,689.485948
1160.144367,8364.327145,-7698.141797,1302.362347
1160.144696,7920.203579,-7328.038826,919.314598
1160.145025,7254.018232,-7254.018232,919.314598
1160.145355,7254.018232,-7476.080014,842.705048
1160.145684,7031.956449,-7772.162391,1302.362347
1160.146013,7031.956449,-7179.997637,1608.800546
1160.146342,6809.894666,-6661.853478,1072.533697
1160.146672,6217.729913,-5773.606348,689.485948
1160.147001,6365.771101,-5773.606348,1072.533697
1160.147330,7179.997637,-5477.523971,1608.800546
1160.147659,7772.162391,-4959.379811,2145.067394
1160.147989,7105.977043,-4811.338623,1532.190996
1160.148318,6957.935855,-5181.441594,1149.143247
1160.148647,6365.771101,-5921.647536,689.485948
1160.148976,6439.791695,-6883.915261,995.924147
1160.149306,6735.874072,-6809.894666,1072.533697
1160.149635,6809.894666,-6809.894666,459.657299
1160.149964,6439.791695,-6661.853478,306.438199
1160.150293,6513.812290,-7550.100608,76.609550
1160.150623,6661.853478,-8216.285956,459.657299
1160.150952,7105.977043,-8290.306550,383.047749
1160.151281,7550.100608,-7994.224174,306.438199
1160.151610,7550.100608,-7254.018232,1225.752797
1160.151940,7105.977043,-7328.038826,1302.362347
1160.152269,7031.956449,-7402.059420,1838.629195
1160.152598,7328.038826,-7031.956449,1532.190996
1160.152927,7105.977043,-5773.606348,1991.848295
1160.153257,7031.956449,-5181.441594,1915.238745
1160.153586,6957.935855,-4885.359217,1532.190996
1160.153915,6513.812290,-5329.482782,1378.971896
1160.154244,5921.647536,-5329.482782,1532.190996
1160.154574,6365.771101,-5625.565159,919.314598
1160.154903,6439.791695,-5551.544565,612.876398
1160.155232,6735.874072,-5995.668130,306.438199
1160.155561,6587.832884,-6883.915261,153.219100
1160.155891,6291.750507,-7105.977043,383.047749
1160.156220,7105.977043,-7105.977043,306.438199
1160.156549,7476.080014,-7254.018232,383.047749
1160.156878,7550.100608,-7105.977043,306.438199
1160.157208,7476.080014,-7105.977043,919.314598
1160.157537,7994.224174,-7179.997637,2068.457845
1160.157866,8216.285956,-7328.038826,1762.019645
1160.158195,8142.265362,-7550.100608,1838.629195
1160.158525,7624.121203,-6513.812290,1608.800546
1160.158854,7328.038826,-6069.688724,842.705048
1160.159183,7105.977043,-6365.771101,1455.581446
1160.159512,6439.791695,-6439.791695,1608.800546
1160.159842,6513.812290,-5477.523971,995.924147
1160.160171,5921.647536,-5329.482782,919.314598
1160.160500,6069.688724,-5551.544565,1302.362347
1160.160829,5847.626942,-6365.771101,536.266849
1160.161159,6069.688724,-6217.729913,919.314598
1160.161488,6439.791695,-6513.812290,689.485948
1160.161817,7031.956449,-6661.853478,689.485948
1160.162147,7105.977043,-6587.832884,919.314598
1160.162476,7550.100608,-7105.977043,766.095498
1160.162805,7402.059420,-7105.977043,689.485948
1160.163134,7254.018232,-7476.080014,766.095498
1160.163464,7550.100608,-7105.977043,919.314598
1160.163793,7772.162391,-7624.121203,1072.533697
1160.164122,7550.100608,-7846.182985,1149.143247
1160.164451,7402.059420,-7624.121203,1762.019645
1160.164781,7328.038826,-7031.956449,1838.629195
1160.165110,7402.059420,-5995.668130,1838.629195
1160.165439,7105.977043,-6217.729913,1915.238745
1160.165768,6661.853478,-5625.565159,1608.800546
1160.166098,6513.812290,-4885.359217,1378.971896
1160.166427,6809.894666,-5699.585753,1225.752797
1160.166756,6365.771101,-4959.379811,1455.581446
1160.167085,6513.812290,-5403.503377,612.876398
1160.167415,6809.894666,-5625.565159,612.876398
1160.167744,6735.874072,-6143.709319,612.876398
1160.168073,7031.956449,-6291.750507,612.876398
1160.168402,7105.977043,-6883.915261,229.828649
1160.168732,7328.038826,-7031.956449,536.266849
1160.169061,7846.182985,-7179.997637,689.485948
1160.169390,7920.203579,-7328.038826,1455.581446
1160.169719,7550.100608,-7402.059420,919.314598
1160.170049,7328.038826,-7772.162391,766.095498
1160.170378,6957.935855,-7994.224174,1149.143247
1160.170707,7105.977043,-7476.080014,1378.971896
1160.171036,7624.121203,-7402.059420,2068.457845
1160.171366,7105.977043,-7105.977043,1685.410096
1160.171695,6513.812290,-5921.647536,1685.410096
1160.172024,5773.606348,-5773.606348,1302.362347
1160.172353,6587.832884,-5329.482782,1149.143247
1160.172683,7179.997637,-5033.400406,1455.581446
1160.173012,6661.853478,-5477.523971,1149.143247
1160.173341,6365.771101,-5699.585753,919.314598
1160.173670,6291.750507,-6069.688724,766.095498
1160.174000,6439.791695,-6513.812290,383.047749
1160.174329,6439.791695,-6661.853478,919.314598
1160.174658,6365.771101,-7550.100608,306.438199
1160.174987,6143.709319,-7402.059420,153.219100
1160.175317,5847.626942,-8290.306550,76.609550
1160.175646,6735.874072,-8216.285956,612.876398
1160.175975,7105.977043,-7994.224174,612.876398
1160.176304,7254.018232,-7846.182985,995.924147
1160.176634,7476.080014,-7402.059420,1685.410096
1160.176963,7624.121203,-7772.162391,2145.067394
1160.177292,7105.977043,-6439.791695,1838.629195
1160.177621,7031.956449,-5847.626942,1762.019645
1160.177951,6883.915261,-5033.400406,1455.581446
1160.178280,6809.894666,-5181.441594,1762.019645
1160.178609,6735.874072,-4737.318029,1608.800546
1160.178938,6587.832884,-4959.379811,1225.752797
1160.179268,6439.791695,-5033.400406,1072.533697
1160.179597,5995.668130,-5773.606348,1072.533697
1160.179926,6143.709319,-6217.729913,766.095498
1160.180255,6439.791695,-6365.771101,612.876398
1160.180585,6587.832884,-6883.915261,383.047749
1160.180914,7031.956449,-6809.894666,383.047749
1160.181243,7550.100608,-6735.874072,536.266849
1160.181572,7920.203579,-6957.935855,842.705048
1160.181902,8142.265362,-6587.832884,995.924147
1160.182231,8438.347739,-7031.956449,1225.752797
1160.182560,8660.409521,-7031.956449,1608.800546
1160.182889,8290.306550,-6513.812290,1608.800546
1160.183219,8216.285956,-7105.977043,1455.581446
1160.183548,7402.059420,-6809.894666,1149.143247
1160.183877,6957.935855,-6735.874072,1455.581446
1160.184207,7105.977043,-6217.729913,1685.410096
1160.184536,6735.874072,-5773.606348,1225.752797
1160.184865,6291.750507,-5921.647536,1149.143247
1160.185194,5847.626942,-5995.668130,919.314598
1160.185524,5921.647536,-6069.688724,842.705048
1160.185853,5773.606348,-6439.791695,689.485948
1160.186182,5995.668130,-5403.503377,919.314598
1160.186511,5995.668130,-6587.832884,0.000000
1160.186841,6143.709319,-7031.956449,229.828649
1160.187170,6365.771101,-7179.997637,306.438199
1160.187499,7328.038826,-7105.977043,612.876398
1160.187828,7772.162391,-6883.915261,919.314598
1160.188158,7179.997637,-7846.182985,1149.143247
1160.188487,7550.100608,-7994.224174,1225.752797
1160.188816,7476.080014,-7624.121203,1302.362347
1160.189145,7105.977043,-7328.038826,995.924147
1160.189475,7031.956449,-7402.059420,1532.190996
1160.189804,7254.018232,-7179.997637,1685.410096
1160.190133,7402.059420,-6513.812290,1762.019645
1160.190462,6735.874072,-5847.626942,1762.019645
1160.190792,6735.874072,-4737.318029,842.705048
1160.191121,6439.791695,-4589.276840,1149.143247
1160.191450,7031.956449,-5107.421000,1302.362347
1160.191779,6809.894666,-4737.318029,1302.362347
1160.192109,7031.956449,-4811.338623,612.876398
1160.192438,6365.771101,-5551.544565,612.876398
1160.192767,6661.853478,-5847.626942,459.657299
1160.193096,7105.977043,-6587.832884,536.266849
1160.193426,7254.018232,-6883.915261,459.657299
1160.193755,6957.935855,-7402.059420,689.485948
1160.194084,7179.997637,-7550.100608,612.876398
1160.194413,7624.121203,-7698.141797,689.485948
1160.194743,8216.285956,-7328.038826,919.314598
1160.195072,7920.203579,-7254.018232,766.095498
1160.195401,7328.038826,-7402.059420,2068.457845
1160.195730,7254.018232,-7179.997637,2068.457845
1160.196060,7328.038826,-6587.832884,1762.019645
1160.196389,7105.977043,-5995.668130,1838.629195
1160.196718,6735.874072,-5107.421000,1072.533697
1160.197047,6143.709319,-5329.482782,1455.581446
1160.197377,6365.771101,-4885.359217,766.095498
1160.197706,6809.894666,-4737.318029,1072.533697
1160.198035,7179.997637,-5107.421000,1302.362347
1160.198364,7402.059420,-5921.647536,1225.752797
1160.198694,6587.832884,-6513.812290,995.924147
1160.199023,6143.709319,-6883.915261,383.047749
1160.199352,5773.606348,-7105.977043,612.876398
1160.199681,6439.791695,-7772.162391,1455.581446
1160.200011,6513.812290,-7624.121203,0.000000
1160.200340,6809.894666,-7846.182985,153.219100
1160.200669,6587.832884,-7772.162391,229.828649
1160.200998,7105.977043,-8068.244768,153.219100
1160.201328,7624.121203,-7772.162391,1149.143247
1160.201657,7772.162391,-7402.059420,1149.143247
1160.201986,7476.080014,-7179.997637,1302.362347
1160.202315,7179.997637,-6809.894666,1532.190996
1160.202645,6735.874072,-6513.812290,1455.581446
1160.202974,6513.812290,-5773.606348,1302.362347
1160.203303,6735.874072,-5699.585753,1072.533697
1160.203632,7105.977043,-5995.668130,1378.971896
1160.203962,6513.812290,-5625.565159,1225.752797
1160.204291,6217.729913,-6365.771101,1608.800546
1160.204620,6291.750507,-5921.647536,1149.143247
1160.204950,6735.874072,-6291.750507,919.314598
1160.205279,6809.894666,-6439.791695,1149.143247
1160.205608,7031.956449,-5921.647536,536.266849
1160.205937,7328.038826,-6291.750507,383.047749
1160.206267,7328.038826,-6143.709319,306.438199
1160.206596,7476.080014,-6291.750507,383.047749
1160.206925,8068.244768,-6957.935855,842.705048
1160.207254,8586.388927,-6587.832884,1072.533697
1160.207584,8364.327145,-7105.977043,1608.800546
1160.207913,8216.285956,-7105.977043,1838.629195
1160.208242,7698.141797,-6809.894666,1991.848295
1160.208571,7031.956449,-6957.935855,1149.143247
1160.208901,6809.894666,-5625.565159,1225.752797
1160.209230,6809.894666,-6365.771101,1532.190996
1160.209559,6439.791695,-5995.668130,1532.190996
1160.209888,6143.709319,-5551.544565,1225.752797
1160.210218,6069.688724,-5107.421000,766.095498
1160.210547,6143.709319,-6069.688724,1072.533697
1160.210876,5699.585753,-5921.647536,612.876398
1160.211205,5847.626942,-5995.668130,0.000000
1160.211535,5773.606348,-6587.832884,76.609550
1160.211864,6957.935855,-7105.977043,459.657299
1160.212193,7402.059420,-7105.977043,383.047749
1160.212522,7254.018232,-7402.059420,919.314598
1160.212852,7328.038826,-7476.080014,689.485948
1160.213181,7179.997637,-7994.224174,689.485948
1160.213510,7550.100608,-7920.203579,1378.971896
1160.213839,7476.080014,-7772.162391,1378.971896
1160.214169,7550.100608,-7698.141797,1455.581446
1160.214498,7550.100608,-7105.977043,1762.019645
1160.214827,7179.997637,-6291.750507,1762.019645
1160.215156,7105.977043,-5477.523971,1608.800546
1160.215486,7031.956449,-5255.462188,1149.143247
1160.215815,6883.915261,-4811.338623,1302.362347
1160.216144,6587.832884,-5181.441594,1225.752797
1160.216473,6069.688724,-5551.544565,1378.971896
1160.216803,6365.771101,-5551.544565,612.876398
1160.217132,6365.771101,-5921.647536,536.266849
1160.217461,6513.812290,-6291.750507,1149.143247
1160.217790,7031.956449,-7105.977043,919.314598
1160.218120,7105.977043,-7179.997637,842.705048
1160.218449,7031.956449,-6439.791695,842.705048
1160.218778,7179.997637,-6883.915261,459.657299
1160.219107,7624.121203,-7105.977043,919.314598
1160.219437,7698.141797,-7328.038826,1838.629195
1160.219766,8142.265362,-7402.059420,1225.752797
1160.220095,7624.121203,-6883.915261,1149.143247
1160.220424,7179.997637,-7105.977043,1072.533697
1160.220754,7698.141797,-7328.038826,1608.800546
1160.221083,7105.977043,-7402.059420,1532.190996
1160.221412,7031.956449,-6735.874072,1532.190996
1160.221741,6217.729913,-5921.647536,1149.143247
1160.222071,5995.668130,-5329.482782,842.705048
1160.222400,6439.791695,-4959.379811,1378.971896
1160.222729,6809.894666,-5625.565159,1838.629195
1160.223058,6957.935855,-5699.585753,1072.533697
1160.223388,6365.771101,-5477.523971,1149.143247
1160.223717,6143.709319,-6143.709319,612.876398
1160.224046,6217.729913,-6661.853478,0.000000
1160.224375,6883.915261,-7254.018232,689.485948
1160.224705,7031.956449,-7254.018232,306.438199
1160.225034,6957.935855,-7179.997637,229.828649
1160.225363,7031.956449,-7550.100608,766.095498
1160.225692,7328.038826,-7624.121203,689.485948
1160.226022,7105.977043,-7846.182985,536.266849
1160.226351,7179.997637,-8142.265362,1072.533697
1160.226680,7254.018232,-7846.182985,1532.190996
1160.227010,7402.059420,-7402.059420,1685.410096
1160.227339,7031.956449,-6735.874072,1532.190996
1160.227668,6587.832884,-6217.729913,1455.581446
1160.227997,6291.750507,-5773.606348,1225.752797
1160.228327,6809.894666,-5699.585753,1608.800546
1160.228656,6735.874072,-5329.482782,1378.971896
1160.228985,6365.771101,-4885.359217,842.705048
1160.229314,6217.729913,-5551.544565,919.314598
1160.229644,6439.791695,-5921.647536,1072.533697
1160.229973,6661.853478,-6439.791695,1149.143247
1160.230302,6809.894666,-5995.668130,536.266849
1160.230631,7105.977043,-6735.874072,766.095498
1160.230961,7402.059420,-7031.956449,842.705048
1160.231290,7624.121203,-7328.038826,536.266849
1160.231619,7105.977043,-6735.874072,383.047749
1160.231948,7402.059420,-7031.956449,229.828649
1160.232278,7476.080014,-7105.977043,459.657299
1160.232607,8142.265362,-7550.100608,1149.143247
1160.232936,8512.368333,-7179.997637,1762.019645
1160.233265,7994.224174,-7105.977043,1991.848295
1160.233595,7698.141797,-6439.791695,1302.362347
1160.233924,7254.018232,-5699.585753,1302.362347
1160.234253,6809.894666,-5699.585753,1608.800546
1160.234582,7179.997637,-5773.606348,1072.533697
1160.234912,6513.812290,-5773.606348,1225.752797
1160.235241,6365.771101,-5625.565159,995.924147
1160.235570,6291.750507,-5773.606348,536.266849
1160.235899,5995.668130,-6291.750507,536.266849
1160.236228,6217.729913,-6735.874072,306.438199
1160.236558,5921.647536,-7105.977043,306.438199
1160.236887,6143.709319,-7105.977043,306.438199
1160.237216,6439.791695,-7105.977043,612.876398
1160.237545,7105.977043,-6809.894666,536.266849
1160.237874,7179.997637,-7624.121203,612.876398
1160.238204,7476.080014,-7402.059420,1149.143247
1160.238533,8142.265362,-7772.162391,1378.971896
1160.238862,8068.244768,-7402.059420,1762.019645
1160.239191,7624.121203,-6883.915261,1532.190996
1160.239520,7254.018232,-6365.771101,1685.410096
1160.239849,6883.915261,-6883.915261,1455.581446
1160.240179,6735.874072,-6439.791695,1838.629195
1160.240508,6439.791695,-6217.729913,1762.019645
1160.240837,6735.874072,-5551.544565,1149.143247
1160.241166,6291.750507,-5625.565159,1072.533697
1160.241495,5921.647536,-7105.977043,1608.800546
1160.241825,6217.729913,-5995.668130,1225.752797
1160.242154,6735.874072,-5033.400406,459.657299
1160.242483,6661.853478,-5699.585753,536.266849
1160.242812,6883.915261,-5847.626942,766.095498
1160.243141,7179.997637,-6735.874072,919.314598
1160.243470,7328.038826,-6513.812290,536.266849
1160.243800,7846.182985,-6365.771101,842.705048
1160.244129,7772.162391,-6883.915261,919.314598
1160.244458,8438.347739,-7402.059420,1378.971896
1160.244787,7846.182985,-7772.162391,1072.533697
1160.245116,7402.059420,-7772.162391,1225.752797
1160.245446,6735.874072,-7772.162391,459.657299
1160.245775,7179.997637,-7994.224174,1378.971896
1160.246104,7105.977043,-7254.018232,1838.629195
1160.246433,6809.894666,-6661.853478,1302.362347
1160.246762,6365.771101,-5551.544565,1302.362347
1160.247091,6439.791695,-5699.585753,1532.190996
1160.247421,7105.977043,-5995.668130,1455.581446
1160.247750,7179.997637,-4737.318029,1685.410096
1160.248079,6883.915261,-4959.379811,1685.410096
1160.248408,6661.853478,-4737.318029,1072.533697
1160.248737,6809.894666,-5773.606348,1149.143247
1160.249067,7105.977043,-6809.894666,1149.143247
1160.249396,6883.915261,-6587.832884,536.266849
1160.249725,6365.771101,-6513.812290,459.657299
1160.250054,6587.832884,-7550.100608,76.609550
1160.250383,6883.915261,-8734.430116,612.876398
1160.250713,7550.100608,-8808.450710,536.266849
1160.251042,6957.935855,-7994.224174,153.219100
1160.251371,7105.977043,-7624.121203,306.438199
1160.251700,6957.935855,-7624.121203,1072.533697
1160.252029,7105.977043,-7920.203579,1915.238745
1160.252358,7254.018232,-7105.977043,1838.629195
1160.252688,7179.997637,-5625.565159,1302.362347
1160.253017,6587.832884,-5181.441594,1608.800546
1160.253346,7254.018232,-5033.400406,1915.238745
1160.253675,7031.956449,-5625.565159,1685.410096
1160.254004,6661.853478,-5403.503377,1608.800546
1160.254334,6143.709319,-5477.523971,1072.533697
1160.254663,6291.750507,-5921.647536,995.924147
1160.254992,6957.935855,-6143.709319,842.705048
1160.255321,6957.935855,-6365.771101,689.485948
1160.255650,7254.018232,-6735.874072,919.314598
1160.255979,6957.935855,-6883.915261,0.000000
1160.256309,7105.977043,-6735.874072,229.828649
1160.256638,7698.141797,-6439.791695,459.657299
1160.256967,7550.100608,-6587.832884,153.219100
1160.257296,7624.121203,-7105.977043,1302.362347
1160.257625,8290.306550,-7105.977043,1685.410096
1160.257955,8068.244768,-6883.915261,1685.410096
1160.258284,7476.080014,-6587.832884,1225.752797
1160.258613,7031.956449,-6587.832884,1455.581446
1160.258942,6661.853478,-6883.915261,1685.410096
1160.259271,7105.977043,-6661.853478,1762.019645
1160.259600,7105.977043,-5995.668130,1532.190996
1160.259930,6439.791695,-5699.585753,1149.143247
1160.260259,5921.647536,-5551.544565,1378.971896
1160.260588,6069.688724,-6365.771101,842.705048
1160.260917,6143.709319,-6217.729913,842.705048
1160.261246,5995.668130,-5773.606348,153.219100
1160.261576,5995.668130,-6439.791695,459.657299
1160.261905,6661.853478,-7031.956449,612.876398
1160.262234,6735.874072,-7624.121203,612.876398
1160.262563,6809.894666,-6735.874072,76.609550
1160.262892,7105.977043,-7105.977043,153.219100
1160.263222,7328.038826,-7550.100608,1302.362347
1160.263551,7994.224174,-8512.368333,1149.143247
1160.263880,7994.224174,-7920.203579,1532.190996
1160.264209,7920.203579,-6883.915261,842.705048
1160.264538,7402.059420,-6809.894666,1762.019645
1160.264867,7550.100608,-6587.832884,1838.629195
1160.265197,7476.080014,-6291.750507,1762.019645
1160.265526,7179.997637,-5403.503377,1685.410096
1160.265855,6735.874072,-4737.318029,1455.581446
1160.266184,6291.750507,-4071.132681,1072.533697
1160.266513,6883.915261,-5033.400406,1225.752797
1160.266843,6661.853478,-5329.482782,689.485948
1160.267172,6439.791695,-5847.626942,229.828649
1160.267501,6291.750507,-5921.647536,229.828649
1160.267830,6883.915261,-6735.874072,612.876398
1160.268159,6883.915261,-7402.059420,383.047749
1160.268488,7105.977043,-7254.018232,536.266849
1160.268818,7105.977043,-7698.141797,536.266849
1160.269147,7476.080014,-7994.224174,919.314598
1160.269476,7476.080014,-7105.977043,1225.752797
1160.269805,8068.244768,-7328.038826,995.924147
1160.270134,7846.182985,-6291.750507,1455.581446
1160.270464,7328.038826,-7254.018232,1378.971896
1160.270793,6883.915261,-7402.059420,1915.238745
1160.271122,7105.977043,-6291.750507,1455.581446
1160.271451,7105.977043,-5551.544565,1838.629195
1160.271780,7105.977043,-5329.482782,1838.629195
1160.272109,7105.977043,-5551.544565,1532.190996
1160.272439,7031.956449,-5477.523971,1378.971896
1160.272768,6809.894666,-5255.462188,842.705048
1160.273097,6439.791695,-6069.688724,1072.533697
1160.273426,6439.791695,-5773.606348,1225.752797
1160.273755,6143.709319,-7105.977043,1608.800546
1160.274085,6143.709319,-6883.915261,536.266849
1160.274414,6069.688724,-7031.956449,536.266849
1160.274743,6809.894666,-7402.059420,536.266849
1160.275072,7179.997637,-7254.018232,766.095498
1160.275401,7254.018232,-8068.244768,306.438199
1160.275731,6735.874072,-7254.018232,536.266849
1160.276060,6735.874072,-7550.100608,536.266849
1160.276389,7179.997637,-7772.162391,1149.143247
