#time,accel_x,accel_y,accel_z
1298.275404,7105.977043,-6365.771101,1455.581446
1298.275734,7105.977043,-6069.688724,1072.533697
1298.276065,7328.038826,-6143.709319,1455.581446
1298.276395,7031.956449,-6069.688724,1149.143247
1298.276725,6957.935855,-6217.729913,689.485948
1298.277055,6661.853478,-6587.832884,1149.143247
1298.277385,6661.853478,-7105.977043,1378.971896
1298.277715,6883.915261,-6587.832884,1149.143247
1298.278045,6661.853478,-6587.832884,919.314598
1298.278375,6735.874072,-6735.874072,1302.362347
1298.278705,7031.956449,-6809.894666,919.314598
1298.279035,6439.791695,-6883.915261,0.000000
1298.279365,6365.771101,-6809.894666,689.485948
1298.279695,7031.956449,-6735.874072,842.705048
1298.280025,7179.997637,-6661.853478,1072.533697
1298.280355,7179.997637,-6439.791695,1225.752797
1298.280685,7698.141797,-6661.853478,1455.581446
1298.281015,7031.956449,-6587.832884,919.314598
1298.281345,6809.894666,-6661.853478,612.876398
1298.281675,6735.874072,-6587.832884,842.705048
1298.282005,7031.956449,-6439.791695,1149.143247
1298.282335,7328.038826,-6217.729913,1149.143247
1298.282665,6809.894666,-6513.812290,1455.581446
1298.282995,6957.935855,-6365.771101,1225.752797
1298.283325,7105.977043,-6587.832884,842.705048
1298.283655,7031.956449,-5921.647536,995.924147
1298.283985,6439.791695,-6513.812290,1072.533697
1298.284315,6587.832884,-6587.832884,383.047749
1298.284645,6809.894666,-6883.915261,1149.143247
1298.284975,7031.956449,-6957.935855,1455.581446
1298.285305,7105.977043,-6365.771101,1302.362347
1298.285635,6809.894666,-6883.915261,1225.752797
1298.285965,6735.874072,-6957.935855,995.924147
1298.286295,6439.791695,-6809.894666,612.876398
1298.286625,6587.832884,-6439.791695,919.314598
1298.286955,6957.935855,-7031.956449,689.485948
1298.287285,7179.997637,-6735.874072,1225.752797
1298.287615,7328.038826,-6291.750507,1149.143247
1298.287945,7402.059420,-6217.729913,842.705048
1298.288275,7105.977043,-5995.668130,1685.410096
1298.288605,7328.038826,-6587.832884,689.485948
1298.288935,6957.935855,-6735.874072,1072.533697
1298.289265,7624.121203,-6365.771101,1072.533697
1298.289595,7476.080014,-6735.874072,1532.190996
1298.289925,7550.100608,-5847.626942,1378.971896
1298.290255,7031.956449,-5995.668130,995.924147
1298.290585,6957.935855,-6587.832884,919.314598
1298.290915,6809.894666,-6291.750507,842.705048
1298.291245,7179.997637,-6439.791695,766.095498
1298.291575,6883.915261,-6735.874072,1072.533697
1298.291905,7105.977043,-6883.915261,1225.752797
1298.292235,6883.915261,-6587.832884,1072.533697
1298.292565,7179.997637,-6661.853478,1072.533697
1298.292895,7031.956449,-6735.874072,1072.533697
1298.293225,6809.894666,-6883.915261,1608.800546
1298.293555,6587.832884,-7031.956449,842.705048
1298.293885,6587.832884,-7105.977043,1225.752797
1298.294215,6439.791695,-6883.915261,1532.190996
1298.294545,7105.977043,-6809.894666,689.485948
1298.294875,6957.935855,-6143.709319,1302.362347
1298.295205,7105.977043,-6587.832884,1072.533697
1298.295535,7402.059420,-6365.771101,1455.581446
1298.295865,7105.977043,-5995.668130,1608.800546
1298.296195,6735.874072,-6365.771101,766.095498
1298.296526,6957.935855,-6291.750507,1072.533697
1298.296856,7105.977043,-6439.791695,1149.143247
1298.297186,7031.956449,-6439.791695,1149.143247
1298.297516,6883.915261,-6513.812290,1455.581446
1298.297846,7105.977043,-6439.791695,1225.752797
1298.298176,7105.977043,-6439.791695,1149.143247
1298.298506,6513.812290,-6439.791695,1072.533697
1298.298836,6661.853478,-6735.874072,1225.752797
1298.299166,6735.874072,-6809.894666,1378.971896
1298.299496,6883.915261,-6883.915261,1378.971896
1298.299826,6809.894666,-6439.791695,995.924147
1298.300156,6883.915261,-6661.853478,1149.143247
1298.300486,6661.853478,-6513.812290,689.485948
1298.300816,6957.935855,-6883.915261,842.705048
1298.301146,6587.832884,-6809.894666,995.924147
1298.301476,6883.915261,-7105.977043,995.924147
1298.301806,7698.141797,-6661.853478,1302.362347
1298.302136,7105.977043,-6365.771101,1225.752797
1298.302466,7328.038826,-6513.812290,842.705048
1298.302796,7179.997637,-6365.771101,1225.752797
1298.303126,7105.977043,-6661.853478,842.705048
1298.303456,7179.997637,-6809.894666,612.876398
1298.303786,7254.018232,-6365.771101,1225.752797
1298.304116,7328.038826,-5921.647536,919.314598
1298.304446,7254.018232,-6291.750507,1225.752797
1298.304776,7698.141797,-5995.668130,1455.581446
1298.305106,7328.038826,-6513.812290,1072.533697
1298.305436,7179.997637,-6291.750507,995.924147
1298.305766,7031.956449,-6809.894666,919.314598
1298.306096,6883.915261,-6735.874072,766.095498
1298.306426,6957.935855,-6365.771101,1838.629195
1298.306756,6883.915261,-6513.812290,1455.581446
1298.307086,7105.977043,-6587.832884,1072.533697
1298.307416,7105.977043,-6661.853478,1225.752797
1298.307746,6661.853478,-6513.812290,995.924147
1298.308076,6957.935855,-6809.894666,612.876398
1298.308406,6661.853478,-7105.977043,689.485948
1298.308736,6513.812290,-7179.997637,1149.143247
1298.309066,7105.977043,-7031.956449,766.095498
1298.309396,7254.018232,-5847.626942,1072.533697
1298.309726,7105.977043,-6735.874072,1225.752797
1298.310056,7105.977043,-6661.853478,1225.752797
1298.310386,7031.956449,-6291.750507,1149.143247
1298.310716,7105.977043,-6809.894666,766.095498
1298.311046,6809.894666,-6735.874072,1378.971896
1298.311376,7328.038826,-5847.626942,842.705048
1298.311706,7328.038826,-6661.853478,1149.143247
1298.312036,7031.956449,-6587.832884,1455.581446
1298.312366,6883.915261,-6587.832884,1455.581446
1298.312696,6661.853478,-6365.771101,1302.362347
1298.313026,6661.853478,-6513.812290,919.314598
1298.313356,6069.688724,-6587.832884,1455.581446
1298.313686,6439.791695,-6661.853478,1225.752797
1298.314016,6957.935855,-6883.915261,1072.533697
1298.314346,6883.915261,-6957.935855,1532.190996
1298.314676,6735.874072,-7105.977043,1455.581446
1298.315006,6661.853478,-6883.915261,1378.971896
1298.315336,6883.915261,-6883.915261,536.266849
1298.315666,7031.956449,-7031.956449,919.314598
1298.315996,6587.832884,-7105.977043,995.924147
1298.316326,7105.977043,-6809.894666,995.924147
1298.316656,7105.977043,-6513.812290,1302.362347
1298.316987,7254.018232,-5921.647536,995.924147
1298.317317,6957.935855,-6143.709319,1149.143247
1298.317647,6809.894666,-6365.771101,1072.533697
1298.317977,6957.935855,-6365.771101,842.705048
1298.318307,7179.997637,-6513.812290,1225.752797
1298.318637,7179.997637,-5995.668130,1685.410096
1298.318967,7624.121203,-6069.688724,1149.143247
1298.319297,7105.977043,-6069.688724,1072.533697
1298.319627,6957.935855,-6587.832884,995.924147
1298.319957,7328.038826,-6661.853478,1072.533697
1298.320287,7179.997637,-6291.750507,919.314598
1298.320617,6735.874072,-6661.853478,919.314598
1298.320947,6809.894666,-6883.915261,1072.533697
1298.321277,7105.977043,-6661.853478,1072.533697
1298.321607,7179.997637,-6439.791695,1532.190996
1298.321937,7105.977043,-6513.812290,919.314598
1298.322267,7031.956449,-6587.832884,1072.533697
1298.322597,6957.935855,-6735.874072,766.095498
1298.322927,6513.812290,-6661.853478,689.485948
1298.323257,6513.812290,-6587.832884,1149.143247
1298.323587,7105.977043,-6883.915261,995.924147
1298.323917,7179.997637,-6883.915261,1225.752797
1298.324247,7105.977043,-6661.853478,1072.533697
1298.324577,7179.997637,-6809.894666,842.705048
1298.324907,7105.977043,-6513.812290,995.924147
1298.325237,7031.956449,-6661.853478,536.266849
1298.325567,6809.894666,-6439.791695,1072.533697
1298.325897,7179.997637,-5921.647536,919.314598
1298.326227,7846.182985,-6217.729913,766.095498
1298.326557,7031.956449,-6217.729913,1378.971896
1298.326887,7105.977043,-6365.771101,1149.143247
1298.327217,6957.935855,-6735.874072,1072.533697
1298.327547,6809.894666,-6439.791695,689.485948
1298.327877,6957.935855,-6957.935855,689.485948
1298.328207,6439.791695,-6883.915261,1072.533697
1298.328537,6883.915261,-7031.956449,1225.752797
1298.328867,6735.874072,-6661.853478,1072.533697
1298.329197,6513.812290,-6735.874072,1608.800546
1298.329527,6661.853478,-6587.832884,1455.581446
1298.329857,6513.812290,-6587.832884,995.924147
1298.330187,6587.832884,-6883.915261,919.314598
1298.330517,6587.832884,-6439.791695,1302.362347
1298.330847,6809.894666,-6513.812290,842.705048
1298.331177,7105.977043,-6513.812290,1225.752797
1298.331507,7031.956449,-6587.832884,1149.143247
1298.331837,7179.997637,-6661.853478,995.924147
1298.332167,7328.038826,-6661.853478,842.705048
1298.332497,6883.915261,-6883.915261,1072.533697
1298.332827,6957.935855,-6809.894666,995.924147
1298.333157,7402.059420,-6291.750507,1149.143247
1298.333487,7105.977043,-6217.729913,1072.533697
1298.333817,7328.038826,-5847.626942,1302.362347
1298.334147,7031.956449,-6069.688724,995.924147
1298.334477,7105.977043,-5995.668130,766.095498
1298.334807,7031.956449,-6365.771101,919.314598
1298.335137,6587.832884,-6069.688724,689.485948
1298.335467,6735.874072,-6587.832884,612.876398
1298.335797,6809.894666,-6809.894666,1378.971896
1298.336127,7105.977043,-6957.935855,1302.362347
1298.336457,7031.956449,-6809.894666,995.924147
1298.336787,7179.997637,-6735.874072,1302.362347
1298.337117,7031.956449,-6587.832884,612.876398
1298.337448,6883.915261,-6365.771101,612.876398
1298.337778,6661.853478,-6439.791695,842.705048
1298.338108,6809.894666,-6587.832884,1072.533697
1298.338438,7328.038826,-6735.874072,689.485948
1298.338768,7105.977043,-6217.729913,1149.143247
1298.339098,7179.997637,-6513.812290,1225.752797
1298.339427,7328.038826,-5995.668130,919.314598
1298.339757,7698.141797,-6513.812290,919.314598
1298.340087,6809.894666,-6365.771101,1072.533697
1298.340416,7105.977043,-6365.771101,1149.143247
1298.340746,7402.059420,-6365.771101,689.485948
1298.341076,7254.018232,-6439.791695,1072.533697
1298.341405,7254.018232,-6735.874072,1608.800546
1298.341735,7105.977043,-6365.771101,1072.533697
1298.342064,6883.915261,-6587.832884,842.705048
1298.342394,6513.812290,-6217.729913,689.485948
1298.342724,6439.791695,-6513.812290,995.924147
1298.343053,6809.894666,-6957.935855,1149.143247
1298.343383,7031.956449,-6661.853478,1302.362347
1298.343713,6661.853478,-6883.915261,1455.581446
1298.344042,6587.832884,-6735.874072,1302.362347
1298.344372,6809.894666,-7031.956449,1532.190996
1298.344702,6365.771101,-7254.018232,842.705048
1298.345031,6439.791695,-6587.832884,995.924147
1298.345361,6957.935855,-6809.894666,919.314598
1298.345691,7550.100608,-6957.935855,919.314598
1298.346020,7254.018232,-6143.709319,1455.581446
1298.346350,7105.977043,-6439.791695,919.314598
1298.346680,7105.977043,-6587.832884,1225.752797
1298.347009,6957.935855,-6513.812290,1072.533697
1298.347339,6957.935855,-6883.915261,919.314598
1298.347669,6735.874072,-6439.791695,1149.143247
1298.347998,7105.977043,-6217.729913,1149.143247
1298.348328,7105.977043,-6439.791695,1378.971896
1298.348658,6957.935855,-6217.729913,1149.143247
1298.348987,6735.874072,-5773.606348,689.485948
1298.349317,7105.977043,-6365.771101,1072.533697
1298.349646,6809.894666,-6365.771101,1072.533697
1298.349976,6735.874072,-6439.791695,842.705048
1298.350306,7254.018232,-6883.915261,612.876398
1298.350635,6883.915261,-6809.894666,919.314598
1298.350965,6957.935855,-6587.832884,919.314598
1298.351295,6883.915261,-6587.832884,1225.752797
1298.351624,6513.812290,-6735.874072,995.924147
1298.351954,6661.853478,-6883.915261,919.314598
1298.352284,6365.771101,-6957.935855,1225.752797
1298.352613,7031.956449,-6957.935855,689.485948
1298.352943,7402.059420,-6661.853478,995.924147
1298.353273,7624.121203,-6587.832884,1149.143247
1298.353602,6883.915261,-6587.832884,612.876398
1298.353932,7179.997637,-6143.709319,995.924147
1298.354262,7328.038826,-6735.874072,919.314598
1298.354591,6883.915261,-6661.853478,689.485948
1298.354921,7031.956449,-6217.729913,995.924147
1298.355251,7402.059420,-6143.709319,1072.533697
1298.355580,7105.977043,-6291.750507,842.705048
1298.355910,6809.894666,-6365.771101,1149.143247
1298.356240,7031.956449,-6587.832884,1072.533697
1298.356569,7254.018232,-6439.791695,1378.971896
1298.356899,7031.956449,-6143.709319,995.924147
1298.357229,6439.791695,-6661.853478,842.705048
1298.357558,6661.853478,-6365.771101,1149.143247
1298.357888,6143.709319,-6587.832884,1762.019645
1298.358217,6513.812290,-6809.894666,1302.362347
1298.358547,6587.832884,-6661.853478,1072.533697
1298.358877,6587.832884,-6809.894666,1149.143247
1298.359206,6365.771101,-6957.935855,766.095498
1298.359536,6587.832884,-6735.874072,536.266849
1298.359866,6587.832884,-6957.935855,995.924147
1298.360195,7105.977043,-7031.956449,1072.533697
1298.360525,7179.997637,-6365.771101,1302.362347
1298.360855,7031.956449,-6143.709319,1685.410096
1298.361184,7402.059420,-6883.915261,1302.362347
1298.361514,6883.915261,-6587.832884,1072.533697
1298.361844,6809.894666,-6661.853478,1149.143247
1298.362173,7105.977043,-6735.874072,1608.800546
1298.362503,7402.059420,-5773.606348,1685.410096
1298.362833,7105.977043,-6365.771101,1378.971896
1298.363162,6883.915261,-6143.709319,1149.143247
1298.363492,7031.956449,-6587.832884,1072.533697
1298.363822,7179.997637,-6587.832884,1225.752797
1298.364151,6661.853478,-5921.647536,1608.800546
1298.364481,6439.791695,-6069.688724,995.924147
1298.364811,6957.935855,-6883.915261,1302.362347
1298.365140,7105.977043,-6883.915261,1378.971896
1298.365470,7179.997637,-7105.977043,919.314598
1298.365800,7105.977043,-6809.894666,1225.752797
1298.366129,6809.894666,-6587.832884,1072.533697
1298.366459,6661.853478,-6735.874072,842.705048
1298.366788,6661.853478,-6735.874072,536.266849
1298.367118,6957.935855,-6735.874072,459.657299
1298.367448,7105.977043,-6661.853478,842.705048
1298.367777,7179.997637,-6587.832884,1532.190996
1298.368107,7105.977043,-6291.750507,995.924147
1298.368437,7105.977043,-6365.771101,1072.533697
1298.368766,7105.977043,-6439.791695,1225.752797
1298.369096,7031.956449,-6587.832884,919.314598
1298.369426,7402.059420,-6661.853478,1149.143247
1298.369755,7402.059420,-6365.771101,995.924147
1298.370085,7772.162391,-6291.750507,1225.752797
1298.370415,7105.977043,-5921.647536,1072.533697
1298.370744,7105.977043,-6217.729913,1149.143247
1298.371074,7105.977043,-6291.750507,995.924147
1298.371404,6735.874072,-6143.709319,612.876398
1298.371733,6587.832884,-6587.832884,383.047749
1298.372063,6957.935855,-6587.832884,842.705048
1298.372393,6661.853478,-6957.935855,1072.533697
1298.372722,6661.853478,-6883.915261,995.924147
1298.373052,6809.894666,-6957.935855,1302.362347
1298.373382,7105.977043,-6957.935855,1608.800546
1298.373711,6735.874072,-6883.915261,383.047749
1298.374041,6513.812290,-7105.977043,766.095498
1298.374371,6513.812290,-6883.915261,995.924147
1298.374700,7031.956449,-6957.935855,995.924147
1298.375030,7031.956449,-6587.832884,1149.143247
1298.375359,7105.977043,-6735.874072,1225.752797
1298.375689,7179.997637,-6587.832884,995.924147
1298.376019,7105.977043,-6439.791695,1225.752797
1298.376348,6735.874072,-6513.812290,919.314598
1298.376678,6957.935855,-6883.915261,1149.143247
1298.377008,6957.935855,-6365.771101,766.095498
1298.377337,7179.997637,-6365.771101,1378.971896
1298.377667,7105.977043,-5625.565159,1302.362347
1298.377997,7105.977043,-6439.791695,1072.533697
1298.378326,7105.977043,-6587.832884,1225.752797
1298.378656,6957.935855,-6365.771101,1149.143247
1298.378986,6439.791695,-6291.750507,919.314598
1298.379315,6513.812290,-6661.853478,1149.143247
1298.379645,7031.956449,-6661.853478,1378.971896
1298.379975,6957.935855,-6291.750507,1149.143247
1298.380304,6809.894666,-6661.853478,1072.533697
1298.380634,6809.894666,-6957.935855,842.705048
1298.380964,6957.935855,-6883.915261,689.485948
1298.381293,6587.832884,-6809.894666,612.876398
1298.381623,6883.915261,-7031.956449,1378.971896
1298.381953,7105.977043,-7105.977043,1072.533697
1298.382282,7698.141797,-6365.771101,919.314598
1298.382612,7328.038826,-6291.750507,1455.581446
1298.382941,7624.121203,-6291.750507,995.924147
1298.383271,7402.059420,-6439.791695,1455.581446
1298.383601,7105.977043,-6069.688724,995.924147
1298.383930,7179.997637,-6661.853478,1532.190996
1298.384260,7328.038826,-5921.647536,995.924147
1298.384590,7254.018232,-6291.750507,766.095498
1298.384919,6957.935855,-6439.791695,919.314598
1298.385249,7179.997637,-6661.853478,1915.238745
1298.385579,7105.977043,-6069.688724,766.095498
1298.385908,6957.935855,-6217.729913,995.924147
1298.386238,6513.812290,-6143.709319,689.485948
1298.386568,6883.915261,-6661.853478,842.705048
1298.386897,7031.956449,-6217.729913,1608.800546
1298.387227,7105.977043,-6661.853478,1225.752797
1298.387557,7031.956449,-6365.771101,1149.143247
1298.387886,6957.935855,-6661.853478,1378.971896
1298.388216,7105.977043,-5921.647536,995.924147
1298.388546,7105.977043,-5625.565159,612.876398
1298.388875,7624.121203,-5847.626942,1149.143247
1298.389205,8364.327145,-5995.668130,1072.533697
1298.389535,7920.203579,-6217.729913,1455.581446
1298.389864,7105.977043,-6069.688724,459.657299
1298.390194,6069.688724,-7550.100608,0.000000
1298.390524,6365.771101,-6957.935855,229.828649
1298.390853,6735.874072,-7328.038826,536.266849
1298.391183,7550.100608,-6661.853478,1532.190996
1298.391512,7994.224174,-5477.523971,2145.067394
1298.391842,8586.388927,-4589.276840,1225.752797
1298.392172,8290.306550,-3701.029710,1455.581446
1298.392501,8068.244768,-4737.318029,1455.581446
1298.392831,8438.347739,-3923.091493,766.095498
1298.393161,8290.306550,-4515.256246,842.705048
1298.393490,8364.327145,-4293.194464,459.657299
1298.393820,7624.121203,-4959.379811,459.657299
1298.394150,8142.265362,-5847.626942,1072.533697
1298.394479,8586.388927,-5033.400406,1302.362347
1298.394809,8660.409521,-6217.729913,1225.752797
1298.395139,8290.306550,-6069.688724,1762.019645
1298.395468,7402.059420,-5921.647536,536.266849
1298.395798,7698.141797,-5847.626942,-153.219100
1298.396128,7328.038826,-4885.359217,459.657299
1298.396457,7624.121203,-5403.503377,612.876398
1298.396787,8734.430116,-4441.235652,1455.581446
1298.397117,8956.491898,-4441.235652,1149.143247
1298.397446,9252.574275,-3923.091493,919.314598
1298.397776,9104.533087,-3034.844362,1302.362347
1298.398106,9548.656652,-3552.988522,1302.362347
1298.398435,10140.821405,-2886.803174,1378.971896
1298.398765,9548.656652,-2960.823768,1378.971896
1298.399095,9992.780217,-3182.885551,1685.410096
1298.399424,9548.656652,-3701.029710,612.876398
1298.399754,9474.636058,-5033.400406,1685.410096
1298.400083,9400.615463,-4885.359217,919.314598
1298.400413,9104.533087,-5329.482782,1685.410096
1298.400743,8216.285956,-4737.318029,1302.362347
1298.401072,7402.059420,-5403.503377,1072.533697
1298.401402,7698.141797,-5181.441594,1072.533697
1298.401732,8216.285956,-4515.256246,919.314598
1298.402061,9400.615463,-4293.194464,689.485948
1298.402391,8882.471304,-3849.070898,1149.143247
1298.402721,8734.430116,-4811.338623,1072.533697
1298.403050,8660.409521,-4219.173869,229.828649
1298.403380,8660.409521,-4293.194464,229.828649
1298.403710,8882.471304,-5699.585753,306.438199
1298.404039,9178.553681,-6143.709319,459.657299
1298.404369,8882.471304,-5921.647536,689.485948
1298.404699,8438.347739,-5847.626942,-383.047749
1298.405028,8512.368333,-5329.482782,-306.438199
1298.405358,8956.491898,-5329.482782,229.828649
1298.405688,9326.594869,-5625.565159,919.314598
1298.406017,9474.636058,-3923.091493,1685.410096
1298.406347,9992.780217,-3034.844362,1608.800546
1298.406677,9918.759623,-2886.803174,2221.676944
1298.407006,9696.697840,-2738.761985,2451.505594
1298.407336,9844.739029,-2516.700203,2068.457845
1298.407665,9696.697840,-2442.679609,1762.019645
1298.407995,9696.697840,-2664.741391,1762.019645
1298.408325,9326.594869,-3849.070898,1149.143247
1298.408654,9326.594869,-3701.029710,995.924147
1298.408984,9252.574275,-4737.318029,766.095498
1298.409314,8734.430116,-4293.194464,0.000000
1298.409643,8364.327145,-4737.318029,-153.219100
1298.409973,8068.244768,-6365.771101,0.000000
1298.410303,8586.388927,-6661.853478,0.000000
1298.410632,7994.224174,-6587.832884,612.876398
1298.410962,8438.347739,-6439.791695,1149.143247
1298.411292,8808.450710,-6735.874072,1762.019645
1298.411621,8882.471304,-5477.523971,2068.457845
1298.411951,9178.553681,-4441.235652,2298.286494
1298.412281,9252.574275,-3997.112087,2221.676944
1298.412610,9992.780217,-2516.700203,1762.019645
1298.412940,10288.862594,-1850.514855,1149.143247
1298.413270,10140.821405,-1184.329507,842.705048
1298.413599,10362.883188,-1406.391290,306.438199
1298.413929,10362.883188,-2516.700203,-536.266849
1298.414259,9844.739029,-3256.906145,76.609550
1298.414588,9178.553681,-4885.359217,153.219100
1298.414918,8660.409521,-6217.729913,0.000000
1298.415248,7846.182985,-7254.018232,306.438199
1298.415577,7105.977043,-8808.450710,1149.143247
1298.415907,6957.935855,-9030.512492,1225.752797
1298.416236,6735.874072,-8512.368333,1378.971896
1298.416566,5773.606348,-7624.121203,766.095498
1298.416896,6069.688724,-7031.956449,536.266849
1298.417225,6365.771101,-5699.585753,919.314598
1298.417555,7550.100608,-5181.441594,1302.362347
1298.417885,7994.224174,-4219.173869,1915.238745
1298.418214,8586.388927,-3034.844362,1378.971896
1298.418544,8512.368333,-2220.617826,1532.190996
1298.418874,9326.594869,-2220.617826,842.705048
1298.419203,9992.780217,-2664.741391,842.705048
1298.419533,11029.068536,-3997.112087,919.314598
1298.419863,10584.944971,-4293.194464,1225.752797
1298.420192,9400.615463,-4737.318029,842.705048
1298.420522,8216.285956,-5995.668130,1455.581446
1298.420852,7624.121203,-7105.977043,1378.971896
1298.421181,7179.997637,-7994.224174,1608.800546
1298.421511,6439.791695,-7846.182985,1608.800546
1298.421841,5551.544565,-7328.038826,1149.143247
1298.422170,5329.482782,-7624.121203,689.485948
1298.422500,5329.482782,-7254.018232,459.657299
1298.422830,5033.400406,-7254.018232,-459.657299
1298.423159,5403.503377,-6513.812290,-153.219100
1298.423489,6661.853478,-7105.977043,689.485948
1298.423819,7846.182985,-5995.668130,383.047749
1298.424148,8438.347739,-5181.441594,1225.752797
1298.424478,9252.574275,-4663.297435,1915.238745
1298.424807,10362.883188,-4441.235652,1532.190996
1298.425137,9992.780217,-4737.318029,1608.800546
1298.425467,8882.471304,-4811.338623,919.314598
1298.425796,8068.244768,-5921.647536,1378.971896
1298.426126,7698.141797,-5773.606348,1455.581446
1298.426456,6439.791695,-6661.853478,1149.143247
1298.426785,5847.626942,-7550.100608,1225.752797
1298.427115,4959.379811,-7179.997637,1149.143247
1298.427445,4515.256246,-7624.121203,-229.828649
1298.427774,4219.173869,-7550.100608,459.657299
1298.428104,5329.482782,-7476.080014,766.095498
1298.428434,6513.812290,-6735.874072,766.095498
1298.428763,7328.038826,-5403.503377,1225.752797
1298.429093,7994.224174,-5625.565159,1915.238745
1298.429423,8586.388927,-4219.173869,1762.019645
1298.429752,9104.533087,-4293.194464,1378.971896
1298.430082,8882.471304,-4885.359217,1608.800546
1298.430412,8882.471304,-4737.318029,1225.752797
1298.430741,8586.388927,-5403.503377,1378.971896
1298.431071,7920.203579,-7105.977043,1838.629195
1298.431401,7254.018232,-8142.265362,2068.457845
1298.431730,6365.771101,-8216.285956,2068.457845
1298.432060,5107.421000,-8142.265362,1149.143247
1298.432390,4145.153275,-9252.574275,153.219100
1298.432719,2886.803174,-9400.615463,76.609550
1298.433049,3404.947333,-9696.697840,-536.266849
1298.433378,4145.153275,-8882.471304,-459.657299
1298.433708,5033.400406,-7624.121203,-383.047749
1298.434038,6513.812290,-7254.018232,842.705048
1298.434367,7920.203579,-5477.523971,1838.629195
1298.434697,8216.285956,-4737.318029,1685.410096
1298.435027,9030.512492,-2738.761985,1455.581446
1298.435356,10955.047942,-1924.535449,1915.238745
1298.435686,10955.047942,-2664.741391,2068.457845
1298.436016,10288.862594,-4145.153275,1915.238745
1298.436345,9178.553681,-5921.647536,2145.067394
1298.436675,8216.285956,-6291.750507,1455.581446
1298.437005,6883.915261,-7846.182985,1455.581446
1298.437334,4737.318029,-9252.574275,995.924147
1298.437664,3775.050304,-9622.677246,459.657299
1298.437994,3849.070898,-9918.759623,-459.657299
1298.438323,3256.906145,-8364.327145,76.609550
1298.438652,4071.132681,-8364.327145,-306.438199
1298.438981,4959.379811,-6883.915261,0.000000
1298.439311,5921.647536,-5773.606348,153.219100
1298.439640,6883.915261,-5625.565159,0.000000
1298.439969,7846.182985,-4811.338623,842.705048
1298.440298,9474.636058,-5107.421000,1685.410096
1298.440627,10510.924376,-4219.173869,1762.019645
1298.440957,10066.800811,-3552.988522,1915.238745
1298.441286,10362.883188,-4589.276840,2221.676944
1298.441615,10362.883188,-5403.503377,2987.772442
1298.441944,9030.512492,-7624.121203,2298.286494
1298.442274,6957.935855,-8216.285956,1685.410096
1298.442603,4811.338623,-8438.347739,306.438199
1298.442932,4071.132681,-8734.430116,-383.047749
1298.443261,2590.720797,-9622.677246,-689.485948
1298.443590,2960.823768,-9400.615463,0.000000
1298.443920,4663.297435,-7402.059420,76.609550
1298.444249,6069.688724,-6513.812290,1225.752797
1298.444578,6587.832884,-4219.173869,1302.362347
1298.444907,7550.100608,-3627.009116,1072.533697
1298.445237,9178.553681,-3182.885551,1302.362347
1298.445566,10584.944971,-3034.844362,1685.410096
1298.445895,11399.171507,-3997.112087,2374.896044
1298.446224,10881.027347,-4885.359217,2987.772442
1298.446554,9400.615463,-6513.812290,2451.505594
1298.446883,7328.038826,-8142.265362,1762.019645
1298.447212,5477.523971,-9104.533087,1302.362347
1298.447541,4515.256246,-9844.739029,153.219100
1298.447870,3478.967927,-9474.636058,-536.266849
1298.448200,2812.782580,-8734.430116,-689.485948
1298.448529,3256.906145,-8808.450710,-536.266849
1298.448858,4367.215058,-7550.100608,76.609550
1298.449187,4959.379811,-7031.956449,0.000000
1298.449517,6069.688724,-6883.915261,459.657299
1298.449846,7328.038826,-5181.441594,536.266849
1298.450175,8290.306550,-4515.256246,1149.143247
1298.450504,9992.780217,-4441.235652,2374.896044
1298.450834,10658.965565,-3108.864956,2298.286494
1298.451163,11547.212695,-4293.194464,2604.724693
1298.451492,11177.109724,-5033.400406,2834.553343
1298.451821,9622.677246,-6957.935855,2298.286494
1298.452150,7179.997637,-7920.203579,1762.019645
1298.452480,5181.441594,-8586.388927,842.705048
1298.452809,4145.153275,-8734.430116,306.438199
1298.453138,3330.926739,-9178.553681,-689.485948
1298.453467,3108.864956,-8438.347739,0.000000
1298.453797,3330.926739,-8512.368333,0.000000
1298.454126,4367.215058,-6957.935855,76.609550
1298.454455,5107.421000,-5477.523971,0.000000
1298.454784,6735.874072,-4145.153275,0.000000
1298.455114,9252.574275,-3552.988522,919.314598
1298.455443,11547.212695,-3256.906145,2068.457845
1298.455772,12583.501014,-3404.947333,2757.943793
1298.456101,11843.295072,-4293.194464,2604.724693
1298.456430,10362.883188,-5847.626942,2221.676944
1298.456760,8586.388927,-7254.018232,1762.019645
1298.457089,7179.997637,-8882.471304,1532.190996
1298.457418,5847.626942,-9030.512492,1225.752797
1298.457747,4515.256246,-8808.450710,76.609550
1298.458077,3330.926739,-8734.430116,-536.266849
1298.458406,2516.700203,-8586.388927,-1225.752797
1298.458735,2590.720797,-8586.388927,-995.924147
1298.459064,3330.926739,-7328.038826,-689.485948
1298.459393,4885.359217,-6217.729913,-383.047749
1298.459723,7105.977043,-4811.338623,76.609550
1298.460052,9104.533087,-4441.235652,1532.190996
1298.460381,10732.986159,-3256.906145,1915.238745
1298.460710,12065.356855,-3330.926739,1915.238745
1298.461040,11399.171507,-3478.967927,2911.162892
1298.461369,10732.986159,-5181.441594,2451.505594
1298.461698,9400.615463,-6513.812290,2681.334243
1298.462027,7624.121203,-8142.265362,1991.848295
1298.462357,5921.647536,-9400.615463,1608.800546
1298.462686,3849.070898,-8734.430116,76.609550
1298.463015,2442.679609,-9252.574275,-689.485948
1298.463344,2664.741391,-9400.615463,-612.876398
1298.463673,2442.679609,-9030.512492,0.000000
1298.464003,3478.967927,-7772.162391,0.000000
1298.464332,5107.421000,-5847.626942,459.657299
1298.464661,6809.894666,-3701.029710,919.314598
1298.464990,8512.368333,-2886.803174,1072.533697
1298.465320,10214.842000,-2442.679609,2068.457845
1298.465649,11769.274478,-2738.761985,2298.286494
1298.465978,11621.233289,-3775.050304,2451.505594
1298.466307,10584.944971,-5921.647536,2451.505594
1298.466637,9030.512492,-7328.038826,2374.896044
1298.466966,7105.977043,-9474.636058,2145.067394
1298.467295,5995.668130,-9474.636058,1762.019645
1298.467624,4515.256246,-9770.718434,383.047749
1298.467953,3108.864956,-9992.780217,0.000000
1298.468283,2664.741391,-9178.553681,-383.047749
1298.468612,2960.823768,-9178.553681,-1302.362347
1298.468941,2960.823768,-7846.182985,-383.047749
1298.469270,4071.132681,-6439.791695,229.828649
1298.469600,6069.688724,-4219.173869,306.438199
1298.469929,8216.285956,-3256.906145,1455.581446
1298.470258,10140.821405,-2590.720797,2145.067394
1298.470587,11621.233289,-2368.659014,1991.848295
1298.470916,11843.295072,-3404.947333,2374.896044
1298.471246,11251.130318,-4663.297435,2145.067394
1298.471575,10362.883188,-7254.018232,2528.115143
1298.471904,8882.471304,-7624.121203,2145.067394
1298.472233,6957.935855,-8660.409521,1685.410096
1298.472563,5033.400406,-8882.471304,1072.533697
1298.472892,4071.132681,-9252.574275,536.266849
1298.473221,3923.091493,-9548.656652,-766.095498
1298.473550,3182.885551,-8512.368333,-1072.533697
1298.473880,2738.761985,-8068.244768,-1072.533697
1298.474209,4293.194464,-7105.977043,-383.047749
1298.474538,6143.709319,-5551.544565,229.828649
1298.474867,7772.162391,-4663.297435,919.314598
1298.475196,9622.677246,-3552.988522,1608.800546
1298.475526,11251.130318,-3034.844362,1915.238745
1298.475855,11695.253884,-3182.885551,2298.286494
1298.476184,11103.089130,-4219.173869,2298.286494
1298.476513,9844.739029,-5847.626942,2145.067394
1298.476843,8882.471304,-7920.203579,1838.629195
1298.477172,6957.935855,-8660.409521,1838.629195
1298.477501,5181.441594,-9178.553681,766.095498
1298.477830,3701.029710,-9474.636058,-459.657299
1298.478160,2886.803174,-9030.512492,-459.657299
1298.478489,3182.885551,-8882.471304,-842.705048
1298.478818,3775.050304,-8216.285956,-612.876398
1298.479147,5107.421000,-6365.771101,76.609550
1298.479476,6291.750507,-5033.400406,0.000000
1298.479806,7328.038826,-4811.338623,919.314598
1298.480135,8216.285956,-3849.070898,995.924147
1298.480464,10066.800811,-3256.906145,1455.581446
1298.480793,11769.274478,-3108.864956,2451.505594
1298.481123,11769.274478,-3330.926739,2987.772442
1298.481452,11103.089130,-5847.626942,3140.991542
1298.481781,9104.533087,-7254.018232,2987.772442
1298.482110,6809.894666,-7846.182985,2145.067394
1298.482439,4959.379811,-9474.636058,1149.143247
1298.482769,3478.967927,-9252.574275,383.047749
1298.483098,2516.700203,-10066.800811,-612.876398
1298.483427,2368.659014,-9696.697840,-995.924147
1298.483756,2368.659014,-8956.491898,-229.828649
1298.484086,3997.112087,-7624.121203,0.000000
1298.484415,5551.544565,-5699.585753,995.924147
1298.484744,7179.997637,-4219.173869,1225.752797
1298.485073,9104.533087,-2368.659014,842.705048
1298.485403,10436.903782,-2442.679609,1455.581446
1298.485732,11103.089130,-3256.906145,1762.019645
1298.486061,11177.109724,-4663.297435,1915.238745
1298.486390,10658.965565,-6513.812290,2681.334243
1298.486719,9696.697840,-7772.162391,2298.286494
1298.487049,7476.080014,-8882.471304,2221.676944
1298.487378,6291.750507,-9252.574275,1455.581446
1298.487707,5255.462188,-10066.800811,383.047749
1298.488036,3552.988522,-9474.636058,0.000000
1298.488366,2294.638420,-8586.388927,-1072.533697
1298.488695,2664.741391,-8734.430116,-1225.752797
1298.489024,3552.988522,-7698.141797,-612.876398
1298.489353,4737.318029,-7031.956449,0.000000
1298.489683,5995.668130,-5403.503377,995.924147
1298.490012,7772.162391,-4589.276840,1455.581446
1298.490341,9622.677246,-3627.009116,1532.190996
1298.490670,10658.965565,-2368.659014,1608.800546
1298.490999,11103.089130,-3108.864956,2451.505594
1298.491329,10881.027347,-3775.050304,2911.162892
1298.491658,9918.759623,-6439.791695,3064.381992
1298.491987,8586.388927,-7254.018232,2528.115143
1298.492316,6809.894666,-8290.306550,1685.410096
1298.492646,5033.400406,-8660.409521,766.095498
1298.492975,4071.132681,-9474.636058,-306.438199
1298.493304,3330.926739,-10214.842000,-459.657299
1298.493633,3997.112087,-8438.347739,-306.438199
1298.493962,4589.276840,-7624.121203,-229.828649
1298.494292,5181.441594,-5477.523971,-536.266849
1298.494621,5699.585753,-5033.400406,0.000000
1298.494950,7624.121203,-4293.194464,536.266849
1298.495279,9178.553681,-3404.947333,1302.362347
1298.495609,9992.780217,-2886.803174,1838.629195
1298.495938,10732.986159,-3034.844362,2374.896044
1298.496267,10955.047942,-4737.318029,2604.724693
1298.496596,9696.697840,-5921.647536,2987.772442
1298.496926,7994.224174,-8068.244768,2451.505594
1298.497255,6217.729913,-7698.141797,1915.238745
1298.497584,5625.565159,-8068.244768,229.828649
1298.497913,4441.235652,-9622.677246,-383.047749
1298.498242,3478.967927,-9548.656652,229.828649
1298.498572,3923.091493,-9622.677246,0.000000
1298.498901,4367.215058,-7698.141797,0.000000
1298.499230,4441.235652,-6143.709319,-306.438199
1298.499559,5107.421000,-4885.359217,-153.219100
1298.499889,7179.997637,-4515.256246,229.828649
1298.500218,8438.347739,-3775.050304,1455.581446
1298.500547,9918.759623,-3775.050304,1532.190996
1298.500876,10807.006753,-2738.761985,2221.676944
1298.501206,11473.192101,-3627.009116,2374.896044
1298.501535,10584.944971,-5699.585753,3064.381992
1298.501864,9326.594869,-7550.100608,2757.943793
1298.502193,7846.182985,-8660.409521,2374.896044
1298.502522,6439.791695,-9030.512492,995.924147
1298.502852,4663.297435,-9326.594869,76.609550
1298.503181,3627.009116,-10214.842000,-536.266849
1298.503510,3404.947333,-10362.883188,-612.876398
1298.503839,3256.906145,-10066.800811,0.000000
1298.504169,3997.112087,-7920.203579,76.609550
1298.504498,4885.359217,-5699.585753,153.219100
1298.504827,5847.626942,-3849.070898,689.485948
1298.505156,7476.080014,-3330.926739,459.657299
1298.505485,8882.471304,-3034.844362,1225.752797
1298.505815,10955.047942,-3034.844362,2068.457845
1298.506144,11695.253884,-4145.153275,2374.896044
1298.506473,10955.047942,-4737.318029,3677.258390
1298.506802,9696.697840,-7105.977043,2604.724693
1298.507132,7994.224174,-8660.409521,1915.238745
1298.507461,6143.709319,-9400.615463,842.705048
1298.507790,4663.297435,-9622.677246,-153.219100
1298.508119,3404.947333,-9400.615463,0.000000
1298.508449,3627.009116,-9548.656652,0.000000
1298.508778,4071.132681,-8808.450710,-306.438199
1298.509107,4515.256246,-6883.915261,-229.828649
1298.509436,5773.606348,-5255.462188,612.876398
1298.509765,6883.915261,-3849.070898,689.485948
1298.510095,7772.162391,-3182.885551,995.924147
1298.510424,8882.471304,-2590.720797,1455.581446
1298.510753,10807.006753,-2442.679609,1302.362347
1298.511082,11843.295072,-3108.864956,2757.943793
1298.511412,11843.295072,-5329.482782,3447.429741
1298.511741,10510.924376,-6661.853478,3294.210641
1298.512070,8216.285956,-7846.182985,2451.505594
1298.512399,5847.626942,-8956.491898,459.657299
1298.512729,3627.009116,-10732.986159,0.000000
1298.513058,2368.659014,-11843.295072,-306.438199
1298.513387,2442.679609,-11547.212695,-995.924147
1298.513716,2294.638420,-9474.636058,-383.047749
1298.514045,2960.823768,-8068.244768,-459.657299
1298.514375,4885.359217,-6217.729913,153.219100
1298.514704,6587.832884,-4663.297435,766.095498
1298.515033,8216.285956,-3775.050304,919.314598
1298.515362,9992.780217,-2072.576638,1608.800546
1298.515692,11325.150913,-2368.659014,1838.629195
1298.516021,11917.315666,-3404.947333,2374.896044
1298.516350,11473.192101,-5181.441594,3294.210641
1298.516679,10584.944971,-6143.709319,2451.505594
1298.517009,8364.327145,-7476.080014,1838.629195
1298.517338,6587.832884,-9104.533087,1532.190996
1298.517667,4885.359217,-9770.718434,689.485948
1298.517996,3404.947333,-10362.883188,0.000000
1298.518325,2812.782580,-9918.759623,0.000000
1298.518655,3034.844362,-8956.491898,0.000000
1298.518984,3701.029710,-6439.791695,919.314598
1298.519313,4959.379811,-4589.276840,842.705048
1298.519642,6365.771101,-2812.782580,1302.362347
1298.519972,7698.141797,-2220.617826,1915.238745
1298.520301,8808.450710,-2664.741391,1455.581446
1298.520630,10436.903782,-2886.803174,842.705048
1298.520959,11177.109724,-3627.009116,2145.067394
1298.521288,11029.068536,-5551.544565,2145.067394
1298.521618,10584.944971,-7772.162391,3064.381992
1298.521947,8438.347739,-8660.409521,2298.286494
1298.522276,6957.935855,-10436.903782,1532.190996
1298.522605,4515.256246,-11177.109724,919.314598
1298.522935,3108.864956,-10510.924376,-842.705048
1298.523264,2220.617826,-11251.130318,-1302.362347
1298.523593,1702.473667,-10362.883188,-1532.190996
1298.523922,1998.556043,-9474.636058,-612.876398
1298.524252,3478.967927,-7698.141797,-153.219100
1298.524581,5477.523971,-4293.194464,612.876398
1298.524910,7254.018232,-3701.029710,1532.190996
1298.525239,10066.800811,-2072.576638,2145.067394
1298.525568,11991.336260,0.000000,2451.505594
1298.525898,13027.624579,-518.144159,2298.286494
1298.526227,12583.501014,-2516.700203,2451.505594
1298.526556,11251.130318,-5551.544565,2987.772442
1298.526885,9474.636058,-7179.997637,2068.457845
1298.527215,7105.977043,-8882.471304,1225.752797
1298.527544,5033.400406,-9992.780217,612.876398
1298.527873,3701.029710,-10214.842000,0.000000
1298.528202,2886.803174,-10140.821405,-229.828649
1298.528532,2812.782580,-9326.594869,-459.657299
1298.528861,3330.926739,-7476.080014,-689.485948
1298.529190,3923.091493,-6217.729913,0.000000
1298.529519,5181.441594,-4811.338623,-612.876398
1298.529848,6809.894666,-4663.297435,306.438199
1298.530178,8882.471304,-3108.864956,1149.143247
1298.530507,11029.068536,-2886.803174,2068.457845
1298.530836,12287.418637,-2516.700203,2987.772442
1298.531165,12583.501014,-3552.988522,3140.991542
1298.531495,11325.150913,-5255.462188,3370.820191
1298.531824,9178.553681,-6143.709319,2298.286494
1298.532153,7254.018232,-8438.347739,1608.800546
1298.532482,5181.441594,-9474.636058,1149.143247
1298.532811,3478.967927,-10362.883188,459.657299
1298.533141,2294.638420,-10807.006753,-383.047749
1298.533470,1184.329507,-9992.780217,-306.438199
1298.533799,2072.576638,-8734.430116,-612.876398
1298.534128,3330.926739,-7476.080014,0.000000
1298.534458,4885.359217,-5995.668130,766.095498
1298.534787,6735.874072,-3775.050304,842.705048
1298.535116,8734.430116,-3256.906145,1149.143247
1298.535445,10510.924376,-1998.556043,1455.581446
1298.535775,12065.356855,-2294.638420,2145.067394
1298.536104,12583.501014,-3997.112087,2987.772442
1298.536433,11917.315666,-5477.523971,2911.162892
1298.536762,9918.759623,-6587.832884,1455.581446
1298.537091,7772.162391,-8364.327145,1455.581446
1298.537421,5921.647536,-10066.800811,766.095498
1298.537750,3923.091493,-10584.944971,153.219100
1298.538079,2886.803174,-9844.739029,-383.047749
1298.538408,2590.720797,-9918.759623,-1225.752797
1298.538738,2516.700203,-9178.553681,-842.705048
1298.539067,3108.864956,-8586.388927,0.000000
1298.539396,4219.173869,-7179.997637,-229.828649
1298.539725,5403.503377,-4959.379811,153.219100
1298.540055,7698.141797,-3775.050304,1225.752797
1298.540384,10362.883188,-2664.741391,2145.067394
1298.540713,11769.274478,-2294.638420,2528.115143
1298.541042,12435.459826,-2590.720797,3294.210641
1298.541372,11843.295072,-4145.153275,3064.381992
1298.541701,9844.739029,-6365.771101,2374.896044
1298.542030,7772.162391,-7031.956449,1455.581446
1298.542360,5773.606348,-10214.842000,1072.533697
1298.542689,4367.215058,-8660.409521,766.095498
1298.543018,2960.823768,-10658.965565,0.000000
1298.543347,2442.679609,-11029.068536,-383.047749
1298.543677,3775.050304,-8438.347739,-995.924147
1298.544006,4293.194464,-7550.100608,0.000000
1298.544335,4515.256246,-6957.935855,229.828649
1298.544665,5773.606348,-5033.400406,0.000000
1298.544994,7402.059420,-3627.009116,459.657299
1298.545323,9400.615463,-2812.782580,1149.143247
1298.545653,11029.068536,-2072.576638,3140.991542
1298.545982,12731.542202,-2368.659014,3064.381992
1298.546311,12361.439231,-3404.947333,2757.943793
1298.546640,10732.986159,-5107.421000,2987.772442
1298.546970,8882.471304,-7402.059420,2298.286494
1298.547299,7328.038826,-7772.162391,1532.190996
1298.547628,4959.379811,-9474.636058,842.705048
1298.547958,3627.009116,-10807.006753,153.219100
1298.548287,3256.906145,-10140.821405,0.000000
1298.548616,2738.761985,-9400.615463,-306.438199
1298.548945,2590.720797,-7846.182985,-689.485948
1298.549275,3404.947333,-6365.771101,-459.657299
1298.549604,4959.379811,-5847.626942,0.000000
1298.549933,6809.894666,-5033.400406,536.266849
1298.550263,8660.409521,-3330.926739,1762.019645
1298.550592,9770.718434,-2812.782580,995.924147
1298.550921,11251.130318,-3404.947333,2145.067394
1298.551251,11991.336260,-3775.050304,2604.724693
1298.551580,11769.274478,-6587.832884,2604.724693
1298.551909,9548.656652,-7402.059420,2911.162892
1298.552238,7846.182985,-8956.491898,1685.410096
1298.552568,5699.585753,-9696.697840,612.876398
1298.552897,3997.112087,-10288.862594,153.219100
1298.553226,3404.947333,-11177.109724,536.266849
1298.553556,2368.659014,-10362.883188,-153.219100
1298.553885,2886.803174,-7772.162391,-383.047749
1298.554214,3552.988522,-6809.894666,-229.828649
1298.554543,5255.462188,-4663.297435,536.266849
1298.554873,6735.874072,-4071.132681,1455.581446
1298.555202,8808.450710,-2886.803174,1378.971896
1298.555531,10214.842000,-2368.659014,2221.676944
1298.555861,11843.295072,-2146.597232,2757.943793
1298.556190,11769.274478,-4071.132681,3064.381992
1298.556519,10510.924376,-5625.565159,3064.381992
1298.556849,9326.594869,-6735.874072,2298.286494
1298.557178,7550.100608,-9326.594869,2068.457845
1298.557507,5995.668130,-8734.430116,766.095498
1298.557836,4293.194464,-9474.636058,-153.219100
1298.558166,3034.844362,-9844.739029,-536.266849
1298.558495,3256.906145,-9622.677246,-536.266849
1298.558824,3478.967927,-8956.491898,0.000000
1298.559154,3849.070898,-7254.018232,0.000000
1298.559483,5329.482782,-5699.585753,0.000000
1298.559812,6217.729913,-4367.215058,76.609550
1298.560141,7772.162391,-4367.215058,1455.581446
1298.560471,10066.800811,-3256.906145,1838.629195
1298.560800,11621.233289,-2368.659014,2145.067394
1298.561129,11399.171507,-3330.926739,2757.943793
1298.561459,11177.109724,-4885.359217,3140.991542
1298.561788,9474.636058,-6883.915261,2911.162892
1298.562117,7550.100608,-8808.450710,2528.115143
1298.562447,5551.544565,-10140.821405,1149.143247
1298.562776,3849.070898,-9918.759623,459.657299
1298.563105,2368.659014,-10066.800811,-459.657299
1298.563434,1924.535449,-11177.109724,-1149.143247
1298.563764,2368.659014,-9474.636058,-612.876398
1298.564093,2738.761985,-7772.162391,-1608.800546
1298.564422,4219.173869,-6513.812290,-689.485948
1298.564752,6069.688724,-4367.215058,0.000000
1298.565081,8216.285956,-4737.318029,919.314598
1298.565410,10732.986159,-3256.906145,2451.505594
1298.565739,12139.377449,-1998.556043,2451.505594
1298.566069,12509.480420,-2590.720797,2374.896044
1298.566398,11843.295072,-3849.070898,3140.991542
1298.566727,10584.944971,-5995.668130,3677.258390
1298.567057,8734.430116,-7402.059420,2757.943793
1298.567386,7105.977043,-8068.244768,1532.190996
1298.567715,5033.400406,-8956.491898,612.876398
1298.568045,4071.132681,-9622.677246,0.000000
1298.568374,3404.947333,-9178.553681,-536.266849
1298.568703,3182.885551,-8882.471304,-612.876398
1298.569032,2960.823768,-7476.080014,-919.314598
1298.569362,3997.112087,-5921.647536,-766.095498
1298.569691,5329.482782,-5033.400406,-536.266849
1298.570020,6809.894666,-4219.173869,612.876398
1298.570350,9178.553681,-4071.132681,1608.800546
1298.570679,11103.089130,-3775.050304,2451.505594
1298.571008,11769.274478,-3701.029710,2681.334243
1298.571337,11769.274478,-4663.297435,2834.553343
1298.571667,10955.047942,-6069.688724,2911.162892
1298.571996,8734.430116,-7698.141797,2681.334243
1298.572325,7179.997637,-9030.512492,1762.019645
1298.572655,5699.585753,-9474.636058,995.924147
1298.572984,4219.173869,-9400.615463,-229.828649
1298.573313,2664.741391,-10362.883188,-842.705048
1298.573643,2072.576638,-10066.800811,-536.266849
1298.573972,2738.761985,-8290.306550,-766.095498
1298.574301,3552.988522,-6439.791695,-536.266849
1298.574630,5403.503377,-4663.297435,-306.438199
1298.574960,7105.977043,-4145.153275,536.266849
1298.575289,9400.615463,-4071.132681,1225.752797
1298.575618,11029.068536,-2886.803174,2221.676944
1298.575948,12139.377449,-2738.761985,2911.162892
1298.576277,12361.439231,-3701.029710,3370.820191
1298.576606,11547.212695,-5403.503377,3753.867940
1298.576935,9326.594869,-7179.997637,2987.772442
1298.577265,7031.956449,-7920.203579,1838.629195
1298.577594,5551.544565,-8364.327145,1532.190996
1298.577923,3701.029710,-9474.636058,0.000000
1298.578253,2886.803174,-9548.656652,-153.219100
1298.578582,2812.782580,-9474.636058,-306.438199
1298.578911,3552.988522,-7846.182985,-689.485948
1298.579241,4589.276840,-6365.771101,-459.657299
1298.579570,5551.544565,-5403.503377,-306.438199
1298.579899,6735.874072,-4737.318029,536.266849
1298.580228,8290.306550,-4071.132681,995.924147
1298.580558,9548.656652,-3923.091493,1685.410096
1298.580887,11103.089130,-3775.050304,2145.067394
1298.581216,11621.233289,-4737.318029,2834.553343
1298.581546,11473.192101,-6291.750507,3217.601092
1298.581875,9548.656652,-6587.832884,2987.772442
1298.582204,7328.038826,-7994.224174,2145.067394
1298.582533,5551.544565,-9104.533087,536.266849
1298.582863,3849.070898,-9548.656652,0.000000
1298.583192,2812.782580,-10214.842000,-842.705048
1298.583521,2812.782580,-10288.862594,-995.924147
1298.583851,3182.885551,-8660.409521,-612.876398
1298.584180,3627.009116,-8068.244768,-459.657299
1298.584509,4811.338623,-5625.565159,-153.219100
1298.584839,6217.729913,-4663.297435,459.657299
1298.585168,8290.306550,-4293.194464,1072.533697
1298.585497,10066.800811,-2886.803174,1838.629195
1298.585826,11473.192101,-2590.720797,2528.115143
1298.586156,11991.336260,-2812.782580,2528.115143
1298.586485,11621.233289,-4515.256246,3140.991542
1298.586814,9918.759623,-6439.791695,2911.162892
1298.587144,8364.327145,-7550.100608,2374.896044
1298.587473,6587.832884,-8216.285956,1072.533697
1298.587802,4071.132681,-8734.430116,-229.828649
1298.588131,3256.906145,-9696.697840,-689.485948
1298.588461,3478.967927,-9548.656652,-76.609550
1298.588790,4071.132681,-8660.409521,-306.438199
1298.589119,3997.112087,-7179.997637,0.000000
1298.589449,4663.297435,-5107.421000,0.000000
1298.589778,6069.688724,-4885.359217,-306.438199
1298.590107,7550.100608,-4811.338623,1072.533697
1298.590437,9178.553681,-4441.235652,1455.581446
1298.590766,10510.924376,-3552.988522,2221.676944
1298.591095,11473.192101,-4293.194464,3140.991542
1298.591424,11029.068536,-5107.421000,2987.772442
1298.591754,9696.697840,-6735.874072,3677.258390
1298.592083,7624.121203,-7994.224174,2451.505594
1298.592412,5403.503377,-8660.409521,766.095498
1298.592742,3775.050304,-9474.636058,-229.828649
1298.593071,2294.638420,-10732.986159,0.000000
1298.593400,2886.803174,-10881.027347,-536.266849
1298.593729,3108.864956,-9770.718434,-229.828649
1298.594059,3108.864956,-8068.244768,-306.438199
1298.594388,4441.235652,-6513.812290,-1072.533697
1298.594717,6365.771101,-5477.523971,229.828649
1298.595047,7994.224174,-4293.194464,842.705048
1298.595376,10066.800811,-3330.926739,1838.629195
1298.595705,11325.150913,-1184.329507,2451.505594
1298.596035,12509.480420,-2664.741391,2451.505594
1298.596364,11917.315666,-4145.153275,3370.820191
1298.596693,10584.944971,-5255.462188,3600.648841
1298.597022,9252.574275,-6439.791695,2987.772442
1298.597352,7550.100608,-7328.038826,1685.410096
1298.597681,4959.379811,-8438.347739,0.000000
1298.598010,3552.988522,-9178.553681,-383.047749
1298.598340,2886.803174,-9474.636058,-612.876398
1298.598669,3330.926739,-9178.553681,-689.485948
1298.598998,3997.112087,-7402.059420,-153.219100
1298.599327,4811.338623,-6365.771101,76.609550
1298.599657,6291.750507,-5033.400406,-229.828649
1298.599986,7105.977043,-4885.359217,306.438199
1298.600315,8808.450710,-4367.215058,2221.676944
1298.600645,10140.821405,-3552.988522,1378.971896
1298.600974,10955.047942,-3627.009116,2298.286494
1298.601303,11103.089130,-4145.153275,2604.724693
1298.601633,10436.903782,-5995.668130,3294.210641
1298.601962,9104.533087,-7624.121203,2757.943793
1298.602291,6957.935855,-8364.327145,1455.581446
1298.602620,4959.379811,-9474.636058,459.657299
1298.602950,3849.070898,-9400.615463,-536.266849
1298.603279,4071.132681,-10510.924376,-766.095498
1298.603608,2960.823768,-9474.636058,-306.438199
1298.603938,3034.844362,-8660.409521,-766.095498
1298.604267,4293.194464,-6809.894666,-766.095498
1298.604596,5625.565159,-4959.379811,-153.219100
1298.604925,6957.935855,-4663.297435,459.657299
1298.605255,8512.368333,-4515.256246,1302.362347
1298.605584,10066.800811,-3108.864956,2068.457845
1298.605913,11473.192101,-2442.679609,2911.162892
1298.606243,11991.336260,-4219.173869,3677.258390
1298.606572,11547.212695,-4959.379811,3677.258390
1298.606901,9474.636058,-6809.894666,2757.943793
1298.607231,7550.100608,-7402.059420,1302.362347
1298.607560,5625.565159,-8660.409521,383.047749
1298.607889,4219.173869,-9178.553681,76.609550
1298.608218,4071.132681,-9696.697840,-306.438199
1298.608548,3997.112087,-8956.491898,0.000000
1298.608877,4367.215058,-7920.203579,0.000000
1298.609206,4663.297435,-6735.874072,-612.876398
1298.609536,4811.338623,-4737.318029,-536.266849
1298.609865,5773.606348,-4959.379811,0.000000
1298.610194,7254.018232,-4663.297435,536.266849
1298.610523,9030.512492,-3256.906145,919.314598
1298.610853,10732.986159,-3552.988522,2681.334243
1298.611182,11621.233289,-4811.338623,3677.258390
1298.611511,11473.192101,-5921.647536,3677.258390
1298.611841,9696.697840,-7031.956449,3064.381992
1298.612170,7179.997637,-7624.121203,2221.676944
1298.612499,5329.482782,-8956.491898,612.876398
1298.612829,3775.050304,-9622.677246,0.000000
1298.613158,2960.823768,-10658.965565,0.000000
1298.613487,2738.761985,-10732.986159,-383.047749
1298.613816,2738.761985,-9030.512492,-153.219100
1298.614146,3478.967927,-7920.203579,-612.876398
1298.614475,4367.215058,-6661.853478,-383.047749
1298.614804,5773.606348,-5625.565159,229.828649
1298.615134,7105.977043,-5181.441594,612.876398
1298.615463,9474.636058,-2960.823768,1378.971896
1298.615792,11177.109724,-2664.741391,2068.457845
1298.616121,12657.521608,-3330.926739,2451.505594
1298.616451,12213.398043,-4737.318029,3677.258390
1298.616780,11251.130318,-6735.874072,3140.991542
1298.617109,9030.512492,-7254.018232,2298.286494
1298.617439,6291.750507,-7105.977043,842.705048
1298.617768,5255.462188,-8512.368333,0.000000
1298.618097,4219.173869,-8808.450710,229.828649
1298.618427,3997.112087,-9030.512492,-612.876398
1298.618756,4367.215058,-7994.224174,0.000000
1298.619085,4293.194464,-6439.791695,-153.219100
1298.619414,4441.235652,-5551.544565,-536.266849
1298.619744,5255.462188,-4959.379811,-383.047749
1298.620073,6365.771101,-4737.318029,689.485948
1298.620402,8734.430116,-4219.173869,1455.581446
1298.620732,10584.944971,-4219.173869,2374.896044
1298.621061,11251.130318,-4219.173869,3064.381992
1298.621390,11843.295072,-5625.565159,3370.820191
1298.621719,10288.862594,-6439.791695,3064.381992
1298.622049,7920.203579,-7698.141797,1838.629195
1298.622378,5995.668130,-8734.430116,995.924147
1298.622707,4663.297435,-9918.759623,0.000000
1298.623037,3330.926739,-9770.718434,-306.438199
1298.623366,2664.741391,-10584.944971,-842.705048
1298.623695,2886.803174,-9992.780217,-536.266849
1298.624025,3330.926739,-8734.430116,-689.485948
1298.624354,4515.256246,-7105.977043,-612.876398
1298.624683,5773.606348,-5403.503377,0.000000
1298.625012,7105.977043,-4663.297435,76.609550
1298.625342,8660.409521,-3775.050304,1149.143247
1298.625671,10807.006753,-3034.844362,1991.848295
1298.626000,11991.336260,-2294.638420,2757.943793
1298.626330,12361.439231,-4071.132681,3600.648841
1298.626659,11103.089130,-5403.503377,3753.867940
1298.626988,9474.636058,-6365.771101,2834.553343
1298.627317,7328.038826,-7179.997637,1608.800546
1298.627647,5329.482782,-7179.997637,1225.752797
1298.627976,4367.215058,-8438.347739,0.000000
1298.628305,3997.112087,-9178.553681,0.000000
1298.628635,4219.173869,-8808.450710,0.000000
1298.628964,4219.173869,-7476.080014,-536.266849
1298.629293,4071.132681,-6365.771101,-459.657299
1298.629623,4959.379811,-5625.565159,-229.828649
1298.629952,6587.832884,-5403.503377,612.876398
1298.630281,7476.080014,-4367.215058,1378.971896
1298.630610,9400.615463,-3775.050304,1378.971896
1298.630940,11473.192101,-3775.050304,2451.505594
1298.631269,11695.253884,-4737.318029,3217.601092
1298.631598,10955.047942,-6291.750507,3524.039291
1298.631928,9326.594869,-6957.935855,3217.601092
1298.632257,7328.038826,-7772.162391,1685.410096
1298.632586,5255.462188,-8660.409521,383.047749
1298.632915,3552.988522,-9770.718434,-383.047749
1298.633245,3034.844362,-10510.924376,-383.047749
1298.633574,2886.803174,-10066.800811,-612.876398
1298.633903,2738.761985,-8586.388927,-766.095498
1298.634233,3034.844362,-7698.141797,-536.266849
1298.634562,4811.338623,-6809.894666,0.000000
1298.634891,6735.874072,-5403.503377,536.266849
1298.635221,7624.121203,-4367.215058,842.705048
1298.635550,9696.697840,-3182.885551,1991.848295
1298.635879,12139.377449,-2590.720797,2528.115143
1298.636208,12657.521608,-2960.823768,3064.381992
1298.636538,11843.295072,-4737.318029,2987.772442
1298.636867,9992.780217,-6735.874072,3064.381992
1298.637196,7772.162391,-7476.080014,1838.629195
1298.637526,5773.606348,-8068.244768,766.095498
1298.637855,4589.276840,-7994.224174,-383.047749
1298.638184,4145.153275,-8882.471304,0.000000
1298.638513,3997.112087,-9474.636058,-306.438199
1298.638843,4145.153275,-8068.244768,-689.485948
1298.639172,4589.276840,-7031.956449,-229.828649
1298.639501,5107.421000,-5921.647536,-536.266849
1298.639831,5625.565159,-5255.462188,-153.219100
1298.640160,6809.894666,-5329.482782,536.266849
1298.640489,8882.471304,-4145.153275,1455.581446
1298.640819,11103.089130,-4071.132681,2374.896044
1298.641148,11917.315666,-4145.153275,3524.039291
1298.641477,11251.130318,-5107.421000,3677.258390
1298.641806,9992.780217,-6513.812290,3677.258390
1298.642136,7698.141797,-7254.018232,2068.457845
1298.642465,5329.482782,-8734.430116,536.266849
1298.642794,3775.050304,-9474.636058,0.000000
1298.643123,2812.782580,-10510.924376,-536.266849
1298.643452,2368.659014,-10658.965565,-766.095498
1298.643781,2220.617826,-9992.780217,-995.924147
1298.644110,3478.967927,-8882.471304,-459.657299
1298.644439,4515.256246,-7105.977043,-383.047749
1298.644768,5773.606348,-5477.523971,766.095498
1298.645097,7402.059420,-4515.256246,919.314598
1298.645426,9474.636058,-3034.844362,1685.410096
1298.645755,11843.295072,-2220.617826,2757.943793
1298.646084,11917.315666,-3182.885551,3217.601092
1298.646414,11473.192101,-4663.297435,3677.258390
1298.646743,10288.862594,-5107.421000,2987.772442
1298.647072,9030.512492,-6735.874072,2068.457845
1298.647401,7402.059420,-7402.059420,1608.800546
1298.647730,5847.626942,-8216.285956,536.266849
1298.648059,4589.276840,-9178.553681,153.219100
1298.648388,3478.967927,-8660.409521,0.000000
1298.648717,3330.926739,-8068.244768,-689.485948
1298.649046,3923.091493,-7105.977043,-689.485948
1298.649375,4737.318029,-6587.832884,0.000000
1298.649704,5403.503377,-6217.729913,306.438199
1298.650033,6587.832884,-5033.400406,919.314598
1298.650362,8364.327145,-4071.132681,1685.410096
1298.650691,10066.800811,-3775.050304,1991.848295
1298.651020,11177.109724,-3552.988522,2681.334243
1298.651349,11325.150913,-4367.215058,3600.648841
1298.651679,10807.006753,-5477.523971,2987.772442
1298.652008,9104.533087,-6587.832884,2987.772442
1298.652337,7328.038826,-7476.080014,1149.143247
1298.652666,5551.544565,-8808.450710,0.000000
1298.652995,3552.988522,-9622.677246,-689.485948
1298.653324,2368.659014,-10955.047942,-995.924147
1298.653653,2220.617826,-10658.965565,-536.266849
1298.653982,3478.967927,-8808.450710,-612.876398
1298.654311,4515.256246,-7179.997637,-229.828649
1298.654640,5477.523971,-5699.585753,229.828649
1298.654969,7105.977043,-4737.318029,536.266849
1298.655298,9104.533087,-3923.091493,1302.362347
1298.655627,11029.068536,-3182.885551,2221.676944
1298.655956,11843.295072,-2442.679609,2298.286494
1298.656285,12065.356855,-2886.803174,3064.381992
1298.656614,11843.295072,-5551.544565,3294.210641
1298.656944,9918.759623,-7179.997637,3217.601092
1298.657273,7402.059420,-7920.203579,2298.286494
1298.657602,5329.482782,-8142.265362,-153.219100
1298.657931,3627.009116,-8734.430116,-306.438199
1298.658260,2886.803174,-9622.677246,-766.095498
1298.658589,3108.864956,-9548.656652,-536.266849
1298.658918,3552.988522,-8734.430116,-612.876398
1298.659247,4293.194464,-6439.791695,-383.047749
1298.659576,5329.482782,-6069.688724,76.609550
1298.659905,6883.915261,-5699.585753,306.438199
1298.660234,7624.121203,-4589.276840,919.314598
1298.660563,9104.533087,-3923.091493,1532.190996
1298.660892,11473.192101,-3478.967927,2298.286494
1298.661221,11473.192101,-3997.112087,3064.381992
1298.661550,10955.047942,-5329.482782,3217.601092
1298.661879,9548.656652,-6809.894666,2757.943793
1298.662208,7698.141797,-7179.997637,1991.848295
1298.662538,5625.565159,-9104.533087,1072.533697
1298.662867,4293.194464,-9030.512492,306.438199
1298.663196,3256.906145,-9548.656652,-383.047749
1298.663525,2960.823768,-9918.759623,-612.876398
1298.663854,2886.803174,-9474.636058,-153.219100
1298.664183,3552.988522,-7846.182985,-76.609550
1298.664512,4515.256246,-6513.812290,-689.485948
1298.664841,5699.585753,-5107.421000,229.828649
1298.665170,7772.162391,-4441.235652,1225.752797
1298.665499,9770.718434,-3404.947333,2145.067394
1298.665828,11473.192101,-3182.885551,2834.553343
1298.666157,11843.295072,-3404.947333,3217.601092
1298.666486,11251.130318,-3923.091493,3217.601092
1298.666815,9992.780217,-5699.585753,2757.943793
1298.667144,8586.388927,-7031.956449,2374.896044
1298.667473,7031.956449,-7994.224174,1838.629195
1298.667803,5181.441594,-8142.265362,0.000000
1298.668132,4145.153275,-8216.285956,-536.266849
1298.668461,4737.318029,-8808.450710,0.000000
1298.668790,4367.215058,-8216.285956,0.000000
1298.669119,4219.173869,-7105.977043,-383.047749
1298.669448,4441.235652,-6143.709319,0.000000
1298.669777,5773.606348,-5255.462188,-383.047749
1298.670106,6735.874072,-4737.318029,842.705048
1298.670435,8512.368333,-4737.318029,1608.800546
1298.670764,10140.821405,-3775.050304,2068.457845
1298.671093,11325.150913,-3552.988522,2528.115143
1298.671422,11103.089130,-4959.379811,2834.553343
1298.671751,9992.780217,-6291.750507,3447.429741
1298.672080,8512.368333,-7476.080014,2834.553343
1298.672409,6439.791695,-8438.347739,1302.362347
1298.672738,4293.194464,-8734.430116,153.219100
1298.673068,2516.700203,-10214.842000,-459.657299
1298.673397,2442.679609,-11325.150913,-612.876398
1298.673726,2516.700203,-10510.924376,-842.705048
1298.674055,3034.844362,-8734.430116,-612.876398
1298.674384,3627.009116,-6809.894666,0.000000
1298.674713,5255.462188,-5995.668130,76.609550
1298.675042,7105.977043,-5033.400406,689.485948
1298.675371,9104.533087,-4071.132681,1455.581446
1298.675700,11473.192101,-2294.638420,1838.629195
1298.676029,12361.439231,-2294.638420,2451.505594
1298.676358,11473.192101,-3552.988522,2987.772442
1298.676687,10362.883188,-5699.585753,3140.991542
1298.677016,9696.697840,-7105.977043,2834.553343
1298.677345,7624.121203,-7920.203579,2681.334243
1298.677674,5995.668130,-7698.141797,766.095498
1298.678003,4663.297435,-8438.347739,0.000000
1298.678333,3849.070898,-9770.718434,-229.828649
1298.678662,3404.947333,-8734.430116,0.000000
1298.678991,3256.906145,-7402.059420,-612.876398
1298.679320,4219.173869,-6587.832884,76.609550
1298.679649,5181.441594,-5625.565159,0.000000
1298.679978,6439.791695,-5181.441594,229.828649
1298.680307,8068.244768,-4515.256246,766.095498
1298.680636,10140.821405,-3478.967927,1991.848295
1298.680965,12213.398043,-3478.967927,2528.115143
1298.681294,12361.439231,-3330.926739,3447.429741
1298.681623,10732.986159,-5107.421000,3064.381992
1298.681952,10066.800811,-6587.832884,2757.943793
1298.682281,7402.059420,-8142.265362,1378.971896
1298.682610,5477.523971,-9548.656652,766.095498
1298.682939,4293.194464,-9770.718434,0.000000
1298.683268,3478.967927,-10362.883188,-612.876398
1298.683598,2442.679609,-10658.965565,-919.314598
1298.683927,2146.597232,-9474.636058,-919.314598
1298.684256,2960.823768,-8364.327145,-919.314598
1298.684585,4441.235652,-6217.729913,-306.438199
1298.684914,6143.709319,-4515.256246,383.047749
1298.685243,8512.368333,-4145.153275,842.705048
1298.685572,10214.842000,-2812.782580,1532.190996
1298.685901,12509.480420,-2590.720797,2987.772442
1298.686230,12657.521608,-2886.803174,3447.429741
1298.686559,11547.212695,-4367.215058,3830.477490
1298.686888,9696.697840,-6217.729913,2911.162892
1298.687217,7772.162391,-7772.162391,1915.238745
1298.687546,5181.441594,-9474.636058,995.924147
1298.687875,3404.947333,-9548.656652,0.000000
1298.688204,3182.885551,-10066.800811,-383.047749
1298.688533,2738.761985,-9548.656652,0.000000
1298.688862,3182.885551,-8512.368333,-842.705048
1298.689192,3997.112087,-7328.038826,-306.438199
1298.689521,5403.503377,-5847.626942,383.047749
1298.689850,6513.812290,-5107.421000,766.095498
1298.690179,7994.224174,-3701.029710,1072.533697
1298.690508,9696.697840,-2072.576638,1149.143247
1298.690837,11547.212695,-2590.720797,2374.896044
1298.691166,11695.253884,-3404.947333,2604.724693
1298.691495,11029.068536,-5329.482782,3294.210641
1298.691824,9474.636058,-6587.832884,2757.943793
1298.692153,7254.018232,-7476.080014,1915.238745
1298.692482,5033.400406,-8512.368333,1685.410096
1298.692811,3627.009116,-10288.862594,459.657299
1298.693140,2812.782580,-11325.150913,0.000000
1298.693469,2220.617826,-11029.068536,-536.266849
1298.693798,2590.720797,-9770.718434,-383.047749
1298.694127,3552.988522,-7772.162391,766.095498
1298.694457,4441.235652,-6291.750507,383.047749
1298.694786,5477.523971,-3997.112087,612.876398
1298.695115,7920.203579,-2886.803174,766.095498
1298.695444,10955.047942,-1110.308913,919.314598
1298.695773,12213.398043,-1850.514855,1991.848295
1298.696102,12213.398043,-3256.906145,2528.115143
1298.696431,10658.965565,-5181.441594,2604.724693
1298.696760,9178.553681,-7105.977043,2528.115143
1298.697089,7476.080014,-8142.265362,2068.457845
1298.697418,6439.791695,-10214.842000,1302.362347
1298.697747,5403.503377,-9918.759623,842.705048
1298.698076,3997.112087,-9844.739029,0.000000
1298.698405,3552.988522,-9178.553681,-612.876398
1298.698734,3034.844362,-7624.121203,-612.876398
1298.699063,3108.864956,-7624.121203,-612.876398
1298.699392,4145.153275,-5847.626942,-689.485948
1298.699722,4885.359217,-5699.585753,383.047749
1298.700051,7031.956449,-4811.338623,842.705048
1298.700380,9844.739029,-3034.844362,2068.457845
1298.700709,12139.377449,-2072.576638,2298.286494
1298.701038,12805.562797,-2072.576638,2757.943793
1298.701367,12509.480420,-3256.906145,2987.772442
1298.701696,10362.883188,-4959.379811,2298.286494
1298.702025,8734.430116,-7254.018232,2221.676944
1298.702354,6809.894666,-9400.615463,1532.190996
1298.702683,4811.338623,-10288.862594,612.876398
1298.703012,3256.906145,-10288.862594,0.000000
1298.703341,2368.659014,-12139.377449,-459.657299
1298.703670,2886.803174,-8956.491898,-842.705048
1298.703999,2960.823768,-7920.203579,-612.876398
1298.704328,3627.009116,-7031.956449,-1149.143247
1298.704657,5477.523971,-5181.441594,0.000000
1298.704987,7254.018232,-4293.194464,0.000000
1298.705316,9178.553681,-3775.050304,1072.533697
1298.705645,11399.171507,-2368.659014,1838.629195
1298.705974,12953.603985,-2294.638420,2451.505594
1298.706303,13767.830521,-4071.132681,3370.820191
1298.706632,11399.171507,-5699.585753,3370.820191
1298.706961,9030.512492,-7031.956449,2451.505594
1298.707290,6587.832884,-7994.224174,1378.971896
1298.707619,4959.379811,-9400.615463,842.705048
1298.707948,3627.009116,-9696.697840,76.609550
1298.708277,2960.823768,-10732.986159,-383.047749
1298.708606,2886.803174,-9474.636058,-229.828649
1298.708935,2664.741391,-8068.244768,-842.705048
1298.709264,3627.009116,-6439.791695,-306.438199
1298.709593,5551.544565,-5625.565159,536.266849
1298.709922,7698.141797,-4367.215058,459.657299
1298.710252,9178.553681,-3330.926739,1455.581446
1298.710581,10436.903782,-2442.679609,2068.457845
1298.710910,12361.439231,-2812.782580,2221.676944
1298.711239,12139.377449,-3627.009116,2757.943793
1298.711568,11177.109724,-5699.585753,3217.601092
1298.711897,9030.512492,-7105.977043,2834.553343
1298.712226,7105.977043,-7698.141797,1685.410096
1298.712555,5033.400406,-9178.553681,919.314598
1298.712884,3701.029710,-9918.759623,76.609550
1298.713213,3108.864956,-10955.047942,229.828649
1298.713542,2812.782580,-10066.800811,-459.657299
1298.713871,2738.761985,-8586.388927,-766.095498
1298.714200,2738.761985,-7402.059420,-689.485948
1298.714529,4737.318029,-6069.688724,0.000000
1298.714858,7105.977043,-4737.318029,689.485948
1298.715187,8734.430116,-2960.823768,1532.190996
1298.715516,9918.759623,-2812.782580,2221.676944
1298.715846,11177.109724,-2738.761985,2451.505594
1298.716175,11251.130318,-3997.112087,2298.286494
1298.716504,9622.677246,-5847.626942,2451.505594
1298.716833,8290.306550,-7402.059420,2911.162892
1298.717162,7254.018232,-8660.409521,1378.971896
1298.717491,5699.585753,-9104.533087,1225.752797
1298.717820,4515.256246,-9918.759623,229.828649
1298.718149,4293.194464,-9770.718434,0.000000
1298.718478,4441.235652,-9326.594869,-229.828649
1298.718807,3849.070898,-7920.203579,-306.438199
1298.719136,4071.132681,-6513.812290,-153.219100
1298.719465,5181.441594,-5107.421000,0.000000
1298.719794,6661.853478,-4885.359217,536.266849
1298.720123,7994.224174,-3923.091493,1455.581446
1298.720452,9178.553681,-2960.823768,1149.143247
1298.720781,10584.944971,-2516.700203,1685.410096
1298.721111,10658.965565,-3627.009116,3140.991542
1298.721440,10955.047942,-5107.421000,2528.115143
1298.721769,9622.677246,-6513.812290,2604.724693
1298.722098,8364.327145,-7550.100608,2681.334243
1298.722427,6883.915261,-8882.471304,1608.800546
1298.722756,4441.235652,-9918.759623,995.924147
1298.723085,3404.947333,-10955.047942,383.047749
1298.723414,2738.761985,-10362.883188,-612.876398
1298.723743,2072.576638,-9474.636058,-995.924147
1298.724072,2368.659014,-7476.080014,-612.876398
1298.724401,3775.050304,-5403.503377,-459.657299
1298.724730,5773.606348,-4737.318029,459.657299
1298.725059,7994.224174,-4293.194464,1149.143247
1298.725388,10140.821405,-3182.885551,1685.410096
1298.725717,12065.356855,-1998.556043,3370.820191
1298.726046,11991.336260,-2072.576638,2681.334243
1298.726376,11399.171507,-4515.256246,2834.553343
1298.726705,10362.883188,-5921.647536,2987.772442
1298.727034,9474.636058,-8068.244768,2451.505594
1298.727363,7698.141797,-8660.409521,2298.286494
1298.727692,5477.523971,-9622.677246,919.314598
1298.728021,3701.029710,-10066.800811,0.000000
1298.728350,2368.659014,-10066.800811,-766.095498
1298.728679,1924.535449,-8956.491898,-766.095498
1298.729008,2516.700203,-7476.080014,-1378.971896
1298.729337,4293.194464,-5625.565159,-153.219100
1298.729666,5847.626942,-4737.318029,536.266849
1298.729995,6957.935855,-5033.400406,766.095498
1298.730324,8808.450710,-2664.741391,1378.971896
1298.730653,10362.883188,-2442.679609,1302.362347
1298.730982,11325.150913,-2886.803174,2068.457845
1298.731311,11695.253884,-4367.215058,2911.162892
1298.731641,11177.109724,-6513.812290,3140.991542
1298.731970,9844.739029,-7179.997637,2987.772442
1298.732299,7402.059420,-8438.347739,1685.410096
1298.732628,5477.523971,-9474.636058,383.047749
1298.732957,3775.050304,-10362.883188,-306.438199
1298.733286,2516.700203,-11473.192101,-995.924147
1298.733615,2516.700203,-9252.574275,-1302.362347
1298.733944,2516.700203,-8586.388927,-919.314598
1298.734273,3923.091493,-7105.977043,-919.314598
1298.734602,5329.482782,-4145.153275,0.000000
1298.734931,7772.162391,-3923.091493,1378.971896
1298.735260,9992.780217,-2442.679609,1072.533697
1298.735589,10955.047942,-2368.659014,1608.800546
1298.735918,11547.212695,-2368.659014,1915.238745
1298.736247,12065.356855,-3627.009116,3064.381992
1298.736576,12287.418637,-6587.832884,3907.087040
1298.736906,10436.903782,-7476.080014,3753.867940
1298.737235,7624.121203,-8216.285956,1915.238745
1298.737564,5033.400406,-8660.409521,612.876398
1298.737893,2886.803174,-9104.533087,-153.219100
1298.738222,2294.638420,-10362.883188,-766.095498
1298.738551,2072.576638,-9474.636058,-536.266849
1298.738880,2590.720797,-8734.430116,-842.705048
1298.739209,3256.906145,-6883.915261,-689.485948
1298.739538,4663.297435,-5255.462188,383.047749
1298.739867,6883.915261,-5847.626942,766.095498
1298.740196,9400.615463,-3923.091493,1455.581446
1298.740525,10362.883188,-3034.844362,1378.971896
1298.740854,11769.274478,-2146.597232,1608.800546
1298.741183,11917.315666,-3923.091493,2451.505594
1298.741512,11177.109724,-5699.585753,3524.039291
1298.741841,9474.636058,-7476.080014,3217.601092
1298.742171,7550.100608,-7476.080014,2298.286494
1298.742500,5921.647536,-8364.327145,536.266849
1298.742829,3775.050304,-10140.821405,383.047749
1298.743158,2738.761985,-9918.759623,0.000000
1298.743487,2072.576638,-9474.636058,-689.485948
1298.743816,2442.679609,-8808.450710,-612.876398
1298.744145,3330.926739,-7105.977043,0.000000
1298.744474,4959.379811,-6661.853478,459.657299
1298.744803,6513.812290,-4959.379811,995.924147
1298.745132,7994.224174,-4071.132681,1302.362347
1298.745461,9918.759623,-2960.823768,1378.971896
1298.745790,11177.109724,-2960.823768,2451.505594
1298.746119,11399.171507,-3923.091493,3064.381992
1298.746448,11029.068536,-5255.462188,3370.820191
1298.746777,9474.636058,-6439.791695,2681.334243
1298.747107,8142.265362,-7105.977043,1762.019645
1298.747436,5625.565159,-9252.574275,1225.752797
1298.747765,4219.173869,-9474.636058,229.828649
1298.748094,3627.009116,-9918.759623,-459.657299
1298.748423,3552.988522,-9474.636058,306.438199
1298.748752,4219.173869,-8216.285956,0.000000
1298.749081,4071.132681,-7031.956449,-459.657299
1298.749410,4663.297435,-5921.647536,0.000000
1298.749739,6069.688724,-4811.338623,536.266849
1298.750068,7772.162391,-4367.215058,1225.752797
1298.750397,9474.636058,-3552.988522,1378.971896
1298.750726,10362.883188,-3034.844362,2298.286494
1298.751055,11547.212695,-3552.988522,2681.334243
1298.751385,12213.398043,-4145.153275,3140.991542
1298.751714,11029.068536,-6069.688724,3370.820191
1298.752043,9178.553681,-6809.894666,2604.724693
1298.752372,6587.832884,-7476.080014,612.876398
1298.752701,4071.132681,-9696.697840,-766.095498
1298.753030,2368.659014,-10140.821405,-536.266849
1298.753359,2368.659014,-11177.109724,-995.924147
1298.753688,3627.009116,-10140.821405,-459.657299
1298.754017,3701.029710,-8364.327145,0.000000
1298.754346,4293.194464,-7476.080014,0.000000
1298.754675,5847.626942,-4959.379811,0.000000
1298.755004,7328.038826,-3923.091493,459.657299
1298.755333,9548.656652,-3404.947333,995.924147
1298.755663,10881.027347,-2146.597232,1685.410096
1298.755992,11695.253884,-2294.638420,2145.067394
1298.756321,12065.356855,-4737.318029,2911.162892
1298.756650,11325.150913,-6513.812290,3983.696590
1298.756979,9622.677246,-7179.997637,2681.334243
1298.757308,7550.100608,-7772.162391,1762.019645
1298.757637,4885.359217,-8216.285956,689.485948
1298.757966,3552.988522,-8882.471304,-689.485948
1298.758295,2886.803174,-9622.677246,-766.095498
1298.758624,3034.844362,-9252.574275,0.000000
1298.758953,3404.947333,-8216.285956,0.000000
1298.759282,3849.070898,-6439.791695,459.657299
1298.759611,5255.462188,-5477.523971,536.266849
1298.759940,7105.977043,-4737.318029,612.876398
1298.760270,8512.368333,-3404.947333,995.924147
1298.760599,9696.697840,-2960.823768,1225.752797
1298.760928,11399.171507,-3478.967927,2068.457845
1298.761257,12065.356855,-4219.173869,3524.039291
1298.761586,11325.150913,-6587.832884,3447.429741
1298.761915,10436.903782,-7105.977043,3677.258390
1298.762244,7772.162391,-8216.285956,2221.676944
1298.762573,5255.462188,-9252.574275,0.000000
1298.762902,2812.782580,-9992.780217,-153.219100
1298.763231,2368.659014,-10214.842000,-612.876398
1298.763560,3108.864956,-9622.677246,-536.266849
1298.763889,3034.844362,-8956.491898,-459.657299
1298.764218,3997.112087,-7328.038826,-229.828649
1298.764548,4959.379811,-5847.626942,0.000000
1298.764877,6735.874072,-4589.276840,383.047749
1298.765206,9178.553681,-3701.029710,1455.581446
1298.765535,10658.965565,-2516.700203,2145.067394
1298.765864,12287.418637,-2368.659014,2451.505594
1298.766193,12213.398043,-3923.091493,3370.820191
1298.766522,11325.150913,-5477.523971,3370.820191
1298.766851,8882.471304,-6587.832884,2757.943793
1298.767180,6513.812290,-8216.285956,1455.581446
1298.767509,4589.276840,-9474.636058,536.266849
1298.767838,2960.823768,-10436.903782,-383.047749
1298.768167,2294.638420,-10362.883188,-1072.533697
1298.768496,2738.761985,-9992.780217,-383.047749
1298.768826,3552.988522,-8216.285956,-612.876398
1298.769155,4589.276840,-6883.915261,-153.219100
1298.769484,5773.606348,-5773.606348,459.657299
1298.769813,7031.956449,-4737.318029,459.657299
1298.770142,8364.327145,-4145.153275,1149.143247
1298.770471,9696.697840,-3256.906145,1455.581446
1298.770800,11177.109724,-2812.782580,1991.848295
1298.771129,11917.315666,-4219.173869,2834.553343
1298.771458,11177.109724,-5551.544565,3524.039291
1298.771787,9696.697840,-6735.874072,3600.648841
1298.772116,7772.162391,-6809.894666,1915.238745
1298.772445,5551.544565,-8290.306550,689.485948
1298.772774,3627.009116,-9252.574275,383.047749
1298.773103,2442.679609,-9992.780217,-459.657299
1298.773433,2294.638420,-10140.821405,-766.095498
1298.773762,2886.803174,-9326.594869,-459.657299
1298.774091,4663.297435,-7550.100608,229.828649
1298.774420,5699.585753,-5995.668130,383.047749
1298.774749,6661.853478,-4367.215058,536.266849
1298.775078,8216.285956,-3997.112087,1149.143247
1298.775407,10362.883188,-2886.803174,1532.190996
1298.775736,11547.212695,-1998.556043,2604.724693
1298.776065,11547.212695,-3330.926739,2987.772442
1298.776394,11251.130318,-4737.318029,3064.381992
1298.776723,9844.739029,-6513.812290,2451.505594
1298.777052,7254.018232,-7550.100608,2145.067394
1298.777381,5699.585753,-8956.491898,459.657299
1298.777711,4293.194464,-9400.615463,-612.876398
1298.778040,3256.906145,-10140.821405,-689.485948
1298.778369,2960.823768,-9918.759623,-459.657299
1298.778698,3997.112087,-9326.594869,153.219100
1298.779027,4737.318029,-8068.244768,306.438199
1298.779356,5181.441594,-6069.688724,76.609550
1298.779685,5773.606348,-4737.318029,229.828649
1298.780014,7772.162391,-4145.153275,689.485948
1298.780343,9696.697840,-3627.009116,1838.629195
1298.780672,11103.089130,-3182.885551,2604.724693
1298.781001,11695.253884,-2664.741391,2681.334243
1298.781330,11251.130318,-3775.050304,3064.381992
1298.781659,10362.883188,-6661.853478,3524.039291
1298.781989,8068.244768,-7179.997637,2834.553343
1298.782318,5921.647536,-8956.491898,1149.143247
1298.782647,4145.153275,-10066.800811,-306.438199
1298.782976,2960.823768,-10362.883188,-459.657299
1298.783305,2960.823768,-10881.027347,-766.095498
1298.783634,3478.967927,-10584.944971,-689.485948
1298.783963,3849.070898,-9030.512492,-229.828649
1298.784292,4737.318029,-6809.894666,0.000000
1298.784621,5847.626942,-4737.318029,536.266849
1298.784950,7846.182985,-3701.029710,689.485948
1298.785279,9548.656652,-2960.823768,1302.362347
1298.785608,11177.109724,-1406.391290,2145.067394
1298.785937,11843.295072,-1776.494261,2451.505594
1298.786266,11399.171507,-2960.823768,3294.210641
1298.786596,10658.965565,-5033.400406,3294.210641
1298.786925,8586.388927,-7105.977043,2451.505594
1298.787254,6439.791695,-8512.368333,1302.362347
1298.787583,4589.276840,-9252.574275,383.047749
1298.787912,3478.967927,-9992.780217,76.609550
1298.788241,3404.947333,-10214.842000,-306.438199
1298.788570,3997.112087,-9178.553681,0.000000
1298.788899,3923.091493,-7994.224174,-536.266849
1298.789228,4441.235652,-6735.874072,0.000000
1298.789557,4663.297435,-5551.544565,153.219100
1298.789886,6143.709319,-5107.421000,76.609550
1298.790215,7624.121203,-4293.194464,1149.143247
1298.790544,9104.533087,-3182.885551,1532.190996
1298.790874,10510.924376,-3034.844362,2604.724693
1298.791203,11547.212695,-4589.276840,3217.601092
1298.791532,11177.109724,-6809.894666,3064.381992
1298.791861,8882.471304,-7105.977043,2451.505594
1298.792190,7105.977043,-8142.265362,1149.143247
1298.792519,4737.318029,-9548.656652,153.219100
1298.792848,3552.988522,-10140.821405,0.000000
1298.793177,2960.823768,-10436.903782,-383.047749
1298.793506,4071.132681,-9548.656652,-153.219100
1298.793835,4515.256246,-8438.347739,76.609550
1298.794164,4589.276840,-6883.915261,76.609550
1298.794493,5403.503377,-4737.318029,229.828649
1298.794822,7031.956449,-3478.967927,842.705048
1298.795152,8290.306550,-2442.679609,1838.629195
1298.795481,10140.821405,-2072.576638,2374.896044
1298.795810,11547.212695,-1998.556043,2834.553343
1298.796139,11695.253884,-3034.844362,3370.820191
1298.796468,10881.027347,-4811.338623,3140.991542
1298.796797,9548.656652,-5995.668130,2528.115143
1298.797126,7624.121203,-8512.368333,1762.019645
1298.797455,5773.606348,-8808.450710,842.705048
1298.797784,4367.215058,-9104.533087,-306.438199
1298.798113,3775.050304,-10362.883188,-536.266849
1298.798442,4145.153275,-10140.821405,536.266849
1298.798771,4071.132681,-9104.533087,-459.657299
1298.799100,4145.153275,-7698.141797,76.609550
1298.799429,5033.400406,-5847.626942,229.828649
1298.799759,6587.832884,-5329.482782,536.266849
1298.800088,7550.100608,-4367.215058,1149.143247
1298.800417,8586.388927,-3775.050304,1532.190996
1298.800746,10214.842000,-2960.823768,1608.800546
1298.801075,10658.965565,-3478.967927,2528.115143
1298.801404,11029.068536,-5107.421000,2834.553343
1298.801733,9918.759623,-6587.832884,2987.772442
1298.802062,8142.265362,-8142.265362,1915.238745
1298.802391,5625.565159,-8586.388927,1149.143247
1298.802720,4071.132681,-9474.636058,0.000000
1298.803049,3552.988522,-10066.800811,-383.047749
1298.803378,2960.823768,-10066.800811,-536.266849
1298.803707,2960.823768,-9326.594869,-766.095498
1298.804037,4145.153275,-7476.080014,-229.828649
1298.804366,5329.482782,-6365.771101,689.485948
1298.804695,6809.894666,-4293.194464,1302.362347
1298.805024,7698.141797,-2812.782580,766.095498
1298.805353,9400.615463,-2442.679609,689.485948
1298.805682,10881.027347,-1628.453072,1991.848295
1298.806011,11843.295072,-3108.864956,2681.334243
1298.806340,11399.171507,-5477.523971,2911.162892
1298.806669,10362.883188,-6513.812290,2528.115143
1298.806998,8142.265362,-7772.162391,1685.410096
1298.807327,6513.812290,-9104.533087,1149.143247
1298.807656,4959.379811,-9622.677246,153.219100
1298.807985,4145.153275,-10140.821405,229.828649
1298.808315,3552.988522,-9622.677246,0.000000
1298.808644,3775.050304,-9030.512492,-229.828649
1298.808973,3478.967927,-7698.141797,-229.828649
1298.809302,4293.194464,-6587.832884,76.609550
1298.809631,5477.523971,-5403.503377,536.266849
1298.809960,7254.018232,-4811.338623,919.314598
1298.810289,8734.430116,-3404.947333,2298.286494
1298.810618,10510.924376,-2368.659014,1991.848295
1298.810947,10732.986159,-3256.906145,1838.629195
1298.811276,10732.986159,-4515.256246,2681.334243
1298.811605,9992.780217,-7179.997637,2757.943793
1298.811934,9104.533087,-7698.141797,2757.943793
1298.812263,6735.874072,-8438.347739,1378.971896
1298.812593,5033.400406,-9918.759623,229.828649
1298.812922,4219.173869,-9696.697840,306.438199
1298.813251,3775.050304,-10140.821405,-383.047749
1298.813580,3552.988522,-8882.471304,0.000000
1298.813909,3997.112087,-7476.080014,0.000000
1298.814238,4959.379811,-5995.668130,-153.219100
1298.814567,5551.544565,-4145.153275,-229.828649
1298.814896,7105.977043,-3849.070898,536.266849
1298.815225,8068.244768,-3627.009116,919.314598
1298.815554,10214.842000,-2664.741391,1915.238745
1298.815883,11177.109724,-3182.885551,2374.896044
1298.816212,11843.295072,-4071.132681,3064.381992
1298.816541,11029.068536,-6587.832884,3447.429741
1298.816870,9030.512492,-7105.977043,2681.334243
1298.817200,6809.894666,-7920.203579,1378.971896
1298.817529,5403.503377,-8734.430116,1072.533697
1298.817858,4219.173869,-9178.553681,0.000000
1298.818187,3923.091493,-10510.924376,-689.485948
1298.818516,2886.803174,-10140.821405,0.000000
1298.818845,3478.967927,-8734.430116,-766.095498
1298.819174,4145.153275,-6883.915261,-306.438199
1298.819503,4959.379811,-5699.585753,536.266849
1298.819832,6439.791695,-5477.523971,383.047749
1298.820161,7772.162391,-4737.318029,842.705048
1298.820490,9104.533087,-4071.132681,1302.362347
1298.820819,10436.903782,-4071.132681,1762.019645
1298.821148,11325.150913,-4367.215058,3064.381992
1298.821478,11103.089130,-6365.771101,3677.258390
1298.821807,9770.718434,-6883.915261,3294.210641
1298.822136,7698.141797,-7624.121203,2374.896044
1298.822465,5847.626942,-8068.244768,1225.752797
1298.822794,4737.318029,-9474.636058,306.438199
1298.823123,4071.132681,-9696.697840,0.000000
1298.823452,3182.885551,-8882.471304,-536.266849
1298.823781,2886.803174,-8290.306550,-612.876398
1298.824110,3552.988522,-6809.894666,-306.438199
1298.824439,5551.544565,-5699.585753,76.609550
1298.824768,6957.935855,-4663.297435,919.314598
1298.825097,8290.306550,-3849.070898,1225.752797
1298.825426,9696.697840,-3404.947333,1225.752797
1298.825756,10436.903782,-2516.700203,2068.457845
1298.826085,11103.089130,-3923.091493,2451.505594
1298.826414,11177.109724,-5181.441594,3370.820191
1298.826743,9992.780217,-6291.750507,3064.381992
1298.827072,8068.244768,-6957.935855,2145.067394
1298.827401,6439.791695,-8068.244768,1532.190996
1298.827730,4959.379811,-8586.388927,229.828649
1298.828059,4145.153275,-9252.574275,-383.047749
1298.828388,3849.070898,-9474.636058,229.828649
1298.828717,4367.215058,-7328.038826,-76.609550
1298.829046,4441.235652,-7105.977043,-229.828649
1298.829375,4663.297435,-5995.668130,0.000000
1298.829704,5403.503377,-5921.647536,0.000000
1298.830033,7105.977043,-5773.606348,536.266849
1298.830363,7920.203579,-4589.276840,1225.752797
1298.830692,9178.553681,-3627.009116,1455.581446
1298.831021,10584.944971,-4145.153275,2145.067394
1298.831350,10881.027347,-5773.606348,3294.210641
1298.831679,9992.780217,-6735.874072,3064.381992
1298.832008,8068.244768,-7105.977043,2145.067394
1298.832337,6587.832884,-8068.244768,1302.362347
1298.832666,4737.318029,-9326.594869,459.657299
1298.832995,4071.132681,-9622.677246,153.219100
1298.833324,3997.112087,-9696.697840,-229.828649
1298.833653,4367.215058,-8586.388927,-536.266849
1298.833982,4737.318029,-6883.915261,0.000000
1298.834311,5255.462188,-6365.771101,-306.438199
1298.834641,6439.791695,-5699.585753,459.657299
1298.834970,6957.935855,-4737.318029,383.047749
1298.835299,8512.368333,-3923.091493,612.876398
1298.835628,10658.965565,-2960.823768,1685.410096
1298.835957,11473.192101,-3701.029710,2834.553343
1298.836286,11251.130318,-4515.256246,3447.429741
1298.836615,10881.027347,-5847.626942,3447.429741
1298.836944,9400.615463,-6291.750507,2528.115143
1298.837273,7328.038826,-7550.100608,1915.238745
1298.837602,5773.606348,-8142.265362,1838.629195
1298.837931,4441.235652,-8438.347739,0.000000
1298.838260,3552.988522,-9326.594869,-229.828649
1298.838589,3775.050304,-8882.471304,153.219100
1298.838919,3923.091493,-7550.100608,-612.876398
1298.839248,4515.256246,-6143.709319,-612.876398
1298.839577,4737.318029,-6069.688724,76.609550
1298.839906,5995.668130,-5847.626942,153.219100
1298.840235,7105.977043,-4959.379811,536.266849
1298.840564,8586.388927,-4589.276840,1302.362347
1298.840893,10510.924376,-4737.318029,1991.848295
1298.841222,10584.944971,-5107.421000,2451.505594
1298.841551,9696.697840,-6883.915261,3217.601092
1298.841880,9178.553681,-7254.018232,2987.772442
1298.842209,7328.038826,-7550.100608,2145.067394
1298.842538,5255.462188,-7846.182985,536.266849
1298.842867,3923.091493,-8808.450710,76.609550
1298.843197,3627.009116,-9474.636058,-536.266849
1298.843526,3701.029710,-9400.615463,-383.047749
1298.843855,4145.153275,-7920.203579,0.000000
1298.844184,5403.503377,-6809.894666,153.219100
1298.844513,6217.729913,-5255.462188,229.828649
1298.844842,6809.894666,-4737.318029,612.876398
1298.845172,8142.265362,-3849.070898,1455.581446
1298.845501,9474.636058,-2960.823768,1838.629195
1298.845830,10288.862594,-2960.823768,1915.238745
1298.846159,10658.965565,-3923.091493,2757.943793
1298.846488,10584.944971,-5551.544565,3524.039291
1298.846817,9178.553681,-6883.915261,3677.258390
1298.847147,8068.244768,-7105.977043,2451.505594
1298.847476,6217.729913,-7254.018232,995.924147
1298.847805,4737.318029,-7846.182985,0.000000
1298.848134,4441.235652,-9326.594869,-995.924147
1298.848463,4441.235652,-8956.491898,-229.828649
1298.848792,4663.297435,-8512.368333,-536.266849
1298.849122,5033.400406,-7476.080014,0.000000
1298.849451,5699.585753,-6069.688724,0.000000
1298.849780,6217.729913,-5625.565159,-612.876398
1298.850109,6809.894666,-5773.606348,536.266849
1298.850438,7846.182985,-5033.400406,919.314598
1298.850768,9178.553681,-4367.215058,1532.190996
1298.851097,10140.821405,-4145.153275,2911.162892
1298.851426,9918.759623,-8290.306550,3524.039291
1298.851755,8882.471304,-5107.421000,2757.943793
1298.852084,7105.977043,-8734.430116,2145.067394
1298.852413,5921.647536,-9030.512492,1225.752797
1298.852743,5625.565159,-6513.812290,1072.533697
1298.853072,5255.462188,-9622.677246,919.314598
1298.853401,5107.421000,-8068.244768,153.219100
1298.853730,4441.235652,-7920.203579,-306.438199
1298.854059,4737.318029,-7179.997637,0.000000
1298.854388,5551.544565,-5329.482782,0.000000
1298.854718,6365.771101,-5551.544565,612.876398
1298.855047,7031.956449,-4737.318029,1072.533697
1298.855376,8290.306550,-3923.091493,842.705048
1298.855705,9992.780217,-2812.782580,1838.629195
1298.856034,11029.068536,-3404.947333,3064.381992
1298.856363,11843.295072,-5107.421000,3524.039291
1298.856693,10362.883188,-5477.523971,3370.820191
1298.857022,8808.450710,-6957.935855,2298.286494
1298.857351,7105.977043,-7698.141797,919.314598
1298.857680,5773.606348,-8142.265362,689.485948
1298.858009,4737.318029,-9400.615463,0.000000
1298.858338,3997.112087,-9474.636058,0.000000
1298.858668,3627.009116,-8512.368333,-306.438199
1298.858997,4663.297435,-6809.894666,-306.438199
1298.859326,4589.276840,-6439.791695,0.000000
1298.859655,4885.359217,-5995.668130,76.609550
1298.859984,5847.626942,-5625.565159,76.609550
1298.860313,7994.224174,-4959.379811,1608.800546
1298.860643,9696.697840,-3775.050304,1762.019645
1298.860972,10881.027347,-4441.235652,2911.162892
1298.861301,10807.006753,-5477.523971,3677.258390
1298.861630,10140.821405,-6513.812290,3140.991542
1298.861959,8808.450710,-6735.874072,3064.381992
1298.862289,7105.977043,-7772.162391,1762.019645
1298.862618,5255.462188,-9252.574275,383.047749
1298.862947,3923.091493,-9252.574275,-306.438199
1298.863276,3404.947333,-9918.759623,-1149.143247
1298.863605,3256.906145,-9992.780217,-766.095498
1298.863934,3701.029710,-8956.491898,-459.657299
1298.864264,4367.215058,-7328.038826,-536.266849
1298.864593,5181.441594,-4885.359217,-689.485948
1298.864922,6513.812290,-4515.256246,229.828649
1298.865251,8438.347739,-4367.215058,1072.533697
1298.865580,10807.006753,-2886.803174,2374.896044
1298.865909,12213.398043,-2738.761985,2834.553343
1298.866239,12509.480420,-4145.153275,3677.258390
1298.866568,11769.274478,-5107.421000,3370.820191
1298.866897,9918.759623,-6883.915261,3217.601092
1298.867226,7328.038826,-7179.997637,1838.629195
1298.867555,5033.400406,-7624.121203,842.705048
1298.867884,4219.173869,-8290.306550,-306.438199
1298.868214,3552.988522,-9474.636058,-153.219100
1298.868543,3182.885551,-9992.780217,0.000000
1298.868872,3330.926739,-8734.430116,-612.876398
1298.869201,3849.070898,-7105.977043,-766.095498
1298.869530,5033.400406,-6143.709319,-229.828649
1298.869859,6513.812290,-5477.523971,76.609550
1298.870189,7846.182985,-5255.462188,995.924147
1298.870518,9030.512492,-4293.194464,1762.019645
1298.870847,10510.924376,-3701.029710,2528.115143
1298.871176,11843.295072,-4219.173869,3370.820191
1298.871505,11177.109724,-5699.585753,3140.991542
1298.871834,9770.718434,-7105.977043,3600.648841
1298.872164,7550.100608,-7328.038826,2298.286494
1298.872493,5995.668130,-7994.224174,689.485948
1298.872822,4071.132681,-8956.491898,0.000000
1298.873151,2960.823768,-8956.491898,-689.485948
1298.873480,2738.761985,-10288.862594,-536.266849
1298.873810,3478.967927,-9474.636058,-306.438199
1298.874139,3775.050304,-7698.141797,-229.828649
1298.874468,4811.338623,-6883.915261,0.000000
1298.874797,6439.791695,-5255.462188,229.828649
1298.875126,8216.285956,-4515.256246,1149.143247
1298.875455,9548.656652,-3404.947333,2298.286494
1298.875785,11029.068536,-2664.741391,2604.724693
1298.876114,11991.336260,-2960.823768,3217.601092
1298.876443,11769.274478,-4293.194464,3677.258390
1298.876772,10362.883188,-5551.544565,3217.601092
1298.877101,8364.327145,-6513.812290,2068.457845
1298.877430,6143.709319,-7846.182985,995.924147
1298.877760,4663.297435,-8142.265362,153.219100
1298.878089,3997.112087,-8956.491898,-612.876398
1298.878418,4367.215058,-9844.739029,229.828649
1298.878747,4737.318029,-8956.491898,153.219100
1298.879076,4441.235652,-7920.203579,-383.047749
1298.879405,4737.318029,-5847.626942,-229.828649
1298.879735,5403.503377,-5625.565159,0.000000
1298.880064,6439.791695,-4589.276840,0.000000
1298.880393,8216.285956,-4589.276840,995.924147
1298.880722,9992.780217,-3849.070898,2145.067394
1298.881051,11547.212695,-4071.132681,2757.943793
1298.881380,11029.068536,-5255.462188,3064.381992
1298.881710,10584.944971,-6439.791695,3140.991542
1298.882039,8438.347739,-7105.977043,2374.896044
1298.882368,6291.750507,-7994.224174,919.314598
1298.882697,4367.215058,-9548.656652,229.828649
1298.883026,3552.988522,-10214.842000,229.828649
1298.883355,3256.906145,-10584.944971,-536.266849
1298.883685,2960.823768,-10510.924376,-1225.752797
1298.884014,3404.947333,-9104.533087,-612.876398
1298.884343,3923.091493,-7994.224174,-459.657299
1298.884672,5033.400406,-6291.750507,-229.828649
1298.885001,6365.771101,-4515.256246,229.828649
1298.885331,8808.450710,-3627.009116,1149.143247
1298.885660,11547.212695,-2294.638420,2451.505594
1298.885989,12361.439231,-2368.659014,3294.210641
1298.886318,12435.459826,-3182.885551,3064.381992
1298.886647,11177.109724,-4441.235652,3064.381992
1298.886976,9622.677246,-5847.626942,2451.505594
1298.887306,7476.080014,-6883.915261,1608.800546
1298.887635,5773.606348,-8438.347739,1378.971896
1298.887964,4811.338623,-9178.553681,306.438199
1298.888293,4589.276840,-9844.739029,229.828649
1298.888622,4737.318029,-8586.388927,153.219100
1298.888951,4737.318029,-7920.203579,-153.219100
1298.889281,4071.132681,-7105.977043,-536.266849
1298.889610,3627.009116,-6513.812290,-459.657299
1298.889939,5033.400406,-5625.565159,-229.828649
1298.890268,7328.038826,-4885.359217,1149.143247
1298.890597,9770.718434,-3627.009116,2374.896044
1298.890926,10732.986159,-3404.947333,2604.724693
1298.891256,10881.027347,-3849.070898,2987.772442
1298.891585,10214.842000,-5699.585753,3064.381992
1298.891914,8956.491898,-6735.874072,2451.505594
1298.892243,7179.997637,-7179.997637,1302.362347
1298.892572,5773.606348,-8734.430116,306.438199
1298.892901,4589.276840,-9844.739029,-306.438199
1298.893231,3552.988522,-10658.965565,-536.266849
1298.893560,3552.988522,-10510.924376,-919.314598
1298.893889,3701.029710,-9474.636058,-229.828649
1298.894218,4589.276840,-7772.162391,-229.828649
1298.894547,4811.338623,-6439.791695,76.609550
1298.894876,5921.647536,-4441.235652,153.219100
1298.895206,7772.162391,-4589.276840,842.705048
1298.895535,9400.615463,-2886.803174,1532.190996
1298.895864,11103.089130,-2294.638420,2451.505594
1298.896193,12361.439231,-2886.803174,3524.039291
1298.896522,12509.480420,-3775.050304,4060.306139
1298.896851,10658.965565,-5921.647536,3830.477490
1298.897181,8438.347739,-6809.894666,2298.286494
1298.897510,6439.791695,-7698.141797,919.314598
1298.897839,4811.338623,-9178.553681,0.000000
1298.898168,4145.153275,-9548.656652,-766.095498
1298.898497,3627.009116,-10584.944971,-153.219100
1298.898827,3627.009116,-9844.739029,0.000000
1298.899156,4367.215058,-8142.265362,-383.047749
1298.899485,5107.421000,-5403.503377,-76.609550
1298.899814,6217.729913,-4663.297435,0.000000
1298.900143,6809.894666,-4589.276840,459.657299
1298.900472,8290.306550,-3997.112087,1302.362347
1298.900802,10436.903782,-2960.823768,1762.019645
1298.901131,11769.274478,-3256.906145,2681.334243
1298.901460,11473.192101,-4737.318029,4060.306139
1298.901789,10807.006753,-5921.647536,3753.867940
1298.902118,8586.388927,-7105.977043,2681.334243
1298.902447,6365.771101,-7476.080014,766.095498
1298.902777,4737.318029,-9474.636058,-76.609550
1298.903106,3478.967927,-9622.677246,-306.438199
1298.903435,2664.741391,-10288.862594,-689.485948
1298.903764,2664.741391,-10955.047942,-229.828649
1298.904093,3034.844362,-8734.430116,0.000000
1298.904422,4367.215058,-7476.080014,0.000000
1298.904752,5107.421000,-5403.503377,306.438199
1298.905081,7179.997637,-3923.091493,1225.752797
1298.905410,9326.594869,-3182.885551,1149.143247
1298.905739,11103.089130,-1406.391290,2068.457845
1298.906068,11695.253884,-2516.700203,2757.943793
1298.906397,11843.295072,-4145.153275,2987.772442
1298.906727,10658.965565,-5403.503377,3064.381992
1298.907056,9104.533087,-6883.915261,1762.019645
1298.907385,7402.059420,-8290.306550,1149.143247
1298.907714,5403.503377,-9474.636058,153.219100
1298.908043,4293.194464,-9696.697840,-153.219100
1298.908372,4145.153275,-10066.800811,0.000000
1298.908702,4441.235652,-8438.347739,766.095498
1298.909031,4367.215058,-7698.141797,0.000000
1298.909360,4441.235652,-6809.894666,229.828649
1298.909689,5773.606348,-4663.297435,383.047749
1298.910018,7031.956449,-4737.318029,306.438199
1298.910348,8290.306550,-3182.885551,1838.629195
1298.910677,9622.677246,-3182.885551,1838.629195
1298.911006,11177.109724,-3478.967927,2298.286494
1298.911335,11177.109724,-4737.318029,3217.601092
1298.911664,9844.739029,-6957.935855,3294.210641
1298.911993,8734.430116,-7105.977043,2145.067394
1298.912323,5995.668130,-8882.471304,1072.533697
1298.912652,4367.215058,-10066.800811,-306.438199
1298.912981,3330.926739,-10510.924376,-306.438199
1298.913310,3330.926739,-11473.192101,-306.438199
1298.913639,3775.050304,-10807.006753,0.000000
1298.913968,3997.112087,-8586.388927,0.000000
1298.914298,3997.112087,-7105.977043,-306.438199
1298.914627,5181.441594,-5551.544565,0.000000
1298.914956,7105.977043,-3997.112087,689.485948
1298.915285,8956.491898,-2886.803174,1225.752797
1298.915614,11103.089130,-1702.473667,1991.848295
1298.915943,12065.356855,-2294.638420,2604.724693
1298.916273,11917.315666,-3627.009116,3447.429741
1298.916602,10436.903782,-5403.503377,3294.210641
1298.916931,9400.615463,-6513.812290,2451.505594
1298.917260,7328.038826,-8290.306550,1225.752797
1298.917589,5477.523971,-8290.306550,689.485948
1298.917918,4071.132681,-9104.533087,229.828649
1298.918248,3923.091493,-9770.718434,0.000000
1298.918577,3923.091493,-9474.636058,153.219100
1298.918906,4219.173869,-8586.388927,153.219100
1298.919235,4589.276840,-6439.791695,919.314598
1298.919564,5477.523971,-5329.482782,306.438199
1298.919893,5921.647536,-4589.276840,229.828649
1298.920223,7105.977043,-3404.947333,1149.143247
1298.920552,8660.409521,-3108.864956,1225.752797
1298.920881,10288.862594,-2516.700203,2374.896044
1298.921210,11029.068536,-3849.070898,2681.334243
1298.921539,10955.047942,-5995.668130,2987.772442
1298.921869,9696.697840,-7105.977043,2757.943793
1298.922198,7624.121203,-8512.368333,1685.410096
1298.922527,5625.565159,-8956.491898,536.266849
1298.922856,4071.132681,-9844.739029,-306.438199
1298.923185,3627.009116,-10881.027347,-229.828649
1298.923514,3552.988522,-10510.924376,383.047749
1298.923844,3552.988522,-9474.636058,-153.219100
1298.924173,3997.112087,-7031.956449,-153.219100
1298.924502,4441.235652,-5403.503377,0.000000
1298.924831,5847.626942,-4293.194464,612.876398
1298.925160,7920.203579,-3923.091493,689.485948
1298.925489,9548.656652,-2146.597232,1225.752797
1298.925819,11251.130318,-2516.700203,2451.505594
1298.926148,12361.439231,-2960.823768,2911.162892
1298.926477,11695.253884,-5477.523971,3600.648841
1298.926806,10732.986159,-6587.832884,3064.381992
1298.927135,8438.347739,-7328.038826,1532.190996
1298.927464,5773.606348,-8660.409521,383.047749
1298.927794,3997.112087,-8882.471304,306.438199
1298.928123,4145.153275,-10362.883188,0.000000
1298.928452,4737.318029,-9400.615463,612.876398
1298.928781,4441.235652,-8660.409521,153.219100
1298.929110,4219.173869,-7105.977043,153.219100
1298.929439,4737.318029,-5329.482782,0.000000
1298.929769,5773.606348,-4811.338623,229.828649
1298.930098,6661.853478,-3997.112087,1072.533697
1298.930427,8660.409521,-3552.988522,995.924147
1298.930756,10732.986159,-2812.782580,1838.629195
1298.931085,11029.068536,-3923.091493,2834.553343
1298.931414,10955.047942,-5773.606348,2911.162892
1298.931744,10362.883188,-6735.874072,2987.772442
1298.932073,7624.121203,-7550.100608,1838.629195
1298.932402,5551.544565,-8290.306550,842.705048
1298.932731,4145.153275,-9474.636058,0.000000
1298.933060,2960.823768,-10362.883188,-153.219100
1298.933389,2738.761985,-10436.903782,-383.047749
1298.933719,3108.864956,-9918.759623,0.000000
1298.934048,3997.112087,-7550.100608,0.000000
1298.934377,4737.318029,-6661.853478,76.609550
1298.934706,5625.565159,-5181.441594,383.047749
1298.935035,7402.059420,-4071.132681,612.876398
1298.935365,9474.636058,-3108.864956,1378.971896
1298.935694,10881.027347,-2664.741391,2298.286494
1298.936023,11621.233289,-3627.009116,3064.381992
1298.936352,11399.171507,-4737.318029,2834.553343
1298.936681,9918.759623,-6809.894666,2757.943793
1298.937010,8068.244768,-7550.100608,2068.457845
1298.937340,6735.874072,-8216.285956,1455.581446
1298.937669,4885.359217,-8290.306550,0.000000
1298.937998,4145.153275,-8956.491898,-536.266849
1298.938327,3701.029710,-9474.636058,-229.828649
1298.938656,4441.235652,-8512.368333,153.219100
1298.938985,4811.338623,-7105.977043,612.876398
1298.939315,4959.379811,-6143.709319,383.047749
1298.939644,5329.482782,-4071.132681,-76.609550
1298.939973,6365.771101,-4219.173869,0.000000
1298.940302,8142.265362,-4145.153275,1225.752797
1298.940631,10214.842000,-3775.050304,2068.457845
1298.940960,11473.192101,-4071.132681,2528.115143
1298.941290,10881.027347,-4737.318029,3447.429741
1298.941619,9844.739029,-6661.853478,3140.991542
1298.941948,7698.141797,-7254.018232,2528.115143
1298.942277,5995.668130,-8290.306550,1455.581446
1298.942606,4737.318029,-9474.636058,0.000000
1298.942935,3775.050304,-9696.697840,-766.095498
1298.943265,3034.844362,-10214.842000,-229.828649
1298.943594,3478.967927,-10288.862594,459.657299
1298.943923,4219.173869,-8882.471304,229.828649
1298.944252,4515.256246,-6587.832884,0.000000
1298.944581,5477.523971,-5107.421000,0.000000
1298.944910,6957.935855,-4219.173869,612.876398
1298.945240,9104.533087,-2886.803174,1225.752797
1298.945569,10214.842000,-2738.761985,1532.190996
1298.945898,11547.212695,-2516.700203,2221.676944
1298.946227,11547.212695,-4071.132681,2911.162892
1298.946556,10881.027347,-6069.688724,3217.601092
1298.946885,9548.656652,-6661.853478,2834.553343
1298.947214,7550.100608,-7994.224174,1455.581446
1298.947543,5995.668130,-8290.306550,153.219100
1298.947873,4441.235652,-9104.533087,0.000000
1298.948202,4663.297435,-9918.759623,0.000000
1298.948531,4663.297435,-8882.471304,229.828649
1298.948860,4145.153275,-7994.224174,0.000000
1298.949189,4441.235652,-6661.853478,0.000000
1298.949518,4885.359217,-5551.544565,153.219100
1298.949847,5995.668130,-5403.503377,306.438199
1298.950176,7254.018232,-4441.235652,919.314598
1298.950505,8438.347739,-3478.967927,1532.190996
1298.950835,9918.759623,-3330.926739,1762.019645
1298.951164,11103.089130,-4737.318029,3064.381992
1298.951493,11029.068536,-5921.647536,3524.039291
1298.951822,9474.636058,-6513.812290,2528.115143
1298.952151,7846.182985,-7031.956449,1915.238745
1298.952480,6809.894666,-8142.265362,919.314598
1298.952809,4737.318029,-9030.512492,229.828649
1298.953138,3849.070898,-10214.842000,0.000000
1298.953468,3478.967927,-10732.986159,0.000000
1298.953797,3108.864956,-9918.759623,-229.828649
1298.954126,3478.967927,-8364.327145,-229.828649
1298.954455,4071.132681,-6291.750507,-536.266849
1298.954784,5329.482782,-5033.400406,0.000000
1298.955113,7105.977043,-4145.153275,536.266849
1298.955442,9178.553681,-3182.885551,1608.800546
1298.955771,11325.150913,-2664.741391,2451.505594
1298.956100,11695.253884,-3182.885551,2911.162892
1298.956430,11029.068536,-5329.482782,2987.772442
1298.956759,9622.677246,-6513.812290,2911.162892
1298.957088,7846.182985,-7624.121203,2528.115143
1298.957417,6513.812290,-7698.141797,1149.143247
1298.957746,5107.421000,-7994.224174,459.657299
1298.958075,4589.276840,-9400.615463,-306.438199
1298.958404,4811.338623,-9178.553681,459.657299
1298.958733,5551.544565,-8512.368333,306.438199
1298.959063,5033.400406,-7031.956449,0.000000
1298.959392,5033.400406,-5329.482782,0.000000
1298.959721,5329.482782,-4663.297435,-306.438199
1298.960050,6735.874072,-4515.256246,0.000000
1298.960379,8290.306550,-3404.947333,1072.533697
1298.960708,10066.800811,-3552.988522,2145.067394
1298.961037,11843.295072,-3478.967927,2834.553343
1298.961366,11473.192101,-4367.215058,3600.648841
1298.961695,10881.027347,-4811.338623,3907.087040
1298.962025,9474.636058,-6291.750507,2911.162892
1298.962354,7328.038826,-7846.182985,2221.676944
1298.962683,4959.379811,-9252.574275,1072.533697
1298.963012,3552.988522,-9844.739029,0.000000
1298.963341,2294.638420,-10658.965565,-383.047749
1298.963670,1628.453072,-10584.944971,-1378.971896
1298.963999,2294.638420,-9104.533087,-1072.533697
1298.964328,3552.988522,-7254.018232,-536.266849
1298.964658,5847.626942,-5995.668130,229.828649
1298.964987,7328.038826,-5033.400406,1072.533697
1298.965316,9178.553681,-3997.112087,1225.752797
1298.965645,11177.109724,-3182.885551,1991.848295
1298.965974,11843.295072,-2886.803174,2374.896044
1298.966303,11399.171507,-3775.050304,2911.162892
1298.966632,10362.883188,-5699.585753,3294.210641
1298.966961,9178.553681,-6957.935855,3140.991542
1298.967290,7328.038826,-8216.285956,1685.410096
1298.967620,5477.523971,-8438.347739,459.657299
1298.967949,3627.009116,-9400.615463,0.000000
1298.968278,3182.885551,-10362.883188,-459.657299
1298.968607,2960.823768,-9548.656652,-306.438199
1298.968936,3108.864956,-8068.244768,-995.924147
1298.969265,3923.091493,-6883.915261,-689.485948
1298.969594,4811.338623,-6069.688724,229.828649
1298.969923,6735.874072,-5773.606348,536.266849
1298.970253,8068.244768,-4071.132681,459.657299
1298.970582,9622.677246,-2738.761985,1149.143247
1298.970911,11547.212695,-3256.906145,1838.629195
1298.971240,11695.253884,-3775.050304,3140.991542
1298.971569,10955.047942,-5181.441594,4136.915689
1298.971898,9844.739029,-5921.647536,3140.991542
1298.972227,7920.203579,-6661.853478,1455.581446
1298.972556,5255.462188,-8364.327145,995.924147
1298.972885,4219.173869,-9844.739029,0.000000
1298.973215,3182.885551,-10362.883188,-612.876398
1298.973544,2886.803174,-10584.944971,-536.266849
1298.973873,3108.864956,-9178.553681,76.609550
1298.974202,3997.112087,-7476.080014,-383.047749
1298.974531,5033.400406,-6143.709319,0.000000
1298.974860,6439.791695,-4663.297435,0.000000
1298.975189,8068.244768,-3775.050304,995.924147
1298.975518,10140.821405,-3627.009116,1762.019645
1298.975848,11473.192101,-2442.679609,2451.505594
1298.976177,11917.315666,-2812.782580,3140.991542
1298.976506,11251.130318,-4589.276840,3677.258390
1298.976835,10140.821405,-5921.647536,3983.696590
1298.977164,7624.121203,-7328.038826,2221.676944
1298.977493,5329.482782,-7772.162391,766.095498
1298.977822,4589.276840,-8586.388927,459.657299
1298.978151,3627.009116,-10066.800811,0.000000
1298.978480,3478.967927,-10214.842000,306.438199
1298.978810,3552.988522,-9178.553681,-229.828649
1298.979139,4145.153275,-7476.080014,-995.924147
1298.979468,4811.338623,-5921.647536,-536.266849
1298.979797,6217.729913,-5403.503377,459.657299
1298.980126,7772.162391,-5329.482782,536.266849
1298.980455,8882.471304,-3552.988522,1302.362347
1298.980784,10288.862594,-3034.844362,1455.581446
1298.981113,11399.171507,-3256.906145,2757.943793
1298.981443,11029.068536,-4589.276840,3294.210641
1298.981772,9918.759623,-5847.626942,2987.772442
1298.982101,8142.265362,-7328.038826,2451.505594
1298.982430,6735.874072,-8290.306550,1532.190996
1298.982759,5033.400406,-8660.409521,1072.533697
1298.983088,4441.235652,-9918.759623,-536.266849
1298.983417,3256.906145,-9696.697840,-536.266849
1298.983746,2960.823768,-9770.718434,-842.705048
1298.984075,3108.864956,-8512.368333,-842.705048
1298.984405,4441.235652,-6587.832884,76.609550
1298.984734,5921.647536,-5921.647536,229.828649
1298.985063,7105.977043,-4515.256246,459.657299
1298.985392,8660.409521,-2960.823768,459.657299
1298.985721,10362.883188,-2516.700203,1838.629195
1298.986050,11621.233289,-3182.885551,3064.381992
1298.986379,11177.109724,-5477.523971,3064.381992
1298.986708,9992.780217,-5847.626942,3524.039291
1298.987038,8142.265362,-7179.997637,2068.457845
1298.987367,6587.832884,-8364.327145,1608.800546
1298.987696,5033.400406,-8808.450710,536.266849
1298.988025,4293.194464,-9252.574275,-383.047749
1298.988354,4071.132681,-9178.553681,0.000000
1298.988683,4367.215058,-8734.430116,-229.828649
1298.989012,4441.235652,-7624.121203,0.000000
1298.989341,4663.297435,-6439.791695,-153.219100
1298.989670,5403.503377,-5477.523971,306.438199
1298.990000,6883.915261,-4737.318029,0.000000
1298.990329,8216.285956,-3552.988522,1455.581446
1298.990658,9992.780217,-2812.782580,1685.410096
1298.990987,11621.233289,-3256.906145,2451.505594
1298.991316,11621.233289,-4219.173869,3140.991542
1298.991645,10436.903782,-5329.482782,3524.039291
1298.991974,9030.512492,-6883.915261,2451.505594
1298.992303,7105.977043,-7698.141797,2145.067394
1298.992633,5107.421000,-9252.574275,689.485948
1298.992962,3775.050304,-10214.842000,-229.828649
1298.993291,3552.988522,-11029.068536,-153.219100
1298.993620,3404.947333,-10510.924376,0.000000
1298.993949,3849.070898,-8512.368333,-383.047749
1298.994278,4071.132681,-7031.956449,-689.485948
1298.994607,5107.421000,-5921.647536,-306.438199
1298.994936,6291.750507,-5181.441594,0.000000
1298.995265,7772.162391,-4441.235652,536.266849
1298.995595,10140.821405,-3182.885551,919.314598
1298.995924,11325.150913,-2590.720797,2374.896044
1298.996253,11399.171507,-4293.194464,2911.162892
1298.996582,10881.027347,-5773.606348,3907.087040
1298.996911,9474.636058,-6735.874072,2987.772442
1298.997240,7994.224174,-7402.059420,1915.238745
1298.997569,6439.791695,-7402.059420,1149.143247
1298.997898,5181.441594,-8882.471304,995.924147
1298.998228,4293.194464,-9622.677246,0.000000
1298.998557,3849.070898,-8956.491898,-153.219100
1298.998886,4071.132681,-8068.244768,-229.828649
1298.999215,4589.276840,-7328.038826,-306.438199
1298.999544,5403.503377,-6291.750507,0.000000
1298.999873,5921.647536,-5551.544565,0.000000
1299.000202,6735.874072,-4811.338623,0.000000
1299.000531,8290.306550,-3849.070898,919.314598
1299.000860,9992.780217,-3923.091493,1838.629195
1299.001190,11547.212695,-4293.194464,3064.381992
1299.001519,10881.027347,-5403.503377,4060.306139
1299.001848,10288.862594,-6143.709319,2987.772442
1299.002177,8290.306550,-6809.894666,1915.238745
1299.002506,5625.565159,-7920.203579,612.876398
1299.002835,4441.235652,-9178.553681,-306.438199
1299.003164,3775.050304,-9622.677246,-459.657299
1299.003493,4219.173869,-10732.986159,0.000000
1299.003823,4145.153275,-9400.615463,536.266849
1299.004152,4811.338623,-7772.162391,0.000000
1299.004481,4515.256246,-6513.812290,-536.266849
1299.004810,5625.565159,-4515.256246,-306.438199
1299.005139,7476.080014,-4219.173869,536.266849
1299.005468,9844.739029,-3330.926739,1072.533697
1299.005797,11251.130318,-2516.700203,2451.505594
1299.006126,11917.315666,-2960.823768,3217.601092
1299.006455,11547.212695,-4293.194464,3140.991542
1299.006785,10066.800811,-6217.729913,2987.772442
1299.007114,9030.512492,-7772.162391,2068.457845
1299.007443,6217.729913,-8142.265362,1149.143247
1299.007772,4811.338623,-8882.471304,0.000000
1299.008101,3775.050304,-9474.636058,-383.047749
1299.008430,3627.009116,-10658.965565,0.000000
1299.008759,4293.194464,-9030.512492,-153.219100
1299.009088,4441.235652,-7772.162391,-536.266849
1299.009418,4071.132681,-6439.791695,-612.876398
1299.009747,5477.523971,-5033.400406,-306.438199
1299.010076,6883.915261,-5107.421000,689.485948
1299.010405,8586.388927,-4145.153275,995.924147
1299.010734,9992.780217,-3478.967927,1762.019645
1299.011063,11177.109724,-3182.885551,2528.115143
1299.011392,11103.089130,-4737.318029,3140.991542
1299.011721,10362.883188,-5625.565159,3370.820191
1299.012050,9474.636058,-6069.688724,2451.505594
1299.012380,7328.038826,-7698.141797,1608.800546
1299.012709,5181.441594,-8290.306550,536.266849
1299.013038,3256.906145,-9622.677246,-306.438199
1299.013367,2960.823768,-10362.883188,-766.095498
1299.013696,2738.761985,-10362.883188,-306.438199
1299.014025,3256.906145,-9030.512492,0.000000
1299.014354,4293.194464,-7105.977043,-229.828649
1299.014683,5329.482782,-5107.421000,383.047749
1299.015013,7105.977043,-3923.091493,919.314598
1299.015342,8808.450710,-3330.926739,995.924147
1299.015671,10214.842000,-2738.761985,1762.019645
1299.016000,10881.027347,-2738.761985,2528.115143
1299.016329,10955.047942,-4589.276840,2834.553343
1299.016658,10732.986159,-5551.544565,3217.601092
1299.016987,9104.533087,-7254.018232,2451.505594
1299.017316,7105.977043,-7994.224174,1532.190996
1299.017645,6883.915261,-8512.368333,536.266849
1299.017975,5181.441594,-8660.409521,383.047749
1299.018304,4145.153275,-9252.574275,0.000000
1299.018633,3330.926739,-9474.636058,0.000000
1299.018962,3330.926739,-7920.203579,-306.438199
1299.019291,3701.029710,-7402.059420,-612.876398
1299.019620,4663.297435,-6069.688724,0.000000
1299.019949,5995.668130,-4811.338623,153.219100
1299.020278,7994.224174,-4811.338623,919.314598
1299.020607,9696.697840,-2960.823768,2221.676944
1299.020937,11547.212695,-2960.823768,2757.943793
1299.021266,11621.233289,-3849.070898,3524.039291
1299.021595,10436.903782,-5995.668130,3524.039291
1299.021924,9030.512492,-7254.018232,2374.896044
1299.022253,6587.832884,-8068.244768,1608.800546
1299.022582,4885.359217,-9474.636058,229.828649
1299.022911,3997.112087,-10436.903782,0.000000
1299.023240,3256.906145,-11251.130318,-306.438199
1299.023570,3034.844362,-11547.212695,153.219100
1299.023899,3034.844362,-8586.388927,-612.876398
1299.024228,3627.009116,-6661.853478,-536.266849
1299.024557,5107.421000,-5255.462188,0.000000
1299.024886,7179.997637,-3701.029710,612.876398
1299.025215,9326.594869,-2442.679609,995.924147
1299.025544,10955.047942,-2072.576638,1685.410096
1299.025873,11917.315666,-2072.576638,2528.115143
1299.026202,12065.356855,-3330.926739,3064.381992
1299.026532,10955.047942,-5551.544565,2987.772442
1299.026861,9622.677246,-5995.668130,2145.067394
1299.027190,7402.059420,-7476.080014,1302.362347
1299.027519,5921.647536,-8734.430116,612.876398
1299.027848,4515.256246,-9252.574275,0.000000
1299.028177,3330.926739,-9918.759623,-766.095498
1299.028506,3108.864956,-10140.821405,-383.047749
1299.028835,3478.967927,-9400.615463,-536.266849
1299.029165,3404.947333,-7772.162391,-383.047749
1299.029494,4663.297435,-5699.585753,-383.047749
1299.029823,6217.729913,-4663.297435,612.876398
1299.030152,8512.368333,-4145.153275,1072.533697
1299.030481,10288.862594,-2960.823768,1991.848295
1299.030810,11547.212695,-2590.720797,2221.676944
1299.031139,12435.459826,-3404.947333,2451.505594
1299.031468,11251.130318,-4811.338623,3217.601092
1299.031797,10214.842000,-6735.874072,2451.505594
1299.032127,8438.347739,-7994.224174,1302.362347
1299.032456,6513.812290,-8808.450710,766.095498
1299.032785,4219.173869,-9844.739029,383.047749
1299.033114,3256.906145,-10436.903782,-383.047749
1299.033443,2886.803174,-10436.903782,-383.047749
1299.033772,2812.782580,-9696.697840,-153.219100
1299.034101,3404.947333,-7994.224174,-383.047749
1299.034430,4441.235652,-5699.585753,-229.828649
1299.034760,6365.771101,-4959.379811,536.266849
1299.035089,8660.409521,-3478.967927,1302.362347
1299.035418,10881.027347,-2146.597232,2068.457845
1299.035747,12287.418637,-2072.576638,3447.429741
1299.036076,12509.480420,-2220.617826,3830.477490
1299.036405,11621.233289,-4663.297435,3370.820191
1299.036734,9622.677246,-5847.626942,2987.772442
1299.037063,7328.038826,-7772.162391,1608.800546
1299.037392,5773.606348,-8734.430116,229.828649
1299.037722,3627.009116,-9178.553681,76.609550
1299.038051,2442.679609,-11029.068536,-536.266849
1299.038380,2516.700203,-10881.027347,0.000000
1299.038709,2590.720797,-8882.471304,-306.438199
1299.039038,3404.947333,-8734.430116,-459.657299
1299.039367,4145.153275,-6143.709319,-383.047749
1299.039696,5773.606348,-5255.462188,76.609550
1299.040025,7846.182985,-4811.338623,1072.533697
1299.040355,9474.636058,-2960.823768,2221.676944
1299.040684,11399.171507,-2664.741391,2298.286494
1299.041013,12583.501014,-2590.720797,2911.162892
1299.041342,11843.295072,-4515.256246,3447.429741
1299.041671,10510.924376,-5921.647536,3983.696590
1299.042000,8364.327145,-6661.853478,2068.457845
1299.042329,5551.544565,-8216.285956,842.705048
1299.042658,3552.988522,-9474.636058,0.000000
1299.042987,2516.700203,-11251.130318,-536.266849
1299.043317,2146.597232,-11473.192101,0.000000
1299.043646,1998.556043,-10732.986159,-383.047749
1299.043975,2886.803174,-9474.636058,0.000000
1299.044304,4219.173869,-7179.997637,-383.047749
1299.044633,5625.565159,-5403.503377,0.000000
1299.044962,8142.265362,-3775.050304,842.705048
1299.045292,10362.883188,-2738.761985,1532.190996
1299.045621,12139.377449,-1702.473667,1991.848295
1299.045950,12657.521608,-2368.659014,2681.334243
1299.046279,12287.418637,-3552.988522,3370.820191
1299.046608,11251.130318,-5329.482782,3370.820191
1299.046937,8882.471304,-6587.832884,2068.457845
1299.047266,6365.771101,-7994.224174,1302.362347
1299.047596,4515.256246,-8882.471304,153.219100
1299.047925,3256.906145,-9474.636058,-612.876398
1299.048254,3256.906145,-10807.006753,-536.266849
1299.048583,2960.823768,-9992.780217,0.000000
1299.048912,2812.782580,-9252.574275,-612.876398
1299.049241,2960.823768,-7994.224174,-536.266849
1299.049571,4589.276840,-6217.729913,0.000000
1299.049900,6661.853478,-5477.523971,766.095498
1299.050229,9104.533087,-3849.070898,1915.238745
1299.050558,10807.006753,-2368.659014,2604.724693
1299.050887,12213.398043,-1850.514855,3294.210641
1299.051216,11991.336260,-2738.761985,3064.381992
1299.051546,10881.027347,-5477.523971,3600.648841
1299.051875,9548.656652,-5921.647536,2374.896044
1299.052204,7105.977043,-7402.059420,1762.019645
1299.052533,4737.318029,-8586.388927,0.000000
1299.052862,2886.803174,-9992.780217,-306.438199
1299.053191,2368.659014,-10881.027347,-919.314598
1299.053521,2664.741391,-10732.986159,-1378.971896
1299.053850,3404.947333,-9326.594869,0.000000
1299.054179,4293.194464,-7994.224174,-536.266849
1299.054508,5033.400406,-6069.688724,-306.438199
1299.054837,6513.812290,-4737.318029,612.876398
1299.055166,9030.512492,-2960.823768,919.314598
1299.055495,11547.212695,-1998.556043,1302.362347
1299.055825,12435.459826,-1332.370696,2834.553343
1299.056154,13027.624579,-2812.782580,3677.258390
1299.056483,12065.356855,-4441.235652,3370.820191
1299.056812,9844.739029,-5921.647536,2681.334243
1299.057141,7550.100608,-7402.059420,1072.533697
1299.057470,5773.606348,-8586.388927,766.095498
1299.057800,3775.050304,-9770.718434,0.000000
1299.058129,3256.906145,-10881.027347,-459.657299
1299.058458,2886.803174,-10362.883188,-612.876398
1299.058787,3108.864956,-9622.677246,-689.485948
1299.059116,3552.988522,-9178.553681,-459.657299
1299.059445,4737.318029,-6809.894666,0.000000
1299.059775,5921.647536,-5699.585753,0.000000
1299.060104,7994.224174,-3552.988522,459.657299
1299.060433,9844.739029,-2812.782580,1762.019645
1299.060762,11769.274478,-2960.823768,1685.410096
1299.061091,12139.377449,-3552.988522,2987.772442
1299.061420,11473.192101,-4737.318029,3064.381992
1299.061750,10362.883188,-5847.626942,3294.210641
1299.062079,8512.368333,-7105.977043,2068.457845
1299.062408,6217.729913,-8068.244768,1225.752797
1299.062737,4219.173869,-9474.636058,0.000000
1299.063066,3923.091493,-9844.739029,-612.876398
1299.063395,3108.864956,-10214.842000,-612.876398
1299.063724,2886.803174,-9844.739029,-612.876398
1299.064054,3627.009116,-8586.388927,-153.219100
1299.064383,4589.276840,-7179.997637,76.609550
1299.064712,5551.544565,-5403.503377,153.219100
1299.065041,7624.121203,-3701.029710,1302.362347
1299.065370,9992.780217,-3108.864956,1532.190996
1299.065699,11251.130318,-2072.576638,2145.067394
1299.066029,11399.171507,-3256.906145,2911.162892
1299.066358,11251.130318,-4811.338623,3064.381992
1299.066687,9548.656652,-6217.729913,3140.991542
1299.067016,7994.224174,-7402.059420,2221.676944
1299.067345,6439.791695,-8142.265362,1149.143247
1299.067674,4737.318029,-8438.347739,612.876398
1299.068004,3108.864956,-9696.697840,-536.266849
1299.068333,3404.947333,-10140.821405,-459.657299
1299.068662,3627.009116,-9178.553681,-306.438199
1299.068991,3552.988522,-7846.182985,229.828649
1299.069320,4737.318029,-6661.853478,0.000000
1299.069649,5625.565159,-5625.565159,306.438199
1299.069979,7179.997637,-4959.379811,842.705048
1299.070308,8512.368333,-3849.070898,1149.143247
1299.070637,9918.759623,-2442.679609,2528.115143
1299.070966,11325.150913,-2960.823768,2528.115143
1299.071295,10955.047942,-3997.112087,3370.820191
1299.071624,9992.780217,-5995.668130,3524.039291
1299.071954,8512.368333,-6513.812290,2298.286494
1299.072283,7031.956449,-7031.956449,1608.800546
1299.072612,5403.503377,-8586.388927,536.266849
1299.072941,3627.009116,-9474.636058,0.000000
1299.073270,3034.844362,-10288.862594,-459.657299
1299.073599,3923.091493,-10288.862594,-1302.362347
1299.073928,3923.091493,-8512.368333,-459.657299
1299.074258,4441.235652,-7254.018232,0.000000
1299.074587,5699.585753,-5773.606348,306.438199
1299.074916,7105.977043,-4663.297435,612.876398
1299.075245,9326.594869,-3330.926739,919.314598
1299.075574,10955.047942,-2294.638420,2145.067394
1299.075903,11769.274478,-2664.741391,2374.896044
1299.076233,11473.192101,-3849.070898,2451.505594
1299.076562,10362.883188,-5255.462188,2834.553343
1299.076891,8734.430116,-6735.874072,2068.457845
1299.077220,7105.977043,-8068.244768,1455.581446
1299.077549,5625.565159,-9030.512492,995.924147
1299.077878,4219.173869,-9548.656652,0.000000
1299.078208,3478.967927,-9918.759623,0.000000
1299.078537,3256.906145,-9992.780217,76.609550
1299.078866,3404.947333,-8734.430116,-536.266849
1299.079195,4145.153275,-7476.080014,-306.438199
1299.079524,5181.441594,-6217.729913,689.485948
1299.079853,6957.935855,-4737.318029,383.047749
1299.080183,7920.203579,-3997.112087,536.266849
1299.080512,9548.656652,-3256.906145,1608.800546
1299.080841,10881.027347,-2812.782580,1991.848295
1299.081170,11251.130318,-4367.215058,2374.896044
1299.081499,10510.924376,-6143.709319,3370.820191
1299.081828,9326.594869,-7179.997637,2528.115143
1299.082157,7920.203579,-7846.182985,2068.457845
1299.082487,5699.585753,-9178.553681,919.314598
1299.082816,4737.318029,-9548.656652,-306.438199
1299.083145,3849.070898,-9622.677246,-459.657299
1299.083474,2886.803174,-9548.656652,-1149.143247
1299.083803,3404.947333,-8956.491898,-383.047749
1299.084132,4367.215058,-7105.977043,-383.047749
1299.084462,5329.482782,-5847.626942,76.609550
1299.084791,6809.894666,-4293.194464,459.657299
1299.085120,8438.347739,-2960.823768,995.924147
1299.085449,10362.883188,-2664.741391,1991.848295
