#time,accel_x,accel_y,accel_z
1404.552294,7254.018232,-6661.853478,612.876398
1404.552624,7105.977043,-6957.935855,1302.362347
1404.552954,6883.915261,-6661.853478,1225.752797
1404.553284,7105.977043,-6661.853478,842.705048
1404.553614,7105.977043,-6143.709319,919.314598
1404.553945,7105.977043,-6291.750507,766.095498
1404.554275,6957.935855,-6217.729913,919.314598
1404.554605,7031.956449,-6439.791695,1072.533697
1404.554935,7105.977043,-6365.771101,842.705048
1404.555265,7105.977043,-6291.750507,842.705048
1404.555596,6587.832884,-6883.915261,1072.533697
1404.555926,6735.874072,-6587.832884,842.705048
1404.556256,6735.874072,-6439.791695,995.924147
1404.556586,6883.915261,-6661.853478,1225.752797
1404.556916,7031.956449,-6513.812290,842.705048
1404.557247,6957.935855,-6735.874072,1072.533697
1404.557577,7328.038826,-6883.915261,459.657299
1404.557907,6883.915261,-6587.832884,689.485948
1404.558237,6661.853478,-6587.832884,995.924147
1404.558567,6957.935855,-6883.915261,919.314598
1404.558897,7031.956449,-6735.874072,689.485948
1404.559228,7254.018232,-6365.771101,1072.533697
1404.559558,7105.977043,-6513.812290,689.485948
1404.559888,7031.956449,-6365.771101,842.705048
1404.560218,7105.977043,-6513.812290,995.924147
1404.560548,7476.080014,-6883.915261,1149.143247
1404.560879,7105.977043,-6069.688724,766.095498
1404.561209,7624.121203,-6143.709319,1378.971896
1404.561539,7328.038826,-5921.647536,995.924147
1404.561869,7105.977043,-6143.709319,1302.362347
1404.562199,7476.080014,-6143.709319,1532.190996
1404.562530,7105.977043,-6143.709319,995.924147
1404.562860,6957.935855,-6513.812290,995.924147
1404.563190,6439.791695,-6661.853478,1225.752797
1404.563520,6735.874072,-6587.832884,459.657299
1404.563850,6587.832884,-7031.956449,1149.143247
1404.564181,6513.812290,-6957.935855,842.705048
1404.564511,6513.812290,-7179.997637,919.314598
1404.564841,6661.853478,-6587.832884,1302.362347
1404.565171,6735.874072,-6957.935855,1072.533697
1404.565501,6735.874072,-6587.832884,766.095498
1404.565831,6957.935855,-6957.935855,1378.971896
1404.566162,7105.977043,-6587.832884,995.924147
1404.566492,7105.977043,-6587.832884,1378.971896
1404.566822,6957.935855,-5995.668130,1072.533697
1404.567152,6883.915261,-6809.894666,612.876398
1404.567482,6661.853478,-7031.956449,995.924147
1404.567813,6735.874072,-6735.874072,536.266849
1404.568143,7031.956449,-6587.832884,1225.752797
1404.568473,7105.977043,-5995.668130,919.314598
1404.568803,7031.956449,-6661.853478,919.314598
1404.569133,7105.977043,-6291.750507,1532.190996
1404.569464,7031.956449,-6587.832884,919.314598
1404.569794,7624.121203,-6439.791695,766.095498
1404.570124,7105.977043,-6291.750507,842.705048
1404.570454,7031.956449,-6291.750507,919.314598
1404.570784,6661.853478,-6439.791695,459.657299
1404.571115,6513.812290,-6735.874072,1225.752797
1404.571445,6809.894666,-6883.915261,459.657299
1404.571775,6883.915261,-7105.977043,689.485948
1404.572105,6587.832884,-6957.935855,1072.533697
1404.572435,6957.935855,-7031.956449,766.095498
1404.572766,7328.038826,-6809.894666,919.314598
1404.573096,6809.894666,-6439.791695,1072.533697
1404.573426,6883.915261,-6587.832884,689.485948
1404.573756,7179.997637,-6735.874072,1072.533697
1404.574086,7328.038826,-6439.791695,1072.533697
1404.574416,7550.100608,-6069.688724,1149.143247
1404.574747,7476.080014,-6217.729913,536.266849
1404.575077,7179.997637,-6439.791695,1149.143247
1404.575407,7105.977043,-6365.771101,1149.143247
1404.575737,7254.018232,-5921.647536,842.705048
1404.576067,7105.977043,-6365.771101,766.095498
1404.576398,7105.977043,-6365.771101,919.314598
1404.576728,6957.935855,-6587.832884,1072.533697
1404.577058,7031.956449,-6513.812290,919.314598
1404.577388,6809.894666,-5921.647536,1762.019645
1404.577718,7031.956449,-6143.709319,1455.581446
1404.578049,6513.812290,-6439.791695,1225.752797
1404.578379,6957.935855,-6661.853478,1149.143247
1404.578709,6957.935855,-6365.771101,1149.143247
1404.579039,6883.915261,-6809.894666,1149.143247
1404.579369,6661.853478,-6883.915261,1072.533697
1404.579700,6735.874072,-7031.956449,1149.143247
1404.580030,6439.791695,-7105.977043,842.705048
1404.580360,6735.874072,-6291.750507,1608.800546
1404.580690,6365.771101,-7179.997637,995.924147
1404.581020,7105.977043,-7105.977043,919.314598
1404.581350,7105.977043,-6587.832884,1378.971896
1404.581681,7105.977043,-6661.853478,689.485948
1404.582011,7624.121203,-6661.853478,1072.533697
1404.582341,7179.997637,-6365.771101,995.924147
1404.582671,7105.977043,-6809.894666,689.485948
1404.583001,7179.997637,-6217.729913,1072.533697
1404.583332,7179.997637,-6069.688724,1455.581446
1404.583662,6957.935855,-6735.874072,919.314598
1404.583992,6957.935855,-6809.894666,1149.143247
1404.584322,6735.874072,-6809.894666,842.705048
1404.584652,6883.915261,-6587.832884,995.924147
1404.584983,7031.956449,-6291.750507,1455.581446
1404.585313,6809.894666,-6883.915261,995.924147
1404.585643,6957.935855,-6735.874072,1149.143247
1404.585973,7031.956449,-6365.771101,1225.752797
1404.586303,6735.874072,-5995.668130,536.266849
1404.586634,6809.894666,-7105.977043,919.314598
1404.586964,6587.832884,-6735.874072,995.924147
1404.587294,6735.874072,-6661.853478,536.266849
1404.587624,6735.874072,-6735.874072,919.314598
1404.587954,7031.956449,-6661.853478,1072.533697
1404.588284,7105.977043,-7031.956449,612.876398
1404.588615,7105.977043,-6735.874072,1455.581446
1404.588945,7328.038826,-6809.894666,612.876398
1404.589275,7328.038826,-6439.791695,689.485948
1404.589605,7624.121203,-6143.709319,689.485948
1404.589935,7179.997637,-6217.729913,919.314598
1404.590266,7254.018232,-6217.729913,919.314598
1404.590596,7476.080014,-5699.585753,766.095498
1404.590926,7624.121203,-5995.668130,1302.362347
1404.591256,7179.997637,-6217.729913,1302.362347
1404.591586,7105.977043,-6587.832884,1149.143247
1404.591917,7105.977043,-6217.729913,919.314598
1404.592247,6883.915261,-6365.771101,919.314598
1404.592577,6661.853478,-6439.791695,1072.533697
1404.592907,6883.915261,-6587.832884,1225.752797
1404.593237,6883.915261,-6957.935855,995.924147
1404.593568,6809.894666,-6735.874072,919.314598
1404.593898,6809.894666,-6735.874072,1072.533697
1404.594228,6809.894666,-6735.874072,1149.143247
1404.594558,6735.874072,-6883.915261,1149.143247
1404.594888,6439.791695,-6883.915261,1072.533697
1404.595219,6513.812290,-6809.894666,995.924147
1404.595549,6217.729913,-6439.791695,842.705048
1404.595879,6883.915261,-6809.894666,919.314598
1404.596209,6809.894666,-6587.832884,1149.143247
1404.596539,7105.977043,-6957.935855,995.924147
1404.596869,7624.121203,-6661.853478,995.924147
1404.597200,6809.894666,-6809.894666,1149.143247
1404.597530,7031.956449,-6513.812290,995.924147
1404.597860,7402.059420,-6143.709319,1302.362347
1404.598190,7105.977043,-6587.832884,1072.533697
1404.598520,7328.038826,-5921.647536,766.095498
1404.598851,7031.956449,-6143.709319,689.485948
1404.599181,6957.935855,-6587.832884,1072.533697
1404.599511,6661.853478,-6291.750507,1072.533697
1404.599841,6587.832884,-6365.771101,995.924147
1404.600171,6587.832884,-6365.771101,1378.971896
1404.600502,6809.894666,-6883.915261,766.095498
1404.600832,6809.894666,-6587.832884,1762.019645
1404.601162,7031.956449,-6513.812290,689.485948
1404.601492,7254.018232,-6957.935855,1378.971896
1404.601822,6809.894666,-6661.853478,1225.752797
1404.602153,6957.935855,-7105.977043,536.266849
1404.602483,6661.853478,-6587.832884,689.485948
1404.602813,6957.935855,-6809.894666,766.095498
1404.603143,7105.977043,-6513.812290,842.705048
1404.603473,7031.956449,-6217.729913,1072.533697
1404.603803,7179.997637,-6513.812290,842.705048
1404.604134,7328.038826,-6365.771101,919.314598
1404.604464,7105.977043,-6069.688724,1302.362347
1404.604794,7328.038826,-6291.750507,306.438199
1404.605124,7254.018232,-6291.750507,919.314598
1404.605454,7476.080014,-6217.729913,919.314598
1404.605785,7402.059420,-6143.709319,1378.971896
1404.606115,7254.018232,-5995.668130,1455.581446
1404.606445,7105.977043,-6291.750507,1149.143247
1404.606775,7105.977043,-6439.791695,1072.533697
1404.607105,6735.874072,-6587.832884,1149.143247
1404.607436,6661.853478,-6439.791695,1072.533697
1404.607766,6513.812290,-6513.812290,1455.581446
1404.608096,6735.874072,-6439.791695,1302.362347
1404.608426,6957.935855,-6661.853478,1149.143247
1404.608756,6809.894666,-6587.832884,1149.143247
1404.609087,6661.853478,-6439.791695,1532.190996
1404.609417,6957.935855,-6809.894666,536.266849
1404.609747,6661.853478,-6735.874072,919.314598
1404.610077,6587.832884,-6957.935855,995.924147
1404.610407,6957.935855,-6883.915261,766.095498
1404.610738,7179.997637,-6513.812290,1225.752797
1404.611068,7105.977043,-6883.915261,919.314598
1404.611398,6957.935855,-6735.874072,766.095498
1404.611728,6883.915261,-7031.956449,995.924147
1404.612058,6809.894666,-6883.915261,1225.752797
1404.612388,7105.977043,-6809.894666,1455.581446
1404.612719,7105.977043,-6217.729913,1225.752797
1404.613049,7105.977043,-6217.729913,995.924147
1404.613379,7105.977043,-6587.832884,1072.533697
1404.613709,7402.059420,-6735.874072,689.485948
1404.614039,7105.977043,-6217.729913,1149.143247
1404.614370,7031.956449,-6365.771101,1302.362347
1404.614700,6809.894666,-6587.832884,1378.971896
1404.615030,7105.977043,-6809.894666,1225.752797
1404.615360,6735.874072,-7105.977043,1378.971896
1404.615690,6587.832884,-6661.853478,1302.362347
1404.616021,6809.894666,-6513.812290,919.314598
1404.616350,6735.874072,-6735.874072,1149.143247
1404.616679,6365.771101,-6587.832884,1225.752797
1404.617009,6735.874072,-6809.894666,919.314598
1404.617338,6809.894666,-6587.832884,1072.533697
1404.617667,7105.977043,-7031.956449,689.485948
1404.617996,7179.997637,-6735.874072,1302.362347
1404.618326,7476.080014,-6439.791695,1532.190996
1404.618655,7179.997637,-6735.874072,612.876398
1404.618984,7328.038826,-6365.771101,1072.533697
1404.619314,7105.977043,-6365.771101,1149.143247
1404.619643,7550.100608,-6365.771101,1072.533697
1404.619972,7402.059420,-5699.585753,919.314598
1404.620302,7105.977043,-6365.771101,842.705048
1404.620631,7031.956449,-6217.729913,919.314598
1404.620960,7105.977043,-5921.647536,1225.752797
1404.621290,7105.977043,-5773.606348,1378.971896
1404.621619,7105.977043,-6365.771101,1225.752797
1404.621948,7105.977043,-5995.668130,995.924147
1404.622278,6883.915261,-6735.874072,842.705048
1404.622607,6809.894666,-6661.853478,995.924147
1404.622936,6957.935855,-6365.771101,1225.752797
1404.623266,6957.935855,-6735.874072,842.705048
1404.623595,6661.853478,-7031.956449,919.314598
1404.623924,6735.874072,-7031.956449,995.924147
1404.624254,6587.832884,-7179.997637,1302.362347
1404.624583,7254.018232,-6661.853478,1225.752797
1404.624912,6735.874072,-6661.853478,919.314598
1404.625242,7031.956449,-7105.977043,459.657299
1404.625571,7031.956449,-6217.729913,1838.629195
1404.625900,7179.997637,-6365.771101,689.485948
1404.626229,7105.977043,-6439.791695,1072.533697
1404.626559,6883.915261,-6513.812290,1072.533697
1404.626888,7105.977043,-6809.894666,842.705048
1404.627217,7328.038826,-6661.853478,842.705048
1404.627547,7179.997637,-6217.729913,1378.971896
1404.627876,6661.853478,-6291.750507,919.314598
1404.628205,6809.894666,-6735.874072,1302.362347
1404.628535,7031.956449,-6439.791695,689.485948
1404.628864,7254.018232,-6661.853478,995.924147
1404.629193,6661.853478,-6291.750507,995.924147
1404.629523,6809.894666,-6587.832884,995.924147
1404.629852,6957.935855,-6809.894666,1072.533697
1404.630181,6735.874072,-6587.832884,1225.752797
1404.630511,6735.874072,-6661.853478,995.924147
1404.630840,6661.853478,-6883.915261,919.314598
1404.631169,6587.832884,-7105.977043,1225.752797
1404.631499,7105.977043,-7105.977043,995.924147
1404.631828,7105.977043,-6587.832884,1302.362347
1404.632157,6809.894666,-6809.894666,1302.362347
1404.632487,7105.977043,-6883.915261,612.876398
1404.632816,7179.997637,-6809.894666,1225.752797
1404.633145,7105.977043,-6809.894666,1072.533697
1404.633475,7328.038826,-6291.750507,919.314598
1404.633804,7105.977043,-6513.812290,995.924147
1404.634133,7031.956449,-6291.750507,842.705048
1404.634462,7105.977043,-6069.688724,1378.971896
1404.634792,7624.121203,-5995.668130,1455.581446
1404.635121,7179.997637,-6439.791695,842.705048
1404.635450,7105.977043,-6365.771101,1072.533697
1404.635780,6883.915261,-6365.771101,1149.143247
1404.636109,6809.894666,-6291.750507,919.314598
1404.636438,6883.915261,-6143.709319,1225.752797
1404.636768,6883.915261,-6513.812290,1072.533697
1404.637097,6883.915261,-6735.874072,919.314598
1404.637426,6809.894666,-6513.812290,919.314598
1404.637756,6661.853478,-6587.832884,766.095498
1404.638085,6587.832884,-6513.812290,995.924147
1404.638414,6809.894666,-6883.915261,1072.533697
1404.638744,6587.832884,-7105.977043,1072.533697
1404.639073,6661.853478,-6883.915261,1225.752797
1404.639402,6809.894666,-6735.874072,459.657299
1404.639732,6883.915261,-6957.935855,919.314598
1404.640061,7105.977043,-6661.853478,995.924147
1404.640390,7105.977043,-6365.771101,1149.143247
1404.640720,7105.977043,-6735.874072,842.705048
1404.641049,7698.141797,-7105.977043,689.485948
1404.641378,7105.977043,-6809.894666,536.266849
1404.641708,7031.956449,-6587.832884,766.095498
1404.642037,7328.038826,-6365.771101,1149.143247
1404.642366,7105.977043,-6143.709319,1378.971896
1404.642695,7105.977043,-6735.874072,1302.362347
1404.643025,6809.894666,-6735.874072,1149.143247
1404.643354,6957.935855,-6661.853478,995.924147
1404.643683,6883.915261,-6291.750507,1072.533697
1404.644013,6883.915261,-6439.791695,1149.143247
1404.644342,6735.874072,-6587.832884,919.314598
1404.644671,7031.956449,-6883.915261,1532.190996
1404.645001,7328.038826,-6661.853478,995.924147
1404.645330,7105.977043,-6809.894666,612.876398
1404.645659,6735.874072,-6883.915261,1225.752797
1404.645989,6661.853478,-6883.915261,1072.533697
1404.646318,6513.812290,-7105.977043,766.095498
1404.646647,6735.874072,-6587.832884,919.314598
1404.646977,6883.915261,-6587.832884,1072.533697
1404.647306,7105.977043,-6809.894666,995.924147
1404.647635,7254.018232,-6291.750507,1149.143247
1404.647965,6883.915261,-6365.771101,1072.533697
1404.648294,7105.977043,-6217.729913,689.485948
1404.648623,6957.935855,-6291.750507,1225.752797
1404.648953,7105.977043,-6513.812290,1225.752797
1404.649282,7328.038826,-6439.791695,1225.752797
1404.649611,7476.080014,-6069.688724,1149.143247
1404.649941,7031.956449,-5995.668130,1072.533697
1404.650270,6883.915261,-6439.791695,995.924147
1404.650599,6883.915261,-6365.771101,689.485948
1404.650928,7031.956449,-6217.729913,766.095498
1404.651258,6661.853478,-6365.771101,1072.533697
1404.651587,6661.853478,-5773.606348,689.485948
1404.651916,6957.935855,-6661.853478,1149.143247
1404.652246,6957.935855,-6513.812290,1149.143247
1404.652575,6513.812290,-6735.874072,536.266849
1404.652904,6513.812290,-7105.977043,1072.533697
1404.653234,6661.853478,-6809.894666,1915.238745
1404.653563,7105.977043,-6957.935855,536.266849
1404.653892,6957.935855,-7031.956449,1149.143247
1404.654222,7031.956449,-7105.977043,1378.971896
1404.654551,7105.977043,-6661.853478,766.095498
1404.654880,7179.997637,-6513.812290,995.924147
1404.655210,6957.935855,-6735.874072,689.485948
1404.655539,7105.977043,-6365.771101,842.705048
1404.655868,7105.977043,-6735.874072,842.705048
1404.656198,6957.935855,-6069.688724,919.314598
1404.656527,6883.915261,-6291.750507,1149.143247
1404.656856,7402.059420,-6069.688724,1149.143247
1404.657186,7179.997637,-6217.729913,1302.362347
1404.657515,7105.977043,-6217.729913,995.924147
1404.657844,7179.997637,-6365.771101,1225.752797
1404.658174,7476.080014,-6587.832884,1225.752797
1404.658503,7105.977043,-6217.729913,919.314598
1404.658832,6661.853478,-6661.853478,919.314598
1404.659161,6809.894666,-6661.853478,1225.752797
1404.659491,6735.874072,-6661.853478,1302.362347
1404.659820,6587.832884,-6513.812290,1072.533697
1404.660149,6661.853478,-6587.832884,919.314598
1404.660479,6661.853478,-6291.750507,1455.581446
1404.660808,7031.956449,-7179.997637,766.095498
1404.661137,6883.915261,-6587.832884,995.924147
1404.661467,6735.874072,-6735.874072,1225.752797
1404.661796,7328.038826,-6735.874072,1225.752797
1404.662125,7105.977043,-5921.647536,1072.533697
1404.662455,7105.977043,-6365.771101,919.314598
1404.662784,7179.997637,-6587.832884,1225.752797
1404.663113,7105.977043,-6513.812290,842.705048
1404.663443,7105.977043,-6439.791695,612.876398
1404.663772,6883.915261,-6291.750507,1685.410096
1404.664101,7105.977043,-5699.585753,1149.143247
1404.664431,7105.977043,-6735.874072,1072.533697
1404.664760,7105.977043,-6439.791695,1072.533697
1404.665089,6957.935855,-6217.729913,1532.190996
1404.665419,7105.977043,-6291.750507,995.924147
1404.665748,6957.935855,-6661.853478,919.314598
1404.666077,6809.894666,-6439.791695,842.705048
1404.666407,6661.853478,-6957.935855,995.924147
1404.666736,7105.977043,-6439.791695,1455.581446
1404.667065,7328.038826,-5329.482782,1149.143247
1404.667394,7179.997637,-5921.647536,995.924147
1404.667724,7624.121203,-5625.565159,1302.362347
1404.668053,7698.141797,-6143.709319,1302.362347
1404.668382,7550.100608,-6809.894666,689.485948
1404.668712,6217.729913,-6439.791695,306.438199
1404.669041,5403.503377,-7846.182985,76.609550
1404.669370,6217.729913,-7031.956449,459.657299
1404.669700,7920.203579,-6809.894666,1149.143247
1404.670029,8216.285956,-6365.771101,1225.752797
1404.670358,8364.327145,-5551.544565,1455.581446
1404.670688,8364.327145,-4811.338623,1302.362347
1404.671017,8216.285956,-4811.338623,995.924147
1404.671346,8290.306550,-4737.318029,1378.971896
1404.671676,8734.430116,-4071.132681,919.314598
1404.672005,8956.491898,-4811.338623,1072.533697
1404.672334,8586.388927,-4811.338623,1455.581446
1404.672664,8290.306550,-4885.359217,842.705048
1404.672993,7994.224174,-5477.523971,689.485948
1404.673322,7994.224174,-4663.297435,229.828649
1404.673652,8364.327145,-6143.709319,612.876398
1404.673981,8660.409521,-6069.688724,1072.533697
1404.674310,7994.224174,-5329.482782,1378.971896
1404.674640,7772.162391,-5773.606348,306.438199
1404.674969,7402.059420,-5255.462188,1149.143247
1404.675298,8068.244768,-5033.400406,919.314598
1404.675627,8586.388927,-4367.215058,1225.752797
1404.675957,8734.430116,-4663.297435,995.924147
1404.676286,8808.450710,-3849.070898,1455.581446
1404.676615,9400.615463,-3182.885551,919.314598
1404.676945,9770.718434,-3256.906145,1532.190996
1404.677274,9992.780217,-2220.617826,1225.752797
1404.677603,10140.821405,-3256.906145,1225.752797
1404.677933,10288.862594,-3923.091493,1532.190996
1404.678262,9696.697840,-3404.947333,995.924147
1404.678591,9548.656652,-4293.194464,1378.971896
1404.678921,10288.862594,-3627.009116,1378.971896
1404.679250,9030.512492,-5625.565159,1378.971896
1404.679579,8512.368333,-5033.400406,1149.143247
1404.679909,7846.182985,-5551.544565,766.095498
1404.680238,8364.327145,-4885.359217,1378.971896
1404.680567,7994.224174,-4737.318029,995.924147
1404.680897,8068.244768,-5107.421000,1608.800546
1404.681226,8142.265362,-4811.338623,766.095498
1404.681555,7994.224174,-5329.482782,612.876398
1404.681885,7920.203579,-5033.400406,689.485948
1404.682214,8142.265362,-5477.523971,153.219100
1404.682543,9030.512492,-4737.318029,536.266849
1404.682873,9326.594869,-4811.338623,612.876398
1404.683202,9326.594869,-4737.318029,536.266849
1404.683531,9474.636058,-3923.091493,306.438199
1404.683860,9770.718434,-4219.173869,689.485948
1404.684190,9918.759623,-3849.070898,1072.533697
1404.684519,9474.636058,-4367.215058,1149.143247
1404.684848,9178.553681,-3775.050304,1149.143247
1404.685178,8512.368333,-4515.256246,1225.752797
1404.685507,8512.368333,-4367.215058,1455.581446
1404.685836,8734.430116,-4663.297435,1915.238745
1404.686166,9104.533087,-3404.947333,1915.238745
1404.686495,9400.615463,-3034.844362,1762.019645
1404.686824,8882.471304,-3627.009116,995.924147
1404.687154,9030.512492,-4367.215058,766.095498
1404.687483,9252.574275,-3923.091493,536.266849
1404.687812,9400.615463,-4589.276840,229.828649
1404.688142,8882.471304,-4293.194464,229.828649
1404.688471,8660.409521,-4737.318029,-229.828649
1404.688800,9104.533087,-5773.606348,306.438199
1404.689130,9178.553681,-5847.626942,1072.533697
1404.689459,9474.636058,-6291.750507,689.485948
1404.689788,8290.306550,-5477.523971,1685.410096
1404.690118,8142.265362,-5699.585753,1378.971896
1404.690447,8290.306550,-5699.585753,995.924147
1404.690776,8216.285956,-4737.318029,1991.848295
1404.691106,8512.368333,-4737.318029,1915.238745
1404.691435,9622.677246,-2960.823768,1455.581446
1404.691764,10214.842000,-2072.576638,1302.362347
1404.692093,10510.924376,-2368.659014,766.095498
1404.692423,10881.027347,-1776.494261,919.314598
1404.692752,10362.883188,-2590.720797,0.000000
1404.693081,10288.862594,-2368.659014,-306.438199
1404.693411,9918.759623,-3478.967927,0.000000
1404.693740,9696.697840,-5847.626942,0.000000
1404.694069,8808.450710,-7179.997637,689.485948
1404.694399,7772.162391,-7994.224174,995.924147
1404.694728,7402.059420,-7698.141797,1072.533697
1404.695057,7031.956449,-7476.080014,1149.143247
1404.695387,6661.853478,-6883.915261,612.876398
1404.695716,6587.832884,-5699.585753,766.095498
1404.696045,7476.080014,-4737.318029,1072.533697
1404.696375,9030.512492,-3034.844362,1991.848295
1404.696704,9918.759623,-2368.659014,1762.019645
1404.697033,10288.862594,-1850.514855,2221.676944
1404.697363,10214.842000,-888.247130,1455.581446
1404.697692,10807.006753,-1332.370696,995.924147
1404.698021,11251.130318,-1110.308913,1149.143247
1404.698351,11769.274478,-1184.329507,1225.752797
1404.698680,11695.253884,-2812.782580,919.314598
1404.699009,10955.047942,-4515.256246,1072.533697
1404.699339,9252.574275,-6439.791695,1532.190996
1404.699668,8068.244768,-7179.997637,1149.143247
1404.699997,6291.750507,-8512.368333,842.705048
1404.700326,4589.276840,-8660.409521,-306.438199
1404.700656,4737.318029,-7624.121203,-689.485948
1404.700985,6143.709319,-7179.997637,-919.314598
1404.701314,7105.977043,-7328.038826,842.705048
1404.701644,8512.368333,-5921.647536,1608.800546
1404.701973,9474.636058,-3034.844362,1302.362347
1404.702302,10288.862594,-2220.617826,1532.190996
1404.702632,10510.924376,-1258.350101,1532.190996
1404.702961,10881.027347,-814.226536,1455.581446
1404.703290,11843.295072,-444.123565,1149.143247
1404.703620,12435.459826,-814.226536,1991.848295
1404.703949,12805.562797,-1258.350101,2068.457845
1404.704278,12213.398043,-3330.926739,2374.896044
1404.704608,11029.068536,-3701.029710,2068.457845
1404.704937,9104.533087,-5625.565159,1378.971896
1404.705266,7179.997637,-6069.688724,612.876398
1404.705596,5255.462188,-7328.038826,-229.828649
1404.705925,4663.297435,-9030.512492,-383.047749
1404.706254,4219.173869,-8882.471304,-689.485948
1404.706584,5329.482782,-6513.812290,-919.314598
1404.706913,7994.224174,-4145.153275,-612.876398
1404.707242,10362.883188,-3627.009116,153.219100
1404.707572,11843.295072,-2442.679609,1915.238745
1404.707901,12213.398043,-2146.597232,2068.457845
1404.708230,11843.295072,-1924.535449,1762.019645
1404.708559,10732.986159,-1702.473667,1225.752797
1404.708889,9992.780217,-4071.132681,1225.752797
1404.709218,8808.450710,-5995.668130,1838.629195
1404.709547,8438.347739,-6143.709319,1455.581446
1404.709877,7920.203579,-6809.894666,1378.971896
1404.710206,7328.038826,-6587.832884,1685.410096
1404.710535,7402.059420,-6143.709319,1608.800546
1404.710865,8216.285956,-1924.535449,76.609550
1404.711194,8142.265362,-3627.009116,306.438199
1404.711523,8364.327145,-3627.009116,229.828649
1404.711853,9474.636058,-2664.741391,1149.143247
1404.712182,10214.842000,-2368.659014,1608.800546
1404.712511,10658.965565,-1850.514855,459.657299
1404.712841,10362.883188,-2368.659014,536.266849
1404.713170,10140.821405,-5699.585753,1302.362347
1404.713499,9622.677246,-7550.100608,1532.190996
1404.713829,8586.388927,-6217.729913,1838.629195
1404.714158,7920.203579,-5625.565159,0.000000
1404.714487,6957.935855,-4811.338623,-995.924147
1404.714817,6365.771101,-8216.285956,306.438199
1404.715146,7328.038826,-9104.533087,1225.752797
1404.715475,7772.162391,-7846.182985,1378.971896
1404.715805,7254.018232,-5477.523971,536.266849
1404.716134,6883.915261,-5181.441594,76.609550
1404.716463,7031.956449,-5847.626942,995.924147
1404.716792,8216.285956,-6809.894666,842.705048
1404.717122,8068.244768,-4737.318029,1532.190996
1404.717451,8586.388927,-1998.556043,612.876398
1404.717780,9474.636058,-1406.391290,689.485948
1404.718110,10584.944971,-2072.576638,2374.896044
1404.718439,10140.821405,-4441.235652,2374.896044
1404.718768,8586.388927,-5699.585753,1378.971896
1404.719097,7179.997637,-5625.565159,995.924147
1404.719427,8068.244768,-4663.297435,995.924147
1404.719756,8808.450710,-6069.688724,1532.190996
1404.720085,8586.388927,-6587.832884,1991.848295
1404.720414,7328.038826,-6439.791695,612.876398
1404.720743,7328.038826,-5033.400406,612.876398
1404.721073,8586.388927,-4367.215058,919.314598
1404.721402,8142.265362,-6217.729913,842.705048
1404.721731,6217.729913,-6883.915261,766.095498
1404.722060,3552.988522,-8882.471304,-536.266849
1404.722389,3849.070898,-6365.771101,-689.485948
1404.722719,6069.688724,-8808.450710,842.705048
1404.723048,8364.327145,-7105.977043,1838.629195
1404.723377,9178.553681,-4885.359217,1838.629195
1404.723706,9104.533087,-7105.977043,1532.190996
1404.724035,8512.368333,-5255.462188,1608.800546
1404.724365,7254.018232,-7476.080014,1532.190996
1404.724694,6809.894666,-7402.059420,612.876398
1404.725023,5181.441594,-4959.379811,-459.657299
1404.725352,5921.647536,-6883.915261,153.219100
1404.725682,7254.018232,-6957.935855,3140.991542
1404.726011,9400.615463,-6291.750507,2528.115143
1404.726340,8586.388927,-4293.194464,1838.629195
1404.726669,7772.162391,-1850.514855,766.095498
1404.726998,7624.121203,-5773.606348,995.924147
1404.727328,7920.203579,-5699.585753,2834.553343
1404.727657,6143.709319,-6809.894666,1302.362347
1404.727986,5921.647536,-5107.421000,-842.705048
1404.728315,6365.771101,-5847.626942,229.828649
1404.728644,7846.182985,-9326.594869,2221.676944
1404.728974,8512.368333,-9474.636058,2681.334243
1404.729303,7994.224174,-7772.162391,842.705048
1404.729632,6291.750507,-5921.647536,0.000000
1404.729961,4811.338623,-8290.306550,0.000000
1404.730290,5107.421000,-7846.182985,1685.410096
1404.730620,4441.235652,-7550.100608,383.047749
1404.730949,5033.400406,-5847.626942,0.000000
1404.731278,6143.709319,-4219.173869,766.095498
1404.731607,7920.203579,-6587.832884,2068.457845
1404.731936,8364.327145,-6143.709319,2681.334243
1404.732266,8512.368333,-4737.318029,1378.971896
1404.732595,8068.244768,-4219.173869,1149.143247
1404.732924,7402.059420,-5625.565159,766.095498
1404.733253,6735.874072,-8586.388927,2298.286494
1404.733583,6513.812290,-6883.915261,995.924147
1404.733912,6587.832884,-7105.977043,383.047749
1404.734241,6735.874072,-6513.812290,919.314598
1404.734570,6661.853478,-8512.368333,1762.019645
1404.734899,5995.668130,-7402.059420,1149.143247
1404.735229,6217.729913,-5921.647536,-766.095498
1404.735558,5921.647536,-6809.894666,0.000000
1404.735887,5921.647536,-7402.059420,919.314598
1404.736216,6217.729913,-7550.100608,995.924147
1404.736545,7105.977043,-4737.318029,0.000000
1404.736875,8290.306550,-4219.173869,76.609550
1404.737204,9326.594869,-5403.503377,2068.457845
1404.737533,9622.677246,-5847.626942,2298.286494
1404.737862,9400.615463,-5625.565159,1378.971896
1404.738191,8734.430116,-5551.544565,229.828649
1404.738521,7772.162391,-7105.977043,1608.800546
1404.738850,7105.977043,-8660.409521,1608.800546
1404.739179,6365.771101,-7105.977043,766.095498
1404.739508,4737.318029,-6513.812290,-612.876398
1404.739837,4737.318029,-6735.874072,0.000000
1404.740167,5699.585753,-8142.265362,1149.143247
1404.740496,5847.626942,-7105.977043,842.705048
1404.740825,6069.688724,-6587.832884,0.000000
1404.741154,5995.668130,-6513.812290,383.047749
1404.741484,6513.812290,-7105.977043,1225.752797
1404.741813,6513.812290,-7846.182985,1608.800546
1404.742142,6661.853478,-5403.503377,459.657299
1404.742471,7846.182985,-4959.379811,76.609550
1404.742800,8660.409521,-6439.791695,1225.752797
1404.743130,9104.533087,-6143.709319,2451.505594
1404.743459,9400.615463,-6365.771101,1685.410096
1404.743788,9178.553681,-5255.462188,1072.533697
1404.744117,7550.100608,-7402.059420,1302.362347
1404.744446,5995.668130,-9696.697840,1838.629195
1404.744776,5107.421000,-8142.265362,1302.362347
1404.745105,4737.318029,-7476.080014,459.657299
1404.745434,5255.462188,-5847.626942,229.828649
1404.745763,5921.647536,-5921.647536,1915.238745
1404.746092,7105.977043,-4737.318029,1762.019645
1404.746422,7254.018232,-3552.988522,919.314598
1404.746751,7550.100608,-4811.338623,689.485948
1404.747080,7402.059420,-6661.853478,1378.971896
1404.747409,6883.915261,-7698.141797,1608.800546
1404.747738,6439.791695,-6735.874072,995.924147
1404.748068,6661.853478,-6365.771101,306.438199
1404.748397,8438.347739,-8068.244768,1685.410096
1404.748726,8068.244768,-7179.997637,2298.286494
1404.749055,7698.141797,-7402.059420,1838.629195
1404.749385,7550.100608,-5477.523971,919.314598
1404.749714,7031.956449,-7179.997637,842.705048
1404.750043,5403.503377,-9548.656652,1455.581446
1404.750372,3256.906145,-7846.182985,612.876398
1404.750701,3775.050304,-6587.832884,-459.657299
1404.751031,6439.791695,-5921.647536,306.438199
1404.751360,7476.080014,-6809.894666,2145.067394
1404.751689,8290.306550,-5699.585753,1991.848295
1404.752018,8586.388927,-3701.029710,689.485948
1404.752347,8808.450710,-3997.112087,153.219100
1404.752677,8586.388927,-6291.750507,995.924147
1404.753006,7846.182985,-8290.306550,2451.505594
1404.753335,7105.977043,-6661.853478,1225.752797
1404.753664,7624.121203,-5329.482782,612.876398
1404.753993,7920.203579,-5477.523971,1225.752797
1404.754323,8290.306550,-6143.709319,1762.019645
1404.754652,7624.121203,-6809.894666,1838.629195
1404.754981,7328.038826,-5107.421000,766.095498
1404.755310,6513.812290,-5773.606348,0.000000
1404.755639,5255.462188,-7402.059420,153.219100
1404.755969,3997.112087,-8216.285956,919.314598
1404.756298,4811.338623,-7920.203579,0.000000
1404.756627,6513.812290,-7550.100608,766.095498
1404.756956,7994.224174,-7179.997637,1762.019645
1404.757286,8512.368333,-6587.832884,1762.019645
1404.757615,7846.182985,-4367.215058,1685.410096
1404.757944,8364.327145,-5773.606348,459.657299
1404.758273,8290.306550,-7328.038826,459.657299
1404.758602,6291.750507,-7550.100608,842.705048
1404.758932,4811.338623,-7920.203579,229.828649
1404.759261,5477.523971,-7105.977043,0.000000
1404.759590,6587.832884,-6957.935855,306.438199
1404.759919,6439.791695,-7402.059420,1302.362347
1404.760248,5921.647536,-7105.977043,1149.143247
1404.760578,7550.100608,-5255.462188,919.314598
1404.760907,8290.306550,-5625.565159,536.266849
1404.761236,6661.853478,-7550.100608,842.705048
1404.761565,4589.276840,-8142.265362,766.095498
1404.761894,4441.235652,-7624.121203,383.047749
1404.762224,6809.894666,-7105.977043,612.876398
1404.762553,8586.388927,-6217.729913,1838.629195
1404.762882,9030.512492,-6069.688724,2451.505594
1404.763211,9104.533087,-4441.235652,1838.629195
1404.763540,8734.430116,-3997.112087,919.314598
1404.763870,8142.265362,-4737.318029,383.047749
1404.764199,7105.977043,-5699.585753,1302.362347
1404.764528,6291.750507,-6291.750507,689.485948
1404.764857,5699.585753,-6217.729913,306.438199
1404.765187,7105.977043,-6069.688724,383.047749
1404.765516,7772.162391,-7179.997637,1378.971896
1404.765845,7698.141797,-6291.750507,1762.019645
1404.766174,8216.285956,-4293.194464,919.314598
1404.766503,8364.327145,-6587.832884,1532.190996
1404.766833,7550.100608,-7105.977043,612.876398
1404.767162,5181.441594,-7698.141797,76.609550
1404.767491,4589.276840,-8586.388927,306.438199
1404.767820,6143.709319,-7772.162391,0.000000
1404.768149,8142.265362,-7105.977043,1225.752797
1404.768479,7846.182985,-7476.080014,1608.800546
1404.768808,6883.915261,-6069.688724,1455.581446
1404.769137,7105.977043,-5551.544565,383.047749
1404.769466,7476.080014,-6365.771101,153.219100
1404.769795,6291.750507,-7550.100608,1378.971896
1404.770125,4737.318029,-6957.935855,0.000000
1404.770454,4663.297435,-7179.997637,76.609550
1404.770783,6217.729913,-6439.791695,459.657299
1404.771112,7254.018232,-7698.141797,1685.410096
1404.771441,7698.141797,-6291.750507,1915.238745
1404.771771,8438.347739,-5847.626942,1762.019645
1404.772100,9400.615463,-5995.668130,1225.752797
1404.772429,7772.162391,-7031.956449,766.095498
1404.772758,5181.441594,-7994.224174,919.314598
1404.773088,4145.153275,-7994.224174,0.000000
1404.773417,5921.647536,-7476.080014,459.657299
1404.773746,7698.141797,-7179.997637,2068.457845
1404.774075,8142.265362,-6513.812290,2757.943793
1404.774404,7624.121203,-4145.153275,1685.410096
1404.774734,7920.203579,-3552.988522,842.705048
1404.775063,8216.285956,-4885.359217,995.924147
1404.775392,7550.100608,-6661.853478,1915.238745
1404.775721,6069.688724,-6883.915261,766.095498
1404.776050,4811.338623,-5699.585753,0.000000
1404.776380,6365.771101,-6365.771101,1072.533697
1404.776709,8734.430116,-8290.306550,2068.457845
1404.777038,8290.306550,-6883.915261,3064.381992
1404.777367,7328.038826,-5921.647536,1378.971896
1404.777696,7105.977043,-5773.606348,919.314598
1404.778026,6365.771101,-7328.038826,536.266849
1404.778355,4293.194464,-9030.512492,383.047749
1404.778684,3256.906145,-8586.388927,-612.876398
1404.779013,4515.256246,-7105.977043,0.000000
1404.779342,7105.977043,-7624.121203,919.314598
1404.779672,8734.430116,-6883.915261,2757.943793
1404.780001,9326.594869,-4885.359217,1915.238745
1404.780330,9252.574275,-3404.947333,1225.752797
1404.780659,8660.409521,-4071.132681,919.314598
1404.780989,7920.203579,-5477.523971,1225.752797
1404.781318,7105.977043,-5773.606348,1302.362347
1404.781647,6809.894666,-5329.482782,612.876398
1404.781976,7031.956449,-6513.812290,919.314598
1404.782305,7772.162391,-7402.059420,2374.896044
1404.782635,8216.285956,-6661.853478,2451.505594
1404.782964,7550.100608,-5551.544565,1455.581446
1404.783293,7105.977043,-4811.338623,536.266849
1404.783622,7105.977043,-7105.977043,229.828649
1404.783951,5255.462188,-8364.327145,229.828649
1404.784281,3552.988522,-8586.388927,306.438199
1404.784610,4737.318029,-7624.121203,229.828649
1404.784939,6809.894666,-7105.977043,995.924147
1404.785268,8216.285956,-6883.915261,2374.896044
1404.785597,8068.244768,-7105.977043,2145.067394
1404.785927,8512.368333,-4885.359217,995.924147
1404.786256,7920.203579,-4885.359217,383.047749
1404.786585,6809.894666,-6513.812290,766.095498
1404.786914,4959.379811,-7402.059420,995.924147
1404.787243,4737.318029,-6291.750507,0.000000
1404.787573,5551.544565,-7920.203579,76.609550
1404.787902,6735.874072,-8660.409521,1532.190996
1404.788231,7550.100608,-7624.121203,1608.800546
1404.788560,7920.203579,-6439.791695,1072.533697
1404.788890,8216.285956,-5699.585753,1302.362347
1404.789219,8068.244768,-6143.709319,766.095498
1404.789548,6439.791695,-7254.018232,306.438199
1404.789877,4071.132681,-7550.100608,0.000000
1404.790206,4885.359217,-7105.977043,229.828649
1404.790536,7624.121203,-6513.812290,1149.143247
1404.790865,8438.347739,-6587.832884,2374.896044
1404.791194,7402.059420,-5921.647536,2451.505594
1404.791523,8512.368333,-4737.318029,1302.362347
1404.791852,8734.430116,-3923.091493,919.314598
1404.792182,7550.100608,-5107.421000,1072.533697
1404.792511,5847.626942,-6217.729913,689.485948
1404.792840,5625.565159,-5995.668130,0.000000
1404.793169,6513.812290,-6587.832884,0.000000
1404.793498,7476.080014,-8216.285956,1915.238745
1404.793828,7920.203579,-7476.080014,3140.991542
1404.794157,8438.347739,-6439.791695,1838.629195
1404.794486,7624.121203,-5699.585753,995.924147
1404.794815,6809.894666,-6217.729913,612.876398
1404.795144,5625.565159,-7105.977043,536.266849
1404.795474,3849.070898,-7402.059420,0.000000
1404.795803,4145.153275,-7105.977043,-842.705048
1404.796132,6143.709319,-7476.080014,383.047749
1404.796461,7994.224174,-6809.894666,1762.019645
1404.796791,8734.430116,-7105.977043,2374.896044
1404.797120,8660.409521,-5699.585753,2068.457845
1404.797449,8734.430116,-5181.441594,1149.143247
1404.797778,7994.224174,-5847.626942,842.705048
1404.798107,6217.729913,-6587.832884,842.705048
1404.798437,5625.565159,-6957.935855,306.438199
1404.798766,6291.750507,-6883.915261,0.000000
1404.799095,7031.956449,-6957.935855,766.095498
1404.799424,7105.977043,-7179.997637,1838.629195
1404.799753,7846.182985,-6069.688724,2757.943793
1404.800083,8364.327145,-5181.441594,1302.362347
1404.800412,7328.038826,-6587.832884,459.657299
1404.800741,4811.338623,-7105.977043,153.219100
1404.801070,3478.967927,-8290.306550,0.000000
1404.801399,4737.318029,-8512.368333,536.266849
1404.801729,6069.688724,-7994.224174,689.485948
1404.802058,7105.977043,-7624.121203,1302.362347
1404.802387,8142.265362,-6735.874072,1838.629195
1404.802716,8586.388927,-4885.359217,1149.143247
1404.803045,9030.512492,-5107.421000,1378.971896
1404.803375,9104.533087,-5107.421000,1762.019645
1404.803704,7772.162391,-4737.318029,919.314598
1404.804033,5847.626942,-6291.750507,536.266849
1404.804362,6143.709319,-4737.318029,459.657299
1404.804692,7105.977043,-6661.853478,1072.533697
1404.805021,7550.100608,-7624.121203,1915.238745
1404.805350,7402.059420,-6513.812290,1915.238745
1404.805679,7698.141797,-5773.606348,1302.362347
1404.806008,8068.244768,-6513.812290,1378.971896
1404.806338,6513.812290,-7846.182985,1149.143247
1404.806667,4959.379811,-7179.997637,459.657299
1404.806996,4663.297435,-7105.977043,153.219100
1404.807325,6143.709319,-7772.162391,1455.581446
1404.807654,7328.038826,-7624.121203,1608.800546
1404.807984,7550.100608,-6809.894666,1762.019645
1404.808313,7920.203579,-4959.379811,1455.581446
1404.808642,8142.265362,-5107.421000,459.657299
1404.808971,7698.141797,-5181.441594,689.485948
1404.809300,6735.874072,-6513.812290,1072.533697
1404.809630,6069.688724,-6069.688724,229.828649
1404.809959,7031.956449,-5403.503377,229.828649
1404.810288,7624.121203,-6661.853478,1225.752797
1404.810617,8660.409521,-8142.265362,2451.505594
1404.810946,8660.409521,-5995.668130,1608.800546
1404.811276,8364.327145,-5921.647536,1685.410096
1404.811605,7105.977043,-6069.688724,76.609550
1404.811934,5847.626942,-7846.182985,1149.143247
1404.812263,4145.153275,-8882.471304,229.828649
1404.812593,3849.070898,-8068.244768,-153.219100
1404.812922,4663.297435,-7772.162391,229.828649
1404.813251,5847.626942,-8068.244768,1149.143247
1404.813580,7550.100608,-7031.956449,2221.676944
1404.813909,8068.244768,-5107.421000,1762.019645
1404.814239,8142.265362,-4885.359217,766.095498
1404.814568,8216.285956,-5403.503377,1225.752797
1404.814897,7624.121203,-6735.874072,612.876398
1404.815226,6439.791695,-6513.812290,0.000000
1404.815555,6217.729913,-5255.462188,459.657299
1404.815885,7698.141797,-6661.853478,1072.533697
1404.816214,8512.368333,-7994.224174,2298.286494
1404.816543,7920.203579,-5847.626942,2451.505594
1404.816872,7550.100608,-4737.318029,995.924147
1404.817201,7846.182985,-4959.379811,536.266849
1404.817530,6809.894666,-7179.997637,1072.533697
1404.817860,4367.215058,-7254.018232,612.876398
1404.818189,3997.112087,-7476.080014,153.219100
1404.818518,4811.338623,-6883.915261,0.000000
1404.818847,6587.832884,-8068.244768,995.924147
1404.819176,7031.956449,-7179.997637,2145.067394
1404.819505,7624.121203,-6069.688724,1378.971896
1404.819834,8438.347739,-4959.379811,536.266849
1404.820163,8586.388927,-4293.194464,612.876398
1404.820492,7402.059420,-5921.647536,1072.533697
1404.820822,7105.977043,-5995.668130,1302.362347
1404.821151,7105.977043,-4293.194464,842.705048
1404.821480,7994.224174,-5773.606348,1072.533697
1404.821809,8586.388927,-7031.956449,2528.115143
1404.822138,8882.471304,-6513.812290,2987.772442
1404.822467,8142.265362,-5477.523971,1378.971896
1404.822796,6883.915261,-5921.647536,383.047749
1404.823125,5551.544565,-6883.915261,76.609550
1404.823454,4367.215058,-9030.512492,76.609550
1404.823784,4145.153275,-8882.471304,689.485948
1404.824113,4737.318029,-8290.306550,0.000000
1404.824442,5551.544565,-8290.306550,229.828649
1404.824771,6365.771101,-7402.059420,1378.971896
1404.825100,7994.224174,-6513.812290,1072.533697
1404.825429,8586.388927,-5403.503377,919.314598
1404.825758,7920.203579,-5551.544565,1149.143247
1404.826087,7031.956449,-5551.544565,459.657299
1404.826416,6439.791695,-5773.606348,459.657299
1404.826746,6957.935855,-6217.729913,536.266849
1404.827075,8142.265362,-6365.771101,766.095498
1404.827404,8512.368333,-7105.977043,2451.505594
1404.827733,8882.471304,-6217.729913,2451.505594
1404.828062,8882.471304,-5403.503377,2221.676944
1404.828391,7698.141797,-4885.359217,766.095498
1404.828720,5995.668130,-6735.874072,76.609550
1404.829049,4145.153275,-8586.388927,0.000000
1404.829378,3404.947333,-8290.306550,0.000000
1404.829708,4737.318029,-7846.182985,-383.047749
1404.830037,6365.771101,-7698.141797,383.047749
1404.830366,7402.059420,-7402.059420,1532.190996
1404.830695,7772.162391,-7254.018232,1378.971896
1404.831024,8068.244768,-5329.482782,612.876398
1404.831353,7920.203579,-4959.379811,612.876398
1404.831682,7550.100608,-5699.585753,1149.143247
1404.832011,6809.894666,-6069.688724,1225.752797
1404.832340,7105.977043,-5255.462188,306.438199
1404.832670,7994.224174,-5995.668130,1608.800546
1404.832999,8956.491898,-6365.771101,2834.553343
1404.833328,8882.471304,-5625.565159,2528.115143
1404.833657,8512.368333,-4071.132681,1762.019645
1404.833986,8512.368333,-4219.173869,995.924147
1404.834315,8142.265362,-5921.647536,995.924147
1404.834644,6365.771101,-8216.285956,1378.971896
1404.834973,4367.215058,-7105.977043,766.095498
1404.835302,4367.215058,-6883.915261,-536.266849
1404.835632,5255.462188,-8068.244768,306.438199
1404.835961,6217.729913,-8734.430116,1685.410096
1404.836290,6957.935855,-6957.935855,1838.629195
1404.836619,7179.997637,-5329.482782,1149.143247
1404.836948,7476.080014,-5625.565159,612.876398
1404.837277,6809.894666,-6365.771101,689.485948
1404.837606,6143.709319,-6661.853478,766.095498
1404.837935,5995.668130,-6069.688724,0.000000
1404.838264,7328.038826,-5551.544565,229.828649
1404.838594,9178.553681,-5699.585753,1915.238745
1404.838923,9696.697840,-5773.606348,2834.553343
1404.839252,9400.615463,-5477.523971,2451.505594
1404.839581,9104.533087,-5255.462188,1225.752797
1404.839910,7105.977043,-6957.935855,612.876398
1404.840239,3849.070898,-8956.491898,76.609550
1404.840568,2812.782580,-8438.347739,-766.095498
1404.840897,4515.256246,-8808.450710,0.000000
1404.841226,6143.709319,-8808.450710,995.924147
1404.841556,6957.935855,-8216.285956,1762.019645
1404.841885,6883.915261,-6957.935855,1149.143247
1404.842214,6143.709319,-5033.400406,0.000000
1404.842543,6735.874072,-6217.729913,153.219100
1404.842872,6587.832884,-7624.121203,1149.143247
1404.843201,6587.832884,-7402.059420,1225.752797
1404.843530,6661.853478,-6291.750507,612.876398
1404.843859,7772.162391,-5107.421000,995.924147
1404.844188,8956.491898,-6069.688724,1915.238745
1404.844518,9622.677246,-5847.626942,2451.505594
1404.844847,8586.388927,-4737.318029,2298.286494
1404.845176,8364.327145,-4219.173869,1072.533697
1404.845505,8216.285956,-5699.585753,766.095498
1404.845834,6143.709319,-7550.100608,1532.190996
1404.846163,4515.256246,-7624.121203,995.924147
1404.846492,4737.318029,-7254.018232,383.047749
1404.846821,6217.729913,-7031.956449,1225.752797
1404.847150,7105.977043,-7105.977043,1685.410096
1404.847480,7994.224174,-6069.688724,1762.019645
1404.847809,7920.203579,-3849.070898,842.705048
1404.848138,8142.265362,-4219.173869,459.657299
1404.848467,7698.141797,-5625.565159,1532.190996
1404.848796,6883.915261,-6587.832884,1378.971896
1404.849125,5625.565159,-7179.997637,612.876398
1404.849454,6143.709319,-5921.647536,1072.533697
1404.849783,7179.997637,-6957.935855,1302.362347
1404.850112,7476.080014,-7402.059420,1991.848295
1404.850442,7920.203579,-5107.421000,1991.848295
1404.850771,8142.265362,-5033.400406,1149.143247
1404.851100,7698.141797,-5551.544565,842.705048
1404.851429,5551.544565,-7994.224174,766.095498
1404.851758,4589.276840,-8956.491898,536.266849
1404.852087,4515.256246,-8586.388927,0.000000
1404.852416,5255.462188,-8808.450710,229.828649
1404.852745,6365.771101,-8216.285956,1149.143247
1404.853075,6957.935855,-7179.997637,2221.676944
1404.853404,7402.059420,-5329.482782,919.314598
1404.853733,7698.141797,-5921.647536,0.000000
1404.854062,6809.894666,-5699.585753,459.657299
1404.854391,6365.771101,-7254.018232,1072.533697
1404.854720,5847.626942,-7698.141797,459.657299
1404.855049,6513.812290,-5477.523971,842.705048
1404.855378,8364.327145,-8142.265362,1838.629195
1404.855707,9178.553681,-6587.832884,1915.238745
1404.856037,8586.388927,-5403.503377,2528.115143
1404.856366,8216.285956,-5699.585753,1225.752797
1404.856695,8290.306550,-5107.421000,919.314598
1404.857024,7105.977043,-7994.224174,995.924147
1404.857353,4589.276840,-8216.285956,612.876398
1404.857682,3701.029710,-7402.059420,-383.047749
1404.858011,4811.338623,-7476.080014,-766.095498
1404.858340,6809.894666,-8142.265362,1915.238745
1404.858669,7920.203579,-7254.018232,2987.772442
1404.858999,8512.368333,-3997.112087,1762.019645
1404.859328,7476.080014,-3997.112087,-306.438199
1404.859657,7105.977043,-5551.544565,842.705048
1404.859986,7328.038826,-6069.688724,1302.362347
1404.860315,7476.080014,-6143.709319,1302.362347
1404.860644,7402.059420,-4737.318029,995.924147
1404.860973,8142.265362,-5921.647536,995.924147
1404.861302,8512.368333,-7402.059420,2068.457845
1404.861631,8512.368333,-6217.729913,2145.067394
1404.861961,8142.265362,-4663.297435,1149.143247
1404.862290,8216.285956,-5181.441594,612.876398
1404.862619,7105.977043,-7105.977043,1149.143247
1404.862948,5329.482782,-7772.162391,612.876398
1404.863277,3923.091493,-7476.080014,383.047749
1404.863606,5255.462188,-6661.853478,76.609550
1404.863935,7031.956449,-7105.977043,919.314598
1404.864264,7402.059420,-6513.812290,1838.629195
1404.864593,7698.141797,-5773.606348,1302.362347
1404.864923,8512.368333,-4441.235652,536.266849
1404.865252,8216.285956,-5551.544565,842.705048
1404.865581,7179.997637,-7179.997637,1302.362347
1404.865910,6291.750507,-6957.935855,1149.143247
1404.866239,6513.812290,-6661.853478,536.266849
1404.866568,7031.956449,-8364.327145,689.485948
1404.866897,6069.688724,-8142.265362,995.924147
1404.867226,6513.812290,-6883.915261,919.314598
1404.867555,6809.894666,-5921.647536,76.609550
1404.867885,7402.059420,-5773.606348,612.876398
1404.868214,7031.956449,-6883.915261,536.266849
1404.868543,5181.441594,-8734.430116,842.705048
1404.868872,5181.441594,-8216.285956,459.657299
1404.869201,6513.812290,-7624.121203,536.266849
1404.869530,8068.244768,-6809.894666,1378.971896
1404.869859,8290.306550,-5699.585753,1302.362347
1404.870188,7624.121203,-5625.565159,995.924147
1404.870517,7772.162391,-5181.441594,919.314598
1404.870847,8734.430116,-4959.379811,919.314598
1404.871176,7920.203579,-7254.018232,2068.457845
1404.871505,5699.585753,-7402.059420,919.314598
1404.871834,5033.400406,-6291.750507,0.000000
1404.872163,5847.626942,-7105.977043,229.828649
1404.872492,7476.080014,-7105.977043,1608.800546
1404.872821,8068.244768,-5921.647536,2451.505594
1404.873150,8290.306550,-4515.256246,1532.190996
1404.873479,7698.141797,-5033.400406,1149.143247
1404.873809,6291.750507,-7031.956449,919.314598
1404.874138,4219.173869,-7920.203579,1532.190996
1404.874467,4885.359217,-7031.956449,153.219100
1404.874796,5921.647536,-7254.018232,306.438199
1404.875125,7254.018232,-7994.224174,1991.848295
1404.875454,8660.409521,-7031.956449,2604.724693
1404.875783,8660.409521,-5255.462188,1532.190996
1404.876112,7772.162391,-3997.112087,766.095498
1404.876441,6809.894666,-4811.338623,229.828649
1404.876771,6513.812290,-5699.585753,612.876398
1404.877100,6291.750507,-6587.832884,306.438199
1404.877429,5921.647536,-6365.771101,536.266849
1404.877758,7105.977043,-6587.832884,995.924147
1404.878087,8216.285956,-7105.977043,2145.067394
1404.878416,7550.100608,-6365.771101,2451.505594
1404.878745,8216.285956,-4737.318029,536.266849
1404.879074,7698.141797,-4737.318029,1072.533697
1404.879403,7105.977043,-7105.977043,919.314598
1404.879733,5403.503377,-8216.285956,1149.143247
1404.880062,4737.318029,-7179.997637,459.657299
1404.880391,5403.503377,-8216.285956,459.657299
1404.880720,6883.915261,-8290.306550,1455.581446
1404.881049,6957.935855,-7624.121203,2221.676944
1404.881378,7105.977043,-6069.688724,1149.143247
1404.881707,7698.141797,-3478.967927,383.047749
1404.882036,7772.162391,-5329.482782,306.438199
1404.882365,7179.997637,-6069.688724,1225.752797
1404.882695,5847.626942,-7698.141797,842.705048
1404.883024,5625.565159,-7920.203579,229.828649
1404.883353,6513.812290,-7105.977043,306.438199
1404.883682,7328.038826,-8512.368333,1302.362347
1404.884011,7994.224174,-8290.306550,1991.848295
1404.884340,7476.080014,-6513.812290,919.314598
1404.884669,7328.038826,-5699.585753,0.000000
1404.884998,6883.915261,-6587.832884,-383.047749
1404.885327,5847.626942,-8660.409521,1302.362347
1404.885657,5255.462188,-7920.203579,229.828649
1404.885986,5329.482782,-7105.977043,0.000000
1404.886315,7254.018232,-7254.018232,842.705048
1404.886644,8290.306550,-7179.997637,2451.505594
1404.886973,8290.306550,-5329.482782,2145.067394
1404.887302,8290.306550,-3701.029710,1072.533697
1404.887631,7550.100608,-4145.153275,1225.752797
1404.887960,7920.203579,-5403.503377,1378.971896
1404.888289,6291.750507,-7328.038826,1302.362347
1404.888619,6365.771101,-5847.626942,229.828649
1404.888948,6291.750507,-6217.729913,0.000000
1404.889277,7254.018232,-7031.956449,1225.752797
1404.889606,7105.977043,-6217.729913,1225.752797
1404.889935,7624.121203,-5773.606348,1608.800546
1404.890264,8586.388927,-5329.482782,919.314598
1404.890593,8068.244768,-6143.709319,842.705048
1404.890922,6069.688724,-7476.080014,1225.752797
1404.891251,4885.359217,-6661.853478,-76.609550
1404.891581,5477.523971,-7031.956449,0.000000
1404.891910,7772.162391,-7402.059420,1378.971896
1404.892239,8882.471304,-7550.100608,3294.210641
1404.892568,8734.430116,-5699.585753,2068.457845
1404.892897,8290.306550,-4219.173869,1149.143247
1404.893226,7698.141797,-4737.318029,-229.828649
1404.893555,6217.729913,-6513.812290,306.438199
1404.893884,5255.462188,-6809.894666,842.705048
1404.894213,5181.441594,-8068.244768,76.609550
1404.894543,6217.729913,-7254.018232,842.705048
1404.894872,6809.894666,-7994.224174,1225.752797
1404.895201,7476.080014,-7476.080014,2221.676944
1404.895530,8068.244768,-6217.729913,1608.800546
1404.895859,8068.244768,-5699.585753,919.314598
1404.896188,7402.059420,-6143.709319,842.705048
1404.896517,5773.606348,-8068.244768,919.314598
1404.896846,5255.462188,-7179.997637,-383.047749
1404.897175,5403.503377,-7994.224174,76.609550
1404.897505,7105.977043,-7328.038826,689.485948
1404.897834,8142.265362,-7846.182985,2298.286494
1404.898163,8438.347739,-5847.626942,2604.724693
1404.898492,8142.265362,-3997.112087,1072.533697
1404.898821,7254.018232,-4145.153275,306.438199
1404.899150,6513.812290,-5403.503377,459.657299
1404.899479,5921.647536,-6587.832884,842.705048
1404.899808,5921.647536,-5995.668130,459.657299
1404.900137,7328.038826,-5699.585753,612.876398
1404.900467,7772.162391,-7624.121203,1915.238745
1404.900796,7624.121203,-6291.750507,1915.238745
1404.901125,7624.121203,-6661.853478,1532.190996
1404.901454,7698.141797,-5403.503377,459.657299
1404.901783,7402.059420,-6439.791695,919.314598
1404.902112,6217.729913,-8364.327145,1302.362347
1404.902441,4959.379811,-8734.430116,842.705048
1404.902770,4885.359217,-6883.915261,-229.828649
1404.903099,5921.647536,-7772.162391,536.266849
1404.903429,7105.977043,-7550.100608,2145.067394
1404.903758,7994.224174,-5847.626942,2604.724693
1404.904087,8216.285956,-4219.173869,766.095498
1404.904416,7994.224174,-3478.967927,842.705048
1404.904745,7550.100608,-5847.626942,766.095498
1404.905074,7328.038826,-6661.853478,1225.752797
1404.905403,6439.791695,-6661.853478,612.876398
1404.905732,5847.626942,-5921.647536,-383.047749
1404.906061,7031.956449,-7846.182985,995.924147
1404.906391,7772.162391,-8734.430116,2145.067394
1404.906720,7476.080014,-7105.977043,1838.629195
1404.907049,7994.224174,-5551.544565,995.924147
1404.907378,7846.182985,-5699.585753,766.095498
1404.907707,6217.729913,-7476.080014,995.924147
1404.908036,4441.235652,-8290.306550,1225.752797
1404.908365,4737.318029,-6883.915261,0.000000
1404.908694,5255.462188,-7846.182985,153.219100
1404.909024,6143.709319,-7254.018232,1532.190996
1404.909353,7402.059420,-7105.977043,2604.724693
1404.909682,9030.512492,-4811.338623,1378.971896
1404.910011,9104.533087,-3775.050304,1225.752797
1404.910340,8438.347739,-4885.359217,1225.752797
1404.910669,7105.977043,-5921.647536,842.705048
1404.910998,5847.626942,-7402.059420,229.828649
1404.911327,5995.668130,-7328.038826,0.000000
1404.911656,7328.038826,-7846.182985,1532.190996
1404.911986,6809.894666,-8068.244768,1608.800546
1404.912315,6735.874072,-7179.997637,1608.800546
1404.912644,6735.874072,-5403.503377,229.828649
1404.912973,5847.626942,-6143.709319,-229.828649
1404.913302,5847.626942,-7105.977043,612.876398
1404.913631,5107.421000,-8068.244768,612.876398
1404.913960,5477.523971,-6957.935855,0.000000
1404.914289,7105.977043,-7402.059420,306.438199
1404.914618,8216.285956,-7624.121203,2451.505594
1404.914948,8956.491898,-6365.771101,2528.115143
1404.915277,9252.574275,-4367.215058,1685.410096
1404.915606,9030.512492,-3330.926739,689.485948
1404.915935,8364.327145,-4885.359217,919.314598
1404.916264,7254.018232,-6883.915261,1455.581446
1404.916593,6365.771101,-6957.935855,1149.143247
1404.916922,5773.606348,-6291.750507,0.000000
1404.917251,6661.853478,-6809.894666,995.924147
1404.917580,6957.935855,-7179.997637,1608.800546
1404.917910,6365.771101,-7179.997637,1762.019645
1404.918239,6957.935855,-6143.709319,1225.752797
1404.918568,7254.018232,-5773.606348,153.219100
1404.918897,6735.874072,-6957.935855,919.314598
1404.919226,5255.462188,-7328.038826,1072.533697
1404.919555,5625.565159,-7772.162391,-306.438199
1404.919885,6661.853478,-7031.956449,0.000000
1404.920214,7698.141797,-7550.100608,1302.362347
1404.920543,8808.450710,-7105.977043,2221.676944
1404.920872,9104.533087,-5255.462188,2068.457845
1404.921201,8734.430116,-4589.276840,689.485948
1404.921531,7402.059420,-5033.400406,306.438199
1404.921860,6735.874072,-6439.791695,1072.533697
1404.922189,6069.688724,-6735.874072,1225.752797
1404.922518,6735.874072,-5477.523971,383.047749
1404.922848,6883.915261,-6735.874072,842.705048
1404.923177,7254.018232,-7105.977043,1838.629195
1404.923506,7698.141797,-7328.038826,2221.676944
1404.923835,7920.203579,-4441.235652,1685.410096
1404.924164,8216.285956,-5625.565159,229.828649
1404.924494,6883.915261,-7550.100608,766.095498
1404.924823,5181.441594,-8438.347739,995.924147
1404.925152,4737.318029,-9178.553681,229.828649
1404.925481,5699.585753,-7698.141797,76.609550
1404.925810,6291.750507,-8586.388927,919.314598
1404.926140,7328.038826,-8586.388927,1685.410096
1404.926469,7550.100608,-6069.688724,1915.238745
1404.926798,7920.203579,-4515.256246,153.219100
1404.927127,7920.203579,-4811.338623,459.657299
1404.927457,7105.977043,-5699.585753,1072.533697
1404.927786,6439.791695,-6291.750507,689.485948
1404.928115,6439.791695,-5699.585753,459.657299
1404.928444,7550.100608,-5699.585753,1072.533697
1404.928773,8734.430116,-7402.059420,2451.505594
1404.929103,8438.347739,-5921.647536,2451.505594
1404.929432,8290.306550,-4441.235652,1608.800546
1404.929761,8216.285956,-5699.585753,1149.143247
1404.930090,7031.956449,-6661.853478,766.095498
1404.930420,4071.132681,-9178.553681,536.266849
1404.930749,3404.947333,-8956.491898,383.047749
1404.931078,4367.215058,-8438.347739,0.000000
1404.931407,5107.421000,-8808.450710,306.438199
1404.931736,7031.956449,-7920.203579,1762.019645
1404.932066,8216.285956,-5847.626942,2374.896044
1404.932395,9030.512492,-3552.988522,995.924147
1404.932724,7920.203579,-3997.112087,995.924147
1404.933053,7402.059420,-4663.297435,1302.362347
1404.933383,6587.832884,-5995.668130,842.705048
1404.933712,5847.626942,-6587.832884,842.705048
1404.934041,7105.977043,-7031.956449,1532.190996
1404.934370,8882.471304,-7105.977043,1838.629195
1404.934699,8142.265362,-6291.750507,2834.553343
1404.935029,7254.018232,-5551.544565,1608.800546
1404.935358,7179.997637,-4959.379811,229.828649
1404.935687,6957.935855,-7254.018232,612.876398
1404.936016,5181.441594,-7698.141797,612.876398
1404.936346,4145.153275,-8882.471304,612.876398
1404.936675,5181.441594,-8290.306550,229.828649
1404.937004,6513.812290,-7846.182985,612.876398
1404.937333,7254.018232,-7994.224174,2145.067394
1404.937662,8216.285956,-5477.523971,2451.505594
1404.937992,8882.471304,-3701.029710,919.314598
1404.938321,8068.244768,-4293.194464,536.266849
1404.938650,6735.874072,-5329.482782,1072.533697
1404.938979,7031.956449,-7031.956449,919.314598
1404.939309,6809.894666,-6513.812290,1072.533697
1404.939638,7402.059420,-6217.729913,1149.143247
1404.939967,8290.306550,-7698.141797,1608.800546
1404.940296,8438.347739,-6217.729913,1838.629195
1404.940625,7105.977043,-5995.668130,1532.190996
1404.940955,7402.059420,-5107.421000,76.609550
1404.941284,7105.977043,-5847.626942,0.000000
1404.941613,5773.606348,-8438.347739,383.047749
1404.941942,4367.215058,-8068.244768,0.000000
1404.942272,4589.276840,-7772.162391,0.000000
1404.942601,5773.606348,-8216.285956,0.000000
1404.942930,6883.915261,-8068.244768,1915.238745
1404.943259,7994.224174,-6143.709319,1532.190996
1404.943588,8808.450710,-4441.235652,689.485948
1404.943918,8068.244768,-4663.297435,689.485948
1404.944247,7031.956449,-5995.668130,612.876398
1404.944576,6883.915261,-6587.832884,766.095498
1404.944905,6587.832884,-6291.750507,536.266849
1404.945235,7994.224174,-6513.812290,1455.581446
1404.945564,8660.409521,-7105.977043,2374.896044
1404.945893,8882.471304,-5773.606348,3064.381992
1404.946222,8216.285956,-5181.441594,1378.971896
1404.946551,7920.203579,-3849.070898,1149.143247
1404.946881,7105.977043,-5551.544565,919.314598
1404.947210,5773.606348,-7031.956449,229.828649
1404.947539,3478.967927,-8586.388927,153.219100
1404.947868,3997.112087,-7698.141797,-383.047749
1404.948197,6217.729913,-8364.327145,995.924147
1404.948527,7550.100608,-8142.265362,2298.286494
1404.948856,7179.997637,-7402.059420,1532.190996
1404.949185,7254.018232,-5551.544565,536.266849
1404.949514,7402.059420,-5329.482782,459.657299
1404.949844,7476.080014,-6513.812290,1072.533697
1404.950173,7179.997637,-6439.791695,1455.581446
1404.950502,7105.977043,-5477.523971,459.657299
1404.950831,7476.080014,-5773.606348,689.485948
1404.951160,8512.368333,-6365.771101,1762.019645
1404.951490,9252.574275,-5477.523971,2451.505594
1404.951819,9104.533087,-4737.318029,1991.848295
1404.952148,8068.244768,-4367.215058,919.314598
1404.952477,7105.977043,-6143.709319,689.485948
1404.952807,5625.565159,-7772.162391,0.000000
1404.953136,4071.132681,-9400.615463,536.266849
1404.953465,3997.112087,-8512.368333,-153.219100
1404.953794,5403.503377,-9104.533087,536.266849
1404.954123,6957.935855,-9104.533087,2834.553343
1404.954453,7846.182985,-6661.853478,2145.067394
1404.954782,7254.018232,-4367.215058,919.314598
1404.955111,7031.956449,-4441.235652,153.219100
1404.955440,7772.162391,-5995.668130,766.095498
1404.955770,7624.121203,-6735.874072,1608.800546
1404.956099,6735.874072,-5995.668130,536.266849
1404.956428,7254.018232,-6587.832884,536.266849
1404.956757,8142.265362,-6883.915261,1685.410096
1404.957086,8586.388927,-6809.894666,2221.676944
1404.957416,9104.533087,-6069.688724,1991.848295
1404.957745,8142.265362,-4515.256246,919.314598
1404.958074,6513.812290,-6217.729913,306.438199
1404.958403,5255.462188,-7772.162391,612.876398
1404.958733,4737.318029,-7920.203579,1532.190996
1404.959062,4737.318029,-7920.203579,229.828649
1404.959391,5255.462188,-7994.224174,0.000000
1404.959720,5847.626942,-8290.306550,1532.190996
1404.960049,7105.977043,-7328.038826,1838.629195
1404.960379,7920.203579,-4441.235652,1378.971896
1404.960708,8142.265362,-3478.967927,995.924147
1404.961037,7920.203579,-5181.441594,689.485948
1404.961366,7550.100608,-6735.874072,2145.067394
1404.961696,7328.038826,-6217.729913,1225.752797
1404.962025,6661.853478,-5033.400406,1302.362347
1404.962354,7846.182985,-5773.606348,1225.752797
1404.962683,7994.224174,-7179.997637,2298.286494
1404.963012,7994.224174,-6069.688724,2604.724693
1404.963342,7772.162391,-5329.482782,1762.019645
1404.963671,7402.059420,-5329.482782,612.876398
1404.964000,5477.523971,-7550.100608,1149.143247
1404.964329,3627.009116,-8512.368333,306.438199
1404.964659,3775.050304,-8364.327145,-766.095498
1404.964988,5551.544565,-8142.265362,229.828649
1404.965317,7031.956449,-8438.347739,1455.581446
1404.965646,7772.162391,-7698.141797,2068.457845
1404.965975,8364.327145,-5403.503377,1838.629195
1404.966305,8882.471304,-4293.194464,1225.752797
1404.966634,7920.203579,-5033.400406,76.609550
1404.966963,6587.832884,-6291.750507,1149.143247
1404.967292,6809.894666,-5921.647536,995.924147
1404.967622,7846.182985,-6069.688724,1225.752797
1404.967951,8068.244768,-6069.688724,1915.238745
1404.968280,7994.224174,-6809.894666,2834.553343
1404.968609,8586.388927,-5477.523971,2757.943793
1404.968938,7846.182985,-4589.276840,995.924147
1404.969268,6661.853478,-5625.565159,689.485948
1404.969597,4811.338623,-6809.894666,536.266849
1404.969926,3923.091493,-9400.615463,0.000000
1404.970255,3478.967927,-9400.615463,0.000000
1404.970585,4959.379811,-7624.121203,76.609550
1404.970914,7402.059420,-7920.203579,1302.362347
1404.971243,8808.450710,-7179.997637,2528.115143
1404.971572,8660.409521,-6513.812290,1991.848295
1404.971901,8364.327145,-3997.112087,76.609550
1404.972231,7846.182985,-4515.256246,0.000000
1404.972560,7105.977043,-5995.668130,842.705048
1404.972889,7105.977043,-6587.832884,995.924147
1404.973218,7402.059420,-6365.771101,1455.581446
1404.973547,8512.368333,-6439.791695,1762.019645
1404.973877,8660.409521,-6957.935855,2145.067394
1404.974206,7772.162391,-5329.482782,1685.410096
1404.974535,6883.915261,-4959.379811,612.876398
1404.974864,7105.977043,-5773.606348,153.219100
1404.975194,6291.750507,-7846.182985,1149.143247
1404.975523,4589.276840,-8438.347739,919.314598
1404.975852,4219.173869,-8956.491898,153.219100
1404.976181,4959.379811,-8142.265362,0.000000
1404.976510,5773.606348,-8290.306550,306.438199
1404.976840,7328.038826,-7624.121203,1838.629195
1404.977169,7920.203579,-6365.771101,1762.019645
1404.977498,7772.162391,-4071.132681,0.000000
1404.977827,7476.080014,-3923.091493,0.000000
1404.978157,7105.977043,-6143.709319,306.438199
1404.978486,6883.915261,-8068.244768,1225.752797
1404.978815,7031.956449,-6291.750507,1608.800546
1404.979144,8512.368333,-5921.647536,1149.143247
1404.979473,8882.471304,-6809.894666,2221.676944
1404.979803,7772.162391,-5477.523971,2451.505594
1404.980132,7920.203579,-4515.256246,995.924147
1404.980461,7772.162391,-4515.256246,383.047749
1404.980790,6957.935855,-6957.935855,919.314598
1404.981120,6069.688724,-7698.141797,1532.190996
1404.981449,5329.482782,-8216.285956,459.657299
1404.981778,5107.421000,-7772.162391,229.828649
1404.982107,5477.523971,-9548.656652,229.828649
1404.982436,5847.626942,-7846.182985,1455.581446
1404.982766,6439.791695,-8068.244768,1149.143247
1404.983095,6661.853478,-5921.647536,0.000000
1404.983424,7031.956449,-5255.462188,153.219100
1404.983753,6513.812290,-7476.080014,229.828649
1404.984083,6809.894666,-7476.080014,1149.143247
1404.984412,7402.059420,-7402.059420,995.924147
1404.984741,8364.327145,-5921.647536,1608.800546
1404.985070,7772.162391,-5699.585753,1685.410096
1404.985399,8142.265362,-6587.832884,2298.286494
1404.985729,8438.347739,-4589.276840,1762.019645
1404.986058,8660.409521,-4737.318029,383.047749
1404.986387,7179.997637,-5921.647536,1225.752797
1404.986716,5773.606348,-7105.977043,1225.752797
1404.987046,5403.503377,-7920.203579,153.219100
1404.987375,5551.544565,-7254.018232,306.438199
1404.987704,5921.647536,-9030.512492,1378.971896
1404.988033,6587.832884,-7772.162391,1608.800546
1404.988362,6587.832884,-6439.791695,1455.581446
1404.988692,6587.832884,-5551.544565,459.657299
1404.989021,7105.977043,-4663.297435,612.876398
1404.989350,6809.894666,-6291.750507,612.876398
1404.989679,6587.832884,-6735.874072,1072.533697
1404.990009,6439.791695,-6735.874072,995.924147
1404.990338,7698.141797,-5329.482782,1072.533697
1404.990667,8068.244768,-5847.626942,2298.286494
1404.990996,8364.327145,-5773.606348,2528.115143
1404.991325,7254.018232,-7105.977043,2145.067394
1404.991655,7254.018232,-4071.132681,0.000000
1404.991984,7105.977043,-6661.853478,1225.752797
1404.992313,6143.709319,-8734.430116,1378.971896
1404.992642,5699.585753,-7105.977043,689.485948
1404.992972,6809.894666,-7550.100608,1455.581446
1404.993301,6883.915261,-8216.285956,1532.190996
1404.993630,6439.791695,-7105.977043,1149.143247
1404.993959,6513.812290,-5181.441594,1532.190996
1404.994288,6513.812290,-4885.359217,0.000000
1404.994618,7994.224174,-4737.318029,919.314598
1404.994947,8216.285956,-5995.668130,1685.410096
1404.995276,7105.977043,-7550.100608,1762.019645
1404.995605,6291.750507,-6735.874072,766.095498
1404.995934,5699.585753,-7402.059420,306.438199
1404.996264,6883.915261,-7476.080014,995.924147
1404.996593,6957.935855,-8216.285956,1302.362347
1404.996922,7179.997637,-7328.038826,1455.581446
1404.997251,8364.327145,-4145.153275,919.314598
1404.997581,8438.347739,-6439.791695,1455.581446
1404.997910,7476.080014,-7105.977043,1915.238745
1404.998239,5847.626942,-7031.956449,919.314598
1404.998568,4885.359217,-7550.100608,536.266849
1404.998897,5329.482782,-7031.956449,229.828649
1404.999227,6513.812290,-7624.121203,1532.190996
1404.999556,7105.977043,-5699.585753,1685.410096
1404.999885,7402.059420,-5181.441594,306.438199
1405.000214,7624.121203,-4959.379811,229.828649
1405.000544,7328.038826,-6291.750507,919.314598
1405.000873,6439.791695,-8290.306550,1302.362347
1405.001202,6069.688724,-6735.874072,689.485948
1405.001531,6513.812290,-6809.894666,0.000000
1405.001860,7550.100608,-7402.059420,1225.752797
1405.002190,8216.285956,-5921.647536,1838.629195
1405.002519,8068.244768,-5329.482782,1225.752797
1405.002848,9400.615463,-3182.885551,1838.629195
1405.003177,9400.615463,-4367.215058,1378.971896
1405.003507,7994.224174,-6069.688724,1762.019645
1405.003836,6143.709319,-7105.977043,1762.019645
1405.004165,5847.626942,-8142.265362,1072.533697
1405.004494,5403.503377,-6661.853478,76.609550
1405.004823,5329.482782,-7476.080014,919.314598
1405.005153,6735.874072,-7179.997637,1302.362347
1405.005482,7402.059420,-5551.544565,995.924147
1405.005811,7920.203579,-5181.441594,1072.533697
1405.006140,7179.997637,-6439.791695,536.266849
1405.006470,6291.750507,-7105.977043,919.314598
1405.006799,5995.668130,-6883.915261,306.438199
1405.007128,6365.771101,-6217.729913,459.657299
1405.007457,7846.182985,-7105.977043,1072.533697
1405.007786,8660.409521,-7105.977043,1991.848295
1405.008116,9104.533087,-5625.565159,2451.505594
1405.008445,9178.553681,-4293.194464,1455.581446
1405.008774,8438.347739,-4515.256246,306.438199
1405.009103,6661.853478,-6291.750507,995.924147
1405.009433,4367.215058,-7846.182985,0.000000
1405.009762,3775.050304,-8586.388927,-76.609550
1405.010091,5551.544565,-8808.450710,1225.752797
1405.010420,7179.997637,-9030.512492,1225.752797
1405.010749,7105.977043,-6735.874072,1762.019645
1405.011079,6513.812290,-6217.729913,842.705048
1405.011408,7031.956449,-5477.523971,76.609550
1405.011737,7550.100608,-4663.297435,536.266849
1405.012066,6735.874072,-7105.977043,1149.143247
1405.012396,6365.771101,-6883.915261,766.095498
1405.012725,6883.915261,-6513.812290,1302.362347
1405.013054,7550.100608,-7624.121203,1378.971896
1405.013383,7624.121203,-6661.853478,1455.581446
1405.013712,8142.265362,-5329.482782,2145.067394
1405.014042,9104.533087,-4441.235652,1149.143247
1405.014371,8882.471304,-4737.318029,1608.800546
1405.014700,6957.935855,-6735.874072,1149.143247
1405.015029,4737.318029,-8882.471304,76.609550
1405.015359,3404.947333,-8438.347739,383.047749
1405.015688,3997.112087,-7994.224174,-383.047749
1405.016017,5847.626942,-7624.121203,1532.190996
1405.016346,8142.265362,-6143.709319,2834.553343
1405.016675,8808.450710,-4441.235652,1455.581446
1405.017005,7994.224174,-3552.988522,766.095498
1405.017334,7846.182985,-4441.235652,1225.752797
1405.017663,7698.141797,-5551.544565,1378.971896
1405.017992,6735.874072,-7105.977043,1149.143247
1405.018321,7105.977043,-7402.059420,1762.019645
1405.018650,8216.285956,-6735.874072,1532.190996
1405.018979,8586.388927,-7105.977043,2145.067394
1405.019308,7772.162391,-5181.441594,1762.019645
1405.019637,7550.100608,-4219.173869,842.705048
1405.019967,7105.977043,-4959.379811,459.657299
1405.020296,4885.359217,-6513.812290,0.000000
1405.020625,4145.153275,-8808.450710,229.828649
1405.020954,5403.503377,-7624.121203,0.000000
1405.021283,6439.791695,-8660.409521,536.266849
1405.021612,7624.121203,-7624.121203,1838.629195
1405.021941,7994.224174,-6735.874072,2221.676944
1405.022270,8734.430116,-5699.585753,1915.238745
1405.022599,8142.265362,-4071.132681,306.438199
1405.022928,7402.059420,-5329.482782,536.266849
1405.023257,6883.915261,-7105.977043,689.485948
1405.023586,5773.606348,-7994.224174,383.047749
1405.023915,5847.626942,-6365.771101,842.705048
1405.024244,6809.894666,-6957.935855,229.828649
1405.024574,7920.203579,-7772.162391,1838.629195
1405.024903,8142.265362,-6291.750507,1991.848295
1405.025232,7550.100608,-4959.379811,919.314598
1405.025561,7402.059420,-4663.297435,459.657299
1405.025890,6513.812290,-6735.874072,536.266849
1405.026219,5107.421000,-8512.368333,536.266849
1405.026548,4367.215058,-8512.368333,689.485948
1405.026877,5847.626942,-8586.388927,0.000000
1405.027206,7105.977043,-8882.471304,2451.505594
1405.027535,8290.306550,-7105.977043,2757.943793
1405.027864,8512.368333,-5551.544565,1532.190996
1405.028193,7846.182985,-3627.009116,766.095498
1405.028522,7031.956449,-4515.256246,0.000000
1405.028851,6291.750507,-6291.750507,612.876398
1405.029181,5847.626942,-6661.853478,1149.143247
1405.029510,5847.626942,-6513.812290,459.657299
1405.029839,7179.997637,-6809.894666,76.609550
1405.030168,7624.121203,-7254.018232,2221.676944
1405.030497,8438.347739,-6217.729913,1915.238745
1405.030826,8956.491898,-4441.235652,1072.533697
1405.031155,8586.388927,-3627.009116,766.095498
1405.031484,7920.203579,-6217.729913,383.047749
1405.031813,5995.668130,-8142.265362,1225.752797
1405.032142,5107.421000,-7994.224174,766.095498
1405.032471,6217.729913,-7624.121203,919.314598
1405.032800,7698.141797,-6957.935855,1685.410096
1405.033129,7846.182985,-6439.791695,2451.505594
1405.033458,7698.141797,-5403.503377,1685.410096
1405.033788,8216.285956,-3923.091493,689.485948
1405.034117,8438.347739,-4441.235652,842.705048
1405.034446,6883.915261,-5773.606348,1532.190996
1405.034775,5847.626942,-6735.874072,689.485948
1405.035104,5847.626942,-7328.038826,0.000000
1405.035433,6143.709319,-7772.162391,0.000000
1405.035762,6365.771101,-8512.368333,995.924147
1405.036091,6957.935855,-8438.347739,2068.457845
1405.036420,7994.224174,-6069.688724,1072.533697
1405.036749,7476.080014,-5625.565159,153.219100
1405.037078,6883.915261,-7994.224174,1225.752797
1405.037407,5995.668130,-8290.306550,383.047749
1405.037736,4515.256246,-8068.244768,-229.828649
1405.038065,4663.297435,-7402.059420,-383.047749
1405.038395,6957.935855,-7105.977043,1455.581446
1405.038724,8586.388927,-6439.791695,2145.067394
1405.039053,8586.388927,-6291.750507,1915.238745
1405.039382,8216.285956,-4219.173869,1225.752797
1405.039711,8512.368333,-4737.318029,383.047749
1405.040040,7179.997637,-5107.421000,612.876398
1405.040369,4737.318029,-6883.915261,995.924147
1405.040698,5181.441594,-8142.265362,612.876398
1405.041027,6957.935855,-6587.832884,612.876398
1405.041356,7698.141797,-8364.327145,1838.629195
1405.041685,7846.182985,-6587.832884,2528.115143
1405.042014,8290.306550,-5699.585753,1455.581446
1405.042343,7328.038826,-5921.647536,536.266849
1405.042672,5551.544565,-6513.812290,0.000000
1405.043002,4515.256246,-7846.182985,0.000000
1405.043331,4145.153275,-8734.430116,153.219100
1405.043660,5181.441594,-7476.080014,536.266849
1405.043989,6957.935855,-7698.141797,1762.019645
1405.044318,8882.471304,-7179.997637,2451.505594
1405.044647,8734.430116,-4959.379811,2374.896044
1405.044976,7994.224174,-3775.050304,612.876398
1405.045305,8142.265362,-3701.029710,0.000000
1405.045634,8660.409521,-4441.235652,1149.143247
1405.045963,7550.100608,-6809.894666,1915.238745
1405.046292,6217.729913,-7550.100608,919.314598
1405.046621,6217.729913,-7402.059420,2068.457845
1405.046950,6809.894666,-7624.121203,1455.581446
1405.047279,5921.647536,-7031.956449,1455.581446
1405.047609,5921.647536,-5995.668130,1608.800546
1405.047938,7402.059420,-5181.441594,766.095498
1405.048267,7698.141797,-6587.832884,1149.143247
1405.048596,6513.812290,-6957.935855,1302.362347
1405.048925,5255.462188,-7920.203579,0.000000
1405.049254,6217.729913,-7550.100608,842.705048
1405.049583,6291.750507,-8290.306550,995.924147
1405.049912,7550.100608,-7624.121203,1608.800546
1405.050241,7994.224174,-5847.626942,1532.190996
1405.050570,8142.265362,-4737.318029,1302.362347
1405.050899,8142.265362,-5181.441594,766.095498
1405.051228,7476.080014,-5329.482782,842.705048
1405.051557,6365.771101,-6883.915261,689.485948
1405.051886,4885.359217,-7624.121203,306.438199
1405.052216,5255.462188,-7698.141797,0.000000
1405.052545,6957.935855,-8586.388927,76.609550
1405.052874,7254.018232,-7920.203579,1685.410096
1405.053203,7328.038826,-5699.585753,1455.581446
1405.053532,7772.162391,-6217.729913,842.705048
1405.053861,8290.306550,-6291.750507,842.705048
1405.054190,7476.080014,-6957.935855,919.314598
1405.054519,5773.606348,-7179.997637,459.657299
1405.054848,5699.585753,-6957.935855,536.266849
1405.055177,6513.812290,-8068.244768,536.266849
1405.055506,7105.977043,-7920.203579,2221.676944
1405.055835,7920.203579,-5847.626942,2068.457845
1405.056164,8142.265362,-4145.153275,689.485948
1405.056493,7846.182985,-4441.235652,842.705048
1405.056823,7105.977043,-5921.647536,1685.410096
1405.057152,6809.894666,-5995.668130,459.657299
1405.057481,5773.606348,-5921.647536,229.828649
1405.057810,5551.544565,-6513.812290,76.609550
1405.058139,7105.977043,-7698.141797,1072.533697
1405.058468,8364.327145,-7402.059420,2451.505594
1405.058797,9104.533087,-6217.729913,2145.067394
1405.059126,9326.594869,-4071.132681,1915.238745
1405.059455,8882.471304,-5033.400406,1225.752797
1405.059784,7031.956449,-6883.915261,1072.533697
1405.060113,5181.441594,-7846.182985,1378.971896
1405.060442,3701.029710,-6957.935855,-459.657299
1405.060771,4737.318029,-7624.121203,-229.828649
1405.061100,6513.812290,-9178.553681,1608.800546
1405.061430,8068.244768,-7402.059420,2451.505594
1405.061759,8660.409521,-5181.441594,1532.190996
1405.062088,8290.306550,-3775.050304,689.485948
1405.062417,7105.977043,-4737.318029,306.438199
1405.062746,6809.894666,-5847.626942,1072.533697
1405.063075,6735.874072,-6513.812290,0.000000
1405.063404,6809.894666,-5847.626942,842.705048
1405.063733,7994.224174,-7254.018232,1685.410096
1405.064062,8882.471304,-7772.162391,2757.943793
1405.064391,8290.306550,-6883.915261,1838.629195
1405.064720,7031.956449,-5403.503377,0.000000
1405.065049,6513.812290,-5403.503377,0.000000
1405.065378,5551.544565,-7994.224174,76.609550
1405.065707,3775.050304,-9400.615463,383.047749
1405.066037,3256.906145,-8142.265362,0.000000
1405.066366,5033.400406,-8142.265362,153.219100
1405.066695,6957.935855,-8216.285956,1149.143247
1405.067024,7254.018232,-7105.977043,1915.238745
1405.067353,8364.327145,-5107.421000,1378.971896
1405.067682,9474.636058,-2368.659014,153.219100
1405.068011,9326.594869,-3849.070898,919.314598
1405.068340,7846.182985,-5995.668130,1532.190996
1405.068669,6957.935855,-6365.771101,1072.533697
1405.068998,6735.874072,-6661.853478,919.314598
1405.069327,7105.977043,-6291.750507,919.314598
1405.069656,7031.956449,-7772.162391,2068.457845
1405.069985,7031.956449,-7920.203579,2298.286494
1405.070314,7105.977043,-6587.832884,919.314598
1405.070644,6809.894666,-5921.647536,919.314598
1405.070973,5847.626942,-7031.956449,842.705048
1405.071302,4811.338623,-7846.182985,383.047749
1405.071631,4663.297435,-7402.059420,153.219100
1405.071960,6513.812290,-7031.956449,689.485948
1405.072289,8290.306550,-6513.812290,1455.581446
1405.072618,7920.203579,-6661.853478,1532.190996
1405.072947,7105.977043,-6735.874072,1302.362347
1405.073276,7624.121203,-4663.297435,536.266849
1405.073605,7105.977043,-5403.503377,-689.485948
1405.073934,5995.668130,-7476.080014,842.705048
1405.074263,5403.503377,-7550.100608,842.705048
1405.074592,6365.771101,-6883.915261,383.047749
1405.074921,7550.100608,-6883.915261,1455.581446
1405.075251,8216.285956,-6365.771101,2451.505594
1405.075580,8364.327145,-5699.585753,1762.019645
1405.075909,7846.182985,-4367.215058,2068.457845
1405.076238,8142.265362,-4515.256246,689.485948
1405.076567,7698.141797,-5625.565159,612.876398
1405.076896,5995.668130,-6217.729913,1225.752797
1405.077225,4737.318029,-7994.224174,612.876398
1405.077554,6069.688724,-8290.306550,1072.533697
1405.077883,6735.874072,-7846.182985,1685.410096
1405.078212,6513.812290,-7402.059420,2298.286494
1405.078541,6439.791695,-6365.771101,995.924147
1405.078870,7105.977043,-5107.421000,689.485948
1405.079199,7550.100608,-5847.626942,306.438199
1405.079528,6809.894666,-5625.565159,995.924147
1405.079858,5921.647536,-5699.585753,1225.752797
1405.080187,7624.121203,-5995.668130,1072.533697
1405.080516,8734.430116,-6587.832884,1225.752797
1405.080845,8586.388927,-7698.141797,1991.848295
1405.081174,8364.327145,-6069.688724,1072.533697
1405.081503,7476.080014,-5699.585753,766.095498
1405.081832,7476.080014,-5995.668130,0.000000
1405.082161,6735.874072,-7179.997637,612.876398
1405.082490,5033.400406,-8956.491898,383.047749
1405.082819,4663.297435,-8660.409521,536.266849
1405.083148,4663.297435,-9474.636058,306.438199
1405.083477,6069.688724,-9030.512492,229.828649
1405.083806,6439.791695,-7476.080014,1455.581446
1405.084135,6587.832884,-6069.688724,1149.143247
1405.084465,7254.018232,-4589.276840,995.924147
1405.084794,7846.182985,-4737.318029,229.828649
1405.085123,8142.265362,-5033.400406,1455.581446
1405.085452,7476.080014,-5699.585753,1455.581446
1405.085781,7698.141797,-5107.421000,1685.410096
1405.086110,8216.285956,-4811.338623,919.314598
1405.086439,8290.306550,-5995.668130,1302.362347
1405.086768,8068.244768,-6143.709319,2298.286494
1405.087097,8142.265362,-5699.585753,2145.067394
1405.087426,7920.203579,-4959.379811,995.924147
1405.087755,7105.977043,-5625.565159,919.314598
1405.088084,5403.503377,-8660.409521,536.266849
1405.088413,4145.153275,-8290.306550,229.828649
1405.088742,3923.091493,-8068.244768,-306.438199
1405.089072,5625.565159,-7254.018232,459.657299
1405.089401,7254.018232,-7105.977043,1685.410096
1405.089730,7402.059420,-6291.750507,2451.505594
1405.090059,7698.141797,-4515.256246,919.314598
1405.090388,8142.265362,-5329.482782,0.000000
1405.090717,7402.059420,-6587.832884,995.924147
1405.091046,6661.853478,-7994.224174,689.485948
1405.091375,5699.585753,-8216.285956,612.876398
1405.091704,6069.688724,-8660.409521,459.657299
1405.092033,5403.503377,-10214.842000,383.047749
1405.092362,5107.421000,-9844.739029,1378.971896
1405.092691,5033.400406,-8660.409521,536.266849
1405.093020,5995.668130,-7994.224174,536.266849
1405.093349,6143.709319,-7550.100608,1532.190996
1405.093679,5033.400406,-8882.471304,536.266849
1405.094008,3404.947333,-8882.471304,-153.219100
1405.094337,3701.029710,-9030.512492,-383.047749
1405.094666,5625.565159,-9400.615463,2221.676944
1405.094995,6883.915261,-7920.203579,3217.601092
1405.095324,7254.018232,-4885.359217,4060.306139
1405.095653,8808.450710,-1998.556043,2068.457845
1405.095982,8956.491898,-2664.741391,1378.971896
1405.096311,7624.121203,-5699.585753,1838.629195
1405.096640,5255.462188,-7994.224174,1608.800546
1405.096969,4219.173869,-8438.347739,0.000000
1405.097298,2664.741391,-8660.409521,-2068.457845
1405.097627,3108.864956,-12583.501014,766.095498
1405.097956,4959.379811,-13545.768739,1762.019645
1405.098286,5551.544565,-10214.842000,2298.286494
1405.098615,4811.338623,-7328.038826,229.828649
1405.098944,4811.338623,-6513.812290,-459.657299
1405.099273,4811.338623,-9400.615463,689.485948
1405.099602,3552.988522,-10955.047942,2068.457845
1405.099931,1776.494261,-10658.965565,76.609550
1405.100260,3034.844362,-9400.615463,229.828649
1405.100589,4737.318029,-9326.594869,2451.505594
1405.100918,5625.565159,-9104.533087,3830.477490
1405.101247,5625.565159,-7624.121203,2681.334243
1405.101576,4959.379811,-4293.194464,229.828649
1405.101905,4959.379811,-3627.009116,-919.314598
1405.102234,5551.544565,-6439.791695,1225.752797
1405.102563,6957.935855,-9178.553681,2681.334243
1405.102893,6957.935855,-10658.965565,1378.971896
1405.103222,4811.338623,-9400.615463,0.000000
1405.103551,3256.906145,-9844.739029,-229.828649
1405.103880,5107.421000,-10881.027347,1302.362347
1405.104209,6513.812290,-10436.903782,2221.676944
1405.104538,5995.668130,-7698.141797,229.828649
1405.104867,4367.215058,-7105.977043,-153.219100
1405.105196,4145.153275,-7179.997637,306.438199
1405.105525,5773.606348,-9844.739029,1302.362347
1405.105854,6143.709319,-9696.697840,1455.581446
1405.106183,5107.421000,-9844.739029,1072.533697
1405.106512,3923.091493,-9770.718434,1378.971896
1405.106841,3849.070898,-9474.636058,1685.410096
1405.107170,5181.441594,-9178.553681,1532.190996
1405.107500,5625.565159,-7624.121203,459.657299
1405.107829,4219.173869,-6513.812290,1072.533697
1405.108158,4219.173869,-7105.977043,1838.629195
1405.108487,6365.771101,-6143.709319,2298.286494
1405.108816,7920.203579,-4737.318029,1991.848295
1405.109145,7105.977043,-5847.626942,1378.971896
1405.109474,6069.688724,-7624.121203,1762.019645
1405.109803,5181.441594,-9474.636058,1685.410096
1405.110132,4367.215058,-8734.430116,1225.752797
1405.110461,4145.153275,-8734.430116,0.000000
1405.110790,3701.029710,-9474.636058,-306.438199
1405.111119,3627.009116,-11473.192101,0.000000
1405.111448,4293.194464,-12953.603985,1378.971896
1405.111777,4737.318029,-10807.006753,1608.800546
1405.112107,5107.421000,-8438.347739,1532.190996
1405.112436,4959.379811,-6587.832884,1149.143247
1405.112765,4737.318029,-6513.812290,919.314598
1405.113094,5403.503377,-7476.080014,919.314598
1405.113423,5699.585753,-5773.606348,1532.190996
1405.113752,6143.709319,-5699.585753,1915.238745
1405.114081,6587.832884,-6439.791695,1991.848295
1405.114410,5847.626942,-8808.450710,1915.238745
1405.114739,3552.988522,-10955.047942,842.705048
1405.115068,2072.576638,-12435.459826,229.828649
1405.115397,2220.617826,-12213.398043,0.000000
1405.115726,2886.803174,-12509.480420,536.266849
1405.116055,2960.823768,-12805.562797,1072.533697
1405.116384,2886.803174,-12805.562797,2068.457845
1405.116714,3478.967927,-10658.965565,1685.410096
1405.117043,3552.988522,-8290.306550,1608.800546
1405.117372,5107.421000,-5403.503377,1762.019645
1405.117701,7179.997637,-3997.112087,1762.019645
1405.118030,7994.224174,-3330.926739,2068.457845
1405.118359,7328.038826,-3775.050304,1378.971896
1405.118688,6587.832884,-6735.874072,766.095498
1405.119017,5699.585753,-7254.018232,76.609550
1405.119346,4959.379811,-10214.842000,0.000000
1405.119675,3923.091493,-11769.274478,612.876398
1405.120004,3552.988522,-13471.748144,995.924147
1405.120334,3775.050304,-13915.871710,153.219100
1405.120663,2886.803174,-13027.624579,-153.219100
1405.120992,2664.741391,-11695.253884,-383.047749
1405.121321,3034.844362,-11177.109724,0.000000
1405.121650,3256.906145,-10362.883188,1149.143247
1405.121979,3034.844362,-8216.285956,766.095498
1405.122309,4811.338623,-5551.544565,2528.115143
1405.122638,7994.224174,-3182.885551,2987.772442
1405.122967,9474.636058,-2072.576638,3753.867940
1405.123296,8512.368333,-2738.761985,2528.115143
1405.123625,7476.080014,-2516.700203,995.924147
1405.123955,6513.812290,-4589.276840,-459.657299
1405.124284,5551.544565,-8142.265362,842.705048
1405.124613,5921.647536,-10658.965565,842.705048
1405.124942,5847.626942,-13249.686362,1225.752797
1405.125271,5921.647536,-11399.171507,2068.457845
1405.125601,5181.441594,-11399.171507,1072.533697
1405.125930,4885.359217,-10510.924376,1378.971896
1405.126259,3701.029710,-10436.903782,689.485948
1405.126588,2072.576638,-10140.821405,-689.485948
1405.126917,592.164754,-9400.615463,-1455.581446
1405.127246,1258.350101,-10214.842000,-383.047749
1405.127576,2812.782580,-9844.739029,-229.828649
1405.127905,4515.256246,-9252.574275,612.876398
1405.128234,5403.503377,-7550.100608,1149.143247
1405.128563,6439.791695,-6143.709319,842.705048
1405.128892,7772.162391,-4663.297435,1455.581446
1405.129222,8660.409521,-4589.276840,3447.429741
1405.129551,9474.636058,-6587.832884,3370.820191
1405.129880,9326.594869,-7105.977043,3753.867940
1405.130209,6735.874072,-8290.306550,3140.991542
1405.130538,5255.462188,-8660.409521,2221.676944
1405.130867,4663.297435,-8882.471304,1225.752797
1405.131197,3182.885551,-10584.944971,1762.019645
1405.131526,1924.535449,-10288.862594,229.828649
1405.131855,1480.411884,-10066.800811,0.000000
1405.132184,1406.391290,-10066.800811,-1149.143247
1405.132513,1924.535449,-8808.450710,-1685.410096
1405.132843,3108.864956,-7994.224174,-919.314598
1405.133172,5033.400406,-8438.347739,0.000000
1405.133501,6957.935855,-8882.471304,1915.238745
1405.133830,8142.265362,-9622.677246,2374.896044
1405.134159,7254.018232,-9696.697840,3140.991542
1405.134489,5699.585753,-9400.615463,2757.943793
1405.134818,5403.503377,-9548.656652,1838.629195
1405.135147,4737.318029,-8734.430116,2528.115143
1405.135476,4515.256246,-8586.388927,2834.553343
1405.135805,5847.626942,-7105.977043,3447.429741
1405.136134,5847.626942,-6735.874072,2911.162892
1405.136464,4959.379811,-7328.038826,2451.505594
1405.136793,4367.215058,-7994.224174,1685.410096
1405.137122,4071.132681,-8808.450710,1991.848295
1405.137451,4071.132681,-7550.100608,1225.752797
1405.137780,4367.215058,-8438.347739,689.485948
1405.138110,4811.338623,-8882.471304,1455.581446
1405.138439,4811.338623,-9548.656652,1608.800546
1405.138768,4441.235652,-11251.130318,1762.019645
1405.139097,4367.215058,-9992.780217,2068.457845
1405.139426,4663.297435,-9474.636058,1762.019645
1405.139756,6143.709319,-8808.450710,3294.210641
1405.140085,7105.977043,-7105.977043,4826.401637
1405.140414,7846.182985,-5921.647536,4596.572988
1405.140743,7772.162391,-4219.173869,3983.696590
1405.141072,7550.100608,-3849.070898,3447.429741
1405.141401,7550.100608,-4737.318029,2298.286494
1405.141731,6587.832884,-5995.668130,2298.286494
1405.142060,5847.626942,-7105.977043,1915.238745
1405.142389,6217.729913,-7846.182985,1762.019645
1405.142718,6143.709319,-8882.471304,2987.772442
1405.143047,6143.709319,-8586.388927,3677.258390
1405.143377,6365.771101,-8364.327145,3447.429741
1405.143706,5107.421000,-7550.100608,3294.210641
1405.144035,4959.379811,-7698.141797,3217.601092
1405.144364,6069.688724,-6957.935855,4213.525239
1405.144693,8068.244768,-4885.359217,4903.011187
1405.145022,8586.388927,-4145.153275,5056.230287
1405.145352,8660.409521,-3627.009116,4673.182538
1405.145681,8512.368333,-4663.297435,5132.839837
1405.146010,8660.409521,-4293.194464,4366.744339
1405.146339,8660.409521,-4737.318029,4673.182538
1405.146668,8438.347739,-5329.482782,4290.134789
1405.146998,8512.368333,-6439.791695,3447.429741
1405.147327,7105.977043,-7920.203579,4213.525239
1405.147656,5773.606348,-9252.574275,3677.258390
1405.147985,4441.235652,-10214.842000,2987.772442
1405.148314,3627.009116,-10362.883188,2757.943793
1405.148644,2960.823768,-10658.965565,3064.381992
1405.148973,3256.906145,-10066.800811,3447.429741
1405.149302,4589.276840,-9474.636058,4673.182538
1405.149631,5773.606348,-7031.956449,4290.134789
1405.149960,6513.812290,-5625.565159,4979.620737
1405.150289,8142.265362,-4737.318029,5745.716235
1405.150619,9622.677246,-4737.318029,6435.202183
1405.150948,9770.718434,-3923.091493,6511.811733
1405.151277,9400.615463,-3108.864956,5592.497135
1405.151606,9104.533087,-3182.885551,4826.401637
1405.151935,9030.512492,-2960.823768,4903.011187
1405.152265,8142.265362,-4811.338623,5132.839837
1405.152594,7402.059420,-6069.688724,4826.401637
1405.152923,6439.791695,-6513.812290,3140.991542
1405.153252,5625.565159,-8882.471304,3370.820191
1405.153581,5033.400406,-9474.636058,4290.134789
1405.153911,4885.359217,-10140.821405,4519.963438
1405.154240,3404.947333,-10955.047942,3447.429741
1405.154569,2294.638420,-10436.903782,3064.381992
1405.154898,2590.720797,-9918.759623,3217.601092
1405.155227,4367.215058,-8512.368333,3677.258390
1405.155556,6587.832884,-6661.853478,4596.572988
1405.155886,8586.388927,-5329.482782,5669.106685
1405.156215,9696.697840,-2738.761985,5822.325785
1405.156544,10214.842000,-1850.514855,6665.030833
1405.156873,10584.944971,-888.247130,5822.325785
1405.157202,9252.574275,-1998.556043,4979.620737
1405.157532,7846.182985,-3997.112087,3983.696590
1405.157861,7105.977043,-6217.729913,3524.039291
1405.158190,6735.874072,-7624.121203,3140.991542
1405.158519,6217.729913,-8586.388927,2681.334243
1405.158848,5477.523971,-10066.800811,2604.724693
1405.159178,5107.421000,-10510.924376,3600.648841
1405.159507,5255.462188,-10362.883188,3983.696590
1405.159836,5403.503377,-9326.594869,3677.258390
1405.160165,6143.709319,-6587.832884,3907.087040
1405.160494,7328.038826,-4737.318029,3677.258390
1405.160823,8882.471304,-4071.132681,3830.477490
1405.161153,9104.533087,-3627.009116,4060.306139
1405.161482,9030.512492,-4737.318029,3370.820191
1405.161811,8438.347739,-5329.482782,3217.601092
1405.162140,7105.977043,-6439.791695,3370.820191
1405.162469,6143.709319,-7179.997637,2681.334243
1405.162799,5477.523971,-7772.162391,2834.553343
1405.163128,6217.729913,-7846.182985,3064.381992
1405.163457,7402.059420,-7994.224174,3983.696590
1405.163786,8364.327145,-7031.956449,4596.572988
1405.164115,8512.368333,-7105.977043,4519.963438
1405.164444,7994.224174,-6439.791695,4213.525239
1405.164774,7550.100608,-4959.379811,3907.087040
1405.165103,7105.977043,-3997.112087,2911.162892
1405.165432,7476.080014,-2368.659014,2911.162892
1405.165761,8068.244768,-3478.967927,3983.696590
1405.166090,9104.533087,-3923.091493,4903.011187
1405.166420,8512.368333,-5699.585753,4060.306139
1405.166749,6957.935855,-8290.306550,3447.429741
1405.167078,5625.565159,-10362.883188,2451.505594
1405.167407,4737.318029,-11103.089130,2451.505594
1405.167736,3627.009116,-11103.089130,3140.991542
1405.168066,3997.112087,-9992.780217,2681.334243
1405.168395,4441.235652,-7402.059420,2911.162892
1405.168724,5329.482782,-5921.647536,2987.772442
1405.169053,7624.121203,-5921.647536,4060.306139
1405.169382,7772.162391,-5329.482782,5592.497135
1405.169711,8660.409521,-4145.153275,5439.278036
1405.170041,8808.450710,-3478.967927,5669.106685
1405.170370,9622.677246,-1628.453072,4979.620737
1405.170699,9844.739029,-2294.638420,4673.182538
1405.171028,9104.533087,-3775.050304,4443.353888
1405.171357,7994.224174,-6069.688724,3370.820191
1405.171687,6439.791695,-8734.430116,3140.991542
1405.172016,5107.421000,-9770.718434,2911.162892
1405.172345,3775.050304,-11843.295072,3294.210641
1405.172674,3701.029710,-12509.480420,3753.867940
1405.173003,3330.926739,-11103.089130,4213.525239
1405.173333,3701.029710,-7994.224174,2757.943793
1405.173662,4959.379811,-5181.441594,4136.915689
1405.173991,7254.018232,-3478.967927,5132.839837
1405.174320,9474.636058,-3108.864956,5592.497135
1405.174649,9252.574275,-2294.638420,5745.716235
1405.174978,9326.594869,-1998.556043,5056.230287
1405.175308,9474.636058,-2368.659014,4979.620737
1405.175637,8660.409521,-5033.400406,5132.839837
1405.175966,7624.121203,-7698.141797,4903.011187
1405.176295,7624.121203,-8734.430116,3907.087040
1405.176624,7179.997637,-9622.677246,3677.258390
1405.176954,5551.544565,-10214.842000,3370.820191
1405.177283,5995.668130,-10214.842000,3983.696590
1405.177612,5477.523971,-7698.141797,3217.601092
1405.177941,4367.215058,-7254.018232,2911.162892
1405.178270,4959.379811,-6291.750507,4366.744339
1405.178599,7179.997637,-3701.029710,4136.915689
1405.178929,7920.203579,-4737.318029,4749.792088
1405.179258,7624.121203,-3997.112087,5209.449386
1405.179587,8142.265362,-4293.194464,4519.963438
1405.179916,8364.327145,-6217.729913,5439.278036
1405.180245,8734.430116,-5773.606348,5515.887586
1405.180575,8586.388927,-5033.400406,4136.915689
1405.180904,7254.018232,-6587.832884,2604.724693
1405.181233,6217.729913,-8660.409521,4443.353888
1405.181562,6365.771101,-9844.739029,3294.210641
1405.181891,6365.771101,-9030.512492,3524.039291
1405.182221,5181.441594,-7772.162391,2834.553343
1405.182550,4811.338623,-7624.121203,1838.629195
1405.182879,4589.276840,-7402.059420,2374.896044
1405.183208,5699.585753,-6661.853478,3447.429741
1405.183537,7846.182985,-4515.256246,4136.915689
1405.183866,8364.327145,-2812.782580,3677.258390
1405.184196,7994.224174,-1850.514855,2451.505594
1405.184525,7846.182985,-4293.194464,1685.410096
1405.184854,7994.224174,-6069.688724,2528.115143
1405.185183,8956.491898,-6883.915261,2987.772442
1405.185512,8290.306550,-7624.121203,2681.334243
1405.185842,7105.977043,-8956.491898,2221.676944
1405.186171,5181.441594,-10362.883188,1915.238745
1405.186500,4737.318029,-10436.903782,1685.410096
1405.186829,5181.441594,-7994.224174,2374.896044
1405.187158,7179.997637,-5033.400406,2298.286494
1405.187488,7846.182985,-5033.400406,1838.629195
1405.187817,7550.100608,-4441.235652,2451.505594
1405.188146,7328.038826,-3849.070898,2528.115143
1405.188475,7031.956449,-4293.194464,1532.190996
1405.188804,6143.709319,-3627.009116,1149.143247
1405.189133,6587.832884,-6809.894666,919.314598
1405.189463,7698.141797,-7402.059420,1838.629195
1405.189792,8068.244768,-7846.182985,1762.019645
1405.190121,7846.182985,-9030.512492,1302.362347
1405.190450,6809.894666,-8956.491898,229.828649
1405.190779,6587.832884,-9474.636058,153.219100
1405.191109,6513.812290,-8142.265362,842.705048
1405.191438,5107.421000,-8438.347739,383.047749
1405.191767,4589.276840,-8660.409521,229.828649
1405.192096,4959.379811,-8956.491898,1532.190996
1405.192425,6217.729913,-5403.503377,919.314598
1405.192755,7624.121203,-2220.617826,1915.238745
1405.193084,8808.450710,-3182.885551,2221.676944
1405.193413,10066.800811,-2886.803174,2451.505594
1405.193742,8808.450710,-2738.761985,1608.800546
1405.194071,8290.306550,-2442.679609,1302.362347
1405.194400,7772.162391,-2590.720797,-229.828649
1405.194730,6661.853478,-7920.203579,-306.438199
1405.195059,5847.626942,-10955.047942,689.485948
1405.195388,6143.709319,-10066.800811,536.266849
1405.195717,7105.977043,-8882.471304,842.705048
1405.196046,6143.709319,-8586.388927,76.609550
1405.196376,5477.523971,-10288.862594,383.047749
1405.196705,5329.482782,-8364.327145,0.000000
1405.197034,5107.421000,-6069.688724,229.828649
1405.197363,5699.585753,-5181.441594,-612.876398
1405.197692,5847.626942,-5847.626942,1532.190996
1405.198021,7105.977043,-6587.832884,1838.629195
1405.198351,8808.450710,-3997.112087,2451.505594
1405.198680,9992.780217,-2146.597232,2911.162892
1405.199009,11029.068536,-4737.318029,2911.162892
1405.199338,10066.800811,-5921.647536,2834.553343
1405.199667,7772.162391,-5995.668130,1532.190996
1405.199997,6143.709319,-6291.750507,-689.485948
1405.200326,5699.585753,-7105.977043,-1072.533697
1405.200655,5107.421000,-11325.150913,689.485948
1405.200984,6291.750507,-10732.986159,2221.676944
1405.201313,7550.100608,-8660.409521,2298.286494
1405.201643,7031.956449,-6217.729913,1455.581446
1405.201972,5477.523971,-6217.729913,0.000000
1405.202301,4811.338623,-7402.059420,1149.143247
1405.202630,5995.668130,-5329.482782,919.314598
1405.202959,7328.038826,-4219.173869,919.314598
1405.203288,8216.285956,-4219.173869,1762.019645
1405.203618,8068.244768,-6291.750507,2451.505594
1405.203947,7846.182985,-6513.812290,3983.696590
1405.204276,8216.285956,-4293.194464,2604.724693
1405.204605,7920.203579,-5551.544565,919.314598
1405.204934,7105.977043,-7179.997637,766.095498
1405.205264,5921.647536,-7772.162391,1608.800546
1405.205593,5551.544565,-8068.244768,0.000000
1405.205922,5181.441594,-7254.018232,229.828649
1405.206251,5477.523971,-8438.347739,0.000000
1405.206580,6143.709319,-8216.285956,1455.581446
1405.206910,6735.874072,-5033.400406,1915.238745
1405.207239,7105.977043,-4737.318029,1455.581446
1405.207568,7550.100608,-3997.112087,766.095498
1405.207897,7698.141797,-5107.421000,1608.800546
1405.208226,7994.224174,-5551.544565,2298.286494
1405.208555,8142.265362,-5107.421000,1685.410096
1405.208885,6661.853478,-6587.832884,919.314598
1405.209214,5625.565159,-8216.285956,842.705048
1405.209543,6217.729913,-8216.285956,1608.800546
1405.209872,7105.977043,-6217.729913,1455.581446
1405.210201,7772.162391,-6957.935855,1149.143247
1405.210531,7031.956449,-8068.244768,995.924147
1405.210860,6143.709319,-8068.244768,536.266849
1405.211189,6069.688724,-6587.832884,383.047749
1405.211518,6809.894666,-5847.626942,459.657299
1405.211847,7105.977043,-7105.977043,0.000000
1405.212177,7179.997637,-7550.100608,612.876398
1405.212506,7920.203579,-5477.523971,1072.533697
1405.212835,8438.347739,-4589.276840,383.047749
1405.213164,7550.100608,-5329.482782,306.438199
1405.213493,6809.894666,-6809.894666,229.828649
1405.213822,6883.915261,-9178.553681,1455.581446
1405.214152,7179.997637,-7698.141797,1685.410096
1405.214481,7328.038826,-7105.977043,383.047749
1405.214810,6587.832884,-7846.182985,536.266849
1405.215139,6735.874072,-7105.977043,1455.581446
1405.215468,7179.997637,-6143.709319,1532.190996
1405.215798,7550.100608,-4737.318029,1149.143247
1405.216127,6217.729913,-5033.400406,0.000000
1405.216456,5551.544565,-5699.585753,459.657299
1405.216785,5847.626942,-6587.832884,842.705048
1405.217114,6513.812290,-5921.647536,766.095498
1405.217443,7105.977043,-6661.853478,1378.971896
1405.217773,6735.874072,-7698.141797,1072.533697
1405.218102,7105.977043,-6439.791695,612.876398
1405.218431,7105.977043,-5921.647536,153.219100
1405.218760,6735.874072,-6069.688724,0.000000
1405.219089,6661.853478,-7031.956449,0.000000
1405.219419,6143.709319,-8290.306550,689.485948
1405.219748,6513.812290,-6809.894666,1302.362347
1405.220077,7550.100608,-6809.894666,1225.752797
1405.220406,8142.265362,-7846.182985,1915.238745
1405.220735,7105.977043,-6513.812290,1838.629195
1405.221065,7402.059420,-5773.606348,1455.581446
1405.221394,7994.224174,-4145.153275,919.314598
1405.221723,7550.100608,-3775.050304,0.000000
1405.222052,6587.832884,-5181.441594,1072.533697
1405.222381,6143.709319,-6217.729913,612.876398
1405.222710,6883.915261,-6291.750507,459.657299
1405.223040,7105.977043,-7772.162391,383.047749
1405.223369,7846.182985,-9030.512492,2068.457845
1405.223698,8512.368333,-8216.285956,2221.676944
1405.224027,7994.224174,-6217.729913,1532.190996
1405.224356,6883.915261,-6291.750507,76.609550
1405.224686,6439.791695,-6291.750507,0.000000
1405.225015,5625.565159,-7920.203579,919.314598
1405.225344,5699.585753,-5921.647536,689.485948
1405.225673,5551.544565,-6513.812290,612.876398
1405.226002,6365.771101,-8142.265362,1378.971896
1405.226332,7105.977043,-7476.080014,2681.334243
1405.226661,8142.265362,-6439.791695,2451.505594
1405.226990,8438.347739,-4959.379811,2911.162892
1405.227319,7328.038826,-4441.235652,536.266849
1405.227648,5773.606348,-6439.791695,0.000000
1405.227977,5551.544565,-5773.606348,842.705048
1405.228307,6217.729913,-5773.606348,459.657299
1405.228636,6957.935855,-6883.915261,153.219100
1405.228965,7031.956449,-7994.224174,1378.971896
1405.229294,7179.997637,-7846.182985,1762.019645
1405.229623,8438.347739,-7105.977043,1838.629195
1405.229952,7105.977043,-6735.874072,995.924147
1405.230282,6809.894666,-7031.956449,536.266849
1405.230611,6439.791695,-7105.977043,1302.362347
1405.230940,6365.771101,-6291.750507,1532.190996
1405.231269,6217.729913,-6587.832884,76.609550
1405.231598,5995.668130,-6291.750507,995.924147
1405.231927,6291.750507,-6809.894666,1455.581446
1405.232257,7402.059420,-5921.647536,2987.772442
1405.232586,8364.327145,-4441.235652,2987.772442
1405.232915,8364.327145,-5033.400406,1149.143247
1405.233244,6661.853478,-6439.791695,919.314598
1405.233573,5773.606348,-6809.894666,766.095498
1405.233902,5921.647536,-6957.935855,-536.266849
1405.234232,6661.853478,-6883.915261,-766.095498
1405.234561,6957.935855,-8142.265362,0.000000
1405.234890,7994.224174,-8068.244768,1225.752797
1405.235219,8586.388927,-6587.832884,1991.848295
1405.235548,8216.285956,-5773.606348,459.657299
1405.235877,7476.080014,-6957.935855,1072.533697
1405.236207,7105.977043,-6957.935855,1225.752797
1405.236536,6291.750507,-7179.997637,1149.143247
1405.236865,6661.853478,-5921.647536,1685.410096
1405.237194,6957.935855,-6143.709319,1072.533697
1405.237523,6439.791695,-6069.688724,1072.533697
1405.237852,6587.832884,-4293.194464,2145.067394
1405.238182,7624.121203,-3552.988522,919.314598
1405.238511,7698.141797,-5033.400406,1149.143247
1405.238840,7179.997637,-7105.977043,1072.533697
1405.239169,5847.626942,-8068.244768,995.924147
1405.239498,5699.585753,-7179.997637,76.609550
1405.239827,5773.606348,-7624.121203,-229.828649
1405.240157,6661.853478,-8438.347739,0.000000
1405.240486,7254.018232,-8512.368333,766.095498
1405.240815,7920.203579,-6883.915261,1225.752797
1405.241144,7254.018232,-5107.421000,-383.047749
1405.241473,6883.915261,-6883.915261,536.266849
1405.241802,7328.038826,-7105.977043,1915.238745
1405.242132,7031.956449,-6661.853478,1532.190996
1405.242461,6439.791695,-5625.565159,689.485948
1405.242790,5847.626942,-6439.791695,76.609550
1405.243119,6735.874072,-6883.915261,766.095498
1405.243448,7772.162391,-5625.565159,1378.971896
1405.243777,8438.347739,-5329.482782,1762.019645
1405.244107,8512.368333,-5403.503377,1072.533697
1405.244436,7254.018232,-6069.688724,459.657299
1405.244765,5107.421000,-7179.997637,842.705048
1405.245094,5921.647536,-7402.059420,689.485948
1405.245423,6143.709319,-6291.750507,-229.828649
1405.245752,6365.771101,-8438.347739,0.000000
1405.246082,7105.977043,-7994.224174,2221.676944
1405.246411,8734.430116,-6809.894666,2528.115143
1405.246740,8882.471304,-5329.482782,1302.362347
1405.247069,6957.935855,-4663.297435,0.000000
1405.247398,5551.544565,-5847.626942,0.000000
1405.247727,6291.750507,-6217.729913,0.000000
1405.248057,5847.626942,-5329.482782,766.095498
1405.248386,6587.832884,-7105.977043,919.314598
1405.248715,7179.997637,-8216.285956,1532.190996
1405.249044,7772.162391,-7254.018232,2681.334243
1405.249373,8512.368333,-6069.688724,2374.896044
1405.249702,7920.203579,-5329.482782,1149.143247
1405.250032,6809.894666,-6217.729913,153.219100
1405.250361,5773.606348,-6883.915261,919.314598
1405.250690,5921.647536,-4959.379811,153.219100
1405.251019,6735.874072,-4885.359217,-612.876398
1405.251348,7031.956449,-6957.935855,306.438199
1405.251677,7476.080014,-7254.018232,2145.067394
1405.252007,8660.409521,-5995.668130,2451.505594
1405.252336,8068.244768,-4737.318029,2068.457845
1405.252665,7476.080014,-6069.688724,1455.581446
1405.252994,6957.935855,-6883.915261,995.924147
1405.253323,6069.688724,-8068.244768,919.314598
1405.253652,5847.626942,-7105.977043,1149.143247
1405.253982,6291.750507,-7994.224174,842.705048
1405.254311,6439.791695,-8734.430116,1532.190996
1405.254640,6513.812290,-7254.018232,2604.724693
1405.254969,7402.059420,-5699.585753,2528.115143
1405.255298,8364.327145,-5181.441594,1685.410096
1405.255627,6809.894666,-6217.729913,1302.362347
1405.255957,5847.626942,-6439.791695,1532.190996
1405.256286,5773.606348,-5625.565159,1072.533697
1405.256615,6809.894666,-6291.750507,0.000000
1405.256944,5995.668130,-7402.059420,76.609550
1405.257273,5921.647536,-8364.327145,919.314598
1405.257602,7476.080014,-7254.018232,1838.629195
1405.257932,8216.285956,-5625.565159,1608.800546
1405.258261,7402.059420,-4885.359217,383.047749
1405.258590,7105.977043,-7328.038826,1302.362347
1405.258919,7105.977043,-8068.244768,2145.067394
1405.259248,7328.038826,-6735.874072,1685.410096
1405.259577,7328.038826,-6069.688724,1378.971896
1405.259907,6587.832884,-6365.771101,919.314598
1405.260236,6513.812290,-6217.729913,1532.190996
1405.260565,7105.977043,-5329.482782,1991.848295
1405.260894,7624.121203,-4145.153275,995.924147
1405.261223,7328.038826,-5921.647536,229.828649
1405.261552,6217.729913,-6217.729913,1915.238745
1405.261882,6291.750507,-7031.956449,1455.581446
1405.262211,6809.894666,-6661.853478,766.095498
1405.262540,6143.709319,-6513.812290,0.000000
1405.262869,5477.523971,-7031.956449,153.219100
1405.263198,7254.018232,-5847.626942,459.657299
1405.263527,8438.347739,-4959.379811,459.657299
1405.263857,8660.409521,-5625.565159,766.095498
1405.264186,7920.203579,-7105.977043,536.266849
1405.264515,7105.977043,-9030.512492,2298.286494
1405.264844,6883.915261,-6365.771101,536.266849
1405.265173,6513.812290,-6587.832884,76.609550
1405.265502,6809.894666,-6957.935855,689.485948
1405.265832,7402.059420,-6735.874072,766.095498
1405.266161,7920.203579,-6439.791695,2451.505594
1405.266490,8808.450710,-4515.256246,1532.190996
1405.266819,7994.224174,-5403.503377,0.000000
1405.267148,6365.771101,-6957.935855,383.047749
1405.267477,5551.544565,-7328.038826,842.705048
1405.267807,5995.668130,-6957.935855,76.609550
1405.268136,5921.647536,-7105.977043,0.000000
1405.268465,5699.585753,-8290.306550,0.000000
1405.268794,6883.915261,-7550.100608,1685.410096
1405.269123,7994.224174,-5847.626942,1225.752797
1405.269453,7920.203579,-6439.791695,153.219100
1405.269782,6883.915261,-7476.080014,536.266849
1405.270111,6809.894666,-7328.038826,1455.581446
1405.270440,6809.894666,-6439.791695,1378.971896
1405.270769,7105.977043,-6291.750507,919.314598
1405.271098,6365.771101,-7105.977043,689.485948
1405.271428,6513.812290,-7254.018232,766.095498
1405.271757,7179.997637,-5773.606348,2145.067394
1405.272086,7846.182985,-4515.256246,1225.752797
1405.272415,7550.100608,-5403.503377,153.219100
1405.272744,6069.688724,-7105.977043,842.705048
1405.273073,5847.626942,-7031.956449,1302.362347
1405.273403,6365.771101,-5921.647536,766.095498
1405.273732,6661.853478,-6957.935855,383.047749
1405.274061,7031.956449,-7031.956449,1072.533697
1405.274390,8068.244768,-7031.956449,2145.067394
1405.274719,8290.306550,-4737.318029,1072.533697
1405.275048,6365.771101,-3627.009116,-536.266849
1405.275378,6143.709319,-5847.626942,76.609550
1405.275707,6809.894666,-6217.729913,919.314598
1405.276036,7105.977043,-7105.977043,1838.629195
1405.276365,7179.997637,-6809.894666,2145.067394
1405.276694,6587.832884,-7994.224174,1149.143247
1405.277023,6661.853478,-8438.347739,1991.848295
1405.277353,6661.853478,-5255.462188,1685.410096
1405.277682,7994.224174,-4737.318029,919.314598
1405.278011,8512.368333,-5625.565159,459.657299
1405.278340,6513.812290,-5921.647536,306.438199
1405.278669,6069.688724,-6069.688724,536.266849
1405.278998,7402.059420,-5699.585753,383.047749
1405.279328,7105.977043,-6587.832884,766.095498
1405.279657,7179.997637,-8956.491898,1225.752797
1405.279986,7105.977043,-7846.182985,2604.724693
1405.280315,8290.306550,-5477.523971,995.924147
1405.280644,7846.182985,-5107.421000,0.000000
1405.280973,6809.894666,-5995.668130,612.876398
1405.281303,6809.894666,-7772.162391,842.705048
1405.281632,6661.853478,-7772.162391,1302.362347
1405.281961,5995.668130,-6439.791695,612.876398
1405.282290,5847.626942,-7698.141797,612.876398
1405.282619,7105.977043,-8956.491898,2298.286494
1405.282948,8512.368333,-7105.977043,3447.429741
1405.283278,8068.244768,-5773.606348,2451.505594
1405.283607,7402.059420,-5551.544565,1378.971896
1405.283936,5699.585753,-5403.503377,383.047749
1405.284265,4737.318029,-7105.977043,76.609550
1405.284594,4959.379811,-6069.688724,0.000000
1405.284923,5255.462188,-6587.832884,0.000000
1405.285253,6143.709319,-8586.388927,306.438199
1405.285582,7476.080014,-7550.100608,2068.457845
1405.285911,7698.141797,-6439.791695,2068.457845
1405.286240,7846.182985,-5551.544565,689.485948
1405.286569,6587.832884,-6957.935855,229.828649
1405.286898,5847.626942,-7994.224174,1149.143247
1405.287228,6513.812290,-7402.059420,1302.362347
1405.287557,6809.894666,-6661.853478,1225.752797
1405.287886,6587.832884,-5921.647536,612.876398
1405.288215,5921.647536,-6513.812290,1302.362347
1405.288544,6809.894666,-6291.750507,3217.601092
1405.288873,8808.450710,-4219.173869,2298.286494
1405.289203,8660.409521,-4441.235652,919.314598
1405.289532,7254.018232,-5773.606348,1149.143247
1405.289861,6365.771101,-7105.977043,1455.581446
1405.290190,6069.688724,-6439.791695,689.485948
1405.290519,5625.565159,-5921.647536,-766.095498
1405.290848,5995.668130,-7550.100608,-459.657299
1405.291178,7476.080014,-7476.080014,995.924147
1405.291507,7624.121203,-7105.977043,1762.019645
1405.291836,7179.997637,-6513.812290,459.657299
1405.292165,6883.915261,-6957.935855,153.219100
1405.292494,6587.832884,-7550.100608,1225.752797
1405.292823,6957.935855,-6957.935855,1455.581446
1405.293153,7328.038826,-5107.421000,766.095498
1405.293482,7994.224174,-6143.709319,995.924147
1405.293811,7846.182985,-6735.874072,1608.800546
1405.294140,7550.100608,-6217.729913,2068.457845
1405.294469,8808.450710,-4663.297435,1608.800546
1405.294798,9030.512492,-4145.153275,153.219100
1405.295128,7179.997637,-5995.668130,153.219100
1405.295457,5995.668130,-7105.977043,919.314598
1405.295786,6587.832884,-7920.203579,689.485948
1405.296115,6587.832884,-7105.977043,842.705048
1405.296444,5921.647536,-8734.430116,306.438199
1405.296773,6587.832884,-7846.182985,842.705048
1405.297103,6513.812290,-6439.791695,306.438199
1405.297432,5847.626942,-5255.462188,-306.438199
1405.297761,5625.565159,-5255.462188,-689.485948
1405.298090,7031.956449,-7031.956449,1685.410096
1405.298419,7624.121203,-6809.894666,2681.334243
1405.298748,7624.121203,-6587.832884,2681.334243
1405.299078,7105.977043,-7624.121203,2374.896044
1405.299407,5995.668130,-6957.935855,1225.752797
1405.299736,6661.853478,-6513.812290,1915.238745
1405.300065,7402.059420,-4811.338623,1149.143247
1405.300394,7402.059420,-4441.235652,76.609550
1405.300723,6365.771101,-5551.544565,-1072.533697
1405.301053,5995.668130,-7772.162391,919.314598
1405.301382,6143.709319,-7476.080014,995.924147
1405.301711,5995.668130,-7624.121203,153.219100
1405.302040,5477.523971,-8660.409521,689.485948
1405.302369,7254.018232,-8438.347739,1072.533697
1405.302698,8586.388927,-6217.729913,2374.896044
1405.303028,7772.162391,-5625.565159,1532.190996
1405.303357,7105.977043,-5255.462188,306.438199
1405.303686,6957.935855,-5773.606348,689.485948
1405.304015,6069.688724,-5773.606348,1302.362347
1405.304344,6513.812290,-6291.750507,2221.676944
1405.304673,7328.038826,-7105.977043,2145.067394
1405.305003,7254.018232,-8290.306550,1838.629195
1405.305332,7328.038826,-7254.018232,2221.676944
1405.305661,8216.285956,-5847.626942,2451.505594
1405.305990,8364.327145,-5773.606348,766.095498
1405.306319,6735.874072,-7179.997637,-306.438199
1405.306648,5403.503377,-7476.080014,76.609550
1405.306978,4663.297435,-7105.977043,-995.924147
1405.307307,5403.503377,-6809.894666,-612.876398
1405.307636,6143.709319,-7402.059420,306.438199
1405.307965,7920.203579,-7846.182985,1685.410096
1405.308294,9178.553681,-5995.668130,2681.334243
1405.308623,7920.203579,-5033.400406,2298.286494
1405.308953,7105.977043,-5699.585753,1302.362347
1405.309282,7179.997637,-6143.709319,1532.190996
1405.309611,6809.894666,-5995.668130,2374.896044
1405.309940,6291.750507,-5255.462188,1149.143247
1405.310269,6291.750507,-5699.585753,612.876398
1405.310598,6883.915261,-7105.977043,766.095498
1405.310928,6957.935855,-8142.265362,2528.115143
1405.311257,7550.100608,-6291.750507,2681.334243
1405.311586,7698.141797,-5181.441594,842.705048
1405.311915,6735.874072,-7179.997637,1072.533697
1405.312244,5699.585753,-6957.935855,842.705048
1405.312573,5329.482782,-6883.915261,0.000000
1405.312903,5329.482782,-5921.647536,612.876398
1405.313232,5995.668130,-6439.791695,229.828649
1405.313561,7105.977043,-7328.038826,1149.143247
1405.313890,7772.162391,-6809.894666,2451.505594
1405.314219,7772.162391,-5255.462188,1378.971896
1405.314548,7254.018232,-5921.647536,612.876398
1405.314878,7105.977043,-6439.791695,1072.533697
1405.315207,6809.894666,-7179.997637,1302.362347
1405.315536,6957.935855,-7105.977043,1532.190996
1405.315865,7105.977043,-7031.956449,1225.752797
1405.316194,6735.874072,-7772.162391,536.266849
1405.316523,7031.956449,-6883.915261,995.924147
1405.316853,7772.162391,-5181.441594,1608.800546
1405.317182,8586.388927,-5255.462188,1149.143247
1405.317511,7994.224174,-6217.729913,612.876398
1405.317840,6587.832884,-6735.874072,842.705048
1405.318169,6513.812290,-6809.894666,1455.581446
1405.318498,6883.915261,-5551.544565,383.047749
1405.318828,6439.791695,-7624.121203,766.095498
1405.319157,7624.121203,-7994.224174,1455.581446
1405.319486,8438.347739,-6809.894666,2298.286494
1405.319815,7846.182985,-5181.441594,459.657299
1405.320144,6291.750507,-4663.297435,-383.047749
1405.320473,5995.668130,-6439.791695,76.609550
1405.320803,6513.812290,-6883.915261,153.219100
1405.321132,5847.626942,-7550.100608,995.924147
1405.321461,5995.668130,-7254.018232,1225.752797
1405.321790,7624.121203,-8290.306550,1302.362347
1405.322119,7772.162391,-7772.162391,2221.676944
1405.322448,7994.224174,-5107.421000,2145.067394
1405.322778,8142.265362,-4737.318029,536.266849
1405.323107,7328.038826,-5403.503377,0.000000
1405.323436,6217.729913,-5033.400406,-383.047749
1405.323765,6143.709319,-6957.935855,536.266849
1405.324094,7179.997637,-5921.647536,1302.362347
1405.324423,7031.956449,-7105.977043,766.095498
1405.324753,6439.791695,-7846.182985,1378.971896
1405.325082,7179.997637,-7105.977043,1915.238745
1405.325411,7550.100608,-6143.709319,1378.971896
1405.325740,6513.812290,-5255.462188,0.000000
1405.326069,5477.523971,-6661.853478,0.000000
1405.326398,5255.462188,-6587.832884,919.314598
1405.326728,6217.729913,-7179.997637,1225.752797
1405.327057,6587.832884,-6513.812290,1532.190996
1405.327388,6809.894666,-8512.368333,1685.410096
1405.327717,7550.100608,-7624.121203,2451.505594
1405.328046,7772.162391,-5477.523971,2068.457845
1405.328375,8290.306550,-5181.441594,1455.581446
1405.328705,7846.182985,-5847.626942,995.924147
1405.329034,6809.894666,-7031.956449,612.876398
1405.329363,5847.626942,-7031.956449,536.266849
1405.329692,5477.523971,-4959.379811,-306.438199
1405.330021,6291.750507,-6883.915261,-689.485948
1405.330351,7179.997637,-8216.285956,919.314598
1405.330680,8586.388927,-8290.306550,2374.896044
1405.331009,8956.491898,-6513.812290,1455.581446
1405.331338,7624.121203,-4515.256246,612.876398
1405.331667,6661.853478,-6513.812290,612.876398
1405.331997,7328.038826,-7105.977043,1685.410096
1405.332326,7254.018232,-7105.977043,2374.896044
1405.332655,6809.894666,-5773.606348,919.314598
1405.332984,6143.709319,-6143.709319,689.485948
1405.333313,6217.729913,-5995.668130,1072.533697
1405.333643,7105.977043,-5625.565159,2145.067394
1405.333972,8068.244768,-4663.297435,1915.238745
1405.334301,8586.388927,-5995.668130,1762.019645
1405.334630,7402.059420,-6513.812290,1225.752797
1405.334959,5995.668130,-6439.791695,1072.533697
1405.335289,6439.791695,-5921.647536,459.657299
1405.335618,6439.791695,-7254.018232,-612.876398
1405.335947,6217.729913,-7698.141797,0.000000
1405.336276,6661.853478,-8364.327145,1072.533697
1405.336606,7920.203579,-6513.812290,1225.752797
1405.336935,8512.368333,-5255.462188,995.924147
1405.337264,7254.018232,-6957.935855,995.924147
1405.337593,6809.894666,-7994.224174,1991.848295
1405.337922,6735.874072,-7105.977043,2298.286494
1405.338252,6513.812290,-6365.771101,1455.581446
1405.338581,6809.894666,-7105.977043,1378.971896
1405.338910,6883.915261,-6439.791695,383.047749
1405.339239,7105.977043,-6143.709319,1838.629195
1405.339568,7994.224174,-4959.379811,1532.190996
1405.339898,8142.265362,-4589.276840,383.047749
1405.340227,6883.915261,-6883.915261,1072.533697
1405.340556,5625.565159,-7328.038826,919.314598
1405.340885,5921.647536,-7105.977043,689.485948
1405.341214,6217.729913,-9030.512492,612.876398
1405.341544,6513.812290,-9178.553681,1838.629195
1405.341873,7105.977043,-7402.059420,1072.533697
1405.342202,7105.977043,-4885.359217,919.314598
1405.342531,6513.812290,-4515.256246,-306.438199
1405.342860,6735.874072,-7254.018232,459.657299
1405.343190,6883.915261,-7031.956449,1685.410096
1405.343519,5773.606348,-7105.977043,1302.362347
1405.343848,5921.647536,-6513.812290,1225.752797
1405.344177,6217.729913,-7328.038826,1685.410096
1405.344506,7402.059420,-8586.388927,1532.190996
1405.344836,7846.182985,-6513.812290,2604.724693
1405.345165,7550.100608,-4515.256246,1455.581446
1405.345494,7624.121203,-4737.318029,76.609550
1405.345823,6883.915261,-5403.503377,0.000000
1405.346152,6365.771101,-5699.585753,76.609550
1405.346482,6883.915261,-5921.647536,1072.533697
1405.346811,7105.977043,-5699.585753,689.485948
1405.347140,7031.956449,-7920.203579,689.485948
1405.347469,9104.533087,-7179.997637,1915.238745
1405.347798,9474.636058,-5921.647536,1762.019645
1405.348128,8216.285956,-5033.400406,229.828649
1405.348457,6439.791695,-6735.874072,0.000000
1405.348786,6069.688724,-7105.977043,306.438199
1405.349115,6365.771101,-6439.791695,919.314598
1405.349444,6217.729913,-6809.894666,842.705048
1405.349774,6439.791695,-7698.141797,1532.190996
1405.350103,7105.977043,-8734.430116,1455.581446
1405.350432,7402.059420,-6809.894666,1378.971896
1405.350761,7624.121203,-4737.318029,1991.848295
1405.351090,9178.553681,-3923.091493,229.828649
1405.351420,8512.368333,-4885.359217,229.828649
1405.351749,6291.750507,-6217.729913,536.266849
1405.352078,5921.647536,-6291.750507,-229.828649
1405.352407,6513.812290,-6291.750507,-766.095498
1405.352737,6439.791695,-8586.388927,0.000000
1405.353066,7328.038826,-9622.677246,1378.971896
1405.353395,8512.368333,-8142.265362,2374.896044
1405.353724,8586.388927,-6809.894666,995.924147
1405.354053,6661.853478,-5995.668130,459.657299
1405.354383,6143.709319,-7254.018232,1378.971896
1405.354712,6217.729913,-7105.977043,1149.143247
1405.355041,5181.441594,-5625.565159,1072.533697
1405.355370,5181.441594,-6513.812290,1072.533697
1405.355699,5773.606348,-6439.791695,689.485948
1405.356029,6661.853478,-5403.503377,1455.581446
1405.356358,7846.182985,-4959.379811,2451.505594
1405.356687,8956.491898,-4515.256246,2145.067394
1405.357016,7846.182985,-6143.709319,1455.581446
1405.357345,5773.606348,-7105.977043,459.657299
1405.357675,4811.338623,-7328.038826,0.000000
1405.358004,5255.462188,-6587.832884,-1149.143247
1405.358333,6439.791695,-9104.533087,76.609550
1405.358662,6587.832884,-9400.615463,1072.533697
1405.358991,7476.080014,-7698.141797,1532.190996
1405.359321,8068.244768,-6513.812290,1072.533697
1405.359650,7402.059420,-5921.647536,1685.410096
1405.359979,6883.915261,-6439.791695,1225.752797
1405.360308,7105.977043,-6069.688724,1608.800546
1405.360637,6883.915261,-4737.318029,1762.019645
1405.360967,7031.956449,-5181.441594,1225.752797
1405.361296,6735.874072,-6291.750507,1455.581446
1405.361625,7254.018232,-5551.544565,2298.286494
1405.361954,8512.368333,-4885.359217,1762.019645
1405.362283,8660.409521,-5921.647536,1762.019645
1405.362613,7402.059420,-6957.935855,1455.581446
1405.362942,6291.750507,-7476.080014,306.438199
1405.363271,5551.544565,-7550.100608,536.266849
1405.363600,6143.709319,-7105.977043,536.266849
1405.363929,6291.750507,-8438.347739,612.876398
1405.364259,6513.812290,-8364.327145,1149.143247
1405.364588,7920.203579,-6439.791695,2298.286494
1405.364917,8808.450710,-5477.523971,2374.896044
1405.365246,8586.388927,-5181.441594,1149.143247
1405.365575,6883.915261,-6513.812290,1378.971896
1405.365905,5921.647536,-5477.523971,0.000000
1405.366234,5625.565159,-5625.565159,536.266849
1405.366563,6735.874072,-6513.812290,919.314598
