#time,accel_x,accel_y,accel_z
1140.741001,7031.956449,-5995.668130,1149.143247
1140.741331,6883.915261,-6439.791695,1072.533697
1140.741662,6957.935855,-6809.894666,1149.143247
1140.741993,6957.935855,-6883.915261,1225.752797
1140.742323,7031.956449,-6883.915261,1072.533697
1140.742654,6661.853478,-6587.832884,1302.362347
1140.742985,6883.915261,-6513.812290,919.314598
1140.743315,6587.832884,-6291.750507,1455.581446
1140.743646,6883.915261,-6735.874072,1149.143247
1140.743976,7105.977043,-6661.853478,1455.581446
1140.744307,7031.956449,-6587.832884,766.095498
1140.744638,6661.853478,-6587.832884,1072.533697
1140.744968,6809.894666,-6735.874072,1225.752797
1140.745299,6883.915261,-6587.832884,1072.533697
1140.745630,6957.935855,-6069.688724,842.705048
1140.745960,6587.832884,-6291.750507,1072.533697
1140.746291,6883.915261,-6439.791695,1149.143247
1140.746622,6883.915261,-6661.853478,919.314598
1140.746952,6809.894666,-6809.894666,1225.752797
1140.747283,7179.997637,-6513.812290,842.705048
1140.747613,7105.977043,-6365.771101,1149.143247
1140.747944,6957.935855,-6365.771101,995.924147
1140.748275,7031.956449,-6365.771101,995.924147
1140.748605,7254.018232,-6069.688724,919.314598
1140.748936,7105.977043,-6661.853478,995.924147
1140.749267,7105.977043,-6661.853478,1149.143247
1140.749597,7105.977043,-6365.771101,919.314598
1140.749928,7105.977043,-6587.832884,1072.533697
1140.750258,7105.977043,-6439.791695,1378.971896
1140.750589,7105.977043,-6661.853478,1302.362347
1140.750920,7105.977043,-6217.729913,612.876398
1140.751250,6883.915261,-6587.832884,689.485948
1140.751581,7179.997637,-6513.812290,1225.752797
1140.751912,7254.018232,-6661.853478,1072.533697
1140.752242,7105.977043,-6513.812290,842.705048
1140.752573,7031.956449,-6365.771101,919.314598
1140.752904,7254.018232,-6365.771101,1072.533697
1140.753234,7105.977043,-6957.935855,1149.143247
1140.753565,7105.977043,-6735.874072,536.266849
1140.753895,6883.915261,-6735.874072,919.314598
1140.754226,6957.935855,-6587.832884,995.924147
1140.754557,6735.874072,-6439.791695,1302.362347
1140.754887,6883.915261,-6661.853478,1532.190996
1140.755218,7031.956449,-6735.874072,1302.362347
1140.755549,6883.915261,-6587.832884,1072.533697
1140.755879,6883.915261,-6661.853478,1149.143247
1140.756210,7031.956449,-6513.812290,1149.143247
1140.756540,6883.915261,-6365.771101,766.095498
1140.756871,7031.956449,-6735.874072,1532.190996
1140.757202,6735.874072,-6439.791695,995.924147
1140.757532,7031.956449,-6735.874072,1072.533697
1140.757863,7031.956449,-6883.915261,1149.143247
1140.758194,6809.894666,-6587.832884,1378.971896
1140.758524,6735.874072,-6735.874072,995.924147
1140.758855,6883.915261,-6439.791695,1072.533697
1140.759186,7105.977043,-6587.832884,1378.971896
1140.759516,6957.935855,-6587.832884,766.095498
1140.759847,6957.935855,-6587.832884,1072.533697
1140.760177,7254.018232,-6587.832884,1149.143247
1140.760508,7105.977043,-6661.853478,919.314598
1140.760839,6957.935855,-6143.709319,1072.533697
1140.761169,6883.915261,-6513.812290,766.095498
1140.761500,7105.977043,-6735.874072,995.924147
1140.761831,6957.935855,-6809.894666,1149.143247
1140.762161,6809.894666,-6291.750507,1455.581446
1140.762492,7105.977043,-6513.812290,612.876398
1140.762822,7105.977043,-6809.894666,1072.533697
1140.763153,6957.935855,-6809.894666,995.924147
1140.763484,7031.956449,-6587.832884,1072.533697
1140.763814,7105.977043,-5995.668130,995.924147
1140.764145,7179.997637,-6439.791695,1072.533697
1140.764476,7105.977043,-6069.688724,1149.143247
1140.764806,6883.915261,-6513.812290,1149.143247
1140.765137,6809.894666,-6513.812290,995.924147
1140.765468,6883.915261,-6439.791695,1455.581446
1140.765798,6957.935855,-6439.791695,919.314598
1140.766129,7031.956449,-6365.771101,1072.533697
1140.766459,7105.977043,-6513.812290,919.314598
1140.766790,6957.935855,-6365.771101,1149.143247
1140.767121,7105.977043,-6513.812290,1225.752797
1140.767451,7105.977043,-6513.812290,995.924147
1140.767782,6957.935855,-6661.853478,842.705048
1140.768113,6957.935855,-6587.832884,766.095498
1140.768443,7550.100608,-6587.832884,766.095498
1140.768774,7179.997637,-6439.791695,842.705048
1140.769104,6883.915261,-6513.812290,842.705048
1140.769435,6735.874072,-6365.771101,995.924147
1140.769766,6587.832884,-6365.771101,1302.362347
1140.770096,6883.915261,-6513.812290,459.657299
1140.770427,6809.894666,-6587.832884,1072.533697
1140.770758,6883.915261,-6587.832884,766.095498
1140.771088,7105.977043,-6439.791695,612.876398
1140.771419,6735.874072,-6365.771101,1685.410096
1140.771750,6957.935855,-6809.894666,1149.143247
1140.772080,6957.935855,-6809.894666,995.924147
1140.772411,6957.935855,-6809.894666,1149.143247
1140.772741,7105.977043,-6735.874072,1455.581446
1140.773072,6957.935855,-6735.874072,766.095498
1140.773403,6735.874072,-6883.915261,1302.362347
1140.773733,6661.853478,-6809.894666,995.924147
1140.774064,7105.977043,-6661.853478,1455.581446
1140.774395,6513.812290,-6735.874072,1838.629195
1140.774725,6809.894666,-6661.853478,1072.533697
1140.775056,7031.956449,-6735.874072,1149.143247
1140.775386,7031.956449,-6587.832884,1149.143247
1140.775717,6883.915261,-6513.812290,995.924147
1140.776048,7031.956449,-6217.729913,1072.533697
1140.776378,7105.977043,-6735.874072,995.924147
1140.776709,7328.038826,-6661.853478,1225.752797
1140.777040,6809.894666,-6735.874072,842.705048
1140.777370,7328.038826,-6735.874072,689.485948
1140.777701,7105.977043,-6439.791695,919.314598
1140.778032,6883.915261,-6513.812290,1072.533697
1140.778362,6809.894666,-6587.832884,1072.533697
1140.778693,7105.977043,-6143.709319,995.924147
1140.779023,7550.100608,-6661.853478,995.924147
1140.779354,6957.935855,-6661.853478,995.924147
1140.779685,7105.977043,-6513.812290,1302.362347
1140.780015,7105.977043,-6291.750507,1455.581446
1140.780346,7179.997637,-6809.894666,1072.533697
1140.780677,7105.977043,-6291.750507,1072.533697
1140.781007,7105.977043,-6217.729913,612.876398
1140.781338,7031.956449,-6291.750507,612.876398
1140.781668,7105.977043,-6587.832884,995.924147
1140.781999,6735.874072,-6439.791695,1915.238745
1140.782330,7105.977043,-6439.791695,1072.533697
1140.782660,6809.894666,-6661.853478,1072.533697
1140.782991,6809.894666,-6439.791695,995.924147
1140.783322,7254.018232,-7105.977043,1225.752797
1140.783652,7402.059420,-6143.709319,1608.800546
1140.783983,7105.977043,-6587.832884,1072.533697
1140.784314,7031.956449,-6365.771101,1072.533697
1140.784644,7105.977043,-6809.894666,1149.143247
1140.784975,7105.977043,-6883.915261,1225.752797
1140.785305,7031.956449,-6735.874072,1225.752797
1140.785636,6735.874072,-6439.791695,842.705048
1140.785967,6439.791695,-6513.812290,919.314598
1140.786297,6735.874072,-6809.894666,919.314598
1140.786628,7105.977043,-6513.812290,536.266849
1140.786959,6809.894666,-6735.874072,1072.533697
1140.787289,6957.935855,-6587.832884,995.924147
1140.787620,6735.874072,-6513.812290,995.924147
1140.787950,7031.956449,-6661.853478,1532.190996
1140.788281,7105.977043,-6661.853478,1532.190996
1140.788612,7179.997637,-6661.853478,995.924147
1140.788942,6883.915261,-6809.894666,1378.971896
1140.789273,6809.894666,-6513.812290,995.924147
1140.789604,7105.977043,-6809.894666,1225.752797
1140.789934,6809.894666,-6513.812290,995.924147
1140.790265,6883.915261,-7179.997637,1225.752797
1140.790596,6661.853478,-6661.853478,1225.752797
1140.790926,6735.874072,-6883.915261,919.314598
1140.791257,6809.894666,-6365.771101,842.705048
1140.791587,7105.977043,-6735.874072,1149.143247
1140.791918,7105.977043,-6587.832884,1225.752797
1140.792249,6957.935855,-6217.729913,842.705048
1140.792579,6513.812290,-5847.626942,1378.971896
1140.792910,7328.038826,-6661.853478,1225.752797
1140.793241,7105.977043,-6587.832884,1149.143247
1140.793571,6883.915261,-6291.750507,1378.971896
1140.793902,6957.935855,-6513.812290,919.314598
1140.794232,7105.977043,-6291.750507,1532.190996
1140.794563,6957.935855,-6809.894666,1225.752797
1140.794894,6809.894666,-6661.853478,995.924147
1140.795224,7105.977043,-6439.791695,1149.143247
1140.795555,7105.977043,-6143.709319,919.314598
1140.795886,7105.977043,-6439.791695,919.314598
1140.796216,7031.956449,-6365.771101,842.705048
1140.796547,7105.977043,-6365.771101,1225.752797
1140.796878,7179.997637,-6439.791695,995.924147
1140.797208,6735.874072,-6439.791695,1455.581446
1140.797539,7031.956449,-6809.894666,995.924147
1140.797869,7105.977043,-6735.874072,766.095498
1140.798200,7105.977043,-6809.894666,1149.143247
1140.798531,6957.935855,-6735.874072,995.924147
1140.798861,7105.977043,-6439.791695,1608.800546
1140.799192,6957.935855,-6661.853478,842.705048
1140.799523,6957.935855,-6587.832884,689.485948
1140.799853,6957.935855,-6587.832884,919.314598
1140.800184,7476.080014,-6661.853478,1072.533697
1140.800514,6957.935855,-6291.750507,1072.533697
1140.800845,7105.977043,-6661.853478,842.705048
1140.801176,7105.977043,-6439.791695,842.705048
1140.801506,6883.915261,-6587.832884,919.314598
1140.801837,7105.977043,-6735.874072,1072.533697
1140.802168,7031.956449,-6661.853478,689.485948
1140.802498,6809.894666,-6957.935855,995.924147
1140.802829,6735.874072,-6883.915261,1149.143247
1140.803160,7031.956449,-7105.977043,1225.752797
1140.803490,6809.894666,-6513.812290,1302.362347
1140.803821,7031.956449,-6513.812290,919.314598
1140.804151,6809.894666,-6365.771101,1072.533697
1140.804481,6735.874072,-6587.832884,1072.533697
1140.804811,7402.059420,-6587.832884,1302.362347
1140.805141,6957.935855,-6513.812290,1378.971896
1140.805471,6957.935855,-6439.791695,1225.752797
1140.805801,6957.935855,-6809.894666,919.314598
1140.806131,7105.977043,-7031.956449,766.095498
1140.806461,7105.977043,-6143.709319,1225.752797
1140.806791,7031.956449,-6587.832884,1072.533697
1140.807121,6587.832884,-6661.853478,1149.143247
1140.807451,6883.915261,-6735.874072,1225.752797
1140.807781,6957.935855,-6439.791695,612.876398
1140.808110,6291.750507,-6217.729913,1225.752797
1140.808440,7105.977043,-6365.771101,919.314598
1140.808770,7031.956449,-6365.771101,1378.971896
1140.809100,7105.977043,-7105.977043,1455.581446
1140.809430,7328.038826,-6735.874072,766.095498
1140.809760,6809.894666,-6809.894666,919.314598
1140.810090,6957.935855,-7105.977043,919.314598
1140.810420,7031.956449,-6735.874072,919.314598
1140.810750,6365.771101,-5995.668130,1302.362347
1140.811080,6735.874072,-6291.750507,0.000000
1140.811410,7031.956449,-6735.874072,919.314598
1140.811739,7105.977043,-6513.812290,919.314598
1140.812069,7031.956449,-6439.791695,995.924147
1140.812399,6809.894666,-5773.606348,1225.752797
1140.812729,7031.956449,-6439.791695,1072.533697
1140.813059,7105.977043,-7254.018232,1532.190996
1140.813389,7105.977043,-6291.750507,1072.533697
1140.813719,6809.894666,-6513.812290,995.924147
1140.814049,6883.915261,-6661.853478,153.219100
1140.814379,6809.894666,-6661.853478,919.314598
1140.814709,6883.915261,-6883.915261,1149.143247
1140.815039,7105.977043,-6809.894666,842.705048
1140.815369,7105.977043,-5847.626942,689.485948
1140.815698,7105.977043,-6069.688724,1072.533697
1140.816028,7105.977043,-6587.832884,1072.533697
1140.816358,7105.977043,-6439.791695,1149.143247
1140.816688,6735.874072,-6661.853478,1149.143247
1140.817018,6291.750507,-6217.729913,1685.410096
1140.817348,6809.894666,-6735.874072,995.924147
1140.817678,6957.935855,-6661.853478,1072.533697
1140.818008,6809.894666,-6513.812290,842.705048
1140.818338,7179.997637,-6587.832884,1149.143247
1140.818668,6883.915261,-6439.791695,995.924147
1140.818998,6809.894666,-6809.894666,1072.533697
1140.819328,7031.956449,-6513.812290,1072.533697
1140.819657,6957.935855,-6587.832884,995.924147
1140.819987,7846.182985,-6735.874072,689.485948
1140.820317,7105.977043,-6661.853478,995.924147
1140.820647,7031.956449,-6587.832884,1072.533697
1140.820977,6957.935855,-6513.812290,842.705048
1140.821307,6883.915261,-7031.956449,1302.362347
1140.821637,7105.977043,-6957.935855,1149.143247
1140.821967,7105.977043,-6883.915261,919.314598
1140.822297,6809.894666,-6439.791695,1149.143247
1140.822627,6957.935855,-6735.874072,1225.752797
1140.822957,7031.956449,-6661.853478,995.924147
1140.823287,7105.977043,-6587.832884,1072.533697
1140.823616,7105.977043,-6587.832884,1072.533697
1140.823946,7179.997637,-6365.771101,919.314598
1140.824276,7105.977043,-6439.791695,842.705048
1140.824606,7328.038826,-6735.874072,612.876398
1140.824936,7105.977043,-6513.812290,766.095498
1140.825266,7105.977043,-6809.894666,842.705048
1140.825596,6883.915261,-6809.894666,1149.143247
1140.825926,6661.853478,-6291.750507,995.924147
1140.826256,6883.915261,-6587.832884,766.095498
1140.826586,7105.977043,-6735.874072,842.705048
1140.826916,6513.812290,-6365.771101,995.924147
1140.827246,6957.935855,-6365.771101,1225.752797
1140.827575,6809.894666,-6291.750507,1762.019645
1140.827905,6957.935855,-6439.791695,1072.533697
1140.828235,7031.956449,-6217.729913,1225.752797
1140.828565,6809.894666,-6143.709319,1225.752797
1140.828895,6957.935855,-6143.709319,1072.533697
1140.829225,7105.977043,-6365.771101,995.924147
1140.829555,6957.935855,-6661.853478,842.705048
1140.829885,6809.894666,-6439.791695,1378.971896
1140.830215,6735.874072,-6587.832884,842.705048
1140.830545,6513.812290,-6365.771101,1149.143247
1140.830875,6809.894666,-6587.832884,1072.533697
1140.831205,7031.956449,-6809.894666,689.485948
1140.831534,7031.956449,-6587.832884,1149.143247
1140.831864,7105.977043,-6661.853478,1072.533697
1140.832194,7031.956449,-5995.668130,1149.143247
1140.832524,6957.935855,-6735.874072,1225.752797
1140.832854,6957.935855,-6661.853478,1225.752797
1140.833184,7105.977043,-6513.812290,1149.143247
1140.833514,7179.997637,-6883.915261,919.314598
1140.833844,6809.894666,-6513.812290,1072.533697
1140.834174,6809.894666,-6661.853478,919.314598
1140.834504,6883.915261,-6735.874072,842.705048
1140.834834,6883.915261,-6587.832884,842.705048
1140.835164,7328.038826,-6587.832884,842.705048
1140.835493,6735.874072,-6661.853478,919.314598
1140.835823,7105.977043,-6661.853478,842.705048
1140.836153,6883.915261,-6587.832884,842.705048
1140.836483,7254.018232,-6365.771101,842.705048
1140.836813,7105.977043,-6661.853478,689.485948
1140.837143,7031.956449,-6365.771101,1302.362347
1140.837473,6735.874072,-6661.853478,1072.533697
1140.837803,7031.956449,-6513.812290,1149.143247
1140.838133,6883.915261,-6439.791695,2068.457845
1140.838463,7031.956449,-6365.771101,1072.533697
1140.838793,7105.977043,-6513.812290,1149.143247
1140.839123,6957.935855,-6587.832884,1149.143247
1140.839452,6957.935855,-6883.915261,919.314598
1140.839782,7254.018232,-6513.812290,536.266849
1140.840112,7105.977043,-6587.832884,1072.533697
1140.840442,7105.977043,-6439.791695,919.314598
1140.840772,7105.977043,-6735.874072,1225.752797
1140.841102,7105.977043,-5995.668130,1838.629195
1140.841432,7179.997637,-6291.750507,842.705048
1140.841762,6883.915261,-6809.894666,1455.581446
1140.842092,6957.935855,-6883.915261,995.924147
1140.842422,7105.977043,-6587.832884,689.485948
1140.842752,6883.915261,-6587.832884,766.095498
1140.843081,6735.874072,-6587.832884,1149.143247
1140.843411,6957.935855,-6513.812290,995.924147
1140.843741,6957.935855,-6513.812290,919.314598
1140.844071,7328.038826,-6513.812290,1149.143247
1140.844401,7031.956449,-6439.791695,1302.362347
1140.844731,7031.956449,-6587.832884,1072.533697
1140.845061,7105.977043,-6587.832884,919.314598
1140.845391,6957.935855,-6513.812290,1072.533697
1140.845721,6957.935855,-6587.832884,1378.971896
1140.846051,6883.915261,-6883.915261,1072.533697
1140.846381,7105.977043,-6439.791695,995.924147
1140.846711,6809.894666,-6587.832884,919.314598
1140.847040,6957.935855,-6513.812290,766.095498
1140.847370,7179.997637,-6735.874072,689.485948
1140.847700,7105.977043,-6661.853478,842.705048
1140.848030,7105.977043,-6587.832884,842.705048
1140.848360,6957.935855,-6217.729913,919.314598
1140.848690,6513.812290,-6143.709319,766.095498
1140.849020,7105.977043,-6513.812290,766.095498
1140.849350,7105.977043,-6883.915261,1225.752797
1140.849680,7328.038826,-6587.832884,919.314598
1140.850010,6883.915261,-6883.915261,536.266849
1140.850340,7031.956449,-6439.791695,1455.581446
1140.850670,6957.935855,-6661.853478,995.924147
1140.850999,6513.812290,-6365.771101,766.095498
1140.851329,7179.997637,-6291.750507,1225.752797
1140.851659,6809.894666,-6291.750507,1225.752797
1140.851989,7179.997637,-6439.791695,1225.752797
1140.852319,7254.018232,-6587.832884,1149.143247
1140.852649,7254.018232,-6587.832884,919.314598
1140.852979,7254.018232,-5773.606348,1072.533697
1140.853309,7698.141797,-5403.503377,1378.971896
1140.853639,7920.203579,-5699.585753,842.705048
1140.853969,8290.306550,-5699.585753,1072.533697
1140.854299,8512.368333,-6143.709319,1302.362347
1140.854629,7698.141797,-6143.709319,689.485948
1140.854958,6661.853478,-6735.874072,383.047749
1140.855288,5921.647536,-7179.997637,383.047749
1140.855618,6661.853478,-6439.791695,459.657299
1140.855948,7476.080014,-6735.874072,1149.143247
1140.856278,7920.203579,-5921.647536,1072.533697
1140.856608,8290.306550,-5403.503377,1608.800546
1140.856938,8660.409521,-3775.050304,1225.752797
1140.857268,8142.265362,-4589.276840,1455.581446
1140.857598,8290.306550,-4589.276840,1149.143247
1140.857928,9326.594869,-4071.132681,1378.971896
1140.858258,9400.615463,-4737.318029,1532.190996
1140.858588,8438.347739,-4441.235652,995.924147
1140.858917,8142.265362,-4811.338623,1149.143247
1140.859247,7846.182985,-3997.112087,459.657299
1140.859577,8734.430116,-5107.421000,919.314598
1140.859907,8660.409521,-5625.565159,1302.362347
1140.860237,8290.306550,-5477.523971,1072.533697
1140.860567,7550.100608,-5699.585753,459.657299
1140.860897,7328.038826,-5921.647536,612.876398
1140.861227,7328.038826,-6143.709319,229.828649
1140.861557,7328.038826,-5551.544565,536.266849
1140.861887,7846.182985,-5773.606348,1302.362347
1140.862217,8512.368333,-5551.544565,1072.533697
1140.862547,8660.409521,-4293.194464,1225.752797
1140.862876,8660.409521,-4367.215058,1149.143247
1140.863206,8734.430116,-3701.029710,459.657299
1140.863536,9030.512492,-3478.967927,995.924147
1140.863866,8956.491898,-4737.318029,1762.019645
1140.864196,9178.553681,-4663.297435,1302.362347
1140.864526,8734.430116,-4737.318029,1072.533697
1140.864856,8512.368333,-5625.565159,1149.143247
1140.865186,8586.388927,-6217.729913,1532.190996
1140.865516,8586.388927,-6217.729913,919.314598
1140.865846,7846.182985,-6217.729913,1149.143247
1140.866176,6883.915261,-6439.791695,919.314598
1140.866506,7105.977043,-6661.853478,1072.533697
1140.866835,7476.080014,-5921.647536,919.314598
1140.867165,7179.997637,-5921.647536,919.314598
1140.867495,7402.059420,-5847.626942,995.924147
1140.867825,8068.244768,-6069.688724,1225.752797
1140.868155,8068.244768,-5773.606348,1225.752797
1140.868485,7994.224174,-5181.441594,1838.629195
1140.868815,8142.265362,-5329.482782,766.095498
1140.869145,7846.182985,-5699.585753,1225.752797
1140.869475,7550.100608,-6661.853478,612.876398
1140.869805,7698.141797,-5551.544565,766.095498
1140.870135,7772.162391,-5107.421000,842.705048
1140.870465,7846.182985,-5847.626942,842.705048
1140.870794,8068.244768,-5699.585753,1302.362347
1140.871124,8142.265362,-5699.585753,995.924147
1140.871454,7476.080014,-4515.256246,306.438199
1140.871784,6513.812290,-5921.647536,689.485948
1140.872114,6735.874072,-7031.956449,919.314598
1140.872444,6957.935855,-6735.874072,1455.581446
1140.872774,6439.791695,-7105.977043,689.485948
1140.873104,6809.894666,-6513.812290,1072.533697
1140.873434,7328.038826,-6735.874072,1225.752797
1140.873764,7994.224174,-7179.997637,1608.800546
1140.874094,7920.203579,-6365.771101,1838.629195
1140.874423,7476.080014,-6513.812290,1302.362347
1140.874753,6883.915261,-5699.585753,1149.143247
1140.875083,6735.874072,-6587.832884,1302.362347
1140.875413,6883.915261,-6513.812290,1378.971896
1140.875743,6957.935855,-6069.688724,1455.581446
1140.876073,7105.977043,-6143.709319,306.438199
1140.876403,6069.688724,-6513.812290,229.828649
1140.876733,5773.606348,-7179.997637,306.438199
1140.877063,6069.688724,-7179.997637,306.438199
1140.877393,6439.791695,-6513.812290,1149.143247
1140.877723,7105.977043,-6883.915261,842.705048
1140.878053,6735.874072,-7105.977043,689.485948
1140.878382,7031.956449,-7179.997637,612.876398
1140.878712,7105.977043,-7254.018232,1072.533697
1140.879042,7402.059420,-6809.894666,306.438199
1140.879372,7254.018232,-7105.977043,1149.143247
1140.879702,7550.100608,-6809.894666,1532.190996
1140.880032,7254.018232,-6217.729913,1378.971896
1140.880362,7105.977043,-5847.626942,1378.971896
1140.880692,6661.853478,-6217.729913,1608.800546
1140.881022,6735.874072,-6217.729913,1455.581446
1140.881352,7179.997637,-5995.668130,1455.581446
1140.881682,6809.894666,-6291.750507,1532.190996
1140.882012,6957.935855,-6291.750507,1455.581446
1140.882341,6735.874072,-5995.668130,1378.971896
1140.882671,6957.935855,-6217.729913,1455.581446
1140.883001,7105.977043,-6069.688724,919.314598
1140.883331,6661.853478,-6735.874072,842.705048
1140.883661,6735.874072,-6883.915261,766.095498
1140.883991,6661.853478,-7105.977043,766.095498
1140.884321,6957.935855,-6957.935855,766.095498
1140.884651,7105.977043,-6217.729913,842.705048
1140.884981,7179.997637,-6439.791695,1225.752797
1140.885311,7624.121203,-7031.956449,459.657299
1140.885641,7105.977043,-6217.729913,459.657299
1140.885971,7328.038826,-5921.647536,766.095498
1140.886300,7179.997637,-6217.729913,612.876398
1140.886630,7476.080014,-6217.729913,1532.190996
1140.886960,7254.018232,-6957.935855,1225.752797
1140.887290,7031.956449,-6883.915261,1378.971896
1140.887620,6883.915261,-6587.832884,766.095498
1140.887950,6809.894666,-6291.750507,842.705048
1140.888280,7105.977043,-6513.812290,1149.143247
1140.888610,6809.894666,-6957.935855,1685.410096
1140.888940,7031.956449,-6957.935855,1225.752797
1140.889270,6661.853478,-6957.935855,1685.410096
1140.889600,6513.812290,-6365.771101,995.924147
1140.889930,6661.853478,-7031.956449,919.314598
1140.890259,6883.915261,-6735.874072,689.485948
1140.890589,6957.935855,-6513.812290,919.314598
1140.890919,6957.935855,-6439.791695,919.314598
1140.891249,7031.956449,-6513.812290,995.924147
1140.891579,6883.915261,-6883.915261,536.266849
1140.891909,7105.977043,-6661.853478,766.095498
1140.892239,7179.997637,-6587.832884,612.876398
1140.892569,6439.791695,-7105.977043,229.828649
1140.892899,6069.688724,-7179.997637,766.095498
1140.893229,6291.750507,-7179.997637,383.047749
1140.893559,6513.812290,-6809.894666,1072.533697
1140.893889,6513.812290,-6661.853478,919.314598
1140.894218,6809.894666,-6735.874072,1838.629195
1140.894548,7105.977043,-6291.750507,1762.019645
1140.894878,7328.038826,-6217.729913,1685.410096
1140.895208,7328.038826,-5329.482782,1991.848295
1140.895538,7328.038826,-5699.585753,1762.019645
1140.895868,7624.121203,-6365.771101,1378.971896
1140.896198,7105.977043,-6735.874072,1302.362347
1140.896528,6661.853478,-6513.812290,919.314598
1140.896858,6661.853478,-6365.771101,689.485948
1140.897188,6735.874072,-7105.977043,1378.971896
1140.897518,6661.853478,-7698.141797,1072.533697
1140.897848,6735.874072,-7179.997637,153.219100
1140.898177,6513.812290,-6661.853478,229.828649
1140.898507,6661.853478,-6883.915261,306.438199
1140.898837,7328.038826,-7179.997637,766.095498
1140.899167,7179.997637,-6809.894666,612.876398
1140.899497,7328.038826,-6143.709319,1072.533697
1140.899827,7624.121203,-5773.606348,1225.752797
1140.900157,7624.121203,-5329.482782,1302.362347
1140.900487,7772.162391,-5847.626942,1302.362347
1140.900817,7550.100608,-6217.729913,1225.752797
1140.901147,6957.935855,-6513.812290,995.924147
1140.901477,6809.894666,-6439.791695,1072.533697
1140.901807,6587.832884,-6587.832884,1455.581446
1140.902136,6735.874072,-7031.956449,995.924147
1140.902466,6587.832884,-6809.894666,995.924147
1140.902796,6957.935855,-6661.853478,842.705048
1140.903126,6809.894666,-6735.874072,1149.143247
1140.903456,6809.894666,-6513.812290,919.314598
1140.903786,6957.935855,-6217.729913,1302.362347
1140.904116,7624.121203,-6217.729913,1532.190996
1140.904446,7698.141797,-5921.647536,1608.800546
1140.904776,7772.162391,-6217.729913,1225.752797
1140.905106,7328.038826,-6365.771101,1149.143247
1140.905436,7031.956449,-6365.771101,383.047749
1140.905766,6735.874072,-7476.080014,766.095498
1140.906095,6291.750507,-7698.141797,536.266849
1140.906425,6809.894666,-7328.038826,76.609550
1140.906753,6365.771101,-7698.141797,306.438199
1140.907083,6291.750507,-7624.121203,689.485948
1140.907412,6143.709319,-7476.080014,689.485948
1140.907742,6661.853478,-6513.812290,689.485948
1140.908071,6587.832884,-6809.894666,1302.362347
1140.908401,7179.997637,-6439.791695,1225.752797
1140.908731,7105.977043,-5773.606348,1762.019645
1140.909060,7105.977043,-5921.647536,1685.410096
1140.909390,6809.894666,-5255.462188,2374.896044
1140.909719,7476.080014,-5699.585753,1225.752797
1140.910049,7179.997637,-6143.709319,1532.190996
1140.910378,7105.977043,-6439.791695,1302.362347
1140.910708,6513.812290,-7254.018232,1072.533697
1140.911037,6291.750507,-7550.100608,995.924147
1140.911367,6143.709319,-8216.285956,919.314598
1140.911696,6439.791695,-7846.182985,919.314598
1140.912026,6217.729913,-7031.956449,459.657299
1140.912355,6439.791695,-6587.832884,229.828649
1140.912685,6587.832884,-6365.771101,919.314598
1140.913015,7105.977043,-6439.791695,995.924147
1140.913344,7698.141797,-5255.462188,919.314598
1140.913674,7772.162391,-4515.256246,842.705048
1140.914003,7994.224174,-5033.400406,1302.362347
1140.914333,7846.182985,-5181.441594,1149.143247
1140.914662,8290.306550,-6069.688724,1225.752797
1140.914992,7698.141797,-5773.606348,1302.362347
1140.915321,8512.368333,-5699.585753,842.705048
1140.915651,7772.162391,-6883.915261,1225.752797
1140.915980,7476.080014,-7179.997637,1149.143247
1140.916310,7031.956449,-7846.182985,919.314598
1140.916639,6513.812290,-7402.059420,1225.752797
1140.916969,6217.729913,-6217.729913,1149.143247
1140.917299,6217.729913,-6735.874072,995.924147
1140.917628,6365.771101,-6883.915261,1072.533697
1140.917958,6735.874072,-6513.812290,1302.362347
1140.918287,6957.935855,-6217.729913,1072.533697
1140.918617,6957.935855,-5403.503377,1072.533697
1140.918946,7402.059420,-5921.647536,995.924147
1140.919276,7476.080014,-6513.812290,1225.752797
1140.919605,7179.997637,-6587.832884,995.924147
1140.919935,7476.080014,-6143.709319,612.876398
1140.920264,7105.977043,-7105.977043,689.485948
1140.920594,7179.997637,-7550.100608,766.095498
1140.920923,7031.956449,-7328.038826,612.876398
1140.921253,6439.791695,-7624.121203,689.485948
1140.921583,6513.812290,-7624.121203,612.876398
1140.921912,6069.688724,-7402.059420,459.657299
1140.922242,6143.709319,-6957.935855,459.657299
1140.922571,6143.709319,-5921.647536,383.047749
1140.922901,6513.812290,-5551.544565,536.266849
1140.923230,6809.894666,-5847.626942,1685.410096
1140.923560,7550.100608,-5329.482782,1838.629195
1140.923889,7994.224174,-5181.441594,1838.629195
1140.924219,8438.347739,-5181.441594,1991.848295
1140.924548,8068.244768,-5995.668130,1991.848295
1140.924878,7254.018232,-6883.915261,1838.629195
1140.925208,6735.874072,-7179.997637,1302.362347
1140.925537,6513.812290,-7179.997637,919.314598
1140.925867,6439.791695,-7179.997637,766.095498
1140.926196,6513.812290,-7698.141797,1072.533697
1140.926526,6143.709319,-7624.121203,766.095498
1140.926855,5995.668130,-7105.977043,536.266849
1140.927185,5551.544565,-6217.729913,0.000000
1140.927514,6661.853478,-5699.585753,383.047749
1140.927844,6735.874072,-6143.709319,995.924147
1140.928173,7476.080014,-6143.709319,1149.143247
1140.928503,7550.100608,-5403.503377,1455.581446
1140.928832,7624.121203,-5329.482782,1302.362347
1140.929162,8142.265362,-6217.729913,1532.190996
1140.929492,7994.224174,-6809.894666,1762.019645
1140.929821,7328.038826,-7179.997637,1455.581446
1140.930151,6809.894666,-6883.915261,995.924147
1140.930480,6809.894666,-7105.977043,1072.533697
1140.930810,6439.791695,-7105.977043,1302.362347
1140.931139,6513.812290,-6883.915261,1608.800546
1140.931469,6661.853478,-6439.791695,1378.971896
1140.931798,6291.750507,-5921.647536,536.266849
1140.932128,6439.791695,-5847.626942,1149.143247
1140.932457,6809.894666,-6291.750507,1072.533697
1140.932787,7105.977043,-6291.750507,1149.143247
1140.933116,7031.956449,-6217.729913,1072.533697
1140.933446,7105.977043,-6365.771101,1149.143247
1140.933776,7476.080014,-7031.956449,919.314598
1140.934105,7179.997637,-7179.997637,1225.752797
1140.934435,7328.038826,-7550.100608,1072.533697
1140.934764,7179.997637,-7105.977043,1072.533697
1140.935094,7105.977043,-6883.915261,1378.971896
1140.935423,6661.853478,-7402.059420,766.095498
1140.935753,6439.791695,-6957.935855,536.266849
1140.936082,6365.771101,-6587.832884,536.266849
1140.936412,6587.832884,-6439.791695,766.095498
1140.936741,7031.956449,-6661.853478,1072.533697
1140.937071,6587.832884,-6439.791695,1149.143247
1140.937400,6587.832884,-5995.668130,1302.362347
1140.937730,6809.894666,-6143.709319,1302.362347
1140.938060,7179.997637,-6217.729913,1302.362347
1140.938389,7624.121203,-6809.894666,1915.238745
1140.938719,7550.100608,-6883.915261,2068.457845
1140.939048,7179.997637,-6957.935855,1455.581446
1140.939378,6439.791695,-7105.977043,1302.362347
1140.939707,6735.874072,-6809.894666,1532.190996
1140.940037,6365.771101,-7179.997637,842.705048
1140.940366,6439.791695,-7105.977043,612.876398
1140.940696,6439.791695,-6809.894666,612.876398
1140.941025,6735.874072,-6513.812290,0.000000
1140.941355,6439.791695,-6365.771101,689.485948
1140.941684,6809.894666,-6143.709319,766.095498
1140.942014,7105.977043,-5847.626942,842.705048
1140.942344,7402.059420,-5329.482782,1072.533697
1140.942673,7772.162391,-5995.668130,612.876398
1140.943003,7624.121203,-5847.626942,766.095498
1140.943332,7550.100608,-5921.647536,459.657299
1140.943662,7772.162391,-6365.771101,842.705048
1140.943991,7624.121203,-6217.729913,1685.410096
1140.944321,7920.203579,-7105.977043,1455.581446
1140.944650,7179.997637,-6513.812290,1378.971896
1140.944980,6809.894666,-6439.791695,995.924147
1140.945309,5921.647536,-6587.832884,1149.143247
1140.945639,6587.832884,-6661.853478,1455.581446
1140.945969,6587.832884,-6883.915261,1225.752797
1140.946298,6587.832884,-6217.729913,1072.533697
1140.946628,6513.812290,-5921.647536,1149.143247
1140.946957,6883.915261,-5699.585753,1149.143247
1140.947287,7105.977043,-6439.791695,842.705048
1140.947616,7254.018232,-6587.832884,1149.143247
1140.947946,7328.038826,-6143.709319,919.314598
1140.948275,7254.018232,-6365.771101,612.876398
1140.948605,7179.997637,-6439.791695,1149.143247
1140.948934,7105.977043,-7476.080014,766.095498
1140.949264,7254.018232,-7476.080014,306.438199
1140.949593,6883.915261,-7105.977043,1072.533697
1140.949923,6513.812290,-7328.038826,766.095498
1140.950253,6291.750507,-7402.059420,1532.190996
1140.950582,5995.668130,-7476.080014,919.314598
1140.950912,6217.729913,-6661.853478,842.705048
1140.951241,6291.750507,-6143.709319,689.485948
1140.951571,6809.894666,-5773.606348,612.876398
1140.951900,7624.121203,-6143.709319,1455.581446
1140.952230,7920.203579,-5773.606348,1455.581446
1140.952559,7624.121203,-5625.565159,1378.971896
1140.952889,7698.141797,-6143.709319,1455.581446
1140.953218,7105.977043,-6439.791695,1608.800546
1140.953548,6661.853478,-7179.997637,1455.581446
1140.953877,6365.771101,-6883.915261,1455.581446
1140.954207,6365.771101,-7031.956449,842.705048
1140.954537,6439.791695,-7105.977043,689.485948
1140.954866,6883.915261,-7179.997637,536.266849
1140.955196,6661.853478,-6957.935855,919.314598
1140.955525,6735.874072,-6365.771101,459.657299
1140.955855,6365.771101,-6143.709319,459.657299
1140.956184,6957.935855,-5625.565159,612.876398
1140.956514,7550.100608,-5995.668130,919.314598
1140.956843,7698.141797,-5551.544565,995.924147
1140.957173,7550.100608,-5847.626942,842.705048
1140.957502,7550.100608,-6661.853478,1149.143247
1140.957832,7550.100608,-6587.832884,1685.410096
1140.958161,7328.038826,-7031.956449,1225.752797
1140.958491,7031.956449,-7105.977043,995.924147
1140.958821,6661.853478,-6957.935855,1302.362347
1140.959150,6513.812290,-7179.997637,1455.581446
1140.959480,6735.874072,-6883.915261,1072.533697
1140.959809,6661.853478,-6365.771101,1532.190996
1140.960139,6883.915261,-5921.647536,1149.143247
1140.960468,7105.977043,-5551.544565,995.924147
1140.960798,7254.018232,-6217.729913,1915.238745
1140.961127,7624.121203,-5847.626942,1149.143247
1140.961457,7402.059420,-5625.565159,1225.752797
1140.961786,7402.059420,-6143.709319,995.924147
1140.962116,7328.038826,-6661.853478,1072.533697
1140.962445,7031.956449,-7105.977043,919.314598
1140.962775,7031.956449,-7105.977043,842.705048
1140.963105,6957.935855,-7105.977043,612.876398
1140.963434,6883.915261,-7179.997637,383.047749
1140.963764,6735.874072,-7179.997637,383.047749
1140.964093,6143.709319,-7254.018232,306.438199
1140.964423,5625.565159,-6883.915261,459.657299
1140.964752,6069.688724,-6957.935855,612.876398
1140.965082,6735.874072,-6661.853478,919.314598
1140.965411,7105.977043,-6439.791695,1455.581446
1140.965741,7105.977043,-6291.750507,1455.581446
1140.966070,7105.977043,-5551.544565,1455.581446
1140.966400,7105.977043,-5625.565159,1378.971896
1140.966730,7846.182985,-6513.812290,1685.410096
1140.967059,7328.038826,-6439.791695,1838.629195
1140.967389,7179.997637,-6587.832884,1685.410096
1140.967718,6587.832884,-6809.894666,1225.752797
1140.968048,6735.874072,-7031.956449,1455.581446
1140.968377,6735.874072,-7476.080014,919.314598
1140.968707,6661.853478,-7179.997637,1225.752797
1140.969036,6217.729913,-7031.956449,842.705048
1140.969366,6513.812290,-6735.874072,995.924147
1140.969695,6661.853478,-6365.771101,536.266849
1140.970025,7031.956449,-5847.626942,153.219100
1140.970354,6883.915261,-6291.750507,995.924147
1140.970684,7328.038826,-6143.709319,919.314598
1140.971014,7402.059420,-6217.729913,842.705048
1140.971343,7402.059420,-6217.729913,229.828649
1140.971673,7254.018232,-5847.626942,383.047749
1140.972002,7624.121203,-6291.750507,1072.533697
1140.972332,8142.265362,-6587.832884,1378.971896
1140.972661,8290.306550,-6587.832884,1378.971896
1140.972991,7624.121203,-6217.729913,1685.410096
1140.973320,7105.977043,-5995.668130,1378.971896
1140.973650,6883.915261,-6587.832884,995.924147
1140.973979,6439.791695,-6957.935855,1378.971896
1140.974309,6735.874072,-6883.915261,536.266849
1140.974638,6513.812290,-5995.668130,1072.533697
1140.974968,6513.812290,-6661.853478,1302.362347
1140.975298,7105.977043,-6365.771101,1455.581446
1140.975627,6439.791695,-6809.894666,842.705048
1140.975957,6661.853478,-6587.832884,689.485948
1140.976286,6883.915261,-7031.956449,842.705048
1140.976616,6957.935855,-6809.894666,612.876398
1140.976945,7031.956449,-7105.977043,689.485948
1140.977275,7031.956449,-6587.832884,919.314598
1140.977604,7476.080014,-7179.997637,766.095498
1140.977934,7031.956449,-7179.997637,842.705048
1140.978263,6587.832884,-6439.791695,1072.533697
1140.978593,6735.874072,-6661.853478,1149.143247
1140.978922,6439.791695,-6069.688724,1225.752797
1140.979252,6439.791695,-6883.915261,995.924147
1140.979582,6439.791695,-6439.791695,1225.752797
1140.979911,6735.874072,-5847.626942,919.314598
1140.980241,7105.977043,-5995.668130,1149.143247
1140.980570,7105.977043,-6069.688724,1302.362347
1140.980900,7402.059420,-6439.791695,1685.410096
1140.981229,7772.162391,-6291.750507,1838.629195
1140.981559,7624.121203,-6143.709319,1608.800546
1140.981888,7105.977043,-5995.668130,766.095498
1140.982218,6957.935855,-7031.956449,1455.581446
1140.982547,6513.812290,-7179.997637,1072.533697
1140.982877,6513.812290,-6957.935855,995.924147
1140.983206,6587.832884,-6809.894666,766.095498
1140.983536,6661.853478,-6661.853478,1225.752797
1140.983866,6439.791695,-6661.853478,766.095498
1140.984195,7031.956449,-6513.812290,766.095498
1140.984525,6883.915261,-6365.771101,153.219100
1140.984854,7550.100608,-6291.750507,842.705048
1140.985184,7328.038826,-5847.626942,919.314598
1140.985513,7624.121203,-6217.729913,689.485948
1140.985843,7550.100608,-6439.791695,995.924147
1140.986172,7328.038826,-6513.812290,995.924147
1140.986502,7254.018232,-6809.894666,1378.971896
1140.986831,7179.997637,-7476.080014,1149.143247
1140.987161,7105.977043,-7476.080014,1302.362347
1140.987491,6735.874072,-6735.874072,1302.362347
1140.987820,6291.750507,-6587.832884,1225.752797
1140.988150,6439.791695,-5921.647536,842.705048
1140.988479,6735.874072,-5773.606348,1149.143247
1140.988809,7105.977043,-5551.544565,1378.971896
1140.989138,7476.080014,-5107.421000,1378.971896
1140.989468,8068.244768,-5329.482782,1532.190996
1140.989797,7698.141797,-5995.668130,1532.190996
1140.990127,7772.162391,-6143.709319,1532.190996
1140.990456,7402.059420,-6439.791695,1225.752797
1140.990786,6513.812290,-6957.935855,842.705048
1140.991115,6661.853478,-7105.977043,1149.143247
1140.991445,6069.688724,-7550.100608,459.657299
1140.991775,6365.771101,-7476.080014,76.609550
1140.992104,6291.750507,-8068.244768,383.047749
1140.992434,6143.709319,-7328.038826,0.000000
1140.992763,5699.585753,-7624.121203,536.266849
1140.993093,5551.544565,-6661.853478,76.609550
1140.993422,5773.606348,-7328.038826,689.485948
1140.993752,6809.894666,-6587.832884,1225.752797
1140.994081,7476.080014,-5847.626942,1838.629195
1140.994411,8068.244768,-5329.482782,1608.800546
1140.994740,8142.265362,-5625.565159,1685.410096
1140.995070,8068.244768,-5551.544565,1762.019645
1140.995399,7920.203579,-6217.729913,1532.190996
1140.995729,7105.977043,-5921.647536,1455.581446
1140.996059,6439.791695,-7031.956449,919.314598
1140.996388,5995.668130,-7476.080014,919.314598
1140.996718,5847.626942,-7550.100608,689.485948
1140.997047,6143.709319,-7402.059420,306.438199
1140.997377,6143.709319,-7550.100608,536.266849
1140.997706,6217.729913,-7179.997637,536.266849
1140.998036,6513.812290,-6809.894666,306.438199
1140.998365,7254.018232,-6365.771101,536.266849
1140.998695,7846.182985,-6217.729913,1302.362347
1140.999024,7402.059420,-5847.626942,919.314598
1140.999354,8290.306550,-5921.647536,1378.971896
1140.999683,8364.327145,-5107.421000,1302.362347
1141.000013,8216.285956,-5181.441594,842.705048
1141.000343,8364.327145,-5699.585753,1072.533697
1141.000672,7624.121203,-6587.832884,1149.143247
1141.001002,7476.080014,-6143.709319,1072.533697
1141.001331,7105.977043,-6069.688724,306.438199
1141.001661,6735.874072,-6883.915261,1149.143247
1141.001990,6365.771101,-7698.141797,842.705048
1141.002320,5995.668130,-7846.182985,919.314598
1141.002649,6143.709319,-7105.977043,1149.143247
1141.002979,6365.771101,-6587.832884,919.314598
1141.003308,6809.894666,-6439.791695,1072.533697
1141.003638,7105.977043,-6291.750507,1532.190996
1141.003967,7328.038826,-5699.585753,1762.019645
1141.004297,7179.997637,-5773.606348,1149.143247
1141.004627,7328.038826,-5847.626942,1149.143247
1141.004956,7402.059420,-6365.771101,1225.752797
1141.005286,7328.038826,-6661.853478,1149.143247
1141.005615,7031.956449,-7328.038826,842.705048
1141.005945,6587.832884,-7476.080014,459.657299
1141.006274,6513.812290,-7698.141797,383.047749
1141.006604,5921.647536,-7698.141797,536.266849
1141.006933,6217.729913,-7698.141797,536.266849
1141.007263,6291.750507,-7476.080014,612.876398
1141.007592,6513.812290,-6883.915261,842.705048
1141.007922,5847.626942,-6587.832884,995.924147
1141.008252,6587.832884,-6291.750507,1532.190996
1141.008581,7402.059420,-5255.462188,1532.190996
1141.008911,7624.121203,-5403.503377,1762.019645
1141.009240,7920.203579,-5551.544565,2145.067394
1141.009570,7846.182985,-5181.441594,1838.629195
1141.009899,8290.306550,-5403.503377,1608.800546
1141.010229,7994.224174,-5625.565159,1378.971896
1141.010558,7105.977043,-6291.750507,1302.362347
1141.010888,6809.894666,-7402.059420,1378.971896
1141.011217,6513.812290,-7402.059420,919.314598
1141.011547,6365.771101,-7254.018232,689.485948
1141.011876,6439.791695,-7179.997637,995.924147
1141.012206,6143.709319,-7254.018232,919.314598
1141.012536,6143.709319,-7624.121203,689.485948
1141.012865,6143.709319,-6439.791695,459.657299
1141.013195,6513.812290,-5847.626942,536.266849
1141.013524,6883.915261,-5921.647536,1225.752797
1141.013854,7846.182985,-5773.606348,1072.533697
1141.014183,7994.224174,-5329.482782,995.924147
1141.014513,7920.203579,-5699.585753,919.314598
1141.014842,7698.141797,-6143.709319,1149.143247
1141.015172,7254.018232,-6587.832884,995.924147
1141.015501,7328.038826,-7105.977043,919.314598
1141.015831,6883.915261,-6883.915261,842.705048
1141.016160,6809.894666,-6957.935855,995.924147
1141.016489,6513.812290,-7179.997637,1378.971896
1141.016819,6735.874072,-7031.956449,1378.971896
1141.017148,6957.935855,-6587.832884,1302.362347
1141.017478,6661.853478,-5403.503377,919.314598
1141.017807,6439.791695,-5625.565159,383.047749
1141.018136,7031.956449,-6439.791695,1838.629195
1141.018466,7920.203579,-5699.585753,2068.457845
1141.018795,8216.285956,-5699.585753,1838.629195
1141.019125,7772.162391,-5551.544565,1455.581446
1141.019454,7476.080014,-6661.853478,995.924147
1141.019783,7105.977043,-7179.997637,1149.143247
1141.020113,6883.915261,-7698.141797,766.095498
1141.020442,5995.668130,-7402.059420,0.000000
1141.020772,6143.709319,-7179.997637,0.000000
1141.021101,6365.771101,-8216.285956,0.000000
1141.021430,6809.894666,-7772.162391,842.705048
1141.021760,6661.853478,-7402.059420,842.705048
1141.022089,6661.853478,-6439.791695,919.314598
1141.022419,6439.791695,-6069.688724,1072.533697
1141.022748,6587.832884,-6291.750507,1302.362347
1141.023077,6809.894666,-5773.606348,1302.362347
1141.023407,6587.832884,-5847.626942,1532.190996
1141.023736,7254.018232,-5773.606348,1685.410096
1141.024065,7846.182985,-5995.668130,1685.410096
1141.024395,7846.182985,-6883.915261,2221.676944
1141.024724,7920.203579,-6809.894666,1532.190996
1141.025054,7105.977043,-6957.935855,1225.752797
1141.025383,7031.956449,-7105.977043,612.876398
1141.025712,6661.853478,-7476.080014,689.485948
1141.026042,6735.874072,-6661.853478,766.095498
1141.026371,5921.647536,-6513.812290,536.266849
1141.026701,6291.750507,-6735.874072,459.657299
1141.027030,6587.832884,-6513.812290,766.095498
1141.027359,6735.874072,-6291.750507,766.095498
1141.027689,7402.059420,-5477.523971,842.705048
1141.028018,7328.038826,-5329.482782,919.314598
1141.028348,7624.121203,-5403.503377,1149.143247
1141.028677,7476.080014,-5995.668130,1225.752797
1141.029006,7550.100608,-5699.585753,1532.190996
1141.029336,7698.141797,-5995.668130,1149.143247
1141.029665,7624.121203,-6513.812290,1072.533697
1141.029995,7328.038826,-7105.977043,1072.533697
1141.030324,7031.956449,-7476.080014,995.924147
1141.030653,6143.709319,-7105.977043,842.705048
1141.030983,5995.668130,-6883.915261,536.266849
1141.031312,5921.647536,-6809.894666,995.924147
1141.031642,6069.688724,-6735.874072,766.095498
1141.031971,6513.812290,-6735.874072,536.266849
1141.032300,6143.709319,-6513.812290,1532.190996
1141.032630,6661.853478,-6217.729913,1455.581446
1141.032959,6957.935855,-6217.729913,1302.362347
1141.033289,7328.038826,-6217.729913,1302.362347
1141.033618,7402.059420,-6587.832884,1149.143247
1141.033947,7550.100608,-6513.812290,306.438199
1141.034277,7402.059420,-7105.977043,1149.143247
1141.034606,7476.080014,-7031.956449,919.314598
1141.034935,7254.018232,-6809.894666,1149.143247
1141.035265,6735.874072,-7179.997637,689.485948
1141.035594,6809.894666,-7254.018232,536.266849
1141.035924,6513.812290,-7254.018232,919.314598
1141.036253,6439.791695,-6809.894666,842.705048
1141.036582,6809.894666,-6365.771101,1149.143247
1141.036912,6661.853478,-5699.585753,1072.533697
1141.037241,6883.915261,-5921.647536,1455.581446
1141.037571,7031.956449,-6365.771101,1455.581446
1141.037900,7179.997637,-5847.626942,1378.971896
1141.038229,7846.182985,-5329.482782,1455.581446
1141.038559,8068.244768,-5847.626942,1685.410096
1141.038888,7846.182985,-6069.688724,1455.581446
1141.039218,7550.100608,-7105.977043,1455.581446
1141.039547,7254.018232,-6661.853478,612.876398
1141.039876,6735.874072,-6883.915261,689.485948
1141.040206,6587.832884,-7402.059420,689.485948
1141.040535,6365.771101,-7254.018232,919.314598
1141.040865,6143.709319,-7476.080014,459.657299
1141.041194,6217.729913,-6661.853478,229.828649
1141.041523,6291.750507,-6439.791695,536.266849
1141.041853,6661.853478,-6143.709319,842.705048
1141.042182,7031.956449,-5995.668130,919.314598
1141.042512,7328.038826,-5699.585753,995.924147
1141.042841,7402.059420,-5625.565159,919.314598
1141.043170,7624.121203,-5921.647536,1608.800546
1141.043500,7624.121203,-6365.771101,1302.362347
1141.043829,7402.059420,-6661.853478,1302.362347
1141.044159,7031.956449,-6587.832884,1838.629195
1141.044488,7105.977043,-7105.977043,1072.533697
1141.044817,6661.853478,-7179.997637,919.314598
1141.045147,6735.874072,-7328.038826,842.705048
1141.045476,6587.832884,-7624.121203,689.485948
1141.045805,7031.956449,-6291.750507,1072.533697
1141.046135,6513.812290,-5921.647536,842.705048
1141.046464,6513.812290,-5847.626942,1225.752797
1141.046794,7179.997637,-5995.668130,1302.362347
1141.047123,7920.203579,-5625.565159,1915.238745
1141.047452,8068.244768,-5107.421000,1149.143247
1141.047782,7550.100608,-5477.523971,1072.533697
1141.048111,7105.977043,-6143.709319,919.314598
1141.048441,7105.977043,-7031.956449,766.095498
1141.048770,6883.915261,-7254.018232,689.485948
1141.049099,6735.874072,-7624.121203,689.485948
1141.049429,6291.750507,-7624.121203,459.657299
1141.049758,5995.668130,-7772.162391,0.000000
1141.050088,6069.688724,-7402.059420,153.219100
1141.050417,6069.688724,-7624.121203,459.657299
1141.050746,6513.812290,-7179.997637,919.314598
1141.051076,6439.791695,-6735.874072,1072.533697
1141.051405,7105.977043,-6069.688724,1532.190996
1141.051735,7105.977043,-6069.688724,1915.238745
1141.052064,7402.059420,-5921.647536,1991.848295
1141.052393,7846.182985,-5773.606348,2221.676944
1141.052723,7994.224174,-5625.565159,2145.067394
1141.053052,7772.162391,-4811.338623,2145.067394
1141.053382,7920.203579,-5773.606348,1991.848295
1141.053711,7105.977043,-6661.853478,1378.971896
1141.054040,6957.935855,-6957.935855,919.314598
1141.054370,6439.791695,-7179.997637,919.314598
1141.054699,6143.709319,-7105.977043,1532.190996
1141.055029,5995.668130,-7328.038826,689.485948
1141.055358,5995.668130,-7328.038826,383.047749
1141.055687,6439.791695,-7254.018232,689.485948
1141.056017,6735.874072,-6661.853478,995.924147
1141.056346,7179.997637,-5255.462188,612.876398
1141.056675,7254.018232,-5625.565159,919.314598
1141.057005,7920.203579,-5551.544565,1455.581446
1141.057334,7698.141797,-5255.462188,1225.752797
1141.057664,8216.285956,-5181.441594,1072.533697
1141.057993,8364.327145,-5551.544565,1149.143247
1141.058322,8142.265362,-6513.812290,1378.971896
1141.058652,7624.121203,-6735.874072,1608.800546
1141.058981,7031.956449,-7031.956449,1149.143247
1141.059311,6365.771101,-7105.977043,842.705048
1141.059640,5847.626942,-7105.977043,612.876398
1141.059969,5995.668130,-7328.038826,919.314598
1141.060299,5921.647536,-7105.977043,1302.362347
1141.060628,5995.668130,-7105.977043,1225.752797
1141.060958,6365.771101,-6143.709319,842.705048
1141.061287,6587.832884,-5773.606348,919.314598
1141.061616,7105.977043,-6217.729913,1072.533697
1141.061946,7328.038826,-6365.771101,1225.752797
1141.062275,7624.121203,-5995.668130,536.266849
1141.062605,7402.059420,-6291.750507,536.266849
1141.062934,7328.038826,-6809.894666,919.314598
1141.063263,7179.997637,-7624.121203,766.095498
1141.063593,7254.018232,-7994.224174,919.314598
1141.063922,6957.935855,-7402.059420,995.924147
1141.064252,6735.874072,-7476.080014,689.485948
1141.064581,6365.771101,-7254.018232,689.485948
1141.064910,6069.688724,-7328.038826,536.266849
1141.065240,6143.709319,-7031.956449,689.485948
1141.065569,6143.709319,-6587.832884,766.095498
1141.065899,6513.812290,-5477.523971,1225.752797
1141.066228,6957.935855,-5477.523971,1455.581446
1141.066557,7624.121203,-5255.462188,1532.190996
1141.066887,7994.224174,-4959.379811,1685.410096
1141.067216,7920.203579,-5995.668130,1608.800546
1141.067545,8068.244768,-5995.668130,1532.190996
1141.067875,7550.100608,-7031.956449,1378.971896
1141.068204,7031.956449,-7105.977043,842.705048
1141.068534,6809.894666,-6883.915261,842.705048
1141.068863,6957.935855,-7328.038826,1149.143247
1141.069192,6957.935855,-7179.997637,1149.143247
1141.069522,6587.832884,-6957.935855,689.485948
1141.069851,6291.750507,-6439.791695,-612.876398
1141.070181,5921.647536,-6143.709319,153.219100
1141.070510,6143.709319,-6365.771101,612.876398
1141.070839,6513.812290,-5921.647536,842.705048
1141.071169,7105.977043,-5773.606348,1225.752797
1141.071498,7550.100608,-5329.482782,1455.581446
1141.071828,7920.203579,-5773.606348,1915.238745
1141.072157,8364.327145,-6587.832884,1455.581446
1141.072486,7698.141797,-7105.977043,1225.752797
1141.072816,7105.977043,-7105.977043,842.705048
1141.073145,6217.729913,-6957.935855,1532.190996
1141.073475,6513.812290,-6957.935855,1225.752797
1141.073804,6587.832884,-7105.977043,1072.533697
1141.074133,6587.832884,-6809.894666,1608.800546
1141.074463,7031.956449,-5847.626942,689.485948
1141.074792,6291.750507,-5847.626942,995.924147
1141.075122,6365.771101,-5847.626942,842.705048
1141.075451,6883.915261,-6439.791695,919.314598
1141.075780,7105.977043,-5921.647536,1455.581446
1141.076110,7254.018232,-6513.812290,1378.971896
1141.076439,7254.018232,-6291.750507,919.314598
1141.076769,7031.956449,-7105.977043,995.924147
1141.077098,7105.977043,-7846.182985,766.095498
1141.077427,7105.977043,-7402.059420,842.705048
1141.077757,7105.977043,-6957.935855,689.485948
1141.078086,7105.977043,-7105.977043,612.876398
1141.078415,7031.956449,-7476.080014,689.485948
1141.078745,6735.874072,-6883.915261,459.657299
1141.079074,5995.668130,-5995.668130,383.047749
1141.079404,5921.647536,-6513.812290,842.705048
1141.079733,6143.709319,-7031.956449,1378.971896
1141.080062,6513.812290,-6587.832884,1302.362347
1141.080392,7179.997637,-5921.647536,1455.581446
1141.080721,7179.997637,-6143.709319,1378.971896
1141.081051,7550.100608,-5847.626942,1532.190996
1141.081380,7550.100608,-6513.812290,1685.410096
1141.081709,7624.121203,-6809.894666,1915.238745
1141.082039,6957.935855,-6365.771101,1608.800546
1141.082368,7328.038826,-6883.915261,919.314598
1141.082698,7031.956449,-7031.956449,1225.752797
1141.083027,6957.935855,-7105.977043,1225.752797
1141.083356,6587.832884,-6809.894666,766.095498
1141.083686,6735.874072,-6957.935855,536.266849
1141.084015,6365.771101,-6883.915261,689.485948
1141.084345,6735.874072,-6365.771101,995.924147
1141.084674,6957.935855,-6291.750507,842.705048
1141.085003,7402.059420,-5403.503377,1302.362347
1141.085333,7550.100608,-5329.482782,842.705048
1141.085662,7550.100608,-5699.585753,919.314598
1141.085992,7698.141797,-5921.647536,1302.362347
1141.086321,8290.306550,-5699.585753,995.924147
1141.086650,7920.203579,-5921.647536,1838.629195
1141.086980,7550.100608,-6439.791695,1455.581446
1141.087309,6957.935855,-7105.977043,1072.533697
1141.087638,6661.853478,-6957.935855,1072.533697
1141.087968,6143.709319,-7031.956449,1072.533697
1141.088297,6291.750507,-7105.977043,842.705048
1141.088627,6217.729913,-6661.853478,1225.752797
1141.088956,6513.812290,-6513.812290,1149.143247
1141.089285,6883.915261,-6735.874072,1225.752797
1141.089615,7105.977043,-6291.750507,1532.190996
1141.089944,6809.894666,-5995.668130,536.266849
1141.090274,6809.894666,-6439.791695,995.924147
1141.090603,6513.812290,-6291.750507,612.876398
1141.090932,6809.894666,-6587.832884,1532.190996
1141.091262,7328.038826,-7179.997637,689.485948
1141.091591,7105.977043,-7105.977043,842.705048
1141.091921,6809.894666,-7105.977043,536.266849
1141.092250,6883.915261,-7328.038826,689.485948
1141.092579,6439.791695,-7179.997637,536.266849
1141.092909,6439.791695,-7328.038826,306.438199
1141.093238,6513.812290,-7105.977043,842.705048
1141.093568,6439.791695,-6957.935855,536.266849
1141.093897,6883.915261,-6513.812290,995.924147
1141.094226,6883.915261,-5847.626942,1378.971896
1141.094556,7105.977043,-5921.647536,1149.143247
1141.094885,7254.018232,-5699.585753,1302.362347
1141.095215,7698.141797,-5625.565159,1455.581446
1141.095544,8660.409521,-5847.626942,2145.067394
1141.095873,8216.285956,-5551.544565,1762.019645
1141.096203,7105.977043,-6809.894666,1378.971896
1141.096532,6735.874072,-7402.059420,1302.362347
1141.096862,6069.688724,-7550.100608,766.095498
1141.097191,6661.853478,-7179.997637,919.314598
1141.097520,6587.832884,-7179.997637,689.485948
1141.097850,6661.853478,-7105.977043,612.876398
1141.098179,6735.874072,-7031.956449,842.705048
1141.098508,6661.853478,-5995.668130,919.314598
1141.098838,6735.874072,-5773.606348,229.828649
1141.099167,6735.874072,-5625.565159,306.438199
1141.099497,7254.018232,-5773.606348,995.924147
1141.099826,7328.038826,-6069.688724,919.314598
1141.100155,7624.121203,-5033.400406,766.095498
1141.100485,7772.162391,-5773.606348,919.314598
1141.100814,7846.182985,-6661.853478,1072.533697
1141.101144,7698.141797,-7105.977043,1378.971896
1141.101473,7105.977043,-7105.977043,1532.190996
1141.101802,6735.874072,-6587.832884,1608.800546
1141.102132,6661.853478,-6735.874072,1302.362347
1141.102461,6883.915261,-6809.894666,1455.581446
1141.102791,7031.956449,-6513.812290,1838.629195
1141.103120,6809.894666,-5181.441594,1225.752797
1141.103449,6439.791695,-5625.565159,1149.143247
1141.103779,6957.935855,-6069.688724,1455.581446
1141.104108,7179.997637,-6069.688724,1455.581446
1141.104438,7179.997637,-5921.647536,1072.533697
1141.104767,6587.832884,-5995.668130,1225.752797
1141.105096,6735.874072,-7105.977043,919.314598
1141.105426,7031.956449,-7920.203579,689.485948
1141.105755,6513.812290,-8216.285956,612.876398
1141.106085,6587.832884,-7920.203579,459.657299
1141.106414,6217.729913,-7624.121203,306.438199
1141.106743,6217.729913,-7994.224174,842.705048
1141.107073,6809.894666,-7179.997637,1149.143247
1141.107402,6735.874072,-6883.915261,612.876398
1141.107732,7105.977043,-5847.626942,1072.533697
1141.108061,6957.935855,-5625.565159,1149.143247
1141.108390,7031.956449,-5995.668130,1532.190996
1141.108720,7105.977043,-5477.523971,1302.362347
1141.109049,6661.853478,-5403.503377,1302.362347
1141.109378,7624.121203,-6143.709319,1455.581446
1141.109708,7179.997637,-6809.894666,1532.190996
1141.110037,7328.038826,-7179.997637,1532.190996
1141.110367,7031.956449,-7698.141797,1149.143247
1141.110696,7031.956449,-7179.997637,689.485948
1141.111025,6291.750507,-7624.121203,766.095498
1141.111355,6365.771101,-7476.080014,842.705048
1141.111684,6513.812290,-7254.018232,612.876398
1141.112014,6365.771101,-6809.894666,459.657299
1141.112343,6143.709319,-6439.791695,689.485948
1141.112672,6809.894666,-6143.709319,689.485948
1141.113002,7328.038826,-5995.668130,1149.143247
1141.113331,7550.100608,-5921.647536,919.314598
1141.113661,7476.080014,-5329.482782,1302.362347
1141.113990,7920.203579,-4737.318029,842.705048
1141.114319,8290.306550,-5329.482782,689.485948
1141.114648,8512.368333,-5995.668130,1608.800546
1141.114978,8808.450710,-5847.626942,1762.019645
1141.115307,8586.388927,-5403.503377,1225.752797
1141.115636,7698.141797,-6143.709319,1532.190996
1141.115965,7105.977043,-6883.915261,1149.143247
1141.116294,6661.853478,-7402.059420,1378.971896
1141.116623,6069.688724,-7550.100608,1149.143247
1141.116953,5477.523971,-6587.832884,766.095498
1141.117282,5921.647536,-6513.812290,842.705048
1141.117611,6439.791695,-6661.853478,612.876398
1141.117940,6587.832884,-7179.997637,1225.752797
1141.118269,6587.832884,-6365.771101,919.314598
1141.118598,6809.894666,-6143.709319,842.705048
1141.118928,6809.894666,-6661.853478,689.485948
1141.119257,6957.935855,-6957.935855,919.314598
1141.119586,7402.059420,-7402.059420,995.924147
1141.119915,7624.121203,-6883.915261,995.924147
1141.120244,7328.038826,-7105.977043,689.485948
1141.120573,7105.977043,-7550.100608,766.095498
1141.120903,6883.915261,-7105.977043,842.705048
1141.121232,6735.874072,-6883.915261,306.438199
1141.121561,6439.791695,-7105.977043,459.657299
1141.121890,6069.688724,-6809.894666,766.095498
1141.122219,6661.853478,-6735.874072,1225.752797
1141.122549,6957.935855,-6069.688724,1302.362347
1141.122878,7031.956449,-5847.626942,842.705048
1141.123207,7105.977043,-5921.647536,1149.143247
1141.123536,7105.977043,-6291.750507,1685.410096
1141.123865,7772.162391,-5921.647536,1685.410096
1141.124194,7698.141797,-5033.400406,2145.067394
1141.124524,7846.182985,-5551.544565,1915.238745
1141.124853,7254.018232,-6735.874072,1608.800546
1141.125182,7031.956449,-7550.100608,1762.019645
1141.125511,6513.812290,-7105.977043,1149.143247
1141.125840,6439.791695,-5995.668130,689.485948
1141.126169,6217.729913,-6661.853478,919.314598
1141.126499,6365.771101,-7031.956449,689.485948
1141.126828,6365.771101,-7031.956449,842.705048
1141.127157,6439.791695,-6143.709319,383.047749
1141.127486,6735.874072,-5847.626942,153.219100
1141.127815,6809.894666,-6439.791695,919.314598
1141.128144,7550.100608,-6143.709319,1072.533697
1141.128474,7550.100608,-5551.544565,919.314598
1141.128803,7550.100608,-5403.503377,1378.971896
1141.129132,7254.018232,-6661.853478,1149.143247
1141.129461,7994.224174,-6365.771101,1455.581446
1141.129790,7550.100608,-6809.894666,1225.752797
1141.130120,6809.894666,-6661.853478,1149.143247
1141.130449,6513.812290,-6217.729913,1685.410096
1141.130778,6587.832884,-7031.956449,1225.752797
1141.131107,6809.894666,-6809.894666,1302.362347
1141.131436,7105.977043,-5921.647536,1302.362347
1141.131765,7179.997637,-6069.688724,689.485948
1141.132095,7328.038826,-5625.565159,1072.533697
1141.132424,7624.121203,-6291.750507,1378.971896
1141.132753,7846.182985,-6217.729913,1225.752797
1141.133082,7254.018232,-6587.832884,766.095498
1141.133411,7254.018232,-6883.915261,459.657299
1141.133740,7031.956449,-7105.977043,612.876398
1141.134070,6513.812290,-7550.100608,689.485948
1141.134399,6439.791695,-7698.141797,306.438199
1141.134728,6143.709319,-7846.182985,383.047749
1141.135057,6069.688724,-7624.121203,306.438199
1141.135386,6439.791695,-7179.997637,612.876398
1141.135715,6217.729913,-7624.121203,459.657299
1141.136045,6217.729913,-7105.977043,383.047749
1141.136374,6291.750507,-6735.874072,459.657299
1141.136703,6217.729913,-7105.977043,995.924147
1141.137032,6957.935855,-6513.812290,1072.533697
1141.137361,7105.977043,-6365.771101,1149.143247
1141.137690,7179.997637,-6291.750507,1302.362347
1141.138020,7550.100608,-5921.647536,1762.019645
1141.138349,7772.162391,-5995.668130,1991.848295
1141.138678,7698.141797,-5921.647536,1915.238745
1141.139007,7179.997637,-5995.668130,1608.800546
1141.139336,6735.874072,-6291.750507,1685.410096
1141.139666,6957.935855,-5921.647536,1685.410096
1141.139995,7105.977043,-6365.771101,1378.971896
1141.140324,6735.874072,-6587.832884,1149.143247
1141.140653,6735.874072,-6513.812290,766.095498
1141.140982,7105.977043,-6735.874072,383.047749
1141.141311,6809.894666,-6291.750507,1072.533697
1141.141641,7105.977043,-6143.709319,919.314598
1141.141970,7105.977043,-6735.874072,919.314598
1141.142299,7105.977043,-6661.853478,995.924147
1141.142628,7179.997637,-5625.565159,459.657299
1141.142957,7105.977043,-5773.606348,689.485948
1141.143286,7105.977043,-5699.585753,536.266849
1141.143616,7846.182985,-5995.668130,995.924147
1141.143945,8586.388927,-5551.544565,1685.410096
1141.144274,8586.388927,-6513.812290,1838.629195
1141.144603,7402.059420,-6217.729913,1302.362347
1141.144932,6735.874072,-6217.729913,766.095498
1141.145261,6217.729913,-6587.832884,766.095498
1141.145591,7105.977043,-6957.935855,1532.190996
1141.145920,7179.997637,-7328.038826,995.924147
1141.146249,7105.977043,-6661.853478,1302.362347
1141.146578,6365.771101,-6439.791695,766.095498
1141.146907,6587.832884,-6661.853478,689.485948
1141.147237,6587.832884,-7031.956449,766.095498
1141.147566,6587.832884,-7179.997637,842.705048
1141.147895,6513.812290,-6735.874072,383.047749
1141.148224,6587.832884,-6439.791695,229.828649
1141.148553,7031.956449,-7105.977043,306.438199
1141.148882,7328.038826,-7476.080014,995.924147
1141.149212,7698.141797,-7772.162391,919.314598
1141.149541,7846.182985,-7031.956449,919.314598
1141.149870,7105.977043,-7179.997637,919.314598
1141.150199,7179.997637,-7105.977043,919.314598
1141.150528,6291.750507,-7105.977043,766.095498
1141.150857,6217.729913,-7105.977043,766.095498
1141.151187,6439.791695,-6069.688724,689.485948
1141.151516,6735.874072,-5847.626942,1225.752797
1141.151845,7179.997637,-5921.647536,612.876398
1141.152174,7179.997637,-5847.626942,1378.971896
1141.152503,7550.100608,-6291.750507,1302.362347
1141.152832,7624.121203,-5699.585753,1378.971896
1141.153162,7179.997637,-5847.626942,995.924147
1141.153491,7179.997637,-6735.874072,1608.800546
1141.153820,7031.956449,-6883.915261,1302.362347
1141.154149,6587.832884,-7105.977043,1072.533697
1141.154478,6143.709319,-6883.915261,995.924147
1141.154808,7105.977043,-7105.977043,536.266849
1141.155137,6957.935855,-6883.915261,689.485948
1141.155466,6291.750507,-6735.874072,995.924147
1141.155795,6513.812290,-6439.791695,689.485948
1141.156124,6883.915261,-5551.544565,76.609550
1141.156453,7031.956449,-5625.565159,995.924147
1141.156783,7328.038826,-5329.482782,919.314598
1141.157112,7476.080014,-5551.544565,1225.752797
1141.157441,7698.141797,-5847.626942,995.924147
1141.157770,7994.224174,-6439.791695,766.095498
1141.158099,7105.977043,-6735.874072,1149.143247
1141.158428,7105.977043,-6661.853478,1225.752797
1141.158758,6957.935855,-7105.977043,1225.752797
1141.159087,7105.977043,-7476.080014,1762.019645
1141.159416,6143.709319,-6883.915261,689.485948
1141.159745,6735.874072,-6957.935855,1225.752797
1141.160074,6735.874072,-6587.832884,1455.581446
1141.160403,6735.874072,-6513.812290,1532.190996
1141.160733,7328.038826,-6217.729913,1455.581446
1141.161062,7105.977043,-6217.729913,1378.971896
1141.161391,6957.935855,-6809.894666,1608.800546
1141.161720,7031.956449,-6217.729913,1225.752797
1141.162049,7105.977043,-6365.771101,995.924147
1141.162378,7772.162391,-6217.729913,383.047749
1141.162708,6957.935855,-6809.894666,766.095498
1141.163037,6809.894666,-7105.977043,306.438199
1141.163366,6735.874072,-7328.038826,0.000000
1141.163695,7179.997637,-7105.977043,1302.362347
1141.164024,6883.915261,-7328.038826,536.266849
1141.164354,6513.812290,-7328.038826,306.438199
1141.164683,6217.729913,-7328.038826,536.266849
1141.165012,5995.668130,-7328.038826,842.705048
1141.165341,6143.709319,-7031.956449,1455.581446
1141.165670,6587.832884,-7179.997637,1072.533697
1141.165999,6587.832884,-6365.771101,1149.143247
1141.166329,6735.874072,-5921.647536,995.924147
1141.166658,6661.853478,-6217.729913,1838.629195
1141.166987,7402.059420,-6291.750507,1072.533697
1141.167316,7476.080014,-5921.647536,1685.410096
1141.167645,7624.121203,-5921.647536,1762.019645
1141.167974,7254.018232,-5995.668130,1072.533697
1141.168304,7179.997637,-5921.647536,766.095498
1141.168633,7179.997637,-6439.791695,1225.752797
1141.168962,7105.977043,-6587.832884,919.314598
1141.169291,6809.894666,-6661.853478,1072.533697
1141.169620,6735.874072,-6883.915261,383.047749
1141.169949,6587.832884,-6587.832884,536.266849
1141.170279,6809.894666,-6587.832884,766.095498
1141.170608,6735.874072,-6661.853478,1072.533697
1141.170937,7031.956449,-5699.585753,766.095498
1141.171266,7476.080014,-5995.668130,229.828649
1141.171595,7179.997637,-5551.544565,1072.533697
1141.171925,7328.038826,-5699.585753,1072.533697
1141.172254,8290.306550,-5921.647536,1762.019645
1141.172583,8512.368333,-5625.565159,1532.190996
1141.172912,7994.224174,-5773.606348,995.924147
1141.173241,6957.935855,-6217.729913,919.314598
1141.173570,6809.894666,-7179.997637,766.095498
1141.173900,6809.894666,-7550.100608,1455.581446
1141.174229,6587.832884,-7105.977043,995.924147
1141.174558,6365.771101,-6957.935855,612.876398
1141.174887,6217.729913,-6809.894666,1149.143247
1141.175216,6439.791695,-7402.059420,1072.533697
1141.175545,5995.668130,-7105.977043,689.485948
1141.175875,5921.647536,-6439.791695,1608.800546
1141.176204,6217.729913,-7105.977043,459.657299
1141.176533,6809.894666,-6513.812290,612.876398
1141.176862,7105.977043,-6661.853478,995.924147
1141.177191,7254.018232,-7105.977043,1608.800546
1141.177520,7328.038826,-6439.791695,919.314598
1141.177850,7254.018232,-7105.977043,995.924147
1141.178179,7254.018232,-6661.853478,766.095498
1141.178508,7105.977043,-6957.935855,842.705048
1141.178837,7254.018232,-6735.874072,1072.533697
1141.179166,6365.771101,-7105.977043,689.485948
1141.179496,6883.915261,-7105.977043,612.876398
1141.179825,6661.853478,-6661.853478,842.705048
1141.180154,7105.977043,-5847.626942,995.924147
1141.180483,6217.729913,-6587.832884,1225.752797
1141.180812,6661.853478,-6143.709319,1608.800546
1141.181141,7402.059420,-5921.647536,1685.410096
1141.181471,7698.141797,-5403.503377,1685.410096
1141.181800,7402.059420,-5995.668130,1838.629195
1141.182129,7031.956449,-6291.750507,1762.019645
1141.182458,7105.977043,-7254.018232,1685.410096
1141.182787,6661.853478,-6809.894666,1149.143247
1141.183116,7105.977043,-6217.729913,919.314598
1141.183446,7179.997637,-6587.832884,995.924147
1141.183775,7105.977043,-6439.791695,842.705048
1141.184104,6587.832884,-7476.080014,689.485948
1141.184433,6513.812290,-5847.626942,842.705048
1141.184762,6661.853478,-5773.606348,229.828649
1141.185091,6883.915261,-5847.626942,766.095498
1141.185421,7550.100608,-5847.626942,1532.190996
1141.185750,7550.100608,-6587.832884,1149.143247
1141.186079,7476.080014,-5107.421000,919.314598
1141.186408,6883.915261,-6143.709319,919.314598
1141.186737,7105.977043,-7031.956449,1532.190996
1141.187066,7254.018232,-7105.977043,1532.190996
1141.187396,6957.935855,-6957.935855,1378.971896
1141.187725,6513.812290,-6735.874072,842.705048
1141.188054,6735.874072,-6587.832884,1225.752797
1141.188383,7105.977043,-7031.956449,1608.800546
1141.188712,7550.100608,-6217.729913,1838.629195
1141.189042,6883.915261,-5699.585753,1149.143247
1141.189371,6957.935855,-5329.482782,689.485948
1141.189700,6809.894666,-6735.874072,1225.752797
1141.190029,6883.915261,-6883.915261,1149.143247
1141.190358,6809.894666,-6661.853478,842.705048
1141.190687,6513.812290,-6587.832884,766.095498
1141.191017,6661.853478,-6587.832884,689.485948
1141.191346,6661.853478,-7624.121203,842.705048
1141.191675,6957.935855,-7698.141797,842.705048
1141.192004,6809.894666,-7105.977043,612.876398
1141.192333,6957.935855,-7105.977043,383.047749
1141.192662,6439.791695,-7105.977043,766.095498
1141.192992,6587.832884,-7402.059420,842.705048
1141.193321,6661.853478,-7179.997637,689.485948
1141.193650,6439.791695,-6513.812290,536.266849
1141.193979,6661.853478,-6957.935855,842.705048
1141.194308,7031.956449,-6513.812290,1302.362347
1141.194637,7031.956449,-6439.791695,1378.971896
1141.194967,7031.956449,-6291.750507,1378.971896
1141.195296,7105.977043,-5995.668130,1149.143247
1141.195625,7772.162391,-6661.853478,1225.752797
1141.195954,7550.100608,-6513.812290,1685.410096
1141.196283,7328.038826,-6365.771101,1302.362347
1141.196613,7254.018232,-6365.771101,1608.800546
1141.196942,7031.956449,-6069.688724,1608.800546
1141.197271,7254.018232,-6513.812290,1302.362347
1141.197600,7105.977043,-6735.874072,1149.143247
1141.197929,6513.812290,-6661.853478,842.705048
1141.198258,6809.894666,-6143.709319,612.876398
1141.198588,7031.956449,-6143.709319,995.924147
1141.198917,6957.935855,-6661.853478,842.705048
1141.199246,7179.997637,-6587.832884,995.924147
1141.199575,7476.080014,-5847.626942,689.485948
1141.199904,6661.853478,-5847.626942,842.705048
1141.200233,7328.038826,-5921.647536,229.828649
1141.200563,7550.100608,-6217.729913,1149.143247
1141.200892,8142.265362,-6439.791695,1302.362347
1141.201221,8142.265362,-5847.626942,1608.800546
1141.201550,8068.244768,-5995.668130,1838.629195
1141.201879,7476.080014,-6069.688724,1378.971896
1141.202208,7031.956449,-6439.791695,842.705048
1141.202538,6439.791695,-7105.977043,1072.533697
1141.202867,6217.729913,-6883.915261,995.924147
1141.203196,6735.874072,-6809.894666,1532.190996
1141.203525,6513.812290,-6439.791695,1302.362347
1141.203854,6439.791695,-6883.915261,842.705048
1141.204184,6143.709319,-7105.977043,689.485948
1141.204513,6513.812290,-7254.018232,1149.143247
1141.204842,6735.874072,-7402.059420,76.609550
1141.205171,6587.832884,-6883.915261,459.657299
1141.205500,6735.874072,-7105.977043,1072.533697
1141.205829,7031.956449,-7254.018232,689.485948
1141.206159,6957.935855,-6735.874072,306.438199
1141.206488,7105.977043,-7476.080014,1072.533697
1141.206817,7254.018232,-6587.832884,919.314598
1141.207146,6957.935855,-6957.935855,995.924147
1141.207475,6587.832884,-6735.874072,1378.971896
1141.207804,6587.832884,-7105.977043,842.705048
1141.208134,6513.812290,-7031.956449,1149.143247
1141.208463,6809.894666,-6069.688724,995.924147
1141.208792,7031.956449,-6217.729913,1225.752797
1141.209121,7328.038826,-6513.812290,919.314598
1141.209450,7179.997637,-6587.832884,842.705048
1141.209779,7254.018232,-6365.771101,1302.362347
1141.210109,7402.059420,-6143.709319,1455.581446
1141.210438,7402.059420,-6439.791695,1455.581446
1141.210767,7328.038826,-6439.791695,1685.410096
1141.211096,6735.874072,-6809.894666,1225.752797
1141.211425,6661.853478,-6513.812290,612.876398
1141.211755,6883.915261,-6661.853478,995.924147
1141.212084,7105.977043,-6365.771101,1149.143247
1141.212413,7179.997637,-6291.750507,689.485948
1141.212742,6735.874072,-6217.729913,919.314598
1141.213071,6661.853478,-6217.729913,459.657299
1141.213400,7105.977043,-6365.771101,919.314598
1141.213730,7328.038826,-5625.565159,842.705048
1141.214059,7179.997637,-5773.606348,766.095498
1141.214388,7624.121203,-5847.626942,1072.533697
1141.214717,7476.080014,-6143.709319,689.485948
1141.215046,7402.059420,-6143.709319,1915.238745
1141.215375,7550.100608,-6513.812290,766.095498
1141.215705,7105.977043,-6661.853478,1072.533697
1141.216034,6735.874072,-6883.915261,995.924147
1141.216363,6365.771101,-6957.935855,1302.362347
1141.216692,6217.729913,-6439.791695,1302.362347
1141.217021,6587.832884,-6957.935855,1608.800546
1141.217351,7105.977043,-6217.729913,1225.752797
1141.217680,7105.977043,-6365.771101,1225.752797
1141.218009,6439.791695,-6069.688724,1225.752797
1141.218338,7031.956449,-6291.750507,1685.410096
1141.218667,7105.977043,-6883.915261,1072.533697
1141.218997,7031.956449,-6661.853478,689.485948
1141.219326,6883.915261,-6957.935855,612.876398
1141.219655,6809.894666,-7105.977043,1302.362347
1141.219984,6957.935855,-7550.100608,842.705048
1141.220313,6439.791695,-7328.038826,536.266849
1141.220642,6661.853478,-7105.977043,536.266849
1141.220972,6587.832884,-7772.162391,689.485948
1141.221301,6217.729913,-7179.997637,689.485948
1141.221630,6291.750507,-7105.977043,612.876398
1141.221959,6365.771101,-6735.874072,612.876398
1141.222288,6883.915261,-6883.915261,919.314598
1141.222618,7031.956449,-6735.874072,1608.800546
1141.222947,7402.059420,-6143.709319,1991.848295
1141.223276,7105.977043,-5921.647536,1378.971896
1141.223605,7328.038826,-5773.606348,1302.362347
1141.223934,7476.080014,-6069.688724,1608.800546
1141.224264,7772.162391,-6069.688724,2221.676944
1141.224593,7698.141797,-6217.729913,1608.800546
1141.224922,7179.997637,-6365.771101,919.314598
1141.225251,6439.791695,-6883.915261,1378.971896
1141.225580,6365.771101,-7105.977043,1072.533697
1141.225910,6587.832884,-7402.059420,1302.362347
1141.226239,6587.832884,-7179.997637,766.095498
1141.226568,6439.791695,-6587.832884,689.485948
1141.226897,6661.853478,-5847.626942,766.095498
1141.227226,7402.059420,-6069.688724,995.924147
1141.227556,7402.059420,-6291.750507,1072.533697
1141.227885,7624.121203,-5329.482782,1149.143247
1141.228214,7402.059420,-4737.318029,536.266849
1141.228543,7105.977043,-5255.462188,459.657299
1141.228872,7476.080014,-5625.565159,536.266849
1141.229202,7772.162391,-6661.853478,1149.143247
1141.229531,7994.224174,-6587.832884,1225.752797
1141.229860,7550.100608,-6069.688724,1149.143247
1141.230189,7105.977043,-6809.894666,1455.581446
1141.230518,6439.791695,-7402.059420,1072.533697
1141.230848,6291.750507,-8068.244768,536.266849
1141.231177,6143.709319,-7846.182985,1378.971896
1141.231506,6439.791695,-6735.874072,689.485948
1141.231835,6069.688724,-6513.812290,1378.971896
1141.232164,6513.812290,-6587.832884,919.314598
1141.232494,6883.915261,-6439.791695,1302.362347
1141.232823,7031.956449,-6291.750507,1149.143247
1141.233152,6957.935855,-6143.709319,1149.143247
1141.233481,7328.038826,-6513.812290,1149.143247
1141.233810,7179.997637,-6513.812290,612.876398
1141.234139,7105.977043,-7179.997637,536.266849
1141.234469,6809.894666,-7476.080014,612.876398
1141.234798,7105.977043,-7328.038826,842.705048
1141.235127,7105.977043,-7402.059420,766.095498
1141.235456,7031.956449,-7031.956449,842.705048
1141.235785,6513.812290,-7402.059420,766.095498
1141.236115,6217.729913,-7550.100608,689.485948
1141.236444,6217.729913,-7328.038826,919.314598
1141.236773,6143.709319,-6439.791695,689.485948
1141.237102,6291.750507,-5699.585753,766.095498
1141.237431,6809.894666,-5847.626942,1225.752797
1141.237761,7179.997637,-6217.729913,1991.848295
1141.238090,7994.224174,-5847.626942,1838.629195
1141.238419,7994.224174,-5255.462188,1915.238745
1141.238748,7698.141797,-4959.379811,1302.362347
1141.239077,7402.059420,-6217.729913,1455.581446
1141.239407,6661.853478,-6957.935855,2221.676944
1141.239736,6513.812290,-7105.977043,1149.143247
1141.240065,6661.853478,-6883.915261,919.314598
1141.240394,6809.894666,-6735.874072,919.314598
1141.240723,6365.771101,-6587.832884,1225.752797
1141.241053,6587.832884,-6735.874072,383.047749
1141.241382,6143.709319,-5995.668130,459.657299
1141.241711,6587.832884,-5921.647536,383.047749
1141.242040,6735.874072,-5551.544565,536.266849
1141.242369,7328.038826,-5329.482782,689.485948
1141.242699,7402.059420,-5699.585753,689.485948
1141.243028,7624.121203,-5699.585753,995.924147
1141.243357,7920.203579,-5921.647536,1608.800546
1141.243686,8068.244768,-6365.771101,1072.533697
1141.244015,7920.203579,-6735.874072,919.314598
1141.244345,7254.018232,-7328.038826,1072.533697
1141.244674,6809.894666,-6957.935855,1072.533697
1141.245003,6365.771101,-7328.038826,995.924147
1141.245332,6957.935855,-7328.038826,1608.800546
1141.245661,6809.894666,-6291.750507,1302.362347
1141.245990,6587.832884,-6365.771101,842.705048
1141.246320,6365.771101,-5921.647536,536.266849
1141.246649,6735.874072,-6513.812290,842.705048
1141.246978,7179.997637,-6587.832884,1608.800546
1141.247307,7624.121203,-6217.729913,1455.581446
1141.247636,7105.977043,-6217.729913,995.924147
1141.247966,6513.812290,-6439.791695,919.314598
1141.248295,6809.894666,-7179.997637,1072.533697
1141.248624,6957.935855,-7698.141797,1072.533697
1141.248953,7031.956449,-7402.059420,766.095498
1141.249282,6735.874072,-7254.018232,612.876398
1141.249612,6661.853478,-7550.100608,536.266849
1141.249941,6439.791695,-7328.038826,459.657299
1141.250270,6365.771101,-7402.059420,536.266849
1141.250599,5773.606348,-6883.915261,383.047749
1141.250928,5995.668130,-6661.853478,766.095498
1141.251258,6217.729913,-6513.812290,536.266849
1141.251587,6809.894666,-5773.606348,1149.143247
1141.251916,6809.894666,-6069.688724,1455.581446
1141.252245,7254.018232,-5551.544565,1762.019645
1141.252574,7624.121203,-5403.503377,1762.019645
1141.252904,8068.244768,-5403.503377,2145.067394
1141.253233,7846.182985,-5773.606348,2068.457845
1141.253562,7254.018232,-6735.874072,1072.533697
1141.253891,6439.791695,-6809.894666,1302.362347
1141.254220,6809.894666,-7254.018232,995.924147
1141.254550,6883.915261,-7105.977043,1149.143247
1141.254879,6291.750507,-7179.997637,766.095498
1141.255208,6143.709319,-6513.812290,536.266849
1141.255537,6365.771101,-6661.853478,766.095498
1141.255866,7031.956449,-6217.729913,919.314598
1141.256196,6957.935855,-5773.606348,612.876398
1141.256525,7031.956449,-5403.503377,536.266849
1141.256854,7031.956449,-5033.400406,306.438199
1141.257183,7328.038826,-5847.626942,383.047749
1141.257512,8068.244768,-5551.544565,1072.533697
1141.257842,8512.368333,-5995.668130,1685.410096
1141.258171,8808.450710,-5847.626942,1455.581446
1141.258500,8290.306550,-6143.709319,1532.190996
1141.258829,7698.141797,-6957.935855,1378.971896
1141.259158,7698.141797,-6883.915261,1455.581446
1141.259487,6661.853478,-7179.997637,919.314598
1141.259817,6069.688724,-6661.853478,919.314598
1141.260146,5995.668130,-6661.853478,1149.143247
1141.260475,6143.709319,-6513.812290,612.876398
1141.260804,6291.750507,-7031.956449,842.705048
1141.261133,6143.709319,-6439.791695,919.314598
1141.261463,6661.853478,-6513.812290,306.438199
1141.261792,6661.853478,-6883.915261,536.266849
1141.262121,7328.038826,-7105.977043,919.314598
1141.262450,7402.059420,-6957.935855,689.485948
1141.262779,7402.059420,-7254.018232,995.924147
1141.263109,7328.038826,-6883.915261,842.705048
1141.263438,7624.121203,-7179.997637,1225.752797
1141.263767,7994.224174,-7031.956449,1302.362347
1141.264096,7105.977043,-6809.894666,1072.533697
1141.264425,6365.771101,-7179.997637,919.314598
1141.264755,6069.688724,-7402.059420,842.705048
1141.265084,5847.626942,-6883.915261,536.266849
1141.265413,6069.688724,-6217.729913,1225.752797
1141.265742,5995.668130,-5773.606348,689.485948
1141.266071,6513.812290,-6217.729913,1378.971896
1141.266401,7105.977043,-5847.626942,1685.410096
1141.266730,7476.080014,-5625.565159,1608.800546
1141.267059,7624.121203,-5403.503377,1608.800546
1141.267388,8068.244768,-5477.523971,1838.629195
1141.267717,7328.038826,-6883.915261,1915.238745
1141.268047,6587.832884,-6735.874072,1149.143247
1141.268376,6661.853478,-7328.038826,842.705048
1141.268705,6661.853478,-6809.894666,919.314598
1141.269034,6291.750507,-7550.100608,919.314598
1141.269363,6217.729913,-7920.203579,1072.533697
1141.269693,5995.668130,-7328.038826,995.924147
1141.270022,5921.647536,-7402.059420,612.876398
1141.270351,6217.729913,-6439.791695,306.438199
1141.270680,6439.791695,-6217.729913,689.485948
1141.271009,7179.997637,-6587.832884,536.266849
1141.271339,7179.997637,-5699.585753,1149.143247
1141.271668,7550.100608,-5477.523971,842.705048
1141.271997,8142.265362,-5477.523971,1072.533697
1141.272326,8364.327145,-6069.688724,1608.800546
1141.272655,8142.265362,-6513.812290,1608.800546
1141.272984,7402.059420,-5773.606348,1072.533697
1141.273314,7105.977043,-6735.874072,919.314598
1141.273643,7179.997637,-7105.977043,1302.362347
1141.273972,7550.100608,-7179.997637,1915.238745
1141.274301,7105.977043,-6291.750507,2145.067394
1141.274630,6513.812290,-6069.688724,1072.533697
1141.274960,6365.771101,-6587.832884,995.924147
1141.275289,6735.874072,-6217.729913,919.314598
1141.275618,7179.997637,-6587.832884,1378.971896
1141.275947,7254.018232,-6291.750507,1072.533697
1141.276276,6957.935855,-5255.462188,612.876398
1141.276606,7105.977043,-6291.750507,919.314598
1141.276935,7402.059420,-6661.853478,995.924147
1141.277264,7772.162391,-7105.977043,766.095498
1141.277593,7105.977043,-6439.791695,612.876398
1141.277922,6809.894666,-6587.832884,153.219100
1141.278252,6661.853478,-8068.244768,459.657299
1141.278581,6143.709319,-7698.141797,1072.533697
1141.278910,6439.791695,-7402.059420,536.266849
1141.279239,6291.750507,-7179.997637,612.876398
1141.279568,6069.688724,-7254.018232,919.314598
1141.279898,6513.812290,-7476.080014,919.314598
1141.280227,6883.915261,-6365.771101,1455.581446
1141.280556,6735.874072,-5921.647536,995.924147
1141.280885,7179.997637,-5329.482782,1455.581446
1141.281214,7328.038826,-5477.523971,1532.190996
1141.281544,7476.080014,-6291.750507,1378.971896
1141.281873,7624.121203,-5477.523971,1532.190996
1141.282202,7105.977043,-6217.729913,1455.581446
1141.282531,7105.977043,-6735.874072,1225.752797
1141.282860,7105.977043,-7254.018232,1302.362347
1141.283190,6883.915261,-7179.997637,919.314598
1141.283519,6513.812290,-7105.977043,689.485948
1141.283848,6217.729913,-7031.956449,842.705048
1141.284177,6587.832884,-7105.977043,995.924147
1141.284506,7105.977043,-7031.956449,1378.971896
1141.284836,6883.915261,-6365.771101,1915.238745
1141.285165,7179.997637,-5847.626942,1149.143247
1141.285494,6883.915261,-5551.544565,689.485948
1141.285823,6809.894666,-5551.544565,459.657299
1141.286152,7105.977043,-5477.523971,766.095498
1141.286481,8068.244768,-5847.626942,1302.362347
1141.286811,8438.347739,-5773.606348,1378.971896
1141.287140,8216.285956,-6291.750507,1532.190996
1141.287469,7254.018232,-6439.791695,1302.362347
1141.287798,7328.038826,-7105.977043,459.657299
1141.288127,6291.750507,-7402.059420,919.314598
1141.288457,6661.853478,-7402.059420,1608.800546
1141.288786,6587.832884,-7328.038826,1378.971896
1141.289115,6513.812290,-6809.894666,1072.533697
1141.289444,5921.647536,-6143.709319,919.314598
1141.289773,6365.771101,-6365.771101,1149.143247
1141.290103,6365.771101,-6439.791695,995.924147
1141.290432,7031.956449,-6217.729913,919.314598
1141.290761,7031.956449,-6143.709319,306.438199
1141.291090,7105.977043,-5773.606348,766.095498
1141.291419,7328.038826,-7105.977043,842.705048
1141.291749,7328.038826,-7105.977043,919.314598
1141.292078,7328.038826,-7179.997637,612.876398
1141.292407,7624.121203,-7179.997637,689.485948
1141.292736,7031.956449,-7624.121203,919.314598
1141.293065,7031.956449,-8364.327145,383.047749
1141.293395,5847.626942,-7624.121203,383.047749
1141.293724,5921.647536,-7550.100608,919.314598
1141.294053,6365.771101,-6291.750507,1149.143247
1141.294382,6661.853478,-5921.647536,1072.533697
1141.294711,7179.997637,-6069.688724,1532.190996
1141.295041,7179.997637,-5477.523971,1302.362347
1141.295370,7328.038826,-4885.359217,1991.848295
1141.295699,7550.100608,-5107.421000,1762.019645
1141.296028,7920.203579,-5181.441594,1378.971896
1141.296357,7550.100608,-6513.812290,1685.410096
1141.296687,7031.956449,-7105.977043,1762.019645
1141.297016,7328.038826,-7402.059420,1149.143247
1141.297345,7105.977043,-7402.059420,229.828649
1141.297674,7105.977043,-7476.080014,842.705048
1141.298003,6735.874072,-7328.038826,995.924147
1141.298332,6513.812290,-6661.853478,689.485948
1141.298662,5921.647536,-7179.997637,459.657299
1141.298991,6291.750507,-6365.771101,612.876398
1141.299320,6661.853478,-5921.647536,919.314598
1141.299649,7105.977043,-5477.523971,995.924147
1141.299978,7254.018232,-5033.400406,1378.971896
1141.300308,7254.018232,-6143.709319,1072.533697
1141.300637,7105.977043,-5921.647536,995.924147
1141.300966,7476.080014,-6291.750507,1149.143247
1141.301295,7772.162391,-6439.791695,1302.362347
1141.301624,7624.121203,-6883.915261,1302.362347
1141.301954,7328.038826,-7179.997637,1378.971896
1141.302283,7105.977043,-6883.915261,1455.581446
1141.302612,7105.977043,-6809.894666,1532.190996
1141.302941,7105.977043,-6809.894666,1302.362347
1141.303270,6661.853478,-6513.812290,1072.533697
1141.303600,6143.709319,-6661.853478,1149.143247
1141.303929,6217.729913,-6439.791695,995.924147
1141.304258,6217.729913,-6143.709319,842.705048
1141.304587,6883.915261,-6513.812290,1072.533697
1141.304916,6513.812290,-6439.791695,995.924147
1141.305246,6809.894666,-6883.915261,612.876398
1141.305575,6587.832884,-6957.935855,842.705048
1141.305904,6957.935855,-7105.977043,766.095498
1141.306233,6957.935855,-7550.100608,229.828649
1141.306562,7328.038826,-7772.162391,1225.752797
1141.306892,7105.977043,-7772.162391,612.876398
1141.307221,6587.832884,-7179.997637,1072.533697
1141.307550,6069.688724,-6809.894666,766.095498
1141.307879,6587.832884,-7179.997637,1072.533697
1141.308208,7031.956449,-6883.915261,1225.752797
1141.308538,6957.935855,-6217.729913,1455.581446
1141.308867,6809.894666,-4959.379811,1455.581446
1141.309196,7105.977043,-5033.400406,1455.581446
1141.309525,7328.038826,-5181.441594,1532.190996
1141.309854,7920.203579,-5699.585753,1915.238745
1141.310184,7550.100608,-5773.606348,1685.410096
1141.310513,7031.956449,-5551.544565,1608.800546
1141.310842,6883.915261,-7031.956449,995.924147
1141.311171,6957.935855,-7179.997637,766.095498
1141.311500,6957.935855,-7846.182985,995.924147
1141.311829,7105.977043,-8216.285956,1149.143247
1141.312159,6957.935855,-7624.121203,536.266849
1141.312488,6143.709319,-7105.977043,612.876398
1141.312817,6513.812290,-6883.915261,766.095498
1141.313146,6587.832884,-6513.812290,842.705048
1141.313475,7105.977043,-5403.503377,1455.581446
1141.313805,7476.080014,-5033.400406,919.314598
1141.314134,7179.997637,-4811.338623,1149.143247
1141.314463,7179.997637,-5255.462188,689.485948
1141.314792,7476.080014,-5551.544565,1072.533697
1141.315121,8142.265362,-5403.503377,1225.752797
1141.315451,8364.327145,-6069.688724,1302.362347
1141.315780,7476.080014,-7031.956449,1225.752797
1141.316109,7254.018232,-7179.997637,1149.143247
1141.316438,6809.894666,-7624.121203,919.314598
1141.316767,6957.935855,-7254.018232,1149.143247
1141.317097,6365.771101,-7179.997637,1072.533697
1141.317426,6587.832884,-7105.977043,1762.019645
1141.317755,6365.771101,-6883.915261,1762.019645
1141.318084,6587.832884,-6365.771101,1608.800546
1141.318413,6365.771101,-5477.523971,1225.752797
1141.318742,6587.832884,-5773.606348,1072.533697
1141.319071,6883.915261,-5995.668130,766.095498
1141.319400,7550.100608,-6291.750507,1072.533697
1141.319729,7328.038826,-5995.668130,536.266849
1141.320058,7328.038826,-6365.771101,612.876398
1141.320387,7328.038826,-7328.038826,842.705048
1141.320717,7179.997637,-7624.121203,919.314598
1141.321046,7105.977043,-7254.018232,1455.581446
1141.321375,6587.832884,-7476.080014,766.095498
1141.321704,6217.729913,-7476.080014,383.047749
1141.322033,5995.668130,-7254.018232,459.657299
1141.322362,6439.791695,-7105.977043,995.924147
1141.322691,7179.997637,-6291.750507,1378.971896
1141.323020,7476.080014,-5477.523971,1608.800546
1141.323349,7105.977043,-5625.565159,1762.019645
1141.323678,6957.935855,-5107.421000,1302.362347
1141.324007,7698.141797,-5255.462188,1455.581446
1141.324336,7994.224174,-5477.523971,1532.190996
1141.324665,7920.203579,-6069.688724,1762.019645
1141.324994,7254.018232,-6661.853478,1378.971896
1141.325323,6809.894666,-7105.977043,1149.143247
1141.325652,7105.977043,-7105.977043,842.705048
1141.325981,7254.018232,-7254.018232,1149.143247
1141.326310,6439.791695,-7624.121203,919.314598
1141.326639,6069.688724,-7476.080014,612.876398
1141.326968,5699.585753,-6735.874072,383.047749
1141.327297,6365.771101,-6587.832884,76.609550
1141.327626,6957.935855,-6217.729913,919.314598
1141.327955,7550.100608,-5921.647536,1225.752797
1141.328284,7624.121203,-5773.606348,1225.752797
1141.328614,7254.018232,-4811.338623,612.876398
1141.328943,7254.018232,-5625.565159,919.314598
1141.329272,7328.038826,-6217.729913,919.314598
1141.329601,7476.080014,-6809.894666,1149.143247
1141.329930,7476.080014,-6957.935855,1225.752797
1141.330259,7550.100608,-6439.791695,1455.581446
1141.330588,7105.977043,-6957.935855,1302.362347
1141.330917,7254.018232,-7179.997637,1838.629195
1141.331246,7031.956449,-7105.977043,1532.190996
1141.331575,6809.894666,-6291.750507,1302.362347
1141.331904,6439.791695,-5921.647536,1072.533697
1141.332233,6217.729913,-6587.832884,919.314598
1141.332562,6513.812290,-6513.812290,1225.752797
1141.332891,6365.771101,-6587.832884,919.314598
1141.333220,6957.935855,-7105.977043,919.314598
1141.333549,6661.853478,-6217.729913,383.047749
1141.333878,6809.894666,-6809.894666,536.266849
1141.334207,6735.874072,-7105.977043,1149.143247
1141.334536,7254.018232,-7772.162391,766.095498
1141.334865,7105.977043,-7105.977043,536.266849
1141.335194,6957.935855,-7254.018232,612.876398
1141.335523,7105.977043,-7105.977043,536.266849
1141.335852,6809.894666,-7402.059420,919.314598
1141.336181,6735.874072,-7031.956449,842.705048
1141.336511,6735.874072,-6513.812290,689.485948
1141.336840,6661.853478,-6587.832884,919.314598
1141.337169,6587.832884,-6217.729913,1072.533697
1141.337498,6809.894666,-6143.709319,1072.533697
1141.337827,6513.812290,-5847.626942,1225.752797
1141.338156,7105.977043,-5699.585753,1302.362347
1141.338485,7105.977043,-6291.750507,1838.629195
1141.338814,7328.038826,-5847.626942,1685.410096
1141.339143,7624.121203,-6365.771101,1302.362347
1141.339472,7105.977043,-6735.874072,1302.362347
1141.339801,7105.977043,-6439.791695,842.705048
1141.340130,7105.977043,-7328.038826,919.314598
1141.340459,7031.956449,-6957.935855,766.095498
1141.340788,6809.894666,-6809.894666,919.314598
1141.341117,6291.750507,-7105.977043,689.485948
1141.341446,5995.668130,-6513.812290,766.095498
1141.341775,6809.894666,-6809.894666,1072.533697
1141.342104,7624.121203,-6513.812290,1149.143247
1141.342433,7402.059420,-5477.523971,766.095498
1141.342762,7105.977043,-5847.626942,842.705048
1141.343091,6883.915261,-4885.359217,459.657299
1141.343420,7476.080014,-6365.771101,306.438199
1141.343749,8586.388927,-6069.688724,919.314598
1141.344078,8438.347739,-6069.688724,1532.190996
1141.344407,7624.121203,-6735.874072,1302.362347
1141.344737,7105.977043,-6217.729913,1302.362347
1141.345066,6513.812290,-7402.059420,842.705048
1141.345395,6661.853478,-7179.997637,1225.752797
1141.345724,6735.874072,-7402.059420,1532.190996
1141.346053,6809.894666,-7105.977043,1378.971896
1141.346382,6587.832884,-6735.874072,1225.752797
1141.346711,6365.771101,-6217.729913,842.705048
1141.347040,6365.771101,-6365.771101,919.314598
1141.347369,6217.729913,-6513.812290,1225.752797
1141.347698,6513.812290,-6439.791695,612.876398
1141.348027,6587.832884,-6069.688724,536.266849
1141.348356,7105.977043,-7105.977043,689.485948
1141.348685,7105.977043,-7254.018232,919.314598
1141.349014,7328.038826,-7402.059420,995.924147
1141.349343,7105.977043,-7105.977043,766.095498
1141.349672,7254.018232,-7031.956449,766.095498
1141.350001,6439.791695,-7550.100608,995.924147
1141.350330,6365.771101,-7402.059420,766.095498
1141.350659,6143.709319,-7550.100608,919.314598
1141.350988,6291.750507,-6661.853478,995.924147
1141.351317,6291.750507,-6069.688724,1225.752797
1141.351646,6513.812290,-6069.688724,1302.362347
1141.351975,6957.935855,-6217.729913,1608.800546
1141.352304,7254.018232,-5625.565159,1302.362347
1141.352634,7550.100608,-5403.503377,1072.533697
1141.352963,7402.059420,-4959.379811,1991.848295
1141.353292,7624.121203,-5995.668130,1608.800546
1141.353621,7105.977043,-6735.874072,1378.971896
1141.353950,6661.853478,-6661.853478,1455.581446
1141.354279,7031.956449,-7031.956449,1072.533697
1141.354608,7328.038826,-6661.853478,1225.752797
1141.354937,7254.018232,-6513.812290,1225.752797
1141.355266,6809.894666,-6513.812290,1149.143247
1141.355595,6587.832884,-6365.771101,842.705048
1141.355924,6365.771101,-6069.688724,459.657299
1141.356253,6661.853478,-6217.729913,689.485948
1141.356582,6513.812290,-5699.585753,689.485948
1141.356911,7105.977043,-5921.647536,919.314598
1141.357240,6809.894666,-5995.668130,1455.581446
1141.357569,7105.977043,-6143.709319,1378.971896
1141.357898,7179.997637,-6365.771101,919.314598
1141.358227,7476.080014,-6587.832884,919.314598
1141.358556,7254.018232,-6957.935855,1072.533697
1141.358885,7179.997637,-6809.894666,1072.533697
1141.359214,7105.977043,-6809.894666,1302.362347
1141.359543,6587.832884,-6809.894666,1302.362347
1141.359872,6661.853478,-7031.956449,1532.190996
1141.360201,6735.874072,-6735.874072,1302.362347
1141.360531,7031.956449,-6513.812290,842.705048
1141.360860,6809.894666,-6587.832884,995.924147
1141.361189,6587.832884,-6439.791695,919.314598
1141.361518,7031.956449,-6513.812290,1072.533697
1141.361847,7254.018232,-6365.771101,1302.362347
1141.362176,6661.853478,-6587.832884,612.876398
1141.362505,6143.709319,-7105.977043,612.876398
1141.362834,6365.771101,-7550.100608,612.876398
1141.363163,6957.935855,-7476.080014,536.266849
1141.363492,7624.121203,-7105.977043,383.047749
1141.363821,7328.038826,-7105.977043,689.485948
1141.364150,6957.935855,-7105.977043,612.876398
1141.364479,6587.832884,-7179.997637,536.266849
1141.364808,6809.894666,-6365.771101,919.314598
1141.365137,6661.853478,-6291.750507,689.485948
1141.365466,6735.874072,-6069.688724,612.876398
1141.365795,6513.812290,-6513.812290,1149.143247
1141.366124,6513.812290,-6291.750507,1149.143247
1141.366453,7105.977043,-5921.647536,1378.971896
1141.366782,7105.977043,-6439.791695,1455.581446
1141.367111,7550.100608,-6217.729913,1532.190996
1141.367440,7105.977043,-6143.709319,1378.971896
1141.367769,6883.915261,-6587.832884,1149.143247
1141.368098,6957.935855,-6439.791695,1149.143247
1141.368427,6735.874072,-6661.853478,1378.971896
1141.368757,6735.874072,-6735.874072,1149.143247
1141.369086,6735.874072,-6661.853478,1149.143247
1141.369415,6439.791695,-6365.771101,689.485948
1141.369744,6661.853478,-6365.771101,842.705048
1141.370073,6735.874072,-6439.791695,919.314598
1141.370402,7328.038826,-6217.729913,1072.533697
1141.370731,7550.100608,-5477.523971,1225.752797
1141.371060,7105.977043,-6143.709319,1149.143247
1141.371389,6957.935855,-6217.729913,1072.533697
1141.371718,7105.977043,-6365.771101,842.705048
1141.372047,7105.977043,-6439.791695,766.095498
1141.372376,7846.182985,-6069.688724,536.266849
1141.372705,7624.121203,-6143.709319,1072.533697
1141.373034,7920.203579,-6883.915261,1378.971896
1141.373363,7624.121203,-7105.977043,1532.190996
1141.373692,7031.956449,-6883.915261,1455.581446
1141.374021,7031.956449,-6365.771101,842.705048
1141.374350,6883.915261,-6661.853478,1455.581446
1141.374679,7031.956449,-6883.915261,1532.190996
1141.375008,6957.935855,-6661.853478,1532.190996
1141.375337,6809.894666,-6291.750507,1685.410096
1141.375666,7254.018232,-5995.668130,919.314598
1141.375995,6883.915261,-6883.915261,842.705048
1141.376324,6883.915261,-6883.915261,306.438199
1141.376654,6735.874072,-7105.977043,612.876398
1141.376983,6735.874072,-6883.915261,536.266849
1141.377312,6883.915261,-7105.977043,842.705048
1141.377641,6957.935855,-7328.038826,612.876398
1141.377970,7105.977043,-7179.997637,689.485948
1141.378299,7105.977043,-7402.059420,842.705048
1141.378628,7105.977043,-7550.100608,689.485948
1141.378957,6143.709319,-7031.956449,766.095498
1141.379286,6513.812290,-6957.935855,1072.533697
1141.379615,7031.956449,-6809.894666,995.924147
1141.379944,6513.812290,-5699.585753,612.876398
1141.380273,6809.894666,-6513.812290,1762.019645
1141.380602,7179.997637,-5995.668130,1532.190996
1141.380931,7402.059420,-5551.544565,1455.581446
1141.381260,7476.080014,-5773.606348,1378.971896
1141.381589,7328.038826,-5847.626942,1915.238745
1141.381918,7254.018232,-7105.977043,1225.752797
1141.382247,6661.853478,-6809.894666,1302.362347
1141.382576,6439.791695,-6883.915261,919.314598
1141.382905,6365.771101,-6883.915261,536.266849
1141.383234,6735.874072,-7105.977043,1302.362347
1141.383563,6735.874072,-7179.997637,1072.533697
1141.383892,6513.812290,-6513.812290,536.266849
1141.384221,6513.812290,-6143.709319,612.876398
1141.384551,6957.935855,-6217.729913,459.657299
1141.384880,7179.997637,-6217.729913,1072.533697
1141.385209,7402.059420,-5699.585753,842.705048
1141.385538,7476.080014,-5773.606348,1072.533697
1141.385867,7254.018232,-5921.647536,1072.533697
1141.386196,7031.956449,-6069.688724,1378.971896
1141.386525,7328.038826,-6957.935855,842.705048
1141.386854,7105.977043,-7105.977043,995.924147
1141.387183,6661.853478,-7105.977043,919.314598
1141.387512,6587.832884,-7105.977043,919.314598
1141.387841,6809.894666,-7254.018232,1072.533697
1141.388170,6735.874072,-7402.059420,1455.581446
1141.388499,6735.874072,-6661.853478,1225.752797
1141.388828,6809.894666,-5995.668130,995.924147
1141.389157,7328.038826,-6217.729913,1149.143247
1141.389486,7402.059420,-5847.626942,1991.848295
1141.389815,7402.059420,-5773.606348,1608.800546
1141.390144,7328.038826,-5847.626942,1302.362347
1141.390473,6809.894666,-5995.668130,1378.971896
1141.390802,7105.977043,-7105.977043,1225.752797
1141.391131,6809.894666,-7328.038826,995.924147
1141.391460,6365.771101,-7994.224174,919.314598
1141.391789,6365.771101,-7179.997637,383.047749
1141.392118,6957.935855,-7624.121203,383.047749
1141.392448,6735.874072,-7624.121203,689.485948
1141.392777,6587.832884,-7476.080014,459.657299
1141.393106,6143.709319,-7105.977043,459.657299
1141.393435,6143.709319,-6809.894666,612.876398
1141.393764,6735.874072,-6291.750507,919.314598
1141.394093,7105.977043,-6513.812290,1455.581446
1141.394422,7402.059420,-5921.647536,1378.971896
1141.394751,7105.977043,-5551.544565,1455.581446
1141.395080,7402.059420,-5773.606348,1762.019645
1141.395409,7624.121203,-5847.626942,1302.362347
1141.395738,7550.100608,-6365.771101,1838.629195
1141.396067,7179.997637,-6513.812290,1302.362347
1141.396396,7031.956449,-6735.874072,1225.752797
1141.396725,6661.853478,-6439.791695,459.657299
1141.397054,6735.874072,-7105.977043,842.705048
1141.397383,7105.977043,-6365.771101,459.657299
1141.397712,6883.915261,-6439.791695,459.657299
1141.398041,6809.894666,-6587.832884,919.314598
1141.398370,6587.832884,-6439.791695,306.438199
1141.398699,6883.915261,-6439.791695,612.876398
1141.399028,7031.956449,-5995.668130,1072.533697
1141.399357,7254.018232,-5773.606348,1072.533697
1141.399686,7846.182985,-5921.647536,842.705048
1141.400015,7698.141797,-5847.626942,1378.971896
1141.400344,7624.121203,-6217.729913,1302.362347
1141.400674,7994.224174,-6291.750507,1225.752797
1141.401003,7698.141797,-6291.750507,1149.143247
1141.401332,7624.121203,-6735.874072,842.705048
1141.401661,7179.997637,-6809.894666,995.924147
1141.401990,6735.874072,-6809.894666,995.924147
1141.402319,6439.791695,-6957.935855,1149.143247
1141.402648,6143.709319,-5995.668130,1072.533697
1141.402977,6661.853478,-6513.812290,1072.533697
1141.403306,6661.853478,-5995.668130,1225.752797
1141.403635,6883.915261,-5995.668130,1302.362347
1141.403964,6883.915261,-6291.750507,1225.752797
1141.404293,7476.080014,-5995.668130,689.485948
1141.404622,7179.997637,-6957.935855,766.095498
1141.404951,7031.956449,-6883.915261,919.314598
1141.405280,6957.935855,-7254.018232,1149.143247
1141.405609,6883.915261,-7846.182985,842.705048
1141.405938,7105.977043,-7402.059420,229.828649
1141.406267,6957.935855,-7698.141797,536.266849
1141.406596,6809.894666,-7698.141797,689.485948
1141.406925,6217.729913,-7179.997637,459.657299
1141.407254,5773.606348,-7179.997637,689.485948
1141.407583,6439.791695,-6365.771101,612.876398
1141.407912,6661.853478,-6883.915261,1072.533697
1141.408241,7105.977043,-5995.668130,1302.362347
1141.408571,7105.977043,-5477.523971,1149.143247
1141.408900,7105.977043,-5477.523971,1455.581446
1141.409229,7402.059420,-5255.462188,1455.581446
1141.409558,7920.203579,-5773.606348,1838.629195
1141.409887,8216.285956,-6217.729913,1685.410096
1141.410216,7846.182985,-6439.791695,1302.362347
1141.410545,7254.018232,-6883.915261,1532.190996
1141.410874,6957.935855,-7031.956449,1455.581446
1141.411203,6439.791695,-7105.977043,919.314598
1141.411532,6439.791695,-7105.977043,1149.143247
1141.411861,5847.626942,-7031.956449,1072.533697
1141.412190,6217.729913,-7402.059420,612.876398
1141.412519,6291.750507,-6661.853478,153.219100
1141.412848,6513.812290,-5995.668130,536.266849
1141.413177,7031.956449,-6069.688724,689.485948
1141.413506,7105.977043,-6143.709319,689.485948
1141.413835,7254.018232,-6069.688724,919.314598
1141.414164,7772.162391,-5921.647536,919.314598
1141.414493,7550.100608,-5847.626942,919.314598
1141.414822,7994.224174,-6069.688724,1302.362347
1141.415151,7328.038826,-7105.977043,1302.362347
1141.415480,7402.059420,-7476.080014,1532.190996
1141.415809,7328.038826,-7105.977043,1608.800546
1141.416138,6809.894666,-6661.853478,1455.581446
1141.416468,6883.915261,-6587.832884,1149.143247
1141.416797,6513.812290,-7105.977043,1302.362347
1141.417126,6883.915261,-6439.791695,1149.143247
1141.417455,6883.915261,-5403.503377,995.924147
1141.417784,7031.956449,-5403.503377,1149.143247
1141.418113,6883.915261,-5773.606348,919.314598
1141.418442,7105.977043,-6587.832884,1532.190996
1141.418772,7476.080014,-6143.709319,1532.190996
1141.419101,7179.997637,-6291.750507,689.485948
1141.419430,7328.038826,-6661.853478,1072.533697
1141.419759,6883.915261,-7105.977043,536.266849
1141.420088,7031.956449,-7772.162391,612.876398
1141.420417,7031.956449,-7402.059420,612.876398
1141.420747,6883.915261,-7254.018232,766.095498
1141.421076,6513.812290,-7402.059420,612.876398
1141.421405,6365.771101,-7105.977043,689.485948
1141.421734,6291.750507,-7105.977043,536.266849
1141.422063,6217.729913,-6883.915261,766.095498
1141.422392,6291.750507,-6661.853478,1225.752797
1141.422722,6513.812290,-6069.688724,919.314598
1141.423051,6513.812290,-5625.565159,995.924147
1141.423380,6661.853478,-6069.688724,1225.752797
1141.423709,7476.080014,-6143.709319,1302.362347
1141.424038,7920.203579,-6439.791695,1608.800546
1141.424367,7698.141797,-6217.729913,1685.410096
1141.424697,7624.121203,-6291.750507,1915.238745
1141.425026,7402.059420,-6291.750507,1378.971896
1141.425355,6809.894666,-6661.853478,1455.581446
1141.425684,6587.832884,-7254.018232,1072.533697
1141.426013,6513.812290,-7105.977043,919.314598
1141.426342,6439.791695,-6957.935855,612.876398
1141.426672,6365.771101,-6735.874072,689.485948
1141.427001,6513.812290,-6809.894666,919.314598
1141.427330,6143.709319,-6735.874072,459.657299
1141.427659,6957.935855,-6365.771101,766.095498
1141.427988,7031.956449,-5551.544565,689.485948
1141.428317,7328.038826,-5551.544565,229.828649
1141.428647,7624.121203,-5699.585753,842.705048
1141.428976,7920.203579,-5921.647536,1225.752797
1141.429305,8290.306550,-6735.874072,1762.019645
1141.429634,8734.430116,-5995.668130,1302.362347
1141.429963,8216.285956,-5921.647536,1225.752797
1141.430293,7402.059420,-6661.853478,1455.581446
1141.430622,6735.874072,-6735.874072,1378.971896
1141.430951,6365.771101,-6809.894666,1302.362347
1141.431280,6291.750507,-6143.709319,1532.190996
1141.431609,6217.729913,-6069.688724,1532.190996
1141.431938,6439.791695,-6439.791695,1378.971896
1141.432268,6291.750507,-6587.832884,1225.752797
1141.432597,6439.791695,-5995.668130,612.876398
1141.432926,6661.853478,-6069.688724,383.047749
1141.433255,6883.915261,-6661.853478,995.924147
1141.433584,7254.018232,-6661.853478,842.705048
1141.433913,7328.038826,-6661.853478,612.876398
1141.434243,7476.080014,-6957.935855,766.095498
1141.434572,7254.018232,-7179.997637,1225.752797
1141.434901,7328.038826,-7402.059420,842.705048
1141.435230,7179.997637,-7031.956449,1225.752797
1141.435559,6735.874072,-7328.038826,612.876398
1141.435888,6439.791695,-6957.935855,919.314598
1141.436218,5847.626942,-7179.997637,536.266849
1141.436547,5699.585753,-6809.894666,689.485948
1141.436876,6069.688724,-6143.709319,612.876398
1141.437205,6735.874072,-5995.668130,842.705048
1141.437534,7254.018232,-6291.750507,766.095498
1141.437863,7105.977043,-6809.894666,1532.190996
1141.438193,7624.121203,-5995.668130,1225.752797
1141.438522,7698.141797,-5921.647536,1455.581446
1141.438851,8068.244768,-6217.729913,2221.676944
1141.439180,7179.997637,-6883.915261,1915.238745
1141.439509,7105.977043,-7031.956449,1455.581446
1141.439838,6883.915261,-6217.729913,1149.143247
1141.440168,6957.935855,-6365.771101,1072.533697
1141.440497,7105.977043,-6439.791695,1149.143247
1141.440826,7105.977043,-6735.874072,842.705048
1141.441155,6735.874072,-5995.668130,306.438199
1141.441484,6439.791695,-5921.647536,76.609550
1141.441813,6513.812290,-5995.668130,459.657299
1141.442143,6883.915261,-5699.585753,612.876398
1141.442472,7328.038826,-6291.750507,919.314598
1141.442801,7402.059420,-5847.626942,842.705048
1141.443130,7328.038826,-6587.832884,995.924147
1141.443459,7476.080014,-6883.915261,1149.143247
1141.443788,7624.121203,-7105.977043,1225.752797
1141.444118,7179.997637,-7328.038826,1225.752797
1141.444447,6587.832884,-6735.874072,1302.362347
1141.444776,6513.812290,-7031.956449,1302.362347
1141.445105,7328.038826,-6957.935855,1762.019645
1141.445434,6809.894666,-6809.894666,1072.533697
1141.445763,6661.853478,-5699.585753,1225.752797
1141.446093,6587.832884,-5699.585753,995.924147
1141.446422,6809.894666,-5847.626942,919.314598
1141.446751,7105.977043,-6291.750507,1225.752797
1141.447080,7105.977043,-5921.647536,1072.533697
1141.447409,6957.935855,-5995.668130,1149.143247
1141.447738,7105.977043,-6587.832884,842.705048
1141.448068,6957.935855,-6957.935855,842.705048
1141.448397,6809.894666,-7402.059420,842.705048
1141.448726,6587.832884,-7772.162391,842.705048
1141.449055,6365.771101,-7328.038826,229.828649
1141.449384,6439.791695,-7179.997637,229.828649
1141.449714,6439.791695,-7328.038826,919.314598
1141.450043,6217.729913,-7476.080014,612.876398
1141.450372,6291.750507,-6957.935855,306.438199
1141.450701,6069.688724,-6439.791695,842.705048
1141.451030,7105.977043,-6291.750507,459.657299
1141.451359,7105.977043,-5329.482782,1532.190996
1141.451689,7031.956449,-5699.585753,1302.362347
1141.452018,7105.977043,-5921.647536,1532.190996
1141.452347,7920.203579,-6365.771101,1685.410096
1141.452676,7698.141797,-5403.503377,1378.971896
1141.453005,7624.121203,-6439.791695,1455.581446
1141.453334,7254.018232,-6735.874072,1149.143247
1141.453664,6809.894666,-6661.853478,1149.143247
1141.453993,6661.853478,-7179.997637,612.876398
1141.454322,6439.791695,-7624.121203,995.924147
1141.454651,6365.771101,-7624.121203,306.438199
1141.454980,6143.709319,-7328.038826,612.876398
1141.455309,6365.771101,-6957.935855,919.314598
1141.455639,7105.977043,-6883.915261,1225.752797
1141.455968,6957.935855,-6809.894666,919.314598
1141.456297,7254.018232,-6143.709319,1072.533697
1141.456626,7402.059420,-4737.318029,766.095498
1141.456955,7550.100608,-5033.400406,459.657299
1141.457284,8068.244768,-4737.318029,612.876398
1141.457614,8512.368333,-5551.544565,1532.190996
1141.457943,8808.450710,-5551.544565,1685.410096
1141.458272,8438.347739,-5477.523971,1532.190996
1141.458601,8142.265362,-6439.791695,1149.143247
1141.458930,7031.956449,-6883.915261,1072.533697
1141.459259,6661.853478,-7624.121203,919.314598
1141.459589,6439.791695,-7402.059420,1149.143247
1141.459918,6513.812290,-7031.956449,1149.143247
1141.460247,6439.791695,-6587.832884,459.657299
1141.460576,6143.709319,-6957.935855,919.314598
1141.460905,6217.729913,-6809.894666,1149.143247
1141.461234,6291.750507,-6883.915261,842.705048
1141.461564,6069.688724,-6883.915261,766.095498
1141.461893,6661.853478,-6291.750507,536.266849
1141.462222,7105.977043,-5995.668130,383.047749
1141.462551,7328.038826,-6809.894666,1072.533697
1141.462880,7476.080014,-6735.874072,689.485948
1141.463209,7550.100608,-6883.915261,1302.362347
1141.463539,7550.100608,-7105.977043,842.705048
1141.463868,7105.977043,-6883.915261,842.705048
1141.464197,6513.812290,-7846.182985,919.314598
1141.464526,6439.791695,-7698.141797,766.095498
1141.464855,5329.482782,-7772.162391,536.266849
1141.465184,5625.565159,-7179.997637,612.876398
1141.465514,6513.812290,-6069.688724,919.314598
1141.465843,7031.956449,-5773.606348,995.924147
1141.466172,6883.915261,-6809.894666,2298.286494
1141.466501,7179.997637,-6143.709319,1685.410096
1141.466830,7698.141797,-5477.523971,1762.019645
1141.467159,7994.224174,-4885.359217,1838.629195
1141.467489,7698.141797,-5625.565159,1455.581446
1141.467818,7328.038826,-6143.709319,1532.190996
1141.468147,7105.977043,-6883.915261,1608.800546
1141.468476,7105.977043,-7031.956449,1072.533697
1141.468805,7105.977043,-6365.771101,1149.143247
1141.469135,7105.977043,-6735.874072,612.876398
1141.469464,6439.791695,-6809.894666,536.266849
1141.469793,6365.771101,-6957.935855,766.095498
1141.470122,6217.729913,-6587.832884,383.047749
1141.470451,6365.771101,-5921.647536,306.438199
1141.470780,7031.956449,-5625.565159,919.314598
1141.471110,7105.977043,-5995.668130,919.314598
1141.471439,7328.038826,-6143.709319,1378.971896
1141.471768,7476.080014,-6513.812290,1149.143247
1141.472097,7476.080014,-5995.668130,1225.752797
1141.472426,7698.141797,-6735.874072,1455.581446
1141.472755,7105.977043,-6957.935855,1378.971896
1141.473085,6883.915261,-7328.038826,1225.752797
1141.473414,6365.771101,-7105.977043,1072.533697
1141.473743,7031.956449,-7179.997637,1149.143247
1141.474072,6957.935855,-7031.956449,1149.143247
1141.474401,7328.038826,-6069.688724,1455.581446
1141.474730,6809.894666,-6069.688724,1225.752797
1141.475060,6439.791695,-6365.771101,1225.752797
1141.475389,6735.874072,-6513.812290,995.924147
1141.475718,7105.977043,-6143.709319,1149.143247
1141.476047,7105.977043,-5847.626942,1149.143247
1141.476376,6957.935855,-6069.688724,842.705048
1141.476705,7105.977043,-6735.874072,1149.143247
1141.477035,6587.832884,-7328.038826,995.924147
1141.477364,6957.935855,-7772.162391,612.876398
1141.477693,6809.894666,-7402.059420,689.485948
1141.478022,6587.832884,-7772.162391,536.266849
1141.478351,5995.668130,-7920.203579,536.266849
1141.478680,6365.771101,-7254.018232,766.095498
1141.479010,6661.853478,-7105.977043,842.705048
1141.479339,7031.956449,-6439.791695,919.314598
1141.479668,7105.977043,-6291.750507,1455.581446
1141.479997,6809.894666,-6069.688724,1455.581446
1141.480326,6883.915261,-5773.606348,1302.362347
1141.480655,6735.874072,-5921.647536,995.924147
1141.480985,6883.915261,-5773.606348,1225.752797
1141.481314,7254.018232,-5921.647536,1532.190996
1141.481643,7179.997637,-6587.832884,1762.019645
1141.481972,7031.956449,-7105.977043,1532.190996
1141.482301,6291.750507,-6883.915261,1072.533697
1141.482630,6217.729913,-7179.997637,1225.752797
1141.482960,7105.977043,-7846.182985,919.314598
1141.483289,6809.894666,-7846.182985,1149.143247
1141.483618,6439.791695,-6883.915261,383.047749
1141.483947,6365.771101,-7031.956449,612.876398
1141.484276,6661.853478,-6735.874072,919.314598
1141.484605,7105.977043,-6439.791695,459.657299
1141.484935,7105.977043,-5921.647536,842.705048
1141.485264,7105.977043,-5477.523971,536.266849
1141.485593,6809.894666,-5699.585753,612.876398
1141.485922,7698.141797,-4737.318029,919.314598
1141.486251,8438.347739,-5033.400406,1302.362347
1141.486580,9104.533087,-5033.400406,1838.629195
1141.486910,8512.368333,-5403.503377,2068.457845
1141.487239,7698.141797,-5773.606348,842.705048
1141.487568,7254.018232,-5847.626942,1072.533697
1141.487897,7179.997637,-6809.894666,1225.752797
1141.488226,7328.038826,-6365.771101,1225.752797
1141.488556,6883.915261,-6809.894666,1378.971896
1141.488885,6883.915261,-6587.832884,1302.362347
1141.489214,6439.791695,-6587.832884,536.266849
1141.489543,6143.709319,-7105.977043,536.266849
1141.489872,6143.709319,-7254.018232,612.876398
1141.490201,5995.668130,-7254.018232,383.047749
1141.490531,6069.688724,-7328.038826,689.485948
1141.490860,6513.812290,-7105.977043,459.657299
1141.491189,7031.956449,-7476.080014,383.047749
1141.491518,7179.997637,-7624.121203,536.266849
1141.491847,6957.935855,-7105.977043,612.876398
1141.492176,7254.018232,-7550.100608,536.266849
1141.492506,7031.956449,-7550.100608,995.924147
1141.492835,6735.874072,-7105.977043,689.485948
1141.493164,6439.791695,-7402.059420,842.705048
1141.493493,6217.729913,-6587.832884,383.047749
1141.493822,6661.853478,-6809.894666,536.266849
1141.494151,6661.853478,-6291.750507,1149.143247
1141.494481,6957.935855,-6069.688724,1532.190996
1141.494810,7031.956449,-6513.812290,1455.581446
1141.495139,7624.121203,-5255.462188,1302.362347
1141.495468,7402.059420,-5255.462188,1455.581446
1141.495797,7772.162391,-5625.565159,1532.190996
1141.496126,7476.080014,-6069.688724,1608.800546
1141.496456,7846.182985,-6217.729913,1455.581446
1141.496785,7105.977043,-6513.812290,1455.581446
1141.497114,7105.977043,-6365.771101,1225.752797
1141.497443,6957.935855,-7105.977043,1302.362347
1141.497772,6883.915261,-7254.018232,1302.362347
1141.498101,7031.956449,-6513.812290,766.095498
1141.498431,6513.812290,-6513.812290,459.657299
1141.498760,6587.832884,-6439.791695,612.876398
1141.499089,6809.894666,-6291.750507,1072.533697
1141.499418,7105.977043,-5477.523971,689.485948
1141.499747,7105.977043,-5921.647536,842.705048
1141.500076,7105.977043,-5995.668130,842.705048
1141.500406,7179.997637,-6217.729913,995.924147
1141.500735,7105.977043,-6291.750507,995.924147
1141.501064,6661.853478,-6587.832884,1608.800546
1141.501393,7105.977043,-7179.997637,1072.533697
1141.501722,7105.977043,-7105.977043,1302.362347
1141.502051,6809.894666,-6957.935855,1378.971896
1141.502381,7105.977043,-6661.853478,1685.410096
1141.502710,7105.977043,-6513.812290,1225.752797
1141.503039,7105.977043,-6143.709319,1455.581446
1141.503368,7105.977043,-5773.606348,1302.362347
1141.503697,7254.018232,-6291.750507,1455.581446
1141.504026,7105.977043,-5847.626942,1149.143247
1141.504356,7179.997637,-5995.668130,995.924147
1141.504685,7031.956449,-6291.750507,1072.533697
1141.505014,7105.977043,-6365.771101,612.876398
1141.505343,6661.853478,-7105.977043,766.095498
1141.505672,6439.791695,-7328.038826,842.705048
1141.506002,6735.874072,-7476.080014,383.047749
1141.506331,6957.935855,-7698.141797,689.485948
1141.506660,6735.874072,-7550.100608,689.485948
1141.506989,6883.915261,-7328.038826,689.485948
1141.507318,6735.874072,-7179.997637,919.314598
1141.507647,6143.709319,-7105.977043,689.485948
1141.507977,6735.874072,-6883.915261,1072.533697
1141.508306,7328.038826,-6661.853478,1378.971896
1141.508635,6661.853478,-6143.709319,1225.752797
1141.508964,6661.853478,-6069.688724,1378.971896
1141.509293,6957.935855,-5995.668130,1532.190996
1141.509622,7105.977043,-6143.709319,1149.143247
1141.509952,7179.997637,-5773.606348,2221.676944
1141.510281,7105.977043,-6365.771101,842.705048
1141.510610,7031.956449,-6513.812290,1072.533697
1141.510939,6957.935855,-6661.853478,1149.143247
1141.511268,6957.935855,-6735.874072,842.705048
1141.511597,6883.915261,-6439.791695,766.095498
1141.511927,6809.894666,-6957.935855,919.314598
1141.512256,6735.874072,-6883.915261,689.485948
1141.512585,6957.935855,-6883.915261,1149.143247
1141.512914,7031.956449,-6883.915261,995.924147
1141.513243,6809.894666,-6069.688724,1608.800546
1141.513572,7105.977043,-5329.482782,919.314598
1141.513902,7402.059420,-5477.523971,383.047749
1141.514231,7550.100608,-5477.523971,919.314598
1141.514560,7920.203579,-5255.462188,1608.800546
1141.514889,8216.285956,-5255.462188,1149.143247
1141.515218,7624.121203,-5107.421000,1225.752797
1141.515547,7105.977043,-6143.709319,1149.143247
1141.515876,7105.977043,-6809.894666,1072.533697
1141.516206,6809.894666,-6587.832884,1838.629195
1141.516535,6587.832884,-7254.018232,1532.190996
1141.516864,6513.812290,-6883.915261,1149.143247
1141.517193,6365.771101,-6957.935855,1378.971896
1141.517522,6513.812290,-7031.956449,1225.752797
1141.517851,6661.853478,-6735.874072,1149.143247
1141.518180,6513.812290,-6513.812290,1149.143247
1141.518509,6439.791695,-6809.894666,689.485948
1141.518838,6587.832884,-6513.812290,459.657299
1141.519167,6587.832884,-6809.894666,306.438199
1141.519496,6661.853478,-7105.977043,612.876398
1141.519825,7105.977043,-7402.059420,536.266849
1141.520154,7031.956449,-7105.977043,995.924147
1141.520483,6513.812290,-7550.100608,1302.362347
1141.520813,6735.874072,-7031.956449,383.047749
1141.521142,7105.977043,-7624.121203,919.314598
1141.521471,6883.915261,-7402.059420,459.657299
1141.521800,6513.812290,-7254.018232,689.485948
1141.522129,6661.853478,-7254.018232,919.314598
1141.522458,6883.915261,-5921.647536,995.924147
1141.522787,6883.915261,-5995.668130,1149.143247
1141.523116,6883.915261,-6217.729913,1072.533697
1141.523445,7179.997637,-5625.565159,1149.143247
1141.523774,7550.100608,-5625.565159,1762.019645
1141.524103,7920.203579,-5847.626942,1455.581446
1141.524432,7550.100608,-5773.606348,1455.581446
1141.524761,7179.997637,-6587.832884,1225.752797
1141.525090,7031.956449,-7105.977043,1532.190996
1141.525420,6957.935855,-7105.977043,1225.752797
1141.525749,7328.038826,-6661.853478,1149.143247
1141.526078,6957.935855,-6883.915261,1149.143247
1141.526407,6957.935855,-6661.853478,766.095498
1141.526736,6735.874072,-6217.729913,536.266849
1141.527065,6735.874072,-6513.812290,842.705048
1141.527394,6365.771101,-6365.771101,689.485948
1141.527723,6587.832884,-6291.750507,995.924147
1141.528052,6883.915261,-6069.688724,536.266849
1141.528381,7328.038826,-5477.523971,1225.752797
1141.528710,7105.977043,-6217.729913,1149.143247
1141.529039,7328.038826,-6513.812290,1072.533697
1141.529368,7179.997637,-7105.977043,1455.581446
1141.529697,7031.956449,-6661.853478,919.314598
1141.530027,7105.977043,-6957.935855,995.924147
1141.530356,6735.874072,-6587.832884,995.924147
1141.530685,6809.894666,-6957.935855,1149.143247
1141.531014,6883.915261,-6883.915261,1762.019645
1141.531343,7105.977043,-6069.688724,1838.629195
1141.531672,7105.977043,-5773.606348,1532.190996
1141.532001,6735.874072,-5773.606348,1225.752797
1141.532330,6809.894666,-6069.688724,1225.752797
1141.532659,7179.997637,-5995.668130,689.485948
1141.532988,7031.956449,-6439.791695,612.876398
1141.533317,7105.977043,-6217.729913,383.047749
1141.533646,7476.080014,-7031.956449,536.266849
1141.533975,7031.956449,-7624.121203,919.314598
1141.534304,6735.874072,-7476.080014,1072.533697
1141.534634,7031.956449,-7476.080014,383.047749
1141.534963,6883.915261,-7476.080014,459.657299
1141.535292,6513.812290,-7994.224174,689.485948
1141.535621,6439.791695,-7179.997637,0.000000
1141.535950,6513.812290,-7179.997637,459.657299
1141.536279,6513.812290,-6439.791695,842.705048
1141.536608,6809.894666,-6291.750507,919.314598
1141.536937,6809.894666,-6661.853478,1149.143247
1141.537266,6661.853478,-6439.791695,919.314598
1141.537595,6661.853478,-5921.647536,842.705048
1141.537924,7105.977043,-6069.688724,1225.752797
1141.538253,7402.059420,-6069.688724,1455.581446
1141.538582,7846.182985,-6217.729913,1838.629195
1141.538911,7402.059420,-6069.688724,1608.800546
1141.539240,7105.977043,-6661.853478,1225.752797
1141.539570,6809.894666,-6809.894666,995.924147
1141.539899,6883.915261,-7105.977043,995.924147
1141.540228,6735.874072,-7105.977043,1072.533697
1141.540557,6883.915261,-6809.894666,612.876398
1141.540886,6661.853478,-6439.791695,842.705048
1141.541215,6809.894666,-6069.688724,1149.143247
1141.541544,7105.977043,-5921.647536,995.924147
1141.541873,7476.080014,-5921.647536,766.095498
1141.542202,7105.977043,-5255.462188,612.876398
1141.542531,7328.038826,-5847.626942,612.876398
1141.542860,7402.059420,-5699.585753,995.924147
1141.543189,7402.059420,-4959.379811,1225.752797
1141.543518,8290.306550,-6217.729913,1072.533697
1141.543847,8512.368333,-5625.565159,1149.143247
1141.544177,7846.182985,-7031.956449,1455.581446
1141.544506,7550.100608,-6809.894666,1455.581446
1141.544835,6809.894666,-6883.915261,919.314598
1141.545164,6365.771101,-7254.018232,995.924147
1141.545493,6291.750507,-6661.853478,1378.971896
1141.545822,5847.626942,-7105.977043,766.095498
1141.546151,6217.729913,-6513.812290,1149.143247
1141.546480,6439.791695,-6883.915261,383.047749
1141.546809,6365.771101,-6661.853478,766.095498
1141.547138,6661.853478,-6587.832884,536.266849
1141.547467,6217.729913,-6957.935855,766.095498
1141.547796,6661.853478,-6365.771101,536.266849
1141.548125,7105.977043,-6957.935855,229.828649
1141.548454,7328.038826,-7624.121203,919.314598
1141.548784,7402.059420,-7254.018232,995.924147
1141.549113,7105.977043,-7846.182985,995.924147
1141.549442,7328.038826,-6587.832884,0.000000
1141.549771,6365.771101,-7105.977043,689.485948
1141.550100,6513.812290,-6957.935855,459.657299
1141.550429,6587.832884,-6883.915261,766.095498
1141.550758,6587.832884,-7179.997637,1532.190996
1141.551087,7105.977043,-5625.565159,1302.362347
1141.551416,6883.915261,-5699.585753,766.095498
1141.551745,6883.915261,-5921.647536,1608.800546
1141.552074,7624.121203,-6217.729913,1378.971896
1141.552403,8364.327145,-6217.729913,1762.019645
1141.552732,8068.244768,-5773.606348,1685.410096
1141.553061,7994.224174,-6069.688724,1378.971896
1141.553391,7698.141797,-6735.874072,1608.800546
1141.553720,7105.977043,-7105.977043,1762.019645
1141.554049,7031.956449,-7254.018232,1302.362347
1141.554378,6735.874072,-6291.750507,689.485948
1141.554707,6809.894666,-6809.894666,842.705048
1141.555036,6661.853478,-6883.915261,1072.533697
1141.555365,6957.935855,-6587.832884,1225.752797
1141.555694,6439.791695,-5921.647536,383.047749
