#time,accel_x,accel_y,accel_z
1336.909079,6513.812290,-6291.750507,766.095498
1336.909409,6587.832884,-6661.853478,1072.533697
1336.909739,7031.956449,-6735.874072,1302.362347
1336.910069,7031.956449,-6513.812290,1072.533697
1336.910399,7105.977043,-6735.874072,1608.800546
1336.910729,6883.915261,-6735.874072,1302.362347
1336.911059,6661.853478,-6587.832884,612.876398
1336.911388,6513.812290,-6883.915261,842.705048
1336.911718,6883.915261,-7031.956449,995.924147
1336.912048,6809.894666,-6883.915261,1072.533697
1336.912378,7105.977043,-6587.832884,1149.143247
1336.912708,7105.977043,-6439.791695,1225.752797
1336.913038,7328.038826,-6513.812290,842.705048
1336.913368,7698.141797,-6365.771101,1149.143247
1336.913698,7328.038826,-6809.894666,1072.533697
1336.914028,7105.977043,-6291.750507,842.705048
1336.914358,7328.038826,-6291.750507,1149.143247
1336.914687,7550.100608,-6143.709319,1225.752797
1336.915017,7179.997637,-6365.771101,1378.971896
1336.915347,7105.977043,-6291.750507,1149.143247
1336.915677,6809.894666,-6439.791695,842.705048
1336.916007,6735.874072,-6513.812290,1072.533697
1336.916337,6957.935855,-6587.832884,1072.533697
1336.916667,6439.791695,-6365.771101,459.657299
1336.916997,6809.894666,-6587.832884,536.266849
1336.917327,6883.915261,-6735.874072,995.924147
1336.917656,7031.956449,-6587.832884,842.705048
1336.917986,7328.038826,-6217.729913,919.314598
1336.918316,6587.832884,-6661.853478,1072.533697
1336.918646,6809.894666,-7179.997637,842.705048
1336.918976,6587.832884,-6809.894666,995.924147
1336.919306,6587.832884,-6661.853478,383.047749
1336.919636,6883.915261,-6883.915261,766.095498
1336.919966,7105.977043,-6291.750507,1149.143247
1336.920296,7105.977043,-6513.812290,919.314598
1336.920625,7105.977043,-6661.853478,1072.533697
1336.920955,7105.977043,-6439.791695,1149.143247
1336.921285,6957.935855,-6735.874072,919.314598
1336.921615,7105.977043,-6217.729913,1072.533697
1336.921945,7328.038826,-6069.688724,919.314598
1336.922275,7105.977043,-6365.771101,1302.362347
1336.922605,6809.894666,-6217.729913,1225.752797
1336.922935,6957.935855,-6365.771101,919.314598
1336.923265,6883.915261,-6513.812290,995.924147
1336.923595,6809.894666,-6661.853478,995.924147
1336.923924,6661.853478,-6587.832884,842.705048
1336.924254,6957.935855,-6883.915261,919.314598
1336.924584,6809.894666,-6809.894666,1455.581446
1336.924914,7254.018232,-6883.915261,1455.581446
1336.925244,6735.874072,-6883.915261,1072.533697
1336.925574,7254.018232,-6513.812290,919.314598
1336.925904,6587.832884,-7105.977043,919.314598
1336.926234,6735.874072,-6809.894666,919.314598
1336.926564,6735.874072,-7105.977043,919.314598
1336.926893,7179.997637,-6809.894666,1072.533697
1336.927223,6883.915261,-6513.812290,919.314598
1336.927553,7328.038826,-6439.791695,842.705048
1336.927883,7624.121203,-6957.935855,919.314598
1336.928213,7105.977043,-6661.853478,842.705048
1336.928543,7254.018232,-5921.647536,842.705048
1336.928873,7179.997637,-6291.750507,1072.533697
1336.929203,7328.038826,-5847.626942,995.924147
1336.929533,7402.059420,-6439.791695,919.314598
1336.929862,6957.935855,-5995.668130,1608.800546
1336.930192,6661.853478,-6439.791695,995.924147
1336.930522,7105.977043,-5921.647536,995.924147
1336.930852,6735.874072,-6587.832884,919.314598
1336.931182,6661.853478,-6513.812290,1072.533697
1336.931512,7105.977043,-6217.729913,766.095498
1336.931842,6809.894666,-7105.977043,1149.143247
1336.932172,6809.894666,-6587.832884,995.924147
1336.932502,7031.956449,-6513.812290,919.314598
1336.932832,6809.894666,-6735.874072,1225.752797
1336.933161,6809.894666,-6439.791695,1072.533697
1336.933491,6661.853478,-7031.956449,612.876398
1336.933821,6587.832884,-6883.915261,76.609550
1336.934151,6439.791695,-7105.977043,612.876398
1336.934481,7179.997637,-6513.812290,536.266849
1336.934811,7105.977043,-6587.832884,995.924147
1336.935141,7105.977043,-6587.832884,1149.143247
1336.935471,7179.997637,-6291.750507,995.924147
1336.935801,7031.956449,-6883.915261,689.485948
1336.936130,6957.935855,-6365.771101,1685.410096
1336.936460,7105.977043,-6069.688724,1072.533697
1336.936790,7105.977043,-6365.771101,995.924147
1336.937120,7105.977043,-5995.668130,1225.752797
1336.937450,7624.121203,-6439.791695,842.705048
1336.937780,7031.956449,-6217.729913,995.924147
1336.938110,6957.935855,-6439.791695,995.924147
1336.938440,6735.874072,-7105.977043,1072.533697
1336.938770,6809.894666,-6735.874072,1072.533697
1336.939099,6587.832884,-6883.915261,1072.533697
1336.939429,6883.915261,-7031.956449,1149.143247
1336.939759,6957.935855,-6661.853478,1149.143247
1336.940089,7031.956449,-6661.853478,1072.533697
1336.940419,6661.853478,-7105.977043,1302.362347
1336.940749,7105.977043,-6587.832884,459.657299
1336.941079,7031.956449,-6661.853478,766.095498
1336.941409,6809.894666,-6957.935855,919.314598
1336.941739,7105.977043,-6587.832884,1302.362347
1336.942069,7402.059420,-5773.606348,842.705048
1336.942398,7624.121203,-6661.853478,1072.533697
1336.942728,7328.038826,-6587.832884,1149.143247
1336.943058,7105.977043,-6587.832884,766.095498
1336.943388,6809.894666,-7031.956449,766.095498
1336.943718,6957.935855,-6587.832884,1378.971896
1336.944048,7328.038826,-6513.812290,1072.533697
1336.944378,7105.977043,-5921.647536,1302.362347
1336.944708,7105.977043,-6291.750507,995.924147
1336.945038,7105.977043,-5921.647536,1149.143247
1336.945367,7105.977043,-6143.709319,1149.143247
1336.945697,6809.894666,-6143.709319,919.314598
1336.946027,6735.874072,-6513.812290,766.095498
1336.946357,6809.894666,-6735.874072,995.924147
1336.946687,7254.018232,-7105.977043,842.705048
1336.947017,7031.956449,-6513.812290,1072.533697
1336.947347,6883.915261,-6883.915261,1225.752797
1336.947677,6661.853478,-6513.812290,612.876398
1336.948007,6587.832884,-7105.977043,536.266849
1336.948336,6439.791695,-7105.977043,536.266849
1336.948666,6883.915261,-6883.915261,1149.143247
1336.948996,7254.018232,-6587.832884,919.314598
1336.949326,7328.038826,-6143.709319,1225.752797
1336.949656,7402.059420,-6069.688724,1072.533697
1336.949986,7105.977043,-6365.771101,1072.533697
1336.950316,6957.935855,-6661.853478,689.485948
1336.950646,7031.956449,-6809.894666,842.705048
1336.950976,7105.977043,-6661.853478,1149.143247
1336.951306,6957.935855,-6217.729913,1149.143247
1336.951635,7105.977043,-6439.791695,919.314598
1336.951965,7105.977043,-6217.729913,1149.143247
1336.952295,6809.894666,-6513.812290,1302.362347
1336.952625,6809.894666,-6513.812290,1225.752797
1336.952955,6661.853478,-6291.750507,689.485948
1336.953285,6587.832884,-6217.729913,919.314598
1336.953615,6957.935855,-6587.832884,766.095498
1336.953945,6513.812290,-6883.915261,1225.752797
1336.954275,6661.853478,-6587.832884,1302.362347
1336.954604,6661.853478,-6809.894666,919.314598
1336.954934,6587.832884,-7105.977043,919.314598
1336.955264,6809.894666,-7254.018232,919.314598
1336.955594,6735.874072,-7328.038826,1072.533697
1336.955924,7328.038826,-6957.935855,536.266849
1336.956254,7328.038826,-6957.935855,842.705048
1336.956584,7476.080014,-6291.750507,1378.971896
1336.956914,7254.018232,-6217.729913,1225.752797
1336.957244,7328.038826,-5847.626942,919.314598
1336.957573,7328.038826,-6291.750507,689.485948
1336.957903,7105.977043,-6735.874072,536.266849
1336.958233,7105.977043,-6587.832884,1072.533697
1336.958563,7254.018232,-6069.688724,1072.533697
1336.958893,7476.080014,-5995.668130,1455.581446
1336.959223,7105.977043,-6291.750507,1378.971896
1336.959553,7179.997637,-6439.791695,995.924147
1336.959883,7031.956449,-6365.771101,1455.581446
1336.960213,7402.059420,-5921.647536,1072.533697
1336.960543,6957.935855,-6291.750507,766.095498
1336.960872,7031.956449,-6587.832884,766.095498
1336.961202,6809.894666,-6661.853478,1685.410096
1336.961532,6735.874072,-6809.894666,1302.362347
1336.961862,6661.853478,-6587.832884,1378.971896
1336.962192,6883.915261,-6661.853478,1072.533697
1336.962522,6735.874072,-7105.977043,689.485948
1336.962852,6661.853478,-7179.997637,919.314598
1336.963182,6217.729913,-6883.915261,1378.971896
1336.963512,7179.997637,-7031.956449,459.657299
1336.963841,7179.997637,-6809.894666,1149.143247
1336.964171,7179.997637,-6291.750507,1302.362347
1336.964501,7328.038826,-6661.853478,1149.143247
1336.964831,7550.100608,-5921.647536,995.924147
1336.965161,7031.956449,-6291.750507,919.314598
1336.965491,6883.915261,-6365.771101,995.924147
1336.965821,6957.935855,-6439.791695,1072.533697
1336.966151,7105.977043,-6513.812290,842.705048
1336.966481,6883.915261,-6143.709319,1685.410096
1336.966811,6883.915261,-6513.812290,1149.143247
1336.967140,6957.935855,-6143.709319,1149.143247
1336.967470,6439.791695,-6587.832884,1302.362347
1336.967800,6513.812290,-6513.812290,995.924147
1336.968130,6661.853478,-6439.791695,842.705048
1336.968460,6735.874072,-6957.935855,1302.362347
1336.968790,7105.977043,-6661.853478,1532.190996
1336.969120,7105.977043,-6587.832884,1072.533697
1336.969450,7105.977043,-6661.853478,842.705048
1336.969780,6809.894666,-6587.832884,919.314598
1336.970109,6513.812290,-6883.915261,689.485948
1336.970439,6513.812290,-7105.977043,1378.971896
1336.970769,7105.977043,-6661.853478,536.266849
1336.971099,7105.977043,-6365.771101,919.314598
1336.971429,7254.018232,-6365.771101,1225.752797
1336.971759,7402.059420,-6587.832884,919.314598
1336.972089,7254.018232,-6587.832884,1149.143247
1336.972419,7105.977043,-6883.915261,1072.533697
1336.972749,7105.977043,-6365.771101,689.485948
1336.973078,7254.018232,-6143.709319,1072.533697
1336.973408,7402.059420,-6365.771101,1149.143247
1336.973738,7624.121203,-6217.729913,1838.629195
1336.974068,7328.038826,-5995.668130,1455.581446
1336.974398,7031.956449,-6217.729913,919.314598
1336.974728,6661.853478,-6587.832884,842.705048
1336.975058,7031.956449,-6661.853478,1072.533697
1336.975387,6957.935855,-6809.894666,459.657299
1336.975717,6883.915261,-6439.791695,1149.143247
1336.976047,7105.977043,-6661.853478,842.705048
1336.976376,7031.956449,-6735.874072,1149.143247
1336.976706,7031.956449,-6661.853478,995.924147
1336.977035,7105.977043,-6439.791695,689.485948
1336.977365,6809.894666,-7031.956449,689.485948
1336.977695,6809.894666,-6513.812290,842.705048
1336.978024,7179.997637,-6883.915261,1149.143247
1336.978354,7031.956449,-6439.791695,1302.362347
1336.978683,7402.059420,-6217.729913,766.095498
1336.979013,6957.935855,-6439.791695,1378.971896
1336.979342,6809.894666,-6439.791695,1149.143247
1336.979672,6883.915261,-6439.791695,919.314598
1336.980002,6883.915261,-6439.791695,612.876398
1336.980331,7105.977043,-6439.791695,1378.971896
1336.980661,7402.059420,-5921.647536,919.314598
1336.980990,7179.997637,-6513.812290,919.314598
1336.981320,7105.977043,-6365.771101,1378.971896
1336.981650,7105.977043,-6735.874072,842.705048
1336.981979,7031.956449,-6883.915261,1225.752797
1336.982309,6661.853478,-6661.853478,919.314598
1336.982638,6735.874072,-6661.853478,689.485948
1336.982968,6217.729913,-7031.956449,1072.533697
1336.983298,6809.894666,-6809.894666,1225.752797
1336.983627,6957.935855,-6883.915261,919.314598
1336.983957,7179.997637,-6291.750507,995.924147
1336.984286,7105.977043,-6735.874072,1302.362347
1336.984616,6957.935855,-6661.853478,1072.533697
1336.984945,6587.832884,-7105.977043,689.485948
1336.985275,6735.874072,-6809.894666,995.924147
1336.985605,7105.977043,-6809.894666,842.705048
1336.985934,7031.956449,-6439.791695,1685.410096
1336.986264,7550.100608,-6587.832884,919.314598
1336.986593,7105.977043,-6735.874072,766.095498
1336.986923,7254.018232,-6291.750507,1225.752797
1336.987253,7254.018232,-6439.791695,1072.533697
1336.987582,7328.038826,-5847.626942,1302.362347
1336.987912,7179.997637,-6143.709319,995.924147
1336.988241,7105.977043,-6069.688724,1072.533697
1336.988571,7328.038826,-6217.729913,1225.752797
1336.988901,7179.997637,-6291.750507,995.924147
1336.989230,7105.977043,-6291.750507,1225.752797
1336.989560,6883.915261,-6365.771101,1225.752797
1336.989889,6513.812290,-6661.853478,919.314598
1336.990219,6365.771101,-6365.771101,1072.533697
1336.990549,7105.977043,-6587.832884,1149.143247
1336.990878,7105.977043,-6587.832884,995.924147
1336.991208,7105.977043,-6365.771101,1072.533697
1336.991537,6957.935855,-6735.874072,1149.143247
1336.991867,6957.935855,-6735.874072,995.924147
1336.992196,6587.832884,-6661.853478,995.924147
1336.992526,6735.874072,-6957.935855,919.314598
1336.992856,6809.894666,-7105.977043,995.924147
1336.993185,7105.977043,-6439.791695,1072.533697
1336.993515,7550.100608,-6883.915261,919.314598
1336.993844,7105.977043,-6587.832884,1302.362347
1336.994174,7179.997637,-6439.791695,1302.362347
1336.994504,6957.935855,-6513.812290,919.314598
1336.994833,6809.894666,-6513.812290,842.705048
1336.995163,7179.997637,-5625.565159,689.485948
1336.995492,7179.997637,-6439.791695,1149.143247
1336.995822,7105.977043,-6143.709319,1455.581446
1336.996152,6809.894666,-6587.832884,995.924147
1336.996481,7105.977043,-6365.771101,766.095498
1336.996811,7105.977043,-6809.894666,766.095498
1336.997140,6069.688724,-6735.874072,842.705048
1336.997470,6439.791695,-7031.956449,1225.752797
1336.997799,6661.853478,-7105.977043,1072.533697
1336.998129,7254.018232,-6513.812290,2068.457845
1336.998459,6809.894666,-6809.894666,995.924147
1336.998788,6661.853478,-6439.791695,1072.533697
1336.999118,6513.812290,-6809.894666,766.095498
1336.999447,6439.791695,-7105.977043,612.876398
1336.999777,6365.771101,-6809.894666,1225.752797
1337.000107,6809.894666,-7031.956449,995.924147
1337.000436,7402.059420,-6439.791695,1149.143247
1337.000766,7254.018232,-6143.709319,995.924147
1337.001095,7254.018232,-6365.771101,919.314598
1337.001425,7402.059420,-6513.812290,1072.533697
1337.001755,7105.977043,-6587.832884,919.314598
1337.002084,7105.977043,-6587.832884,766.095498
1337.002414,7179.997637,-6291.750507,1072.533697
1337.002743,7476.080014,-5699.585753,229.828649
1337.003073,7105.977043,-6291.750507,1302.362347
1337.003402,6957.935855,-6365.771101,1072.533697
1337.003732,7328.038826,-5995.668130,1149.143247
1337.004062,7105.977043,-6291.750507,1149.143247
1337.004391,6957.935855,-6809.894666,1149.143247
1337.004721,6587.832884,-6291.750507,919.314598
1337.005050,6809.894666,-6735.874072,919.314598
1337.005380,7031.956449,-6587.832884,919.314598
1337.005710,7254.018232,-6661.853478,1685.410096
1337.006039,7105.977043,-6217.729913,1378.971896
1337.006369,6883.915261,-6957.935855,919.314598
1337.006698,6661.853478,-6587.832884,459.657299
1337.007028,6661.853478,-6883.915261,995.924147
1337.007358,6809.894666,-6587.832884,995.924147
1337.007687,7105.977043,-6809.894666,995.924147
1337.008017,7105.977043,-6217.729913,1685.410096
1337.008346,7031.956449,-6439.791695,1072.533697
1337.008676,7031.956449,-6291.750507,1455.581446
1337.009006,7402.059420,-6735.874072,995.924147
1337.009335,6957.935855,-6957.935855,1149.143247
1337.009665,7105.977043,-6587.832884,1149.143247
1337.009994,7328.038826,-6809.894666,1149.143247
1337.010324,7105.977043,-6069.688724,1685.410096
1337.010653,7179.997637,-6365.771101,1149.143247
1337.010983,7031.956449,-6439.791695,1608.800546
1337.011313,6735.874072,-6587.832884,1072.533697
1337.011642,6735.874072,-6513.812290,919.314598
1337.011972,6809.894666,-6735.874072,1532.190996
1337.012301,6735.874072,-6957.935855,1149.143247
1337.012631,6735.874072,-6883.915261,1302.362347
1337.012961,6735.874072,-6661.853478,1072.533697
1337.013290,6883.915261,-6587.832884,766.095498
1337.013620,6957.935855,-6809.894666,1149.143247
1337.013949,6735.874072,-7105.977043,306.438199
1337.014279,6587.832884,-6883.915261,995.924147
1337.014609,6809.894666,-6883.915261,1072.533697
1337.014938,7105.977043,-7105.977043,1302.362347
1337.015268,7105.977043,-6291.750507,1072.533697
1337.015597,7105.977043,-6587.832884,1225.752797
1337.015927,7031.956449,-6587.832884,1072.533697
1337.016256,7105.977043,-6735.874072,689.485948
1337.016586,6661.853478,-6143.709319,995.924147
1337.016916,7105.977043,-6291.750507,1225.752797
1337.017245,7254.018232,-6143.709319,1225.752797
1337.017575,7105.977043,-5995.668130,766.095498
1337.017904,7402.059420,-6069.688724,1608.800546
1337.018234,7254.018232,-6291.750507,1072.533697
1337.018564,7476.080014,-6143.709319,919.314598
1337.018893,7105.977043,-6587.832884,995.924147
1337.019223,6365.771101,-6291.750507,536.266849
1337.019552,6809.894666,-6809.894666,919.314598
1337.019882,6735.874072,-6291.750507,1149.143247
1337.020212,6883.915261,-6587.832884,1072.533697
1337.020541,6957.935855,-6809.894666,995.924147
1337.020871,6661.853478,-6587.832884,1455.581446
1337.021200,6883.915261,-6513.812290,459.657299
1337.021530,6735.874072,-6661.853478,612.876398
1337.021859,6661.853478,-6513.812290,995.924147
1337.022189,7105.977043,-6587.832884,919.314598
1337.022519,7624.121203,-5329.482782,1149.143247
1337.022848,7994.224174,-5329.482782,995.924147
1337.023178,8512.368333,-5625.565159,1072.533697
1337.023507,8882.471304,-5921.647536,1302.362347
1337.023837,7328.038826,-6291.750507,842.705048
1337.024167,6735.874072,-6809.894666,229.828649
1337.024496,5995.668130,-7179.997637,153.219100
1337.024826,6365.771101,-6513.812290,153.219100
1337.025155,7328.038826,-6439.791695,1149.143247
1337.025485,8068.244768,-6143.709319,1762.019645
1337.025815,8734.430116,-5477.523971,1838.629195
1337.026144,8438.347739,-4071.132681,1302.362347
1337.026474,7476.080014,-4219.173869,766.095498
1337.026803,7624.121203,-5329.482782,1302.362347
1337.027133,8364.327145,-5255.462188,842.705048
1337.027462,8586.388927,-5255.462188,1302.362347
1337.027792,8364.327145,-4811.338623,1149.143247
1337.028122,7402.059420,-5255.462188,995.924147
1337.028451,7179.997637,-5403.503377,612.876398
1337.028781,7846.182985,-5329.482782,229.828649
1337.029110,7846.182985,-6513.812290,689.485948
1337.029440,8142.265362,-6069.688724,919.314598
1337.029770,8216.285956,-5625.565159,459.657299
1337.030099,7994.224174,-5551.544565,995.924147
1337.030429,8290.306550,-5033.400406,995.924147
1337.030758,8808.450710,-5255.462188,842.705048
1337.031088,8808.450710,-4663.297435,1378.971896
1337.031418,8956.491898,-4663.297435,919.314598
1337.031747,9326.594869,-3404.947333,1225.752797
1337.032077,9918.759623,-3552.988522,1149.143247
1337.032406,10140.821405,-3552.988522,1762.019645
1337.032736,10288.862594,-2294.638420,1455.581446
1337.033066,10140.821405,-3330.926739,1455.581446
1337.033395,9992.780217,-3108.864956,1225.752797
1337.033725,9548.656652,-3775.050304,1149.143247
1337.034054,8956.491898,-4737.318029,1455.581446
1337.034384,9622.677246,-4885.359217,1378.971896
1337.034713,8660.409521,-5181.441594,1532.190996
1337.035043,8512.368333,-4663.297435,995.924147
1337.035373,8290.306550,-4959.379811,1302.362347
1337.035702,8438.347739,-5181.441594,1532.190996
1337.036032,8142.265362,-5403.503377,1302.362347
1337.036361,7698.141797,-4515.256246,766.095498
1337.036691,7846.182985,-4737.318029,229.828649
1337.037021,7920.203579,-5921.647536,459.657299
1337.037350,8364.327145,-5033.400406,383.047749
1337.037680,8290.306550,-5329.482782,-383.047749
1337.038009,8808.450710,-5107.421000,0.000000
1337.038339,9252.574275,-5329.482782,306.438199
1337.038669,9548.656652,-5033.400406,306.438199
1337.038998,9622.677246,-4071.132681,1225.752797
1337.039328,10288.862594,-4219.173869,1072.533697
1337.039657,9844.739029,-3478.967927,1149.143247
1337.039987,9548.656652,-4293.194464,1838.629195
1337.040316,9400.615463,-3775.050304,2451.505594
1337.040646,9178.553681,-3182.885551,2451.505594
1337.040976,8808.450710,-4293.194464,1991.848295
1337.041305,8586.388927,-3775.050304,1838.629195
1337.041635,8660.409521,-4441.235652,1838.629195
1337.041964,9474.636058,-3775.050304,2068.457845
1337.042294,9474.636058,-3775.050304,1685.410096
1337.042624,8956.491898,-4293.194464,1762.019645
1337.042953,8882.471304,-4219.173869,459.657299
1337.043283,9104.533087,-4589.276840,-229.828649
1337.043612,8734.430116,-4663.297435,536.266849
1337.043942,8216.285956,-6291.750507,76.609550
1337.044272,8734.430116,-5847.626942,-306.438199
1337.044601,9104.533087,-5329.482782,383.047749
1337.044931,9474.636058,-5699.585753,842.705048
1337.045260,9326.594869,-5255.462188,995.924147
1337.045590,8808.450710,-5773.606348,1532.190996
1337.045919,8290.306550,-5921.647536,1532.190996
1337.046249,8216.285956,-4589.276840,2068.457845
1337.046579,9104.533087,-4145.153275,2298.286494
1337.046908,9252.574275,-2960.823768,1915.238745
1337.047238,10066.800811,-2146.597232,1838.629195
1337.047567,10881.027347,-1184.329507,1225.752797
1337.047897,10955.047942,-814.226536,612.876398
1337.048227,10881.027347,-1036.288319,229.828649
1337.048556,10066.800811,-2368.659014,-153.219100
1337.048886,9178.553681,-3478.967927,-153.219100
1337.049215,9104.533087,-5181.441594,76.609550
1337.049545,8808.450710,-6661.853478,383.047749
1337.049875,8512.368333,-8438.347739,1532.190996
1337.050204,7328.038826,-9104.533087,1225.752797
1337.050534,6587.832884,-9104.533087,536.266849
1337.050863,5403.503377,-7920.203579,0.000000
1337.051193,4811.338623,-6661.853478,76.609550
1337.051522,6365.771101,-6217.729913,995.924147
1337.051852,8586.388927,-4145.153275,1378.971896
1337.052182,9918.759623,-1850.514855,1608.800546
1337.052511,10584.944971,-740.205942,919.314598
1337.052841,10658.965565,-74.020594,1915.238745
1337.053170,11103.089130,-518.144159,995.924147
1337.053500,11399.171507,-666.185348,766.095498
1337.053830,12213.398043,-518.144159,1225.752797
1337.054159,13397.727550,-1258.350101,1838.629195
1337.054489,12287.418637,-2442.679609,1608.800546
1337.054818,10066.800811,-5773.606348,2298.286494
1337.055148,8586.388927,-8068.244768,1378.971896
1337.055478,6291.750507,-9030.512492,919.314598
1337.055807,3701.029710,-9178.553681,229.828649
1337.056137,2516.700203,-10436.903782,-766.095498
1337.056466,2960.823768,-9104.533087,-612.876398
1337.056796,5255.462188,-8586.388927,0.000000
1337.057126,7846.182985,-7031.956449,766.095498
1337.057455,9400.615463,-4737.318029,2221.676944
1337.057785,10140.821405,-3330.926739,1455.581446
1337.058114,9178.553681,-2664.741391,1225.752797
1337.058444,9178.553681,-1110.308913,766.095498
1337.058773,10510.924376,-1850.514855,306.438199
1337.059103,11695.253884,-1924.535449,1302.362347
1337.059433,12657.521608,-2516.700203,2374.896044
1337.059762,12953.603985,-4145.153275,2987.772442
1337.060092,11547.212695,-4959.379811,2911.162892
1337.060421,8512.368333,-5995.668130,1455.581446
1337.060751,5699.585753,-6587.832884,459.657299
1337.061081,4219.173869,-7846.182985,-153.219100
1337.061410,3701.029710,-8068.244768,-612.876398
1337.061740,3404.947333,-9400.615463,229.828649
1337.062069,3627.009116,-8660.409521,229.828649
1337.062399,5921.647536,-7179.997637,153.219100
1337.062729,7254.018232,-5329.482782,306.438199
1337.063058,8290.306550,-4293.194464,536.266849
1337.063388,9474.636058,-3997.112087,1608.800546
1337.063717,9696.697840,-4293.194464,1225.752797
1337.064047,9474.636058,-4737.318029,1685.410096
1337.064376,9474.636058,-4367.215058,2068.457845
1337.064706,9918.759623,-5699.585753,1991.848295
1337.065036,8882.471304,-6883.915261,2068.457845
1337.065365,6735.874072,-8956.491898,1378.971896
1337.065695,5181.441594,-9474.636058,612.876398
1337.066024,4145.153275,-9474.636058,0.000000
1337.066354,3701.029710,-8956.491898,459.657299
1337.066684,3775.050304,-7105.977043,76.609550
1337.067013,5255.462188,-5773.606348,0.000000
1337.067343,6809.894666,-4071.132681,306.438199
1337.067672,7994.224174,-3552.988522,1072.533697
1337.068002,9178.553681,-2960.823768,1072.533697
1337.068332,9474.636058,-3330.926739,1608.800546
1337.068661,9030.512492,-4811.338623,1455.581446
1337.068991,8364.327145,-5921.647536,1685.410096
1337.069320,8438.347739,-6735.874072,1762.019645
1337.069650,8734.430116,-7698.141797,1991.848295
1337.069979,7772.162391,-8290.306550,1915.238745
1337.070309,6365.771101,-9400.615463,1072.533697
1337.070639,4811.338623,-8438.347739,612.876398
1337.070968,4441.235652,-8808.450710,0.000000
1337.071298,4737.318029,-7328.038826,383.047749
1337.071627,5625.565159,-5995.668130,995.924147
1337.071957,7031.956449,-5329.482782,1915.238745
1337.072287,7994.224174,-3108.864956,2068.457845
1337.072616,7994.224174,-4441.235652,1608.800546
1337.072946,7105.977043,-5181.441594,1149.143247
1337.073275,6809.894666,-5699.585753,306.438199
1337.073605,6365.771101,-8290.306550,229.828649
1337.073935,6587.832884,-8364.327145,1685.410096
1337.074264,6809.894666,-8882.471304,1225.752797
1337.074593,7105.977043,-8586.388927,1149.143247
1337.074923,6735.874072,-7624.121203,1455.581446
1337.075252,6809.894666,-7624.121203,919.314598
1337.075581,7105.977043,-6513.812290,383.047749
1337.075911,6069.688724,-7105.977043,689.485948
1337.076240,5403.503377,-6069.688724,766.095498
1337.076569,5625.565159,-5403.503377,689.485948
1337.076899,6809.894666,-4663.297435,689.485948
1337.077228,7624.121203,-5551.544565,995.924147
1337.077557,7254.018232,-6069.688724,1991.848295
1337.077887,7105.977043,-6587.832884,1149.143247
1337.078216,6957.935855,-7105.977043,995.924147
1337.078546,7179.997637,-6291.750507,1149.143247
1337.078875,7476.080014,-6439.791695,536.266849
1337.079204,7994.224174,-7105.977043,1378.971896
1337.079534,8512.368333,-6809.894666,1991.848295
1337.079863,8438.347739,-6661.853478,1915.238745
1337.080192,7920.203579,-5995.668130,1532.190996
1337.080522,6735.874072,-5403.503377,1149.143247
1337.080851,6069.688724,-6661.853478,612.876398
1337.081180,5921.647536,-5921.647536,459.657299
1337.081510,5403.503377,-6661.853478,612.876398
1337.081839,5773.606348,-6883.915261,612.876398
1337.082168,6957.935855,-6291.750507,1072.533697
1337.082498,6957.935855,-6365.771101,689.485948
1337.082827,7254.018232,-5329.482782,919.314598
1337.083156,8216.285956,-6069.688724,536.266849
1337.083486,8512.368333,-5995.668130,995.924147
1337.083815,8808.450710,-6217.729913,1685.410096
1337.084145,8512.368333,-6587.832884,1762.019645
1337.084474,8142.265362,-6069.688724,1072.533697
1337.084803,7105.977043,-7105.977043,766.095498
1337.085133,5921.647536,-7328.038826,536.266849
1337.085462,5699.585753,-7402.059420,459.657299
1337.085791,4959.379811,-7698.141797,842.705048
1337.086121,5329.482782,-7846.182985,919.314598
1337.086450,5329.482782,-6809.894666,536.266849
1337.086779,6069.688724,-5181.441594,536.266849
1337.087109,7179.997637,-5551.544565,383.047749
1337.087438,8290.306550,-4663.297435,1302.362347
1337.087767,8808.450710,-5477.523971,1685.410096
1337.088097,9400.615463,-6143.709319,1838.629195
1337.088426,8734.430116,-5921.647536,1608.800546
1337.088755,7994.224174,-6587.832884,1455.581446
1337.089085,7772.162391,-7846.182985,1608.800546
1337.089414,7105.977043,-9252.574275,1225.752797
1337.089744,5847.626942,-8956.491898,842.705048
1337.090073,4293.194464,-8068.244768,76.609550
1337.090402,4737.318029,-7846.182985,153.219100
1337.090732,5255.462188,-6439.791695,766.095498
1337.091061,5995.668130,-5921.647536,1072.533697
1337.091390,7105.977043,-4737.318029,1532.190996
1337.091720,8734.430116,-3330.926739,1532.190996
1337.092049,9178.553681,-4071.132681,1685.410096
1337.092378,8586.388927,-4145.153275,1838.629195
1337.092708,7328.038826,-5477.523971,1225.752797
1337.093037,6883.915261,-6217.729913,229.828649
1337.093366,6365.771101,-7698.141797,1072.533697
1337.093696,6661.853478,-9326.594869,1838.629195
1337.094025,7105.977043,-9474.636058,2298.286494
1337.094355,6513.812290,-9030.512492,1608.800546
1337.094684,5255.462188,-7994.224174,536.266849
1337.095013,4589.276840,-7031.956449,76.609550
1337.095343,4885.359217,-6661.853478,-536.266849
1337.095672,5847.626942,-6143.709319,306.438199
1337.096001,7550.100608,-5551.544565,1838.629195
1337.096331,8142.265362,-4959.379811,1532.190996
1337.096660,8290.306550,-3997.112087,1455.581446
1337.096989,7920.203579,-4663.297435,1378.971896
1337.097319,7920.203579,-5847.626942,536.266849
1337.097648,7179.997637,-6957.935855,1149.143247
1337.097977,6439.791695,-8142.265362,766.095498
1337.098307,6217.729913,-8068.244768,229.828649
1337.098636,6291.750507,-6883.915261,536.266849
1337.098965,7105.977043,-6957.935855,766.095498
1337.099295,7698.141797,-7254.018232,1302.362347
1337.099624,8142.265362,-6069.688724,2068.457845
1337.099954,7994.224174,-5255.462188,919.314598
1337.100283,7105.977043,-4811.338623,689.485948
1337.100612,6365.771101,-5181.441594,536.266849
1337.100942,6069.688724,-6069.688724,0.000000
1337.101271,6809.894666,-5699.585753,842.705048
1337.101600,7328.038826,-7031.956449,1532.190996
1337.101930,8142.265362,-7254.018232,1608.800546
1337.102259,8216.285956,-6439.791695,1838.629195
1337.102588,7550.100608,-6661.853478,842.705048
1337.102918,7328.038826,-5921.647536,306.438199
1337.103247,6809.894666,-5255.462188,0.000000
1337.103576,7254.018232,-6069.688724,229.828649
1337.103906,8068.244768,-6513.812290,1378.971896
1337.104235,8142.265362,-5699.585753,1149.143247
1337.104565,7105.977043,-6883.915261,689.485948
1337.104894,6069.688724,-6291.750507,842.705048
1337.105223,5403.503377,-7031.956449,306.438199
1337.105553,5847.626942,-8142.265362,229.828649
1337.105882,5551.544565,-8290.306550,536.266849
1337.106211,5551.544565,-8586.388927,1072.533697
1337.106541,6365.771101,-6809.894666,536.266849
1337.106870,6735.874072,-6661.853478,536.266849
1337.107199,7698.141797,-5403.503377,1915.238745
1337.107529,8142.265362,-5477.523971,1072.533697
1337.107858,8808.450710,-6513.812290,1838.629195
1337.108187,7994.224174,-6735.874072,2221.676944
1337.108517,7328.038826,-6291.750507,1302.362347
1337.108846,6661.853478,-5403.503377,1072.533697
1337.109175,6439.791695,-6291.750507,842.705048
1337.109505,5699.585753,-7698.141797,1302.362347
1337.109834,6217.729913,-7476.080014,1149.143247
1337.110164,6883.915261,-8216.285956,459.657299
1337.110493,6365.771101,-6291.750507,1149.143247
1337.110822,6217.729913,-6291.750507,459.657299
1337.111152,6809.894666,-6587.832884,306.438199
1337.111481,7550.100608,-6069.688724,1072.533697
1337.111810,7994.224174,-6291.750507,1532.190996
1337.112140,8290.306550,-5403.503377,1685.410096
1337.112469,7550.100608,-6217.729913,1532.190996
1337.112798,6957.935855,-6217.729913,919.314598
1337.113128,6661.853478,-6957.935855,766.095498
1337.113457,6513.812290,-8142.265362,1608.800546
1337.113786,6439.791695,-8290.306550,1149.143247
1337.114116,6513.812290,-7846.182985,1838.629195
1337.114445,5921.647536,-6809.894666,1072.533697
1337.114774,5847.626942,-6587.832884,842.705048
1337.115104,5995.668130,-6735.874072,612.876398
1337.115433,6809.894666,-5773.606348,689.485948
1337.115763,7920.203579,-5699.585753,1532.190996
1337.116092,8068.244768,-5107.421000,1838.629195
1337.116421,7772.162391,-5995.668130,1225.752797
1337.116751,7698.141797,-5625.565159,1455.581446
1337.117080,7105.977043,-6291.750507,842.705048
1337.117409,6735.874072,-7105.977043,995.924147
1337.117739,6809.894666,-7402.059420,1608.800546
1337.118068,6291.750507,-7402.059420,1302.362347
1337.118397,6735.874072,-7476.080014,1149.143247
1337.118727,6365.771101,-7031.956449,689.485948
1337.119056,6735.874072,-6661.853478,459.657299
1337.119385,7624.121203,-5329.482782,383.047749
1337.119715,8216.285956,-5107.421000,1532.190996
1337.120044,8734.430116,-5181.441594,1532.190996
1337.120374,8512.368333,-4885.359217,1915.238745
1337.120703,7772.162391,-4959.379811,1072.533697
1337.121032,7254.018232,-5625.565159,766.095498
1337.121362,6957.935855,-6735.874072,766.095498
1337.121691,6661.853478,-7550.100608,995.924147
1337.122020,5699.585753,-8882.471304,919.314598
1337.122350,5847.626942,-8808.450710,612.876398
1337.122679,5255.462188,-7402.059420,383.047749
1337.123008,6291.750507,-7031.956449,689.485948
1337.123338,7105.977043,-6217.729913,689.485948
1337.123667,7698.141797,-6143.709319,1455.581446
1337.123996,8068.244768,-6365.771101,1225.752797
1337.124326,7105.977043,-5921.647536,1225.752797
1337.124655,7105.977043,-5921.647536,995.924147
1337.124984,7328.038826,-6513.812290,1072.533697
1337.125314,7105.977043,-6883.915261,1225.752797
1337.125643,7031.956449,-7624.121203,1455.581446
1337.125973,6883.915261,-7402.059420,1225.752797
1337.126302,6143.709319,-7550.100608,383.047749
1337.126631,6365.771101,-6735.874072,229.828649
1337.126961,6439.791695,-5847.626942,459.657299
1337.127290,7254.018232,-6069.688724,689.485948
1337.127619,7846.182985,-6365.771101,1225.752797
1337.127949,7846.182985,-6069.688724,1608.800546
1337.128278,8068.244768,-6143.709319,1608.800546
1337.128607,7328.038826,-5329.482782,612.876398
1337.128937,6957.935855,-6291.750507,1149.143247
1337.129266,6587.832884,-7031.956449,1302.362347
1337.129595,6439.791695,-7254.018232,689.485948
1337.129925,6143.709319,-7994.224174,1378.971896
1337.130254,5847.626942,-7920.203579,1378.971896
1337.130584,6365.771101,-7105.977043,1072.533697
1337.130913,6365.771101,-6587.832884,689.485948
1337.131242,6735.874072,-6587.832884,689.485948
1337.131572,7698.141797,-5551.544565,536.266849
1337.131901,7698.141797,-5551.544565,1455.581446
1337.132230,7402.059420,-5995.668130,1378.971896
1337.132560,6883.915261,-5403.503377,1225.752797
1337.132889,7105.977043,-4959.379811,76.609550
1337.133218,7179.997637,-6587.832884,1302.362347
1337.133548,7402.059420,-7550.100608,1608.800546
1337.133877,7031.956449,-7550.100608,1302.362347
1337.134206,6069.688724,-7179.997637,842.705048
1337.134536,5847.626942,-6365.771101,306.438199
1337.134865,6735.874072,-7031.956449,536.266849
1337.135194,7328.038826,-6439.791695,1225.752797
1337.135524,8290.306550,-6069.688724,1378.971896
1337.135853,8808.450710,-5329.482782,1915.238745
1337.136183,8290.306550,-5477.523971,1915.238745
1337.136512,7328.038826,-5773.606348,1532.190996
1337.136841,5995.668130,-6365.771101,612.876398
1337.137171,5477.523971,-7179.997637,995.924147
1337.137500,5551.544565,-7105.977043,689.485948
1337.137829,5699.585753,-7994.224174,842.705048
1337.138159,5773.606348,-8216.285956,1225.752797
1337.138488,6513.812290,-7624.121203,919.314598
1337.138817,6291.750507,-6439.791695,995.924147
1337.139147,6439.791695,-5477.523971,306.438199
1337.139476,7328.038826,-5921.647536,612.876398
1337.139805,8438.347739,-5995.668130,1608.800546
1337.140135,8438.347739,-6217.729913,1608.800546
1337.140464,8660.409521,-4589.276840,1225.752797
1337.140793,7994.224174,-4885.359217,1149.143247
1337.141123,7698.141797,-6291.750507,536.266849
1337.141452,6809.894666,-6661.853478,1532.190996
1337.141782,7031.956449,-7402.059420,1455.581446
1337.142111,6439.791695,-6957.935855,383.047749
1337.142440,5255.462188,-6661.853478,612.876398
1337.142770,5329.482782,-6809.894666,76.609550
1337.143099,6587.832884,-6587.832884,153.219100
1337.143428,7402.059420,-7105.977043,1455.581446
1337.143758,7772.162391,-5625.565159,1225.752797
1337.144087,7994.224174,-5699.585753,842.705048
1337.144416,7920.203579,-6143.709319,1838.629195
1337.144746,7550.100608,-6365.771101,1149.143247
1337.145075,7105.977043,-7476.080014,1072.533697
1337.145404,6439.791695,-7179.997637,1685.410096
1337.145734,5847.626942,-8660.409521,995.924147
1337.146063,5255.462188,-7846.182985,1225.752797
1337.146393,4885.359217,-7698.141797,842.705048
1337.146722,5329.482782,-7254.018232,76.609550
1337.147051,6587.832884,-6217.729913,383.047749
1337.147381,6809.894666,-5477.523971,459.657299
1337.147710,7846.182985,-5255.462188,612.876398
1337.148039,8290.306550,-4959.379811,1302.362347
1337.148369,7994.224174,-5551.544565,1302.362347
1337.148698,7402.059420,-5995.668130,919.314598
1337.149027,7476.080014,-6291.750507,766.095498
1337.149357,7550.100608,-6439.791695,1225.752797
1337.149686,7476.080014,-7624.121203,2528.115143
1337.150015,7328.038826,-7698.141797,1915.238745
1337.150345,7105.977043,-6883.915261,1302.362347
1337.150674,5995.668130,-6291.750507,612.876398
1337.151003,6587.832884,-6069.688724,229.828649
1337.151333,7105.977043,-5329.482782,383.047749
1337.151662,7402.059420,-6439.791695,1225.752797
1337.151992,7254.018232,-6069.688724,1532.190996
1337.152321,7179.997637,-5033.400406,1072.533697
1337.152650,7624.121203,-5847.626942,1149.143247
1337.152980,7179.997637,-6883.915261,995.924147
1337.153309,6883.915261,-8068.244768,995.924147
1337.153638,6069.688724,-8216.285956,1072.533697
1337.153968,6143.709319,-8438.347739,612.876398
1337.154297,5773.606348,-7772.162391,306.438199
1337.154626,5921.647536,-6957.935855,766.095498
1337.154956,6661.853478,-6513.812290,766.095498
1337.155285,7328.038826,-5403.503377,1149.143247
1337.155614,7846.182985,-5403.503377,1302.362347
1337.155944,7402.059420,-6365.771101,1608.800546
1337.156273,7254.018232,-5699.585753,1149.143247
1337.156603,6957.935855,-5477.523971,689.485948
1337.156932,6661.853478,-6143.709319,842.705048
1337.157261,7328.038826,-6587.832884,1532.190996
1337.157591,7624.121203,-6809.894666,1532.190996
1337.157920,7105.977043,-6957.935855,1608.800546
1337.158249,6809.894666,-7105.977043,459.657299
1337.158579,6291.750507,-6587.832884,612.876398
1337.158908,6143.709319,-7624.121203,612.876398
1337.159237,6661.853478,-7328.038826,1455.581446
1337.159567,7698.141797,-6365.771101,1378.971896
1337.159896,8512.368333,-5699.585753,1991.848295
1337.160225,7920.203579,-5477.523971,2068.457845
1337.160555,6809.894666,-6069.688724,1149.143247
1337.160884,6217.729913,-6735.874072,842.705048
1337.161213,5847.626942,-7105.977043,536.266849
1337.161543,5551.544565,-7624.121203,995.924147
1337.161872,5995.668130,-7772.162391,919.314598
1337.162202,6291.750507,-8290.306550,919.314598
1337.162531,6513.812290,-6513.812290,919.314598
1337.162860,6809.894666,-6069.688724,306.438199
1337.163190,7550.100608,-6143.709319,919.314598
1337.163519,7994.224174,-5107.421000,842.705048
1337.163848,8142.265362,-5551.544565,919.314598
1337.164178,7846.182985,-5699.585753,1455.581446
1337.164507,7994.224174,-5551.544565,1685.410096
1337.164836,7994.224174,-5477.523971,1685.410096
1337.165166,7179.997637,-6217.729913,995.924147
1337.165495,6957.935855,-6439.791695,1532.190996
1337.165824,6661.853478,-6957.935855,995.924147
1337.166154,6365.771101,-8512.368333,919.314598
1337.166483,6217.729913,-7105.977043,1532.190996
1337.166812,6069.688724,-5995.668130,536.266849
1337.167142,6957.935855,-5625.565159,689.485948
1337.167471,7328.038826,-5847.626942,995.924147
1337.167801,7994.224174,-6365.771101,1532.190996
1337.168130,7105.977043,-5403.503377,306.438199
1337.168459,7179.997637,-6587.832884,919.314598
1337.168789,7105.977043,-6661.853478,459.657299
1337.169118,6661.853478,-7179.997637,1072.533697
1337.169447,6513.812290,-8586.388927,1225.752797
1337.169777,6143.709319,-8512.368333,689.485948
1337.170106,5699.585753,-8808.450710,536.266849
1337.170435,5551.544565,-7402.059420,306.438199
1337.170765,6143.709319,-7031.956449,842.705048
1337.171094,7179.997637,-7105.977043,919.314598
1337.171423,7846.182985,-5551.544565,919.314598
1337.171753,7698.141797,-5329.482782,1072.533697
1337.172082,7994.224174,-5033.400406,995.924147
1337.172412,7994.224174,-4811.338623,1532.190996
1337.172741,7402.059420,-5477.523971,1149.143247
1337.173070,7105.977043,-5699.585753,1072.533697
1337.173400,6809.894666,-7105.977043,1302.362347
1337.173729,7846.182985,-7105.977043,1685.410096
1337.174058,7031.956449,-8068.244768,1608.800546
1337.174388,6439.791695,-7179.997637,1072.533697
1337.174717,5921.647536,-6735.874072,842.705048
1337.175046,6291.750507,-6957.935855,459.657299
1337.175376,6957.935855,-7031.956449,842.705048
1337.175705,7105.977043,-6365.771101,995.924147
1337.176034,7328.038826,-6069.688724,1149.143247
1337.176362,7105.977043,-5255.462188,1378.971896
1337.176691,7328.038826,-5107.421000,1225.752797
1337.177020,7402.059420,-5551.544565,1225.752797
1337.177349,7031.956449,-6809.894666,1072.533697
1337.177678,6217.729913,-7550.100608,612.876398
1337.178007,5107.421000,-8512.368333,766.095498
1337.178336,5625.565159,-8068.244768,766.095498
1337.178665,5625.565159,-7402.059420,1072.533697
1337.178994,7105.977043,-6513.812290,1149.143247
1337.179323,8068.244768,-5477.523971,1378.971896
1337.179652,8956.491898,-5255.462188,1378.971896
1337.179981,8882.471304,-4663.297435,1915.238745
1337.180311,7994.224174,-4737.318029,1302.362347
1337.180640,7105.977043,-5329.482782,1225.752797
1337.180969,6365.771101,-5477.523971,919.314598
1337.181298,6217.729913,-6809.894666,995.924147
1337.181627,7031.956449,-7105.977043,1225.752797
1337.181956,6883.915261,-7698.141797,1991.848295
1337.182285,7328.038826,-7476.080014,1302.362347
1337.182614,6883.915261,-7105.977043,995.924147
1337.182943,6661.853478,-6217.729913,306.438199
1337.183272,6439.791695,-6957.935855,0.000000
1337.183601,6809.894666,-6587.832884,766.095498
1337.183930,7476.080014,-6661.853478,1149.143247
1337.184259,8216.285956,-7254.018232,1762.019645
1337.184588,7772.162391,-6143.709319,1838.629195
1337.184917,6661.853478,-6883.915261,1302.362347
1337.185247,6291.750507,-8142.265362,842.705048
1337.185576,5551.544565,-7402.059420,919.314598
1337.185905,5329.482782,-8808.450710,306.438199
1337.186234,5255.462188,-8068.244768,459.657299
1337.186563,5995.668130,-7402.059420,766.095498
1337.186892,6513.812290,-7105.977043,1149.143247
1337.187221,7105.977043,-6513.812290,995.924147
1337.187550,7698.141797,-5181.441594,1149.143247
1337.187879,7920.203579,-4737.318029,995.924147
1337.188208,7772.162391,-5329.482782,1225.752797
1337.188537,7920.203579,-5551.544565,2298.286494
1337.188866,8068.244768,-5107.421000,1608.800546
1337.189195,7476.080014,-5403.503377,1378.971896
1337.189524,7105.977043,-5329.482782,1302.362347
1337.189853,6883.915261,-7254.018232,1149.143247
1337.190183,6957.935855,-7328.038826,1762.019645
1337.190512,6291.750507,-7328.038826,1608.800546
1337.190841,6069.688724,-6957.935855,689.485948
1337.191170,6143.709319,-6439.791695,536.266849
1337.191499,6809.894666,-7105.977043,459.657299
1337.191828,7328.038826,-6365.771101,766.095498
1337.192157,7254.018232,-6439.791695,995.924147
1337.192486,6883.915261,-6365.771101,536.266849
1337.192815,6735.874072,-6291.750507,689.485948
1337.193144,7105.977043,-7105.977043,919.314598
1337.193473,7105.977043,-7920.203579,1915.238745
1337.193802,6439.791695,-8438.347739,1838.629195
1337.194131,6217.729913,-7994.224174,1149.143247
1337.194460,6217.729913,-7550.100608,919.314598
1337.194789,6143.709319,-6587.832884,919.314598
1337.195119,6957.935855,-6439.791695,1149.143247
1337.195448,7550.100608,-5773.606348,1149.143247
1337.195777,8142.265362,-5847.626942,1455.581446
1337.196106,7624.121203,-5699.585753,1302.362347
1337.196435,7402.059420,-5551.544565,1378.971896
1337.196764,6957.935855,-5625.565159,383.047749
1337.197093,6587.832884,-6365.771101,612.876398
1337.197422,6513.812290,-6587.832884,689.485948
1337.197751,6439.791695,-7105.977043,1225.752797
1337.198080,6957.935855,-7254.018232,1838.629195
1337.198409,7624.121203,-6365.771101,1378.971896
1337.198738,7624.121203,-5847.626942,1149.143247
1337.199067,7698.141797,-5625.565159,1302.362347
1337.199396,8142.265362,-5699.585753,459.657299
1337.199725,8068.244768,-5699.585753,1455.581446
1337.200055,7550.100608,-6217.729913,1608.800546
1337.200384,7179.997637,-5477.523971,1378.971896
1337.200713,5921.647536,-7328.038826,1149.143247
1337.201042,5329.482782,-6217.729913,612.876398
1337.201371,5847.626942,-7179.997637,842.705048
1337.201700,5847.626942,-8882.471304,919.314598
1337.202029,6365.771101,-7179.997637,612.876398
1337.202358,5699.585753,-7846.182985,1302.362347
1337.202687,6365.771101,-7402.059420,536.266849
1337.203016,5625.565159,-6661.853478,0.000000
1337.203345,7105.977043,-6587.832884,842.705048
1337.203674,7994.224174,-6809.894666,995.924147
1337.204003,9104.533087,-6291.750507,2834.553343
1337.204332,8660.409521,-5921.647536,1455.581446
1337.204662,7254.018232,-4959.379811,842.705048
1337.204991,7105.977043,-4885.359217,919.314598
1337.205320,6809.894666,-7698.141797,842.705048
1337.205649,6957.935855,-5995.668130,1455.581446
1337.205978,6883.915261,-6661.853478,1225.752797
1337.206307,7402.059420,-7179.997637,1532.190996
1337.206636,7105.977043,-5847.626942,689.485948
1337.206965,6069.688724,-7031.956449,995.924147
1337.207294,6439.791695,-6069.688724,459.657299
1337.207623,7402.059420,-6735.874072,306.438199
1337.207952,7402.059420,-6513.812290,842.705048
1337.208281,7179.997637,-6735.874072,842.705048
1337.208610,7624.121203,-6883.915261,1072.533697
1337.208939,7698.141797,-6883.915261,1378.971896
1337.209268,6957.935855,-7402.059420,1532.190996
1337.209598,6217.729913,-7031.956449,995.924147
1337.209927,5551.544565,-7476.080014,306.438199
1337.210256,4959.379811,-7920.203579,1225.752797
1337.210585,5255.462188,-7920.203579,689.485948
1337.210914,5995.668130,-7179.997637,842.705048
1337.211243,6661.853478,-6365.771101,766.095498
1337.211572,6809.894666,-5699.585753,459.657299
1337.211901,7031.956449,-6365.771101,689.485948
1337.212230,7105.977043,-5995.668130,1225.752797
1337.212559,7402.059420,-6661.853478,1072.533697
1337.212888,7550.100608,-5847.626942,995.924147
1337.213217,7550.100608,-5847.626942,1915.238745
1337.213546,8068.244768,-7179.997637,1072.533697
1337.213875,7920.203579,-6809.894666,1608.800546
1337.214204,7550.100608,-6957.935855,1608.800546
1337.214534,7254.018232,-5773.606348,459.657299
1337.214863,7179.997637,-4885.359217,689.485948
1337.215192,7328.038826,-4885.359217,842.705048
1337.215521,7772.162391,-5403.503377,1225.752797
1337.215850,7994.224174,-5847.626942,1532.190996
1337.216179,8142.265362,-5699.585753,1455.581446
1337.216508,7550.100608,-5551.544565,1225.752797
1337.216837,6661.853478,-6217.729913,842.705048
1337.217166,6143.709319,-7698.141797,459.657299
1337.217495,5551.544565,-8882.471304,689.485948
1337.217824,5255.462188,-8290.306550,1302.362347
1337.218153,5625.565159,-8364.327145,689.485948
1337.218482,5921.647536,-7476.080014,1532.190996
1337.218811,6587.832884,-6587.832884,919.314598
1337.219140,7254.018232,-6143.709319,536.266849
1337.219470,7328.038826,-4885.359217,842.705048
1337.219799,7920.203579,-5477.523971,842.705048
1337.220128,8290.306550,-5181.441594,1608.800546
1337.220457,7698.141797,-5329.482782,1608.800546
1337.220786,7772.162391,-6587.832884,1149.143247
1337.221115,6957.935855,-5995.668130,1149.143247
1337.221444,6365.771101,-6883.915261,459.657299
1337.221773,6661.853478,-7476.080014,689.485948
1337.222102,7179.997637,-7624.121203,1455.581446
1337.222431,7179.997637,-7624.121203,1378.971896
1337.222760,6883.915261,-6365.771101,919.314598
1337.223089,6513.812290,-5921.647536,536.266849
1337.223418,6809.894666,-5255.462188,229.828649
1337.223747,7550.100608,-5847.626942,2145.067394
1337.224076,7920.203579,-5699.585753,1378.971896
1337.224406,8290.306550,-5255.462188,1762.019645
1337.224735,7920.203579,-5921.647536,1838.629195
1337.225064,7476.080014,-6069.688724,1302.362347
1337.225393,7031.956449,-7402.059420,612.876398
1337.225722,5551.544565,-8068.244768,842.705048
1337.226051,5181.441594,-8512.368333,229.828649
1337.226380,5181.441594,-9030.512492,536.266849
1337.226709,5403.503377,-7994.224174,1072.533697
1337.227038,5699.585753,-8142.265362,306.438199
1337.227367,6513.812290,-6587.832884,153.219100
1337.227696,7328.038826,-6069.688724,689.485948
1337.228025,7994.224174,-6217.729913,1532.190996
1337.228354,8438.347739,-4737.318029,1532.190996
1337.228683,7920.203579,-4885.359217,1225.752797
1337.229013,7402.059420,-5551.544565,766.095498
1337.229342,7179.997637,-6217.729913,842.705048
1337.229671,7624.121203,-6735.874072,612.876398
1337.230000,7254.018232,-7402.059420,1608.800546
1337.230329,7105.977043,-6809.894666,1915.238745
1337.230658,7105.977043,-6365.771101,1072.533697
1337.230987,7105.977043,-6439.791695,766.095498
1337.231316,7772.162391,-6439.791695,995.924147
1337.231645,7698.141797,-5921.647536,842.705048
1337.231974,7105.977043,-5921.647536,1302.362347
1337.232303,6883.915261,-5847.626942,1149.143247
1337.232632,6661.853478,-6069.688724,1149.143247
1337.232961,6957.935855,-6661.853478,1225.752797
1337.233290,6661.853478,-7254.018232,1149.143247
1337.233619,6957.935855,-7994.224174,1149.143247
1337.233949,6069.688724,-8068.244768,842.705048
1337.234278,4959.379811,-8364.327145,689.485948
1337.234607,5255.462188,-7994.224174,612.876398
1337.234936,5921.647536,-6735.874072,229.828649
1337.235265,7105.977043,-6513.812290,459.657299
1337.235594,8364.327145,-5551.544565,1225.752797
1337.235923,9326.594869,-5107.421000,1838.629195
1337.236252,8364.327145,-5255.462188,1225.752797
1337.236581,7105.977043,-5477.523971,919.314598
1337.236910,6439.791695,-5255.462188,306.438199
1337.237239,6513.812290,-6291.750507,536.266849
1337.237568,6661.853478,-7105.977043,1149.143247
1337.237897,6883.915261,-6883.915261,1685.410096
1337.238226,7624.121203,-7105.977043,1685.410096
1337.238555,7179.997637,-6291.750507,689.485948
1337.238885,6365.771101,-5773.606348,612.876398
1337.239214,6735.874072,-5921.647536,842.705048
1337.239543,7698.141797,-6143.709319,995.924147
1337.239872,8364.327145,-5847.626942,1762.019645
1337.240201,7994.224174,-5329.482782,1608.800546
1337.240530,8068.244768,-5033.400406,1762.019645
1337.240859,7624.121203,-5625.565159,919.314598
1337.241188,6513.812290,-7254.018232,842.705048
1337.241517,5847.626942,-7550.100608,842.705048
1337.241846,6291.750507,-8364.327145,1378.971896
1337.242175,5181.441594,-8068.244768,1149.143247
1337.242504,5477.523971,-7476.080014,612.876398
1337.242833,5699.585753,-6883.915261,76.609550
1337.243162,6587.832884,-6069.688724,306.438199
1337.243491,7402.059420,-5995.668130,1072.533697
1337.243821,8438.347739,-5921.647536,1608.800546
1337.244150,8660.409521,-5477.523971,1455.581446
1337.244479,8290.306550,-5699.585753,1225.752797
1337.244808,7624.121203,-5699.585753,1378.971896
1337.245137,6883.915261,-6291.750507,919.314598
1337.245466,7328.038826,-7031.956449,1378.971896
1337.245795,7179.997637,-6883.915261,1608.800546
1337.246124,6957.935855,-7476.080014,1149.143247
1337.246453,6217.729913,-7179.997637,1455.581446
1337.246782,5995.668130,-6217.729913,306.438199
1337.247111,5921.647536,-5847.626942,153.219100
1337.247440,6587.832884,-6217.729913,459.657299
1337.247769,7179.997637,-5995.668130,1225.752797
1337.248098,6587.832884,-5995.668130,1225.752797
1337.248427,7179.997637,-6365.771101,1302.362347
1337.248757,7179.997637,-6809.894666,1072.533697
1337.249086,7105.977043,-7698.141797,1225.752797
1337.249415,7179.997637,-8290.306550,1762.019645
1337.249744,6439.791695,-7846.182985,1149.143247
1337.250073,5995.668130,-8808.450710,689.485948
1337.250402,5625.565159,-7698.141797,1072.533697
1337.250731,5995.668130,-7550.100608,0.000000
1337.251060,7105.977043,-7476.080014,306.438199
1337.251389,6957.935855,-5847.626942,842.705048
1337.251718,7254.018232,-6365.771101,919.314598
1337.252047,7254.018232,-5403.503377,306.438199
1337.252376,6809.894666,-5477.523971,1455.581446
1337.252705,7402.059420,-5477.523971,919.314598
1337.253034,7254.018232,-5847.626942,689.485948
1337.253364,7254.018232,-6513.812290,1149.143247
1337.253693,7476.080014,-6291.750507,1532.190996
1337.254022,7920.203579,-7328.038826,1455.581446
1337.254351,7550.100608,-6957.935855,1685.410096
1337.254680,6809.894666,-6365.771101,842.705048
1337.255009,6513.812290,-6365.771101,842.705048
1337.255338,7402.059420,-6069.688724,842.705048
1337.255667,7328.038826,-5773.606348,842.705048
1337.255996,7254.018232,-5329.482782,995.924147
1337.256325,6957.935855,-5847.626942,689.485948
1337.256654,6883.915261,-5995.668130,689.485948
1337.256983,7031.956449,-5551.544565,1225.752797
1337.257312,7105.977043,-6809.894666,612.876398
1337.257641,7031.956449,-7328.038826,1532.190996
1337.257970,6957.935855,-8142.265362,1608.800546
1337.258300,6735.874072,-7772.162391,842.705048
1337.258629,5921.647536,-6143.709319,919.314598
1337.258958,6587.832884,-6587.832884,306.438199
1337.259287,7624.121203,-5773.606348,536.266849
1337.259616,7994.224174,-5699.585753,1149.143247
1337.259945,8438.347739,-5625.565159,1378.971896
1337.260274,7624.121203,-6217.729913,1762.019645
1337.260603,6957.935855,-6291.750507,1149.143247
1337.260932,6143.709319,-6291.750507,536.266849
1337.261261,5625.565159,-7624.121203,842.705048
1337.261590,6587.832884,-7476.080014,536.266849
1337.261919,6957.935855,-7254.018232,842.705048
1337.262248,7105.977043,-7031.956449,1762.019645
1337.262577,7624.121203,-6143.709319,1225.752797
1337.262906,7179.997637,-5921.647536,383.047749
1337.263236,6735.874072,-5477.523971,536.266849
1337.263565,6809.894666,-5847.626942,612.876398
1337.263894,7772.162391,-6587.832884,1149.143247
1337.264223,7698.141797,-6587.832884,1225.752797
1337.264552,7476.080014,-6513.812290,1762.019645
1337.264881,7254.018232,-6291.750507,1225.752797
1337.265210,6809.894666,-7179.997637,1072.533697
1337.265539,6513.812290,-7994.224174,919.314598
1337.265868,5773.606348,-7994.224174,919.314598
1337.266197,5921.647536,-7772.162391,459.657299
1337.266526,5773.606348,-8068.244768,842.705048
1337.266855,5773.606348,-7254.018232,383.047749
1337.267184,6217.729913,-6291.750507,459.657299
1337.267513,7772.162391,-5255.462188,459.657299
1337.267842,8290.306550,-5773.606348,1685.410096
1337.268172,8290.306550,-4737.318029,1685.410096
1337.268501,7476.080014,-5625.565159,1225.752797
1337.268830,7105.977043,-5699.585753,1072.533697
1337.269159,6735.874072,-6809.894666,689.485948
1337.269488,6217.729913,-7476.080014,1532.190996
1337.269817,6957.935855,-7698.141797,1915.238745
1337.270146,6735.874072,-8068.244768,1608.800546
1337.270475,6217.729913,-7179.997637,1302.362347
1337.270804,6143.709319,-6439.791695,536.266849
1337.271133,6957.935855,-6439.791695,612.876398
1337.271462,7105.977043,-5403.503377,995.924147
1337.271791,7402.059420,-5403.503377,1302.362347
1337.272120,8512.368333,-5107.421000,1455.581446
1337.272449,7772.162391,-4737.318029,1225.752797
1337.272778,7402.059420,-5847.626942,1225.752797
1337.273108,7179.997637,-6439.791695,1225.752797
1337.273437,7031.956449,-7624.121203,1072.533697
1337.273766,7105.977043,-8216.285956,306.438199
1337.274095,6143.709319,-8438.347739,1072.533697
1337.274424,5625.565159,-8956.491898,919.314598
1337.274753,5921.647536,-7476.080014,612.876398
1337.275082,5773.606348,-6143.709319,306.438199
1337.275411,6661.853478,-6143.709319,689.485948
1337.275740,7328.038826,-6217.729913,1149.143247
1337.276069,7254.018232,-6291.750507,1455.581446
1337.276398,7105.977043,-5477.523971,1302.362347
1337.276727,7105.977043,-5699.585753,1455.581446
1337.277057,6957.935855,-5847.626942,1149.143247
1337.277386,6883.915261,-7105.977043,1225.752797
1337.277715,6957.935855,-6883.915261,766.095498
1337.278044,7105.977043,-6587.832884,1455.581446
1337.278373,7031.956449,-6439.791695,842.705048
1337.278702,7105.977043,-6587.832884,1072.533697
1337.279031,7624.121203,-6365.771101,1225.752797
1337.279360,7624.121203,-6217.729913,1302.362347
1337.279689,7476.080014,-6069.688724,1685.410096
1337.280019,8216.285956,-4589.276840,1149.143247
1337.280348,7698.141797,-5921.647536,1378.971896
1337.280677,7328.038826,-6217.729913,1072.533697
1337.281006,7402.059420,-6069.688724,1149.143247
1337.281335,6809.894666,-6809.894666,1225.752797
1337.281664,6217.729913,-7402.059420,1225.752797
1337.281993,6291.750507,-8364.327145,1072.533697
1337.282322,6143.709319,-8068.244768,766.095498
1337.282651,6365.771101,-7105.977043,306.438199
1337.282980,6069.688724,-6587.832884,766.095498
1337.283310,7550.100608,-5699.585753,689.485948
1337.283639,8512.368333,-5773.606348,1455.581446
1337.283968,8068.244768,-5625.565159,1685.410096
1337.284297,7920.203579,-5107.421000,1455.581446
1337.284626,7031.956449,-5773.606348,612.876398
1337.284955,6291.750507,-6365.771101,383.047749
1337.285284,6143.709319,-7254.018232,919.314598
1337.285613,6439.791695,-8068.244768,1378.971896
1337.285942,6809.894666,-7920.203579,1378.971896
1337.286271,6143.709319,-7846.182985,1072.533697
1337.286601,5847.626942,-7698.141797,612.876398
1337.286930,6587.832884,-6661.853478,689.485948
1337.287259,7550.100608,-6291.750507,459.657299
1337.287588,7624.121203,-6217.729913,1302.362347
1337.287917,8068.244768,-5625.565159,1302.362347
1337.288246,8438.347739,-4737.318029,1225.752797
1337.288575,7772.162391,-5107.421000,1608.800546
1337.288904,7920.203579,-5847.626942,1225.752797
1337.289233,7550.100608,-6069.688724,1455.581446
1337.289562,6661.853478,-7254.018232,1455.581446
1337.289892,5107.421000,-7624.121203,842.705048
1337.290221,5403.503377,-7994.224174,229.828649
1337.290550,5625.565159,-8364.327145,1149.143247
1337.290879,5847.626942,-7179.997637,1225.752797
1337.291208,6365.771101,-6809.894666,1149.143247
1337.291537,7254.018232,-6439.791695,1302.362347
1337.291866,7476.080014,-6735.874072,1455.581446
1337.292195,7254.018232,-6587.832884,1378.971896
1337.292524,6365.771101,-7105.977043,766.095498
1337.292853,5699.585753,-6809.894666,1072.533697
1337.293183,6661.853478,-6883.915261,383.047749
1337.293512,6661.853478,-7920.203579,1685.410096
1337.293841,7402.059420,-6587.832884,1762.019645
1337.294170,8882.471304,-5995.668130,1608.800546
1337.294499,8068.244768,-5477.523971,1149.143247
1337.294828,6143.709319,-6143.709319,1072.533697
1337.295157,6291.750507,-6661.853478,383.047749
1337.295486,6957.935855,-5773.606348,459.657299
1337.295815,7476.080014,-6735.874072,1608.800546
1337.296144,8290.306550,-6069.688724,2298.286494
1337.296474,8290.306550,-5033.400406,1762.019645
1337.296803,7994.224174,-5921.647536,1455.581446
1337.297132,6883.915261,-6069.688724,1608.800546
1337.297461,5847.626942,-7550.100608,459.657299
1337.297790,5255.462188,-6587.832884,229.828649
1337.298119,4811.338623,-8290.306550,995.924147
1337.298448,5403.503377,-8586.388927,766.095498
1337.298777,6439.791695,-6513.812290,1225.752797
1337.299106,6809.894666,-6587.832884,1149.143247
1337.299435,8068.244768,-4959.379811,612.876398
1337.299765,7846.182985,-4663.297435,1149.143247
1337.300094,7920.203579,-5625.565159,1378.971896
1337.300423,7624.121203,-5921.647536,842.705048
1337.300752,7254.018232,-5477.523971,536.266849
1337.301081,7179.997637,-6809.894666,1149.143247
1337.301410,7624.121203,-7328.038826,1302.362347
1337.301739,7402.059420,-6883.915261,1455.581446
1337.302068,7031.956449,-7476.080014,1302.362347
1337.302397,5995.668130,-6957.935855,1149.143247
1337.302726,6069.688724,-6365.771101,-306.438199
1337.303056,5847.626942,-6587.832884,153.219100
1337.303385,6587.832884,-6143.709319,306.438199
1337.303714,7254.018232,-6883.915261,842.705048
1337.304043,7920.203579,-6217.729913,1762.019645
1337.304372,7698.141797,-5773.606348,1608.800546
1337.304701,7846.182985,-6217.729913,1072.533697
1337.305030,7254.018232,-7031.956449,1302.362347
1337.305359,6809.894666,-7846.182985,1455.581446
1337.305688,6217.729913,-7846.182985,1072.533697
1337.306017,6069.688724,-7476.080014,1072.533697
1337.306347,6069.688724,-7402.059420,1455.581446
1337.306676,6735.874072,-6883.915261,1149.143247
1337.307005,7550.100608,-5921.647536,919.314598
1337.307334,7105.977043,-5403.503377,689.485948
1337.307663,7031.956449,-5699.585753,459.657299
1337.307992,7328.038826,-5477.523971,919.314598
1337.308321,7402.059420,-5625.565159,536.266849
1337.308650,7105.977043,-5995.668130,842.705048
1337.308979,7031.956449,-5995.668130,919.314598
1337.309308,7550.100608,-6883.915261,689.485948
1337.309638,7698.141797,-7624.121203,1455.581446
1337.309967,7179.997637,-7105.977043,1455.581446
1337.310296,6513.812290,-7550.100608,995.924147
1337.310625,5921.647536,-6735.874072,689.485948
1337.310954,5995.668130,-6735.874072,229.828649
1337.311283,6587.832884,-5995.668130,153.219100
1337.311612,7328.038826,-6069.688724,1685.410096
1337.311941,7624.121203,-5625.565159,1455.581446
1337.312270,7772.162391,-5699.585753,1378.971896
1337.312599,7254.018232,-6217.729913,1225.752797
1337.312929,7105.977043,-6439.791695,1838.629195
1337.313258,7105.977043,-6957.935855,842.705048
1337.313587,7105.977043,-7105.977043,1532.190996
1337.313916,6587.832884,-7550.100608,766.095498
1337.314245,5921.647536,-7772.162391,536.266849
1337.314574,6217.729913,-7179.997637,459.657299
1337.314903,6143.709319,-7624.121203,383.047749
1337.315232,6809.894666,-6809.894666,842.705048
1337.315561,7476.080014,-5699.585753,766.095498
1337.315890,7994.224174,-4885.359217,1302.362347
1337.316220,7476.080014,-5107.421000,1608.800546
1337.316549,7105.977043,-5625.565159,612.876398
1337.316878,6587.832884,-5921.647536,1072.533697
1337.317207,6661.853478,-6513.812290,536.266849
1337.317536,7179.997637,-6809.894666,1532.190996
1337.317865,7476.080014,-7624.121203,1532.190996
1337.318194,7476.080014,-7328.038826,1991.848295
1337.318523,7476.080014,-6735.874072,919.314598
1337.318852,6883.915261,-6957.935855,1302.362347
1337.319181,6365.771101,-6143.709319,229.828649
1337.319511,6735.874072,-5921.647536,0.000000
1337.319840,7105.977043,-6291.750507,1072.533697
1337.320169,7105.977043,-6661.853478,1455.581446
1337.320498,7328.038826,-5625.565159,1532.190996
1337.320827,7254.018232,-6217.729913,1991.848295
1337.321156,7105.977043,-7031.956449,1608.800546
1337.321485,6439.791695,-7550.100608,919.314598
1337.321814,5551.544565,-7328.038826,842.705048
1337.322143,5255.462188,-8068.244768,0.000000
1337.322473,5921.647536,-7402.059420,919.314598
1337.322802,6661.853478,-6513.812290,842.705048
1337.323131,7402.059420,-6735.874072,766.095498
1337.323460,8512.368333,-4885.359217,1532.190996
1337.323789,8512.368333,-5107.421000,1532.190996
1337.324118,8364.327145,-6217.729913,1225.752797
1337.324447,7105.977043,-5995.668130,1225.752797
1337.324776,6809.894666,-5847.626942,612.876398
1337.325105,7031.956449,-5699.585753,1302.362347
1337.325434,6291.750507,-6661.853478,842.705048
1337.325764,6587.832884,-7105.977043,1302.362347
1337.326093,6883.915261,-6883.915261,1915.238745
1337.326422,6735.874072,-6513.812290,1225.752797
1337.326751,7031.956449,-6217.729913,1149.143247
1337.327080,6883.915261,-6513.812290,536.266849
1337.327409,7179.997637,-5921.647536,919.314598
1337.327738,8290.306550,-5699.585753,1455.581446
1337.328067,8586.388927,-6513.812290,2681.334243
1337.328396,8438.347739,-5625.565159,1991.848295
1337.328725,7328.038826,-6439.791695,1455.581446
1337.329055,6217.729913,-7105.977043,1072.533697
1337.329384,5329.482782,-7994.224174,383.047749
1337.329713,4737.318029,-8956.491898,306.438199
1337.330042,5033.400406,-8438.347739,919.314598
1337.330371,5699.585753,-8438.347739,842.705048
1337.330700,6439.791695,-7031.956449,842.705048
1337.331029,7105.977043,-5699.585753,1378.971896
1337.331358,7994.224174,-5329.482782,459.657299
1337.331687,8438.347739,-4959.379811,1455.581446
1337.332016,8734.430116,-5033.400406,1455.581446
1337.332346,8734.430116,-5033.400406,1225.752797
1337.332675,8216.285956,-5107.421000,842.705048
1337.333004,7179.997637,-6587.832884,1149.143247
1337.333333,7328.038826,-7105.977043,1225.752797
1337.333662,6957.935855,-7179.997637,1149.143247
1337.333991,6217.729913,-7328.038826,1302.362347
1337.334320,5995.668130,-7994.224174,536.266849
1337.334649,5551.544565,-7105.977043,536.266849
1337.334978,5699.585753,-7105.977043,153.219100
1337.335307,6143.709319,-6439.791695,1072.533697
1337.335637,6957.935855,-5255.462188,1149.143247
1337.335966,7624.121203,-5921.647536,1149.143247
1337.336295,7772.162391,-5551.544565,1915.238745
1337.336624,7179.997637,-6365.771101,1302.362347
1337.336953,7328.038826,-6809.894666,1072.533697
1337.337282,6661.853478,-6587.832884,1532.190996
1337.337611,5847.626942,-7476.080014,766.095498
1337.337940,5699.585753,-7920.203579,689.485948
1337.338269,5847.626942,-8290.306550,919.314598
1337.338598,6587.832884,-7328.038826,612.876398
1337.338928,6661.853478,-7105.977043,612.876398
1337.339257,7550.100608,-5995.668130,689.485948
1337.339586,8142.265362,-4663.297435,919.314598
1337.339915,7550.100608,-5551.544565,1302.362347
1337.340244,7105.977043,-5107.421000,1532.190996
1337.340573,7920.203579,-5255.462188,1685.410096
1337.340902,7772.162391,-5847.626942,1532.190996
1337.341231,7624.121203,-6365.771101,1455.581446
1337.341560,7105.977043,-6883.915261,1762.019645
1337.341889,6735.874072,-6439.791695,1378.971896
1337.342219,7105.977043,-6735.874072,1378.971896
1337.342548,7402.059420,-6217.729913,1225.752797
1337.342877,7179.997637,-6513.812290,1378.971896
1337.343206,6957.935855,-6661.853478,153.219100
1337.343535,6217.729913,-6365.771101,459.657299
1337.343864,6365.771101,-6809.894666,842.705048
1337.344193,6809.894666,-6513.812290,1072.533697
1337.344522,6883.915261,-6513.812290,1225.752797
1337.344851,7179.997637,-7105.977043,1532.190996
1337.345180,6809.894666,-7328.038826,919.314598
1337.345510,6217.729913,-7624.121203,1072.533697
1337.345839,5551.544565,-7772.162391,229.828649
1337.346168,5921.647536,-7846.182985,919.314598
1337.346497,6513.812290,-7550.100608,919.314598
1337.346826,6957.935855,-6957.935855,1149.143247
1337.347155,7402.059420,-5921.647536,995.924147
1337.347484,7698.141797,-5477.523971,842.705048
1337.347813,8290.306550,-5847.626942,689.485948
1337.348142,7550.100608,-6143.709319,1225.752797
1337.348471,6809.894666,-6069.688724,842.705048
1337.348801,5847.626942,-6365.771101,76.609550
1337.349130,5477.523971,-6883.915261,459.657299
1337.349459,6587.832884,-7402.059420,995.924147
1337.349788,7179.997637,-7402.059420,1378.971896
1337.350117,7105.977043,-7476.080014,1455.581446
1337.350446,6513.812290,-6587.832884,689.485948
1337.350775,6439.791695,-5921.647536,1072.533697
1337.351104,7031.956449,-5921.647536,383.047749
1337.351433,7328.038826,-5773.606348,612.876398
1337.351762,7920.203579,-6439.791695,1149.143247
1337.352092,7624.121203,-6217.729913,1838.629195
1337.352421,8290.306550,-6439.791695,1149.143247
1337.352750,7624.121203,-6587.832884,1455.581446
1337.353079,7105.977043,-7772.162391,1072.533697
1337.353408,5921.647536,-7328.038826,229.828649
1337.353737,4959.379811,-7105.977043,229.828649
1337.354066,5329.482782,-8882.471304,1149.143247
1337.354395,5403.503377,-8216.285956,689.485948
1337.354724,6143.709319,-6883.915261,842.705048
1337.355053,7105.977043,-5551.544565,766.095498
1337.355383,8364.327145,-4811.338623,842.705048
1337.355712,8956.491898,-4441.235652,1532.190996
1337.356041,8882.471304,-4663.297435,1838.629195
1337.356370,8808.450710,-4589.276840,1685.410096
1337.356699,7920.203579,-4737.318029,1608.800546
1337.357028,7179.997637,-5995.668130,1149.143247
1337.357357,7105.977043,-7402.059420,1532.190996
1337.357686,7105.977043,-7772.162391,1762.019645
1337.358015,6217.729913,-8216.285956,1532.190996
1337.358344,5921.647536,-6957.935855,919.314598
1337.358674,5921.647536,-6957.935855,459.657299
1337.359003,5921.647536,-7031.956449,0.000000
1337.359332,6143.709319,-5773.606348,383.047749
1337.359661,6735.874072,-6217.729913,383.047749
1337.359990,7698.141797,-5921.647536,1532.190996
1337.360319,8142.265362,-5477.523971,1149.143247
1337.360648,7846.182985,-6365.771101,1455.581446
1337.360977,7179.997637,-7179.997637,1149.143247
1337.361306,6809.894666,-7105.977043,229.828649
1337.361636,6143.709319,-7698.141797,919.314598
1337.361965,6217.729913,-7402.059420,1302.362347
1337.362294,7179.997637,-7772.162391,919.314598
1337.362623,7105.977043,-7402.059420,2068.457845
1337.362952,6957.935855,-6587.832884,689.485948
1337.363281,7179.997637,-5477.523971,689.485948
1337.363610,7328.038826,-4959.379811,995.924147
1337.363939,7105.977043,-5255.462188,1149.143247
1337.364268,7105.977043,-5107.421000,1838.629195
1337.364597,7031.956449,-5847.626942,1455.581446
1337.364927,6735.874072,-5921.647536,919.314598
1337.365256,6957.935855,-6809.894666,1072.533697
1337.365585,7031.956449,-7179.997637,1225.752797
1337.365914,6661.853478,-7105.977043,1532.190996
1337.366243,6809.894666,-7402.059420,1072.533697
1337.366572,6957.935855,-6735.874072,919.314598
1337.366901,7105.977043,-6439.791695,383.047749
1337.367230,7476.080014,-5921.647536,842.705048
1337.367559,8216.285956,-6217.729913,1378.971896
1337.367888,7698.141797,-5773.606348,1225.752797
1337.368218,7179.997637,-6217.729913,1378.971896
1337.368547,7031.956449,-6143.709319,1302.362347
1337.368876,6291.750507,-7105.977043,995.924147
1337.369205,5625.565159,-7698.141797,842.705048
1337.369534,5181.441594,-7698.141797,153.219100
1337.369863,5107.421000,-7772.162391,536.266849
1337.370192,5773.606348,-7846.182985,995.924147
1337.370521,5847.626942,-7254.018232,1225.752797
1337.370850,6587.832884,-7105.977043,766.095498
1337.371179,7550.100608,-5921.647536,1225.752797
1337.371509,8068.244768,-5699.585753,1072.533697
1337.371838,8586.388927,-5995.668130,1072.533697
1337.372167,8882.471304,-4811.338623,1762.019645
1337.372496,8216.285956,-5403.503377,1532.190996
1337.372825,7624.121203,-5329.482782,1762.019645
1337.373154,6735.874072,-6513.812290,1072.533697
1337.373483,6957.935855,-7105.977043,1225.752797
1337.373812,6217.729913,-7254.018232,1149.143247
1337.374141,6365.771101,-7772.162391,1378.971896
1337.374470,6513.812290,-6809.894666,459.657299
1337.374800,6291.750507,-6883.915261,842.705048
1337.375129,6143.709319,-6809.894666,76.609550
1337.375458,6883.915261,-6365.771101,229.828649
1337.375787,7994.224174,-6291.750507,919.314598
1337.376116,7550.100608,-6217.729913,1149.143247
1337.376445,7328.038826,-6587.832884,1762.019645
1337.376774,7328.038826,-6587.832884,1378.971896
1337.377103,7105.977043,-7550.100608,1149.143247
1337.377432,6143.709319,-7254.018232,1455.581446
1337.377762,5625.565159,-7179.997637,612.876398
1337.378091,5995.668130,-7772.162391,612.876398
1337.378420,6143.709319,-7179.997637,1302.362347
1337.378749,6957.935855,-6957.935855,1762.019645
1337.379078,7550.100608,-5625.565159,919.314598
1337.379407,7698.141797,-4811.338623,1455.581446
1337.379736,7624.121203,-4589.276840,689.485948
1337.380066,6883.915261,-4515.256246,306.438199
1337.380395,7179.997637,-5329.482782,919.314598
1337.380724,6809.894666,-6439.791695,689.485948
1337.381053,7105.977043,-6661.853478,536.266849
1337.381382,7031.956449,-6809.894666,1455.581446
1337.381711,6957.935855,-7920.203579,1455.581446
1337.382040,7031.956449,-8438.347739,1915.238745
1337.382370,6735.874072,-7031.956449,536.266849
1337.382699,6957.935855,-6513.812290,612.876398
1337.383028,7402.059420,-5699.585753,766.095498
1337.383357,8142.265362,-5625.565159,766.095498
1337.383686,8290.306550,-5847.626942,1532.190996
1337.384015,8808.450710,-5995.668130,1149.143247
1337.384345,7698.141797,-5921.647536,1149.143247
1337.384674,6809.894666,-6661.853478,1455.581446
1337.385003,5847.626942,-7624.121203,842.705048
1337.385332,5033.400406,-8068.244768,76.609550
1337.385661,4515.256246,-9474.636058,842.705048
1337.385990,4885.359217,-8956.491898,842.705048
1337.386319,5773.606348,-8142.265362,766.095498
1337.386649,6365.771101,-7402.059420,1072.533697
1337.386978,7105.977043,-6587.832884,995.924147
1337.387307,7994.224174,-5329.482782,995.924147
1337.387636,7994.224174,-4589.276840,1302.362347
1337.387965,7698.141797,-5551.544565,1532.190996
1337.388294,7772.162391,-5403.503377,1685.410096
1337.388623,8142.265362,-5181.441594,1378.971896
1337.388953,7624.121203,-5625.565159,1378.971896
1337.389282,7772.162391,-5551.544565,1455.581446
1337.389611,7476.080014,-5847.626942,1072.533697
1337.389940,6809.894666,-6735.874072,1532.190996
1337.390269,5699.585753,-7624.121203,459.657299
1337.390598,6069.688724,-6217.729913,306.438199
1337.390927,6291.750507,-6661.853478,0.000000
1337.391257,7105.977043,-6587.832884,1072.533697
1337.391586,8216.285956,-5773.606348,1455.581446
1337.391915,9252.574275,-6587.832884,1915.238745
1337.392244,8734.430116,-4959.379811,1915.238745
1337.392573,7550.100608,-6513.812290,1225.752797
1337.392902,6291.750507,-6587.832884,1149.143247
1337.393231,5403.503377,-6957.935855,306.438199
1337.393561,4811.338623,-9252.574275,612.876398
1337.393890,5033.400406,-8438.347739,995.924147
1337.394219,4737.318029,-9326.594869,1302.362347
1337.394548,5403.503377,-7698.141797,0.000000
1337.394877,5403.503377,-6735.874072,383.047749
1337.395206,6735.874072,-6365.771101,459.657299
1337.395535,7772.162391,-6217.729913,229.828649
1337.395865,7994.224174,-5033.400406,1378.971896
1337.396194,8734.430116,-4663.297435,689.485948
1337.396523,8734.430116,-5107.421000,1149.143247
1337.396852,8364.327145,-5329.482782,1225.752797
1337.397181,7698.141797,-6069.688724,1225.752797
1337.397510,7179.997637,-5477.523971,1378.971896
1337.397840,7624.121203,-6365.771101,1302.362347
1337.398169,7105.977043,-6957.935855,1455.581446
1337.398498,6735.874072,-6365.771101,1378.971896
1337.398827,6883.915261,-6143.709319,536.266849
1337.399156,7031.956449,-5995.668130,766.095498
1337.399485,7031.956449,-5995.668130,612.876398
1337.399814,7105.977043,-6143.709319,842.705048
1337.400144,7254.018232,-6365.771101,919.314598
1337.400473,6883.915261,-6439.791695,995.924147
1337.400802,7105.977043,-7179.997637,1072.533697
1337.401131,6661.853478,-7994.224174,919.314598
1337.401460,6143.709319,-8068.244768,1455.581446
1337.401789,5921.647536,-7624.121203,536.266849
1337.402118,5921.647536,-7179.997637,842.705048
1337.402448,6291.750507,-7550.100608,1072.533697
1337.402777,7179.997637,-6957.935855,919.314598
1337.403106,7402.059420,-5921.647536,1072.533697
1337.403435,7476.080014,-5255.462188,842.705048
1337.403764,8216.285956,-5403.503377,1072.533697
1337.404093,8290.306550,-5181.441594,1455.581446
1337.404422,7772.162391,-6143.709319,1149.143247
1337.404752,7105.977043,-6069.688724,995.924147
1337.405081,6809.894666,-6587.832884,1149.143247
1337.405410,6365.771101,-7179.997637,612.876398
1337.405739,6661.853478,-7031.956449,1455.581446
1337.406068,7254.018232,-7254.018232,1532.190996
1337.406397,7105.977043,-7031.956449,1072.533697
1337.406726,7179.997637,-5699.585753,1455.581446
1337.407056,6883.915261,-6217.729913,1072.533697
1337.407385,7105.977043,-5551.544565,919.314598
1337.407714,7179.997637,-5107.421000,1608.800546
1337.408043,7254.018232,-5995.668130,1991.848295
1337.408372,7846.182985,-6143.709319,2221.676944
1337.408701,7179.997637,-6735.874072,2068.457845
1337.409030,5995.668130,-7254.018232,842.705048
1337.409360,5551.544565,-7179.997637,383.047749
1337.409689,5477.523971,-8290.306550,612.876398
1337.410018,5403.503377,-8808.450710,842.705048
1337.410347,5773.606348,-8216.285956,919.314598
1337.410676,5995.668130,-7105.977043,612.876398
1337.411005,6439.791695,-6661.853478,383.047749
1337.411334,7402.059420,-5699.585753,1378.971896
1337.411664,7698.141797,-5477.523971,459.657299
1337.411993,7402.059420,-5255.462188,1455.581446
1337.412322,7994.224174,-5625.565159,1762.019645
1337.412651,7698.141797,-5477.523971,1532.190996
1337.412980,7402.059420,-5699.585753,1225.752797
1337.413309,7179.997637,-6365.771101,1455.581446
1337.413639,7698.141797,-6661.853478,1302.362347
1337.413968,7105.977043,-6957.935855,1378.971896
1337.414297,6809.894666,-6439.791695,1455.581446
1337.414626,7105.977043,-6291.750507,536.266849
1337.414955,7105.977043,-6365.771101,612.876398
1337.415284,7031.956449,-6069.688724,612.876398
1337.415613,6957.935855,-6291.750507,919.314598
1337.415943,7624.121203,-6069.688724,1838.629195
1337.416272,7105.977043,-6291.750507,1225.752797
1337.416601,6735.874072,-6957.935855,1072.533697
1337.416930,6439.791695,-6957.935855,1149.143247
1337.417259,6217.729913,-7772.162391,536.266849
1337.417588,5699.585753,-7476.080014,612.876398
1337.417917,5995.668130,-7476.080014,766.095498
1337.418247,6661.853478,-8364.327145,995.924147
1337.418576,7105.977043,-7254.018232,1149.143247
1337.418905,6735.874072,-6587.832884,995.924147
1337.419234,7105.977043,-5921.647536,229.828649
1337.419563,7550.100608,-4737.318029,229.828649
1337.419892,7994.224174,-4885.359217,842.705048
1337.420221,7994.224174,-4959.379811,1455.581446
1337.420551,7772.162391,-5847.626942,1838.629195
1337.420880,7105.977043,-5921.647536,1072.533697
1337.421209,6291.750507,-6587.832884,612.876398
1337.421538,6291.750507,-6587.832884,842.705048
1337.421867,6217.729913,-6513.812290,1378.971896
1337.422196,6809.894666,-7105.977043,1685.410096
1337.422525,7105.977043,-6883.915261,1762.019645
1337.422855,7550.100608,-6291.750507,995.924147
1337.423184,7624.121203,-6291.750507,1991.848295
1337.423513,8142.265362,-5403.503377,612.876398
1337.423842,7994.224174,-5551.544565,1225.752797
1337.424171,7179.997637,-5403.503377,1302.362347
1337.424500,7105.977043,-6439.791695,995.924147
1337.424829,7328.038826,-7105.977043,1302.362347
1337.425159,7105.977043,-7105.977043,1072.533697
1337.425488,5847.626942,-8068.244768,766.095498
1337.425817,5477.523971,-8882.471304,536.266849
1337.426146,4811.338623,-8734.430116,689.485948
1337.426475,5477.523971,-8660.409521,229.828649
1337.426804,5625.565159,-7402.059420,459.657299
1337.427134,6661.853478,-6365.771101,229.828649
1337.427463,7624.121203,-6069.688724,383.047749
1337.427792,8586.388927,-4737.318029,1532.190996
1337.428121,9030.512492,-4885.359217,1915.238745
1337.428450,9178.553681,-5181.441594,1838.629195
1337.428779,7698.141797,-4737.318029,1149.143247
1337.429108,6809.894666,-5773.606348,536.266849
1337.429438,6143.709319,-6365.771101,1532.190996
1337.429767,6587.832884,-7105.977043,1072.533697
1337.430096,6809.894666,-7476.080014,995.924147
1337.430425,6661.853478,-7179.997637,1302.362347
1337.430754,6513.812290,-6587.832884,1378.971896
1337.431083,6365.771101,-6365.771101,76.609550
1337.431412,6661.853478,-6217.729913,612.876398
1337.431742,7328.038826,-6513.812290,1302.362347
1337.432071,8290.306550,-5773.606348,1685.410096
1337.432400,7772.162391,-5625.565159,1838.629195
1337.432729,7105.977043,-6143.709319,1072.533697
1337.433058,6365.771101,-7031.956449,689.485948
1337.433387,5847.626942,-8142.265362,842.705048
1337.433716,5921.647536,-7846.182985,766.095498
1337.434046,6439.791695,-8068.244768,1225.752797
1337.434375,6365.771101,-7476.080014,919.314598
1337.434704,5847.626942,-7254.018232,0.000000
1337.435033,6365.771101,-6883.915261,766.095498
1337.435362,7254.018232,-5699.585753,1302.362347
1337.435691,8290.306550,-5625.565159,1378.971896
1337.436020,7920.203579,-5403.503377,1991.848295
1337.436350,7476.080014,-5625.565159,1225.752797
1337.436679,6735.874072,-5551.544565,766.095498
1337.437008,7031.956449,-5699.585753,1378.971896
1337.437337,6735.874072,-7031.956449,1455.581446
1337.437666,7105.977043,-6365.771101,1225.752797
1337.437995,7031.956449,-6513.812290,1762.019645
1337.438324,7105.977043,-6883.915261,1608.800546
1337.438654,7179.997637,-6217.729913,919.314598
1337.438983,6809.894666,-6217.729913,1149.143247
1337.439312,7254.018232,-5477.523971,536.266849
1337.439641,7994.224174,-5107.421000,919.314598
1337.439970,8290.306550,-4737.318029,1762.019645
1337.440299,7920.203579,-6587.832884,1608.800546
1337.440629,7550.100608,-6365.771101,1072.533697
1337.440958,6883.915261,-6809.894666,459.657299
1337.441287,6069.688724,-7624.121203,76.609550
1337.441616,6513.812290,-7105.977043,383.047749
1337.441945,5699.585753,-8808.450710,536.266849
1337.442274,5625.565159,-8808.450710,1072.533697
1337.442603,5625.565159,-7994.224174,536.266849
1337.442933,6291.750507,-6957.935855,612.876398
1337.443262,7031.956449,-5995.668130,842.705048
1337.443591,7402.059420,-6439.791695,995.924147
1337.443920,7920.203579,-5921.647536,995.924147
1337.444249,7624.121203,-5551.544565,919.314598
1337.444578,7105.977043,-5699.585753,995.924147
1337.444907,7179.997637,-6217.729913,383.047749
1337.445237,7105.977043,-6587.832884,1532.190996
1337.445566,7328.038826,-6735.874072,1072.533697
1337.445895,6439.791695,-6735.874072,919.314598
1337.446224,6957.935855,-7179.997637,919.314598
1337.446553,6809.894666,-6291.750507,536.266849
1337.446882,6883.915261,-6069.688724,766.095498
1337.447211,7031.956449,-5921.647536,689.485948
1337.447541,7476.080014,-6291.750507,995.924147
1337.447870,8290.306550,-5921.647536,1685.410096
1337.448199,8364.327145,-5551.544565,1225.752797
1337.448528,7846.182985,-5847.626942,1302.362347
1337.448857,7698.141797,-6513.812290,1378.971896
1337.449186,7328.038826,-7179.997637,1378.971896
1337.449515,6365.771101,-7772.162391,995.924147
1337.449845,5847.626942,-7920.203579,1072.533697
1337.450174,5773.606348,-7698.141797,612.876398
1337.450503,5329.482782,-7772.162391,536.266849
1337.450832,5107.421000,-7105.977043,459.657299
1337.451161,6217.729913,-6217.729913,612.876398
1337.451490,7254.018232,-6291.750507,1225.752797
1337.451819,7624.121203,-5699.585753,1915.238745
1337.452149,8068.244768,-5625.565159,1225.752797
1337.452478,7550.100608,-6069.688724,1608.800546
1337.452807,7105.977043,-6069.688724,995.924147
1337.453136,6587.832884,-6439.791695,919.314598
1337.453465,6587.832884,-5995.668130,1149.143247
1337.453794,6883.915261,-7328.038826,842.705048
1337.454124,6809.894666,-7698.141797,1378.971896
1337.454453,6291.750507,-6661.853478,1302.362347
1337.454782,6809.894666,-6587.832884,766.095498
1337.455111,6883.915261,-5995.668130,1225.752797
1337.455440,7328.038826,-5699.585753,995.924147
1337.455769,7698.141797,-5921.647536,842.705048
1337.456098,7328.038826,-5699.585753,1455.581446
1337.456428,7328.038826,-6513.812290,1149.143247
1337.456757,7031.956449,-6143.709319,1225.752797
1337.457086,6735.874072,-6735.874072,1455.581446
1337.457415,6957.935855,-7105.977043,1532.190996
1337.457744,6439.791695,-7105.977043,1149.143247
1337.458073,6069.688724,-8068.244768,1225.752797
1337.458402,6143.709319,-7328.038826,919.314598
1337.458732,6217.729913,-6883.915261,842.705048
1337.459061,6365.771101,-6513.812290,1072.533697
1337.459390,6809.894666,-6439.791695,919.314598
1337.459719,7254.018232,-6513.812290,1608.800546
1337.460048,6587.832884,-5403.503377,995.924147
1337.460377,6661.853478,-6735.874072,689.485948
1337.460706,6365.771101,-6513.812290,766.095498
1337.461036,6513.812290,-7105.977043,153.219100
1337.461365,6291.750507,-7031.956449,919.314598
1337.461694,7179.997637,-6957.935855,1685.410096
1337.462023,7772.162391,-7105.977043,1685.410096
1337.462352,8216.285956,-5995.668130,1685.410096
1337.462681,7772.162391,-5329.482782,1149.143247
1337.463010,8068.244768,-5329.482782,612.876398
1337.463340,7698.141797,-4885.359217,842.705048
1337.463669,7846.182985,-5847.626942,1149.143247
1337.463998,7846.182985,-6217.729913,1838.629195
1337.464327,7550.100608,-5551.544565,1455.581446
1337.464656,6957.935855,-6439.791695,1302.362347
1337.464985,6291.750507,-7105.977043,919.314598
1337.465314,5847.626942,-7624.121203,383.047749
1337.465644,5181.441594,-7920.203579,842.705048
1337.465973,5255.462188,-8586.388927,766.095498
1337.466302,5847.626942,-7920.203579,1302.362347
1337.466631,6291.750507,-7402.059420,842.705048
1337.466960,7105.977043,-6069.688724,1225.752797
1337.467289,7772.162391,-5403.503377,995.924147
1337.467619,7846.182985,-5773.606348,1225.752797
1337.467948,7105.977043,-4811.338623,842.705048
1337.468277,7105.977043,-5921.647536,842.705048
1337.468606,6513.812290,-5995.668130,612.876398
1337.468935,6587.832884,-7105.977043,1225.752797
1337.469264,7031.956449,-7402.059420,1225.752797
1337.469593,7254.018232,-6883.915261,995.924147
1337.469923,6735.874072,-8216.285956,1225.752797
1337.470252,6587.832884,-7772.162391,612.876398
1337.470581,5773.606348,-6513.812290,76.609550
1337.470910,6143.709319,-7476.080014,0.000000
1337.471239,7179.997637,-5551.544565,229.828649
1337.471568,8438.347739,-5181.441594,1608.800546
1337.471897,9696.697840,-5403.503377,2451.505594
1337.472227,8438.347739,-4885.359217,1915.238745
1337.472556,7105.977043,-5699.585753,1378.971896
1337.472885,6365.771101,-5551.544565,612.876398
1337.473214,6439.791695,-8068.244768,1532.190996
1337.473543,6587.832884,-8734.430116,1762.019645
1337.473872,5847.626942,-7920.203579,689.485948
1337.474201,6217.729913,-7328.038826,689.485948
1337.474531,6365.771101,-6809.894666,1149.143247
1337.474860,6513.812290,-7031.956449,459.657299
1337.475189,7179.997637,-6365.771101,842.705048
1337.475518,7328.038826,-5403.503377,1072.533697
1337.475847,7105.977043,-5921.647536,766.095498
1337.476176,7031.956449,-5107.421000,612.876398
1337.476506,6143.709319,-6143.709319,1225.752797
1337.476835,6957.935855,-6217.729913,766.095498
1337.477164,7328.038826,-6883.915261,1608.800546
1337.477493,7179.997637,-7031.956449,1685.410096
1337.477823,7698.141797,-6735.874072,1685.410096
1337.478152,6957.935855,-6513.812290,995.924147
1337.478481,6513.812290,-6291.750507,229.828649
1337.478810,5995.668130,-6513.812290,76.609550
1337.479140,6735.874072,-6143.709319,1072.533697
1337.479469,8142.265362,-6513.812290,1378.971896
1337.479798,8734.430116,-6143.709319,1685.410096
1337.480127,8216.285956,-5477.523971,1915.238745
1337.480456,7846.182985,-5699.585753,1455.581446
1337.480786,7254.018232,-5773.606348,842.705048
1337.481115,7031.956449,-6291.750507,1072.533697
1337.481444,6143.709319,-7105.977043,842.705048
1337.481773,5773.606348,-7624.121203,1608.800546
1337.482103,5699.585753,-8512.368333,1302.362347
1337.482432,5699.585753,-8142.265362,612.876398
1337.482761,5995.668130,-7105.977043,766.095498
1337.483090,6661.853478,-6513.812290,459.657299
1337.483419,7179.997637,-6217.729913,383.047749
1337.483749,7179.997637,-5699.585753,1532.190996
1337.484078,7846.182985,-6291.750507,1532.190996
1337.484407,7698.141797,-6217.729913,1225.752797
1337.484736,7179.997637,-6439.791695,919.314598
1337.485066,7031.956449,-6957.935855,842.705048
1337.485395,6883.915261,-6957.935855,1302.362347
1337.485724,6809.894666,-7402.059420,842.705048
1337.486053,6735.874072,-7328.038826,1072.533697
1337.486382,6661.853478,-6439.791695,1225.752797
1337.486712,7328.038826,-5773.606348,995.924147
1337.487041,7402.059420,-5033.400406,766.095498
1337.487370,7772.162391,-4811.338623,1455.581446
1337.487699,7846.182985,-5477.523971,1608.800546
1337.488029,8142.265362,-5551.544565,1378.971896
1337.488358,8364.327145,-5773.606348,1762.019645
1337.488687,8364.327145,-5847.626942,1685.410096
1337.489016,7476.080014,-6809.894666,1302.362347
1337.489346,6439.791695,-6735.874072,919.314598
1337.489675,5921.647536,-7846.182985,612.876398
1337.490004,5255.462188,-7476.080014,383.047749
1337.490333,5403.503377,-7846.182985,536.266849
1337.490662,5551.544565,-8068.244768,153.219100
1337.490992,6439.791695,-6809.894666,612.876398
1337.491321,6587.832884,-7031.956449,536.266849
1337.491650,7179.997637,-5995.668130,1072.533697
1337.491979,7698.141797,-5477.523971,1072.533697
1337.492309,8142.265362,-6513.812290,1302.362347
1337.492638,7846.182985,-6069.688724,1378.971896
1337.492967,7550.100608,-7328.038826,1149.143247
1337.493296,7105.977043,-7179.997637,1072.533697
1337.493625,6661.853478,-7328.038826,842.705048
1337.493955,6217.729913,-7772.162391,1149.143247
1337.494284,6513.812290,-7476.080014,612.876398
1337.494613,6587.832884,-6735.874072,1455.581446
1337.494942,6587.832884,-5995.668130,306.438199
1337.495272,6439.791695,-5921.647536,76.609550
1337.495601,7105.977043,-5773.606348,995.924147
1337.495930,7772.162391,-5699.585753,1455.581446
1337.496259,8438.347739,-5403.503377,1762.019645
1337.496588,8068.244768,-6069.688724,2068.457845
1337.496918,7476.080014,-6291.750507,1302.362347
1337.497247,6883.915261,-6883.915261,995.924147
1337.497576,5995.668130,-6587.832884,919.314598
1337.497905,5921.647536,-8068.244768,842.705048
1337.498235,6069.688724,-7550.100608,1149.143247
1337.498564,6365.771101,-6809.894666,536.266849
1337.498893,7031.956449,-6513.812290,612.876398
1337.499222,7328.038826,-5699.585753,1149.143247
1337.499552,7476.080014,-5921.647536,536.266849
1337.499881,7550.100608,-5255.462188,842.705048
1337.500210,7328.038826,-5403.503377,1225.752797
1337.500539,7624.121203,-6217.729913,536.266849
1337.500868,7105.977043,-6513.812290,1225.752797
1337.501198,7179.997637,-7105.977043,1302.362347
1337.501527,7179.997637,-7105.977043,1072.533697
1337.501856,6735.874072,-7031.956449,1225.752797
1337.502185,6513.812290,-7254.018232,842.705048
1337.502515,6809.894666,-6513.812290,1149.143247
1337.502844,6661.853478,-6661.853478,842.705048
1337.503173,6513.812290,-6439.791695,536.266849
1337.503502,6957.935855,-6143.709319,842.705048
1337.503831,7698.141797,-5847.626942,1378.971896
1337.504161,7402.059420,-6143.709319,1302.362347
1337.504490,7105.977043,-6661.853478,995.924147
1337.504819,7031.956449,-6439.791695,919.314598
1337.505148,6291.750507,-7031.956449,842.705048
1337.505478,6587.832884,-8068.244768,1302.362347
1337.505807,6365.771101,-7624.121203,1225.752797
1337.506136,6735.874072,-7772.162391,1149.143247
1337.506465,7105.977043,-6661.853478,1302.362347
1337.506794,7105.977043,-5847.626942,842.705048
1337.507124,7772.162391,-6069.688724,1455.581446
1337.507453,8364.327145,-5403.503377,1225.752797
1337.507782,8290.306550,-4737.318029,1302.362347
1337.508111,7846.182985,-5329.482782,766.095498
1337.508441,6883.915261,-6587.832884,842.705048
1337.508770,6735.874072,-6661.853478,689.485948
1337.509099,6809.894666,-7179.997637,1072.533697
1337.509428,6661.853478,-7402.059420,1378.971896
1337.509758,7031.956449,-7328.038826,1072.533697
1337.510087,6809.894666,-7624.121203,1455.581446
1337.510416,5625.565159,-7254.018232,689.485948
1337.510745,5847.626942,-7105.977043,383.047749
1337.511074,5773.606348,-5773.606348,1302.362347
1337.511404,7031.956449,-5329.482782,536.266849
1337.511733,7994.224174,-4959.379811,1225.752797
1337.512062,8364.327145,-5329.482782,2145.067394
1337.512391,7772.162391,-6069.688724,1532.190996
1337.512721,7402.059420,-5847.626942,1685.410096
1337.513050,7105.977043,-6365.771101,1149.143247
1337.513379,6809.894666,-7550.100608,459.657299
1337.513708,6291.750507,-7920.203579,1149.143247
1337.514037,5625.565159,-8882.471304,1302.362347
1337.514367,5403.503377,-8142.265362,536.266849
1337.514696,5921.647536,-7031.956449,459.657299
1337.515025,6587.832884,-6513.812290,689.485948
1337.515354,7328.038826,-5995.668130,1072.533697
1337.515684,7624.121203,-5403.503377,612.876398
1337.516013,7402.059420,-5107.421000,842.705048
1337.516342,7254.018232,-5773.606348,1225.752797
1337.516671,7550.100608,-5181.441594,1225.752797
1337.517000,7550.100608,-5403.503377,1455.581446
1337.517330,7698.141797,-7402.059420,1915.238745
1337.517659,7105.977043,-7402.059420,1762.019645
1337.517988,6513.812290,-7031.956449,766.095498
1337.518317,6513.812290,-6809.894666,1072.533697
1337.518647,7179.997637,-6883.915261,1225.752797
1337.518976,7105.977043,-5921.647536,842.705048
1337.519305,6957.935855,-5773.606348,842.705048
1337.519634,6735.874072,-6587.832884,1225.752797
1337.519964,6957.935855,-5847.626942,1378.971896
1337.520293,6883.915261,-5625.565159,1302.362347
1337.520622,7031.956449,-6439.791695,1149.143247
1337.520951,6661.853478,-6291.750507,1072.533697
1337.521280,6957.935855,-7328.038826,1072.533697
1337.521610,6587.832884,-7772.162391,919.314598
1337.521939,6365.771101,-7402.059420,1149.143247
1337.522268,6883.915261,-7550.100608,919.314598
1337.522597,6735.874072,-7994.224174,919.314598
1337.522927,7031.956449,-6661.853478,919.314598
1337.523256,7624.121203,-6217.729913,1225.752797
1337.523585,8290.306550,-6217.729913,1072.533697
1337.523914,7994.224174,-4367.215058,1072.533697
1337.524243,7476.080014,-5551.544565,1302.362347
1337.524573,7179.997637,-6365.771101,995.924147
1337.524902,6809.894666,-5255.462188,842.705048
1337.525231,5773.606348,-7031.956449,1378.971896
1337.525560,5921.647536,-7920.203579,766.095498
1337.525890,6217.729913,-6957.935855,1149.143247
1337.526219,6143.709319,-7402.059420,1072.533697
1337.526548,6069.688724,-6809.894666,1149.143247
1337.526877,7179.997637,-6217.729913,536.266849
1337.527206,8142.265362,-5699.585753,919.314598
1337.527536,8364.327145,-4811.338623,1532.190996
1337.527865,8364.327145,-5773.606348,1608.800546
1337.528194,8734.430116,-5255.462188,1302.362347
1337.528523,7624.121203,-6365.771101,1302.362347
1337.528853,7105.977043,-7105.977043,995.924147
1337.529182,6735.874072,-6513.812290,306.438199
1337.529511,5551.544565,-8364.327145,383.047749
1337.529840,5477.523971,-7920.203579,76.609550
1337.530170,5699.585753,-8364.327145,766.095498
1337.530499,5847.626942,-7550.100608,919.314598
1337.530828,6291.750507,-5995.668130,229.828649
1337.531157,6957.935855,-5699.585753,536.266849
1337.531486,7402.059420,-5921.647536,689.485948
1337.531816,7772.162391,-5995.668130,1149.143247
1337.532145,7772.162391,-5033.400406,2298.286494
1337.532474,8068.244768,-5847.626942,1302.362347
1337.532803,7550.100608,-6143.709319,1225.752797
1337.533133,6883.915261,-6883.915261,1302.362347
1337.533462,6661.853478,-7476.080014,842.705048
1337.533791,6513.812290,-6883.915261,766.095498
1337.534120,5995.668130,-7846.182985,995.924147
1337.534449,6365.771101,-7550.100608,689.485948
1337.534779,6291.750507,-7031.956449,919.314598
1337.535108,6365.771101,-6513.812290,229.828649
1337.535437,7105.977043,-5847.626942,612.876398
1337.535766,7772.162391,-5551.544565,1302.362347
1337.536096,8734.430116,-5107.421000,1302.362347
1337.536425,8142.265362,-5847.626942,1608.800546
1337.536754,7624.121203,-5995.668130,1608.800546
1337.537083,6883.915261,-6439.791695,919.314598
1337.537412,6291.750507,-7179.997637,842.705048
1337.537742,5773.606348,-7920.203579,689.485948
1337.538071,5921.647536,-7920.203579,919.314598
1337.538400,5847.626942,-8068.244768,1302.362347
1337.538729,6291.750507,-7179.997637,1225.752797
1337.539059,6513.812290,-6069.688724,842.705048
1337.539388,6957.935855,-5403.503377,689.485948
1337.539717,7402.059420,-6069.688724,1302.362347
1337.540046,7624.121203,-4737.318029,1991.848295
1337.540376,7328.038826,-5477.523971,1762.019645
1337.540705,7402.059420,-5107.421000,995.924147
1337.541034,6883.915261,-5847.626942,766.095498
1337.541363,6661.853478,-6365.771101,842.705048
1337.541692,6809.894666,-7550.100608,919.314598
1337.542022,7105.977043,-7179.997637,1608.800546
1337.542351,7105.977043,-7105.977043,1378.971896
1337.542680,6809.894666,-7328.038826,689.485948
1337.543009,6661.853478,-5921.647536,306.438199
1337.543339,6661.853478,-6735.874072,229.828649
1337.543668,7328.038826,-6809.894666,1455.581446
1337.543997,7920.203579,-5847.626942,1991.848295
1337.544326,8216.285956,-5255.462188,1149.143247
1337.544655,7328.038826,-5921.647536,1072.533697
1337.544985,6291.750507,-7105.977043,919.314598
1337.545314,5847.626942,-7105.977043,536.266849
1337.545643,5995.668130,-7328.038826,766.095498
1337.545972,5995.668130,-7328.038826,1149.143247
1337.546302,6587.832884,-7994.224174,1149.143247
1337.546631,6883.915261,-7624.121203,1608.800546
1337.546960,7179.997637,-6365.771101,1072.533697
1337.547289,7698.141797,-5773.606348,612.876398
1337.547618,7994.224174,-5181.441594,1838.629195
1337.547948,8290.306550,-5773.606348,1455.581446
1337.548277,7846.182985,-5551.544565,1225.752797
1337.548606,7031.956449,-5699.585753,766.095498
1337.548935,6661.853478,-6587.832884,229.828649
1337.549265,6439.791695,-6587.832884,766.095498
1337.549594,6957.935855,-6883.915261,995.924147
1337.549923,6883.915261,-7402.059420,842.705048
1337.550252,6365.771101,-7105.977043,842.705048
1337.550582,6365.771101,-7105.977043,536.266849
1337.550911,5847.626942,-7179.997637,0.000000
1337.551240,6513.812290,-6587.832884,229.828649
1337.551569,7105.977043,-7105.977043,689.485948
1337.551898,7994.224174,-7031.956449,1685.410096
1337.552228,7550.100608,-6291.750507,1685.410096
1337.552557,7698.141797,-6661.853478,995.924147
1337.552886,7846.182985,-6069.688724,1302.362347
1337.553215,7254.018232,-6809.894666,1302.362347
1337.553545,6439.791695,-7031.956449,689.485948
1337.553874,5329.482782,-7624.121203,842.705048
1337.554203,5329.482782,-7550.100608,766.095498
1337.554532,5551.544565,-6809.894666,536.266849
1337.554861,6513.812290,-5921.647536,919.314598
1337.555191,7550.100608,-5329.482782,1302.362347
1337.555520,8512.368333,-5255.462188,1072.533697
1337.555849,8586.388927,-4737.318029,1455.581446
1337.556178,8586.388927,-4663.297435,1149.143247
1337.556508,7772.162391,-6069.688724,1302.362347
1337.556837,7402.059420,-5995.668130,1149.143247
1337.557166,6883.915261,-6957.935855,1149.143247
1337.557495,7031.956449,-7328.038826,1378.971896
1337.557824,6735.874072,-7994.224174,2068.457845
1337.558154,6143.709319,-7772.162391,1149.143247
1337.558483,6143.709319,-7105.977043,459.657299
1337.558812,6439.791695,-6809.894666,383.047749
1337.559141,6513.812290,-6365.771101,842.705048
1337.559471,7031.956449,-5921.647536,536.266849
1337.559800,7179.997637,-5033.400406,995.924147
1337.560129,7994.224174,-5403.503377,1225.752797
1337.560458,7920.203579,-5625.565159,1532.190996
1337.560788,7624.121203,-6513.812290,1838.629195
1337.561117,7105.977043,-7105.977043,919.314598
1337.561446,6143.709319,-6957.935855,919.314598
1337.561775,5699.585753,-7698.141797,842.705048
1337.562104,5403.503377,-8142.265362,1532.190996
1337.562434,6069.688724,-7254.018232,2298.286494
1337.562763,6957.935855,-7328.038826,1915.238745
1337.563092,6661.853478,-5403.503377,459.657299
1337.563421,6661.853478,-5477.523971,689.485948
1337.563751,7328.038826,-5995.668130,459.657299
1337.564080,7846.182985,-5477.523971,1608.800546
1337.564409,7994.224174,-5847.626942,1455.581446
1337.564738,7698.141797,-5329.482782,842.705048
1337.565067,7328.038826,-5995.668130,1149.143247
1337.565397,7031.956449,-6883.915261,459.657299
1337.565726,6587.832884,-7550.100608,1149.143247
1337.566055,5551.544565,-7550.100608,459.657299
1337.566384,5847.626942,-7179.997637,459.657299
1337.566714,6439.791695,-7402.059420,995.924147
1337.567043,7031.956449,-7031.956449,689.485948
1337.567372,7402.059420,-6291.750507,1378.971896
1337.567701,7698.141797,-5699.585753,1532.190996
1337.568030,7328.038826,-5921.647536,1455.581446
1337.568360,7105.977043,-5995.668130,1302.362347
1337.568689,7254.018232,-7031.956449,1762.019645
1337.569018,6735.874072,-7179.997637,1072.533697
1337.569347,5477.523971,-7846.182985,612.876398
1337.569677,4811.338623,-8290.306550,612.876398
1337.570006,5255.462188,-8364.327145,536.266849
1337.570335,5847.626942,-7772.162391,1149.143247
1337.570664,6217.729913,-6957.935855,1455.581446
1337.570994,7105.977043,-6217.729913,842.705048
1337.571323,7550.100608,-5255.462188,919.314598
1337.571652,8438.347739,-4663.297435,919.314598
1337.571981,8882.471304,-4811.338623,1532.190996
1337.572310,9104.533087,-4737.318029,1991.848295
1337.572640,8586.388927,-5921.647536,1685.410096
1337.572969,7994.224174,-6439.791695,1455.581446
1337.573298,7920.203579,-6809.894666,842.705048
1337.573627,6587.832884,-7179.997637,766.095498
1337.573957,5847.626942,-7550.100608,459.657299
1337.574286,5551.544565,-8068.244768,612.876398
1337.574615,5477.523971,-7031.956449,536.266849
1337.574944,5699.585753,-7254.018232,229.828649
1337.575273,6217.729913,-6439.791695,229.828649
1337.575603,7031.956449,-6587.832884,689.485948
1337.575932,7550.100608,-6735.874072,1149.143247
1337.576261,7920.203579,-5699.585753,2298.286494
1337.576590,7846.182985,-5847.626942,1225.752797
1337.576920,7328.038826,-6365.771101,1455.581446
1337.577249,6957.935855,-6883.915261,1302.362347
1337.577578,6883.915261,-7105.977043,383.047749
1337.577907,6661.853478,-6661.853478,612.876398
1337.578236,6735.874072,-7476.080014,1072.533697
1337.578566,6809.894666,-7254.018232,1532.190996
1337.578895,7105.977043,-6291.750507,1072.533697
1337.579224,7328.038826,-5699.585753,306.438199
1337.579553,7328.038826,-4885.359217,306.438199
1337.579882,7254.018232,-5773.606348,689.485948
1337.580211,7179.997637,-5995.668130,919.314598
1337.580540,7402.059420,-6217.729913,1302.362347
1337.580870,7698.141797,-6439.791695,842.705048
1337.581199,7476.080014,-6587.832884,1149.143247
1337.581528,7476.080014,-6661.853478,1532.190996
1337.581857,7772.162391,-7105.977043,1455.581446
1337.582186,7402.059420,-6143.709319,1302.362347
1337.582515,7105.977043,-6217.729913,1302.362347
1337.582845,6883.915261,-5921.647536,536.266849
1337.583174,6735.874072,-6439.791695,612.876398
1337.583503,6957.935855,-6439.791695,1072.533697
1337.583832,7624.121203,-5699.585753,1149.143247
1337.584161,7476.080014,-6365.771101,1762.019645
1337.584490,7179.997637,-6735.874072,1302.362347
1337.584819,6661.853478,-6513.812290,766.095498
1337.585149,6217.729913,-6957.935855,689.485948
1337.585478,5699.585753,-7772.162391,536.266849
1337.585807,5699.585753,-8660.409521,919.314598
1337.586136,5625.565159,-8586.388927,995.924147
1337.586465,5699.585753,-7846.182985,536.266849
1337.586794,6143.709319,-6957.935855,536.266849
1337.587124,7105.977043,-5995.668130,459.657299
1337.587453,8142.265362,-5625.565159,995.924147
1337.587782,8586.388927,-4737.318029,1608.800546
1337.588111,9030.512492,-4367.215058,1915.238745
1337.588440,8142.265362,-4293.194464,1225.752797
1337.588769,7328.038826,-5329.482782,1455.581446
1337.589099,7698.141797,-6069.688724,1532.190996
1337.589428,7624.121203,-7105.977043,1838.629195
1337.589757,7772.162391,-7179.997637,1762.019645
1337.590086,6291.750507,-7031.956449,1455.581446
1337.590415,5773.606348,-7328.038826,536.266849
1337.590744,5773.606348,-7179.997637,766.095498
1337.591073,5847.626942,-7105.977043,536.266849
1337.591403,5995.668130,-6661.853478,153.219100
1337.591732,6365.771101,-5995.668130,1149.143247
1337.592061,7031.956449,-6735.874072,919.314598
1337.592390,6957.935855,-6587.832884,919.314598
1337.592719,6735.874072,-7179.997637,1608.800546
1337.593048,7772.162391,-7402.059420,1378.971896
1337.593378,7179.997637,-7476.080014,1378.971896
1337.593707,7105.977043,-7994.224174,1225.752797
1337.594036,6513.812290,-7476.080014,842.705048
1337.594365,6587.832884,-7179.997637,1455.581446
1337.594694,5847.626942,-7179.997637,306.438199
1337.595023,6365.771101,-6439.791695,612.876398
1337.595353,7328.038826,-5847.626942,536.266849
1337.595682,7624.121203,-6291.750507,1149.143247
1337.596011,7105.977043,-5551.544565,1455.581446
1337.596340,6809.894666,-6069.688724,919.314598
1337.596669,6735.874072,-6069.688724,536.266849
1337.596998,6513.812290,-5699.585753,1072.533697
1337.597327,7328.038826,-6291.750507,766.095498
1337.597657,7402.059420,-6513.812290,1532.190996
1337.597986,7994.224174,-7105.977043,1915.238745
1337.598315,7994.224174,-6291.750507,1685.410096
1337.598644,7698.141797,-6069.688724,1302.362347
1337.598973,7550.100608,-5847.626942,1302.362347
1337.599302,7772.162391,-5477.523971,842.705048
1337.599632,7402.059420,-5625.565159,1149.143247
1337.599961,6809.894666,-5699.585753,1072.533697
1337.600290,6365.771101,-6439.791695,1455.581446
1337.600619,6365.771101,-6735.874072,842.705048
1337.600948,6217.729913,-7328.038826,995.924147
1337.601277,6069.688724,-7254.018232,689.485948
1337.601607,5847.626942,-7698.141797,536.266849
1337.601936,5477.523971,-8364.327145,612.876398
1337.602265,6069.688724,-8216.285956,919.314598
1337.602594,6735.874072,-7254.018232,1072.533697
1337.602923,7031.956449,-6809.894666,842.705048
1337.603252,7920.203579,-5773.606348,766.095498
1337.603581,8290.306550,-5329.482782,1378.971896
1337.603911,8734.430116,-5255.462188,1685.410096
1337.604240,7994.224174,-5181.441594,1302.362347
1337.604569,7179.997637,-4959.379811,689.485948
1337.604898,6735.874072,-6069.688724,842.705048
1337.605227,6439.791695,-6735.874072,842.705048
1337.605556,6365.771101,-7179.997637,1225.752797
1337.605886,6439.791695,-8142.265362,1378.971896
1337.606215,6143.709319,-7328.038826,1225.752797
1337.606544,6513.812290,-7179.997637,766.095498
1337.606873,6587.832884,-6513.812290,612.876398
1337.607202,7105.977043,-5995.668130,842.705048
1337.607531,8068.244768,-5921.647536,995.924147
1337.607860,8882.471304,-4811.338623,1455.581446
1337.608190,8660.409521,-5403.503377,1532.190996
1337.608519,8216.285956,-5477.523971,1225.752797
1337.608848,7328.038826,-6513.812290,1302.362347
1337.609177,6587.832884,-7550.100608,1302.362347
1337.609506,6217.729913,-7105.977043,383.047749
1337.609835,5699.585753,-8216.285956,842.705048
1337.610165,5773.606348,-8068.244768,842.705048
1337.610494,5107.421000,-8068.244768,842.705048
1337.610823,4959.379811,-7476.080014,919.314598
1337.611152,5551.544565,-6661.853478,536.266849
1337.611481,6661.853478,-6735.874072,612.876398
1337.611810,7402.059420,-6143.709319,1302.362347
1337.612140,8216.285956,-5773.606348,1685.410096
1337.612469,8290.306550,-5403.503377,2298.286494
1337.612798,8290.306550,-5403.503377,1455.581446
1337.613127,7846.182985,-5699.585753,1455.581446
1337.613456,8068.244768,-5773.606348,1762.019645
1337.613785,7550.100608,-6735.874072,1532.190996
1337.614114,6661.853478,-7105.977043,919.314598
1337.614444,5477.523971,-6513.812290,689.485948
1337.614773,5107.421000,-7179.997637,0.000000
1337.615102,5847.626942,-6957.935855,689.485948
1337.615431,6587.832884,-6587.832884,919.314598
1337.615760,6809.894666,-6513.812290,1072.533697
1337.616089,7328.038826,-5551.544565,919.314598
1337.616419,7254.018232,-6365.771101,766.095498
1337.616748,7179.997637,-6587.832884,1225.752797
1337.617077,7105.977043,-6365.771101,1838.629195
1337.617406,6735.874072,-7476.080014,842.705048
1337.617735,6735.874072,-8216.285956,1378.971896
1337.618064,6883.915261,-8068.244768,1455.581446
1337.618394,7105.977043,-7254.018232,1608.800546
1337.618723,6809.894666,-6883.915261,1302.362347
1337.619052,7105.977043,-5699.585753,1072.533697
1337.619381,7254.018232,-4737.318029,383.047749
1337.619710,7328.038826,-5181.441594,1072.533697
1337.620039,6957.935855,-5329.482782,1762.019645
1337.620368,6735.874072,-6069.688724,842.705048
1337.620698,6957.935855,-6143.709319,1149.143247
1337.621027,6957.935855,-6365.771101,1072.533697
1337.621356,7550.100608,-7254.018232,1149.143247
1337.621685,6809.894666,-7105.977043,1072.533697
1337.622014,7105.977043,-7846.182985,1378.971896
1337.622343,6957.935855,-6809.894666,153.219100
1337.622673,5921.647536,-6809.894666,306.438199
1337.623002,6143.709319,-7105.977043,919.314598
1337.623331,7179.997637,-7328.038826,1072.533697
1337.623660,7105.977043,-7031.956449,1149.143247
1337.623989,7105.977043,-6809.894666,919.314598
1337.624318,6883.915261,-6883.915261,1072.533697
1337.624647,5995.668130,-7772.162391,766.095498
1337.624977,5181.441594,-8290.306550,229.828649
1337.625306,4589.276840,-8586.388927,153.219100
1337.625635,4663.297435,-9400.615463,383.047749
1337.625964,5181.441594,-9770.718434,766.095498
1337.626293,5329.482782,-9474.636058,766.095498
1337.626622,5699.585753,-8512.368333,1072.533697
1337.626952,5625.565159,-7846.182985,536.266849
1337.627281,6217.729913,-6883.915261,766.095498
1337.627610,6957.935855,-5477.523971,1149.143247
1337.627939,7402.059420,-6069.688724,1302.362347
1337.628268,7846.182985,-5033.400406,1532.190996
1337.628597,7402.059420,-6291.750507,1455.581446
1337.628927,7402.059420,-7105.977043,2221.676944
1337.629256,6661.853478,-6217.729913,2068.457845
1337.629585,6217.729913,-7550.100608,1378.971896
1337.629914,5773.606348,-6735.874072,842.705048
1337.630243,5181.441594,-7994.224174,919.314598
1337.630572,5625.565159,-7994.224174,1532.190996
1337.630901,4885.359217,-8734.430116,1455.581446
1337.631231,4737.318029,-8438.347739,1149.143247
1337.631560,4737.318029,-7846.182985,842.705048
1337.631889,4663.297435,-8438.347739,1225.752797
1337.632218,5181.441594,-8808.450710,1225.752797
1337.632547,5033.400406,-8216.285956,1532.190996
1337.632876,5107.421000,-8438.347739,1378.971896
1337.633206,4811.338623,-9104.533087,1532.190996
1337.633535,4441.235652,-9548.656652,2145.067394
1337.633864,3034.844362,-9992.780217,842.705048
1337.634193,2368.659014,-10288.862594,229.828649
1337.634522,2368.659014,-11251.130318,459.657299
1337.634851,3330.926739,-11547.212695,1225.752797
1337.635181,4071.132681,-10955.047942,1838.629195
1337.635510,3923.091493,-9104.533087,2068.457845
1337.635839,3997.112087,-8290.306550,1302.362347
1337.636168,4145.153275,-6439.791695,1072.533697
1337.636497,5033.400406,-5847.626942,689.485948
1337.636826,6513.812290,-5995.668130,612.876398
1337.637155,7031.956449,-6661.853478,1532.190996
1337.637485,6217.729913,-7994.224174,1149.143247
1337.637814,5181.441594,-9548.656652,689.485948
1337.638143,4737.318029,-10288.862594,383.047749
1337.638472,2960.823768,-12213.398043,76.609550
1337.638801,2516.700203,-12435.459826,306.438199
1337.639130,2368.659014,-12213.398043,0.000000
1337.639460,2368.659014,-11991.336260,0.000000
1337.639789,3404.947333,-10955.047942,689.485948
1337.640118,4367.215058,-9622.677246,1455.581446
1337.640447,5995.668130,-7772.162391,1915.238745
1337.640776,6735.874072,-5847.626942,3140.991542
1337.641105,7550.100608,-3997.112087,3217.601092
1337.641435,7994.224174,-2886.803174,2604.724693
1337.641764,7920.203579,-2442.679609,2451.505594
1337.642093,7105.977043,-3849.070898,1225.752797
1337.642422,7105.977043,-5033.400406,1225.752797
1337.642751,7105.977043,-6439.791695,1072.533697
1337.643080,5847.626942,-9030.512492,459.657299
1337.643409,5255.462188,-10510.924376,229.828649
1337.643739,4959.379811,-10955.047942,612.876398
1337.644068,3923.091493,-11991.336260,0.000000
1337.644397,3552.988522,-12287.418637,612.876398
1337.644726,2812.782580,-12509.480420,536.266849
1337.645055,2664.741391,-11399.171507,153.219100
1337.645384,2072.576638,-10732.986159,0.000000
1337.645714,3034.844362,-11621.233289,459.657299
1337.646043,4293.194464,-9474.636058,689.485948
1337.646372,5847.626942,-7105.977043,1149.143247
1337.646701,6883.915261,-5625.565159,919.314598
1337.647030,7550.100608,-3923.091493,842.705048
1337.647359,7698.141797,-3775.050304,0.000000
1337.647688,6809.894666,-6217.729913,1149.143247
1337.648018,6661.853478,-7105.977043,1685.410096
1337.648347,6735.874072,-8512.368333,2528.115143
1337.648676,6587.832884,-9030.512492,2987.772442
1337.649005,5699.585753,-10066.800811,2681.334243
1337.649334,5699.585753,-9770.718434,3217.601092
1337.649663,4515.256246,-9326.594869,2221.676944
1337.649993,3775.050304,-8068.244768,1532.190996
1337.650322,2886.803174,-6809.894666,1072.533697
1337.650651,2812.782580,-8216.285956,459.657299
1337.650980,2960.823768,-8586.388927,76.609550
1337.651309,2960.823768,-8512.368333,-306.438199
1337.651638,3849.070898,-8068.244768,0.000000
1337.651968,4811.338623,-8068.244768,0.000000
1337.652297,5625.565159,-9178.553681,0.000000
1337.652626,5995.668130,-11103.089130,1302.362347
1337.652955,5329.482782,-11917.315666,842.705048
1337.653284,4367.215058,-12953.603985,842.705048
1337.653613,3478.967927,-11917.315666,1225.752797
1337.653942,3923.091493,-11029.068536,2145.067394
1337.654272,4441.235652,-9844.739029,3140.991542
1337.654601,4737.318029,-8290.306550,4519.963438
1337.654930,5921.647536,-6439.791695,3294.210641
1337.655259,6217.729913,-4441.235652,2834.553343
1337.655588,5847.626942,-3923.091493,2451.505594
1337.655917,5773.606348,-4811.338623,2145.067394
1337.656247,5477.523971,-5181.441594,1838.629195
1337.656576,4663.297435,-7476.080014,1455.581446
1337.656905,4515.256246,-9474.636058,995.924147
1337.657234,4367.215058,-10807.006753,1302.362347
1337.657563,3849.070898,-11991.336260,1225.752797
1337.657892,3330.926739,-13101.645173,1302.362347
1337.658222,3849.070898,-11769.274478,1915.238745
1337.658551,5255.462188,-10658.965565,2451.505594
1337.658880,6291.750507,-8956.491898,3753.867940
1337.659209,7105.977043,-7031.956449,4060.306139
1337.659538,6809.894666,-6069.688724,3524.039291
1337.659867,7179.997637,-3997.112087,3753.867940
1337.660196,8290.306550,-3108.864956,3753.867940
1337.660526,8808.450710,-3108.864956,3294.210641
1337.660855,8290.306550,-3849.070898,3064.381992
1337.661184,7624.121203,-5181.441594,2681.334243
1337.661513,6809.894666,-6513.812290,2451.505594
1337.661842,6217.729913,-8216.285956,3370.820191
1337.662171,6439.791695,-8586.388927,3064.381992
1337.662501,5921.647536,-8956.491898,3524.039291
1337.662830,5551.544565,-8142.265362,3753.867940
1337.663159,6291.750507,-7402.059420,4290.134789
1337.663488,7476.080014,-5921.647536,4443.353888
1337.663817,7698.141797,-4145.153275,4979.620737
1337.664146,7550.100608,-4293.194464,4749.792088
1337.664475,7920.203579,-4441.235652,4749.792088
1337.664805,8142.265362,-4293.194464,4519.963438
1337.665134,8068.244768,-4737.318029,4136.915689
1337.665463,8068.244768,-5255.462188,4443.353888
1337.665792,7994.224174,-5551.544565,3907.087040
1337.666121,7179.997637,-7105.977043,3524.039291
1337.666450,5921.647536,-8512.368333,3447.429741
1337.666780,4811.338623,-9992.780217,3677.258390
1337.667109,4071.132681,-10732.986159,2911.162892
1337.667438,3404.947333,-11029.068536,3140.991542
1337.667767,3552.988522,-10955.047942,3370.820191
1337.668096,3997.112087,-9918.759623,4366.744339
1337.668425,5403.503377,-7550.100608,4749.792088
1337.668755,6217.729913,-5477.523971,4673.182538
1337.669084,7772.162391,-4737.318029,5592.497135
1337.669413,9474.636058,-3627.009116,5745.716235
1337.669742,9844.739029,-3923.091493,6128.763984
1337.670071,9400.615463,-3330.926739,5822.325785
1337.670400,9030.512492,-2960.823768,5515.887586
1337.670729,9030.512492,-3997.112087,4903.011187
1337.671059,8512.368333,-4737.318029,5362.668486
1337.671388,7920.203579,-6291.750507,5056.230287
1337.671717,6957.935855,-7402.059420,4290.134789
1337.672046,5255.462188,-8068.244768,3677.258390
1337.672375,4737.318029,-9992.780217,3524.039291
1337.672704,4145.153275,-10584.944971,3524.039291
1337.673034,2664.741391,-10955.047942,3447.429741
1337.673363,2368.659014,-10436.903782,2987.772442
1337.673692,2960.823768,-9104.533087,3524.039291
1337.674021,4959.379811,-8364.327145,4213.525239
1337.674350,6735.874072,-5033.400406,4903.011187
1337.674679,8438.347739,-4589.276840,4903.011187
1337.675009,9178.553681,-3849.070898,5515.887586
1337.675338,9992.780217,-2960.823768,5822.325785
1337.675667,10288.862594,-2072.576638,5975.544884
1337.675996,9326.594869,-1554.432478,4826.401637
1337.676325,8882.471304,-3997.112087,4290.134789
1337.676654,8142.265362,-5847.626942,4060.306139
1337.676983,7105.977043,-7402.059420,3217.601092
1337.677313,6439.791695,-9326.594869,3370.820191
1337.677642,5699.585753,-9992.780217,3140.991542
1337.677971,4737.318029,-10362.883188,3140.991542
1337.678300,4515.256246,-9844.739029,3447.429741
1337.678629,5255.462188,-8216.285956,3983.696590
1337.678958,6957.935855,-5033.400406,3600.648841
1337.679288,8734.430116,-3923.091493,4290.134789
1337.679617,9770.718434,-3182.885551,4826.401637
1337.679946,9770.718434,-4219.173869,4749.792088
1337.680275,8364.327145,-4737.318029,3294.210641
1337.680604,6587.832884,-5625.565159,2681.334243
1337.680933,6143.709319,-6587.832884,2451.505594
1337.681262,6143.709319,-7328.038826,2757.943793
1337.681591,6439.791695,-8660.409521,3217.601092
1337.681920,6143.709319,-8734.430116,3370.820191
1337.682250,6365.771101,-8660.409521,4290.134789
1337.682579,7105.977043,-8512.368333,4673.182538
1337.682908,7772.162391,-7254.018232,4749.792088
1337.683237,7698.141797,-6439.791695,4366.744339
1337.683566,7254.018232,-5033.400406,3983.696590
1337.683895,6809.894666,-3775.050304,3830.477490
1337.684224,7772.162391,-2516.700203,3677.258390
1337.684553,8734.430116,-1998.556043,3983.696590
1337.684882,8808.450710,-3108.864956,4366.744339
1337.685211,8290.306550,-4737.318029,4136.915689
1337.685541,7105.977043,-7105.977043,3370.820191
1337.685870,5847.626942,-9474.636058,2604.724693
1337.686199,4515.256246,-10658.965565,1991.848295
1337.686528,3997.112087,-11695.253884,1838.629195
1337.686857,3775.050304,-11251.130318,2068.457845
1337.687186,4367.215058,-10140.821405,2145.067394
1337.687515,4959.379811,-7698.141797,2221.676944
1337.687844,6143.709319,-5995.668130,2451.505594
1337.688173,7846.182985,-5477.523971,3064.381992
1337.688503,8216.285956,-4811.338623,3907.087040
1337.688832,8512.368333,-4293.194464,3983.696590
1337.689161,9252.574275,-2664.741391,4290.134789
1337.689490,9992.780217,-2146.597232,4443.353888
1337.689819,9770.718434,-3034.844362,3294.210641
1337.690148,9400.615463,-4219.173869,2681.334243
1337.690477,7920.203579,-6217.729913,1762.019645
1337.690806,6143.709319,-8068.244768,1225.752797
1337.691135,4959.379811,-9918.759623,1608.800546
1337.691464,4737.318029,-11843.295072,1378.971896
1337.691794,5033.400406,-11325.150913,2298.286494
1337.692123,4811.338623,-10658.965565,2604.724693
1337.692452,5329.482782,-6883.915261,1915.238745
1337.692781,6143.709319,-4589.276840,2451.505594
1337.693110,7328.038826,-3108.864956,2681.334243
1337.693439,8512.368333,-2368.659014,2911.162892
1337.693768,9326.594869,-1480.411884,3217.601092
1337.694097,9770.718434,-1628.453072,2987.772442
1337.694426,9844.739029,-3108.864956,2221.676944
1337.694756,8586.388927,-5995.668130,2681.334243
1337.695085,7179.997637,-8512.368333,2681.334243
1337.695414,6217.729913,-10288.862594,612.876398
1337.695743,5255.462188,-10584.944971,459.657299
1337.696072,4959.379811,-11547.212695,1072.533697
1337.696401,5773.606348,-10732.986159,842.705048
1337.696730,4959.379811,-8290.306550,229.828649
1337.697059,4071.132681,-7105.977043,-229.828649
1337.697388,5107.421000,-5699.585753,76.609550
1337.697717,7698.141797,-4515.256246,2145.067394
1337.698047,9844.739029,-4293.194464,3217.601092
1337.698376,10140.821405,-2368.659014,2911.162892
1337.698705,9474.636058,-2294.638420,2374.896044
1337.699034,9030.512492,-3478.967927,2068.457845
1337.699363,7772.162391,-5107.421000,1149.143247
1337.699692,6883.915261,-6957.935855,919.314598
1337.700021,6291.750507,-8660.409521,689.485948
1337.700350,6439.791695,-10807.006753,919.314598
1337.700679,5329.482782,-11251.130318,1225.752797
1337.701008,4737.318029,-10214.842000,459.657299
1337.701338,4515.256246,-7476.080014,153.219100
1337.701667,4885.359217,-5625.565159,766.095498
1337.701996,6957.935855,-4737.318029,1149.143247
1337.702325,8586.388927,-3775.050304,2068.457845
1337.702654,8882.471304,-3775.050304,1685.410096
1337.702983,7920.203579,-3182.885551,1072.533697
1337.703312,7254.018232,-4515.256246,612.876398
1337.703641,7254.018232,-5699.585753,536.266849
1337.703970,7624.121203,-7179.997637,995.924147
1337.704300,7920.203579,-8068.244768,1072.533697
1337.704629,7550.100608,-8734.430116,1378.971896
1337.704958,6365.771101,-8882.471304,459.657299
1337.705287,5255.462188,-8956.491898,0.000000
1337.705616,5551.544565,-8956.491898,459.657299
1337.705945,6217.729913,-8290.306550,1149.143247
1337.706274,7550.100608,-7328.038826,1608.800546
1337.706603,7476.080014,-5477.523971,1762.019645
1337.706932,6957.935855,-4515.256246,919.314598
1337.707261,5551.544565,-3701.029710,0.000000
1337.707591,5107.421000,-4071.132681,153.219100
1337.707920,6217.729913,-5255.462188,306.438199
1337.708249,8142.265362,-6809.894666,1915.238745
1337.708578,9104.533087,-6661.853478,2298.286494
1337.708907,8290.306550,-7105.977043,1762.019645
1337.709236,7031.956449,-8438.347739,1532.190996
1337.709565,6661.853478,-7476.080014,459.657299
1337.709894,6735.874072,-7402.059420,229.828649
1337.710223,7105.977043,-7254.018232,689.485948
1337.710553,7105.977043,-7105.977043,995.924147
1337.710882,6661.853478,-8068.244768,459.657299
1337.711211,5995.668130,-7254.018232,766.095498
1337.711540,5699.585753,-6291.750507,536.266849
1337.711869,6439.791695,-5329.482782,1072.533697
1337.712198,7105.977043,-5699.585753,2221.676944
1337.712527,7846.182985,-5847.626942,1225.752797
1337.712856,7402.059420,-4737.318029,536.266849
1337.713185,7105.977043,-4959.379811,306.438199
1337.713514,7624.121203,-5181.441594,229.828649
1337.713844,8364.327145,-5181.441594,1685.410096
1337.714173,8142.265362,-6513.812290,1608.800546
1337.714502,8512.368333,-7254.018232,1762.019645
1337.714831,7402.059420,-7994.224174,1685.410096
1337.715160,5847.626942,-8512.368333,536.266849
1337.715489,4959.379811,-8734.430116,919.314598
1337.715818,5329.482782,-8290.306550,1149.143247
1337.716147,5921.647536,-7624.121203,766.095498
1337.716476,5921.647536,-7105.977043,919.314598
1337.716805,6143.709319,-5255.462188,689.485948
1337.717135,6365.771101,-3997.112087,-76.609550
1337.717464,7772.162391,-4367.215058,995.924147
1337.717793,8956.491898,-3627.009116,1915.238745
1337.718122,10436.903782,-4663.297435,2451.505594
1337.718451,10510.924376,-5551.544565,2757.943793
1337.718780,8512.368333,-6143.709319,1532.190996
1337.719109,6661.853478,-7476.080014,536.266849
1337.719438,5403.503377,-8290.306550,459.657299
1337.719767,4959.379811,-8808.450710,995.924147
1337.720097,5551.544565,-8956.491898,536.266849
1337.720426,6587.832884,-9252.574275,1838.629195
1337.720755,6883.915261,-8068.244768,1072.533697
1337.721084,6069.688724,-6143.709319,536.266849
1337.721413,6069.688724,-4885.359217,229.828649
1337.721742,6217.729913,-4515.256246,383.047749
1337.722071,8216.285956,-4589.276840,2068.457845
1337.722400,9178.553681,-4737.318029,2528.115143
