#time,accel_x,accel_y,accel_z
1322.159611,7550.100608,-5995.668130,842.705048
1322.159942,7179.997637,-6143.709319,766.095498
1322.160272,7179.997637,-6143.709319,1149.143247
1322.160602,7402.059420,-6439.791695,1072.533697
1322.160932,7254.018232,-6143.709319,995.924147
1322.161262,7105.977043,-6217.729913,842.705048
1322.161592,7105.977043,-6513.812290,842.705048
1322.161922,6809.894666,-6143.709319,1149.143247
1322.162253,7105.977043,-6735.874072,1149.143247
1322.162583,7105.977043,-6513.812290,919.314598
1322.162913,6957.935855,-6809.894666,842.705048
1322.163243,6809.894666,-7031.956449,1302.362347
1322.163573,6513.812290,-6809.894666,919.314598
1322.163903,6587.832884,-7105.977043,1072.533697
1322.164233,6513.812290,-6661.853478,995.924147
1322.164564,6957.935855,-6735.874072,995.924147
1322.164894,7179.997637,-6957.935855,919.314598
1322.165224,7179.997637,-6291.750507,1608.800546
1322.165554,7105.977043,-6513.812290,995.924147
1322.165884,7105.977043,-6365.771101,1149.143247
1322.166214,6883.915261,-6735.874072,689.485948
1322.166544,7105.977043,-6957.935855,612.876398
1322.166875,7105.977043,-6439.791695,995.924147
1322.167205,7105.977043,-6587.832884,1149.143247
1322.167535,7105.977043,-6069.688724,1149.143247
1322.167865,6957.935855,-6587.832884,1762.019645
1322.168195,6809.894666,-6365.771101,1225.752797
1322.168525,6883.915261,-6291.750507,995.924147
1322.168855,6291.750507,-6661.853478,995.924147
1322.169185,6365.771101,-6587.832884,919.314598
1322.169516,7254.018232,-7105.977043,842.705048
1322.169846,6883.915261,-6957.935855,1225.752797
1322.170176,6809.894666,-7031.956449,1149.143247
1322.170506,6661.853478,-6883.915261,1225.752797
1322.170836,6735.874072,-6957.935855,1302.362347
1322.171166,7105.977043,-6809.894666,1149.143247
1322.171496,6735.874072,-6661.853478,1149.143247
1322.171827,7105.977043,-6883.915261,995.924147
1322.172157,7179.997637,-6809.894666,766.095498
1322.172487,7328.038826,-6587.832884,1302.362347
1322.172817,7179.997637,-6513.812290,842.705048
1322.173147,7402.059420,-6069.688724,1149.143247
1322.173477,7105.977043,-6513.812290,766.095498
1322.173807,7031.956449,-6587.832884,766.095498
1322.174138,7105.977043,-6291.750507,689.485948
1322.174468,7328.038826,-6143.709319,995.924147
1322.174798,7105.977043,-6291.750507,1149.143247
1322.175128,7105.977043,-6217.729913,1225.752797
1322.175458,7031.956449,-5699.585753,1455.581446
1322.175788,7254.018232,-6069.688724,1225.752797
1322.176118,7105.977043,-6069.688724,995.924147
1322.176449,6661.853478,-6217.729913,1072.533697
1322.176779,7105.977043,-6587.832884,995.924147
1322.177109,6957.935855,-6217.729913,1838.629195
1322.177439,6883.915261,-6439.791695,842.705048
1322.177769,6809.894666,-7031.956449,842.705048
1322.178099,6735.874072,-6587.832884,1149.143247
1322.178429,6735.874072,-7105.977043,842.705048
1322.178760,7105.977043,-6513.812290,919.314598
1322.179090,6809.894666,-6587.832884,1225.752797
1322.179420,7402.059420,-6957.935855,995.924147
1322.179750,7105.977043,-6365.771101,1455.581446
1322.180080,7105.977043,-5995.668130,689.485948
1322.180410,7179.997637,-6513.812290,995.924147
1322.180740,7105.977043,-6439.791695,919.314598
1322.181071,7031.956449,-6735.874072,766.095498
1322.181401,7031.956449,-6439.791695,1149.143247
1322.181731,7179.997637,-5921.647536,919.314598
1322.182061,7031.956449,-6439.791695,1149.143247
1322.182391,6809.894666,-6513.812290,1072.533697
1322.182721,6809.894666,-6513.812290,842.705048
1322.183051,7402.059420,-6365.771101,689.485948
1322.183381,6587.832884,-6883.915261,1072.533697
1322.183712,6291.750507,-6439.791695,1149.143247
1322.184042,6587.832884,-6809.894666,1225.752797
1322.184372,6735.874072,-6957.935855,1455.581446
1322.184702,6587.832884,-6587.832884,1532.190996
1322.185032,6883.915261,-6809.894666,1072.533697
1322.185362,6735.874072,-6957.935855,1072.533697
1322.185692,6661.853478,-7105.977043,383.047749
1322.186023,6883.915261,-6957.935855,536.266849
1322.186353,6661.853478,-7254.018232,919.314598
1322.186683,7105.977043,-7031.956449,766.095498
1322.187013,7105.977043,-6439.791695,995.924147
1322.187343,7031.956449,-6809.894666,1072.533697
1322.187673,7105.977043,-5847.626942,1149.143247
1322.188003,7105.977043,-6365.771101,1149.143247
1322.188334,7105.977043,-6587.832884,1072.533697
1322.188664,7179.997637,-6365.771101,1149.143247
1322.188994,7254.018232,-5625.565159,612.876398
1322.189324,7328.038826,-6069.688724,1072.533697
1322.189654,7254.018232,-5921.647536,766.095498
1322.189984,7179.997637,-6439.791695,1302.362347
1322.190314,7031.956449,-6365.771101,842.705048
1322.190645,7031.956449,-6365.771101,995.924147
1322.190975,6809.894666,-6365.771101,459.657299
1322.191305,6809.894666,-6809.894666,919.314598
1322.191635,7105.977043,-6809.894666,1378.971896
1322.191965,7031.956449,-6513.812290,1072.533697
1322.192295,7105.977043,-6513.812290,842.705048
1322.192625,6957.935855,-6365.771101,1072.533697
1322.192956,7105.977043,-6809.894666,1072.533697
1322.193286,6809.894666,-6957.935855,995.924147
1322.193616,6365.771101,-6661.853478,689.485948
1322.193946,7031.956449,-6809.894666,919.314598
1322.194276,7105.977043,-6661.853478,1149.143247
1322.194606,7105.977043,-6513.812290,995.924147
1322.194936,7031.956449,-6809.894666,995.924147
1322.195267,7105.977043,-6587.832884,919.314598
1322.195597,6957.935855,-6439.791695,766.095498
1322.195927,6809.894666,-6735.874072,1149.143247
1322.196257,6883.915261,-6291.750507,1072.533697
1322.196587,7402.059420,-6069.688724,1072.533697
1322.196917,7772.162391,-6513.812290,919.314598
1322.197247,7105.977043,-6365.771101,1302.362347
1322.197578,7105.977043,-6439.791695,1149.143247
1322.197908,6735.874072,-6587.832884,995.924147
1322.198238,6809.894666,-6069.688724,1149.143247
1322.198568,6439.791695,-7105.977043,1149.143247
1322.198898,6661.853478,-7105.977043,1378.971896
1322.199228,6809.894666,-6809.894666,1149.143247
1322.199558,6513.812290,-6735.874072,689.485948
1322.199888,6439.791695,-6439.791695,1991.848295
1322.200219,6587.832884,-6735.874072,995.924147
1322.200549,6587.832884,-6809.894666,766.095498
1322.200879,6809.894666,-7031.956449,1149.143247
1322.201209,6957.935855,-6883.915261,995.924147
1322.201539,7476.080014,-7031.956449,842.705048
1322.201869,7105.977043,-6513.812290,919.314598
1322.202199,7105.977043,-6513.812290,536.266849
1322.202530,7105.977043,-6513.812290,689.485948
1322.202860,6883.915261,-6069.688724,919.314598
1322.203190,6957.935855,-6661.853478,995.924147
1322.203520,7105.977043,-6069.688724,1149.143247
1322.203850,7328.038826,-6365.771101,1378.971896
1322.204180,7254.018232,-6217.729913,1072.533697
1322.204510,6883.915261,-6217.729913,1608.800546
1322.204841,6957.935855,-6587.832884,919.314598
1322.205171,7179.997637,-6291.750507,1149.143247
1322.205501,6809.894666,-6587.832884,919.314598
1322.205831,6809.894666,-6217.729913,1149.143247
1322.206161,7105.977043,-6513.812290,1072.533697
1322.206491,7105.977043,-6587.832884,1225.752797
1322.206821,6957.935855,-6661.853478,1072.533697
1322.207152,6735.874072,-6513.812290,1149.143247
1322.207482,6587.832884,-6291.750507,1608.800546
1322.207812,6735.874072,-7031.956449,536.266849
1322.208142,6661.853478,-6587.832884,612.876398
1322.208472,6809.894666,-6587.832884,1149.143247
1322.208802,7402.059420,-6513.812290,995.924147
1322.209132,7179.997637,-6069.688724,1455.581446
1322.209463,7402.059420,-6587.832884,1149.143247
1322.209793,7105.977043,-6291.750507,919.314598
1322.210123,7476.080014,-6513.812290,919.314598
1322.210453,7328.038826,-6809.894666,919.314598
1322.210783,7105.977043,-6513.812290,1532.190996
1322.211113,7105.977043,-6217.729913,766.095498
1322.211443,7031.956449,-6513.812290,1149.143247
1322.211774,6513.812290,-6291.750507,1608.800546
1322.212104,6735.874072,-6439.791695,612.876398
1322.212434,7031.956449,-6661.853478,1302.362347
1322.212764,6587.832884,-6217.729913,842.705048
1322.213094,6735.874072,-6291.750507,995.924147
1322.213424,7031.956449,-6513.812290,1455.581446
1322.213754,6735.874072,-7031.956449,1302.362347
1322.214084,6809.894666,-6587.832884,1225.752797
1322.214415,6661.853478,-7179.997637,1149.143247
1322.214745,6809.894666,-6809.894666,1149.143247
1322.215075,6587.832884,-6883.915261,766.095498
1322.215405,6291.750507,-7105.977043,689.485948
1322.215735,6661.853478,-7254.018232,1225.752797
1322.216065,7105.977043,-7105.977043,919.314598
1322.216395,7105.977043,-6513.812290,1532.190996
1322.216726,7179.997637,-6439.791695,919.314598
1322.217056,7105.977043,-6439.791695,995.924147
1322.217386,7031.956449,-6291.750507,1072.533697
1322.217716,7105.977043,-6513.812290,459.657299
1322.218046,7105.977043,-6069.688724,1149.143247
1322.218376,7402.059420,-5921.647536,919.314598
1322.218706,7105.977043,-6439.791695,1149.143247
1322.219037,7105.977043,-6587.832884,1149.143247
1322.219367,7031.956449,-6291.750507,1149.143247
1322.219697,6513.812290,-6439.791695,1378.971896
1322.220027,6883.915261,-6291.750507,919.314598
1322.220357,6735.874072,-6587.832884,842.705048
1322.220687,7105.977043,-6661.853478,842.705048
1322.221017,7179.997637,-6661.853478,995.924147
1322.221348,7031.956449,-6439.791695,1149.143247
1322.221678,6957.935855,-6513.812290,612.876398
1322.222008,6735.874072,-6587.832884,1072.533697
1322.222338,6809.894666,-7105.977043,689.485948
1322.222668,6957.935855,-7031.956449,689.485948
1322.222998,6735.874072,-6883.915261,919.314598
1322.223328,6883.915261,-6883.915261,842.705048
1322.223656,7179.997637,-6587.832884,1225.752797
1322.223985,7105.977043,-6513.812290,1608.800546
1322.224315,7254.018232,-6513.812290,1072.533697
1322.224644,7179.997637,-6069.688724,1225.752797
1322.224973,6809.894666,-6587.832884,689.485948
1322.225303,6883.915261,-6513.812290,1225.752797
1322.225632,7254.018232,-6217.729913,1225.752797
1322.225962,7254.018232,-6439.791695,919.314598
1322.226291,7105.977043,-6291.750507,1149.143247
1322.226620,7105.977043,-6513.812290,1149.143247
1322.226950,6809.894666,-6365.771101,1225.752797
1322.227279,6513.812290,-6291.750507,1072.533697
1322.227609,6439.791695,-6661.853478,766.095498
1322.227938,6661.853478,-6661.853478,766.095498
1322.228268,6883.915261,-6957.935855,1378.971896
1322.228597,6587.832884,-6661.853478,995.924147
1322.228926,6957.935855,-7031.956449,1149.143247
1322.229256,6735.874072,-6735.874072,995.924147
1322.229585,6957.935855,-6883.915261,842.705048
1322.229915,6439.791695,-6809.894666,612.876398
1322.230244,7031.956449,-6957.935855,459.657299
1322.230574,6957.935855,-7179.997637,919.314598
1322.230903,7179.997637,-6883.915261,1072.533697
1322.231232,7179.997637,-6291.750507,689.485948
1322.231562,7402.059420,-5995.668130,1455.581446
1322.231891,7698.141797,-6735.874072,1149.143247
1322.232221,7105.977043,-6587.832884,919.314598
1322.232550,6957.935855,-6513.812290,995.924147
1322.232880,7031.956449,-6291.750507,1149.143247
1322.233209,7328.038826,-5847.626942,1302.362347
1322.233538,7031.956449,-6291.750507,1149.143247
1322.233868,6809.894666,-6587.832884,1302.362347
1322.234197,7105.977043,-6513.812290,1149.143247
1322.234527,6957.935855,-6513.812290,995.924147
1322.234856,6365.771101,-6291.750507,1149.143247
1322.235185,6587.832884,-6661.853478,842.705048
1322.235515,6883.915261,-6883.915261,842.705048
1322.235844,7031.956449,-6661.853478,1149.143247
1322.236174,7402.059420,-6661.853478,995.924147
1322.236503,6883.915261,-6661.853478,1225.752797
1322.236833,6883.915261,-6587.832884,1225.752797
1322.237162,6661.853478,-6661.853478,689.485948
1322.237491,6735.874072,-6439.791695,919.314598
1322.237821,6957.935855,-6809.894666,919.314598
1322.238150,7179.997637,-6809.894666,1532.190996
1322.238480,7031.956449,-6513.812290,1072.533697
1322.238809,6735.874072,-6513.812290,766.095498
1322.239139,7105.977043,-6587.832884,766.095498
1322.239468,7402.059420,-6439.791695,1149.143247
1322.239797,7105.977043,-6291.750507,919.314598
1322.240127,7179.997637,-6069.688724,995.924147
1322.240456,7328.038826,-6439.791695,842.705048
1322.240786,7328.038826,-5921.647536,1149.143247
1322.241115,6957.935855,-6291.750507,919.314598
1322.241444,7031.956449,-6365.771101,1302.362347
1322.241774,6735.874072,-6439.791695,919.314598
1322.242103,7031.956449,-6291.750507,1225.752797
1322.242433,6809.894666,-6661.853478,1378.971896
1322.242762,6957.935855,-6883.915261,1149.143247
1322.243092,6661.853478,-6809.894666,1378.971896
1322.243421,6735.874072,-6957.935855,842.705048
1322.243750,6883.915261,-6809.894666,1455.581446
1322.244080,6513.812290,-6735.874072,536.266849
1322.244409,6513.812290,-6957.935855,689.485948
1322.244739,7105.977043,-6735.874072,766.095498
1322.245068,6957.935855,-7031.956449,995.924147
1322.245398,7476.080014,-7105.977043,1378.971896
1322.245727,7328.038826,-6217.729913,1149.143247
1322.246056,7328.038826,-6883.915261,995.924147
1322.246386,7254.018232,-6661.853478,1072.533697
1322.246715,7328.038826,-6587.832884,1302.362347
1322.247045,6883.915261,-6735.874072,995.924147
1322.247374,6883.915261,-6439.791695,919.314598
1322.247704,7105.977043,-6439.791695,995.924147
1322.248033,6957.935855,-6291.750507,842.705048
1322.248362,6809.894666,-6069.688724,1455.581446
1322.248692,7105.977043,-5995.668130,1225.752797
1322.249021,7105.977043,-5995.668130,1378.971896
1322.249351,7031.956449,-6291.750507,1072.533697
1322.249680,6883.915261,-6513.812290,1149.143247
1322.250009,7550.100608,-6513.812290,1378.971896
1322.250339,7031.956449,-6883.915261,1455.581446
1322.250668,7031.956449,-6587.832884,919.314598
1322.250998,7031.956449,-6957.935855,1072.533697
1322.251327,7031.956449,-6587.832884,919.314598
1322.251657,6809.894666,-7105.977043,306.438199
1322.251986,6587.832884,-6883.915261,842.705048
1322.252315,6735.874072,-7031.956449,1072.533697
1322.252645,7179.997637,-6587.832884,766.095498
1322.252974,7031.956449,-6069.688724,2068.457845
1322.253304,7105.977043,-6143.709319,1149.143247
1322.253633,6883.915261,-6365.771101,919.314598
1322.253963,7105.977043,-6587.832884,1302.362347
1322.254292,7254.018232,-7105.977043,842.705048
1322.254621,7105.977043,-6587.832884,1378.971896
1322.254951,7476.080014,-6143.709319,1149.143247
1322.255280,7254.018232,-6513.812290,1149.143247
1322.255610,7105.977043,-6365.771101,1685.410096
1322.255939,7105.977043,-5995.668130,689.485948
1322.256269,7031.956449,-6439.791695,612.876398
1322.256598,6513.812290,-6513.812290,995.924147
1322.256927,6587.832884,-6809.894666,842.705048
1322.257257,6587.832884,-6661.853478,919.314598
1322.257586,7105.977043,-6957.935855,1149.143247
1322.257916,6735.874072,-6661.853478,919.314598
1322.258245,6809.894666,-6513.812290,919.314598
1322.258574,6809.894666,-6661.853478,1072.533697
1322.258904,7105.977043,-6883.915261,1149.143247
1322.259233,6587.832884,-6735.874072,842.705048
1322.259563,6735.874072,-7179.997637,919.314598
1322.259892,7105.977043,-6957.935855,919.314598
1322.260222,7179.997637,-6883.915261,919.314598
1322.260551,7402.059420,-6587.832884,995.924147
1322.260880,7105.977043,-6661.853478,919.314598
1322.261210,7105.977043,-6439.791695,1072.533697
1322.261539,7031.956449,-6365.771101,919.314598
1322.261869,7402.059420,-6291.750507,1072.533697
1322.262198,7179.997637,-6069.688724,1302.362347
1322.262528,7402.059420,-6291.750507,919.314598
1322.262857,7179.997637,-6365.771101,1302.362347
1322.263186,7105.977043,-6439.791695,1225.752797
1322.263516,6883.915261,-6217.729913,1149.143247
1322.263845,6735.874072,-6661.853478,1072.533697
1322.264175,6661.853478,-6661.853478,995.924147
1322.264504,6883.915261,-6883.915261,1225.752797
1322.264833,7105.977043,-7105.977043,1838.629195
1322.265163,7105.977043,-6661.853478,1149.143247
1322.265492,6957.935855,-6587.832884,995.924147
1322.265822,6883.915261,-6439.791695,919.314598
1322.266151,6587.832884,-6735.874072,919.314598
1322.266481,6809.894666,-6439.791695,995.924147
1322.266810,6587.832884,-6809.894666,842.705048
1322.267139,6883.915261,-6957.935855,842.705048
1322.267469,6957.935855,-6587.832884,1225.752797
1322.267798,7328.038826,-6069.688724,1072.533697
1322.268128,7105.977043,-6439.791695,995.924147
1322.268457,6957.935855,-6809.894666,1302.362347
1322.268787,6957.935855,-6513.812290,689.485948
1322.269116,7105.977043,-6809.894666,1225.752797
1322.269445,7402.059420,-6513.812290,1455.581446
1322.269775,7328.038826,-6069.688724,1072.533697
1322.270104,6883.915261,-5995.668130,1149.143247
1322.270434,6735.874072,-6587.832884,1149.143247
1322.270763,6957.935855,-6069.688724,919.314598
1322.271093,6883.915261,-6217.729913,689.485948
1322.271422,6439.791695,-6513.812290,842.705048
1322.271751,6809.894666,-6957.935855,1149.143247
1322.272081,7031.956449,-6957.935855,919.314598
1322.272410,6735.874072,-7031.956449,1149.143247
1322.272740,7031.956449,-6809.894666,995.924147
1322.273069,7031.956449,-6513.812290,1225.752797
1322.273398,7476.080014,-5699.585753,612.876398
1322.273728,7402.059420,-5847.626942,1149.143247
1322.274057,7994.224174,-5477.523971,1685.410096
1322.274387,8142.265362,-6513.812290,919.314598
1322.274716,7624.121203,-6439.791695,842.705048
1322.275046,6513.812290,-6809.894666,306.438199
1322.275375,5995.668130,-7698.141797,0.000000
1322.275704,7031.956449,-7031.956449,689.485948
1322.276034,7624.121203,-6883.915261,842.705048
1322.276363,8142.265362,-6217.729913,1378.971896
1322.276693,8290.306550,-5255.462188,1378.971896
1322.277022,8438.347739,-4367.215058,1762.019645
1322.277352,8586.388927,-4145.153275,1378.971896
1322.277681,8068.244768,-5033.400406,1225.752797
1322.278010,8882.471304,-3701.029710,1072.533697
1322.278340,8882.471304,-4663.297435,1532.190996
1322.278669,8808.450710,-3701.029710,1149.143247
1322.278999,7550.100608,-5107.421000,766.095498
1322.279328,7698.141797,-4959.379811,842.705048
1322.279658,8364.327145,-4737.318029,689.485948
1322.279987,8808.450710,-6143.709319,995.924147
1322.280316,8364.327145,-5329.482782,1685.410096
1322.280646,8068.244768,-5551.544565,306.438199
1322.280975,7550.100608,-5477.523971,0.000000
1322.281305,7476.080014,-5033.400406,536.266849
1322.281634,8216.285956,-4959.379811,766.095498
1322.281963,8808.450710,-4293.194464,1378.971896
1322.282293,9030.512492,-4737.318029,1072.533697
1322.282622,9326.594869,-3404.947333,1302.362347
1322.282952,9474.636058,-3552.988522,1608.800546
1322.283281,9622.677246,-3330.926739,1455.581446
1322.283611,9770.718434,-3256.906145,1225.752797
1322.283940,9326.594869,-3923.091493,1225.752797
1322.284269,9548.656652,-3552.988522,612.876398
1322.284599,9252.574275,-4663.297435,766.095498
1322.284928,9104.533087,-5403.503377,1532.190996
1322.285258,9104.533087,-5403.503377,1378.971896
1322.285587,8364.327145,-5921.647536,1302.362347
1322.285917,8290.306550,-5033.400406,842.705048
1322.286246,7772.162391,-5625.565159,766.095498
1322.286575,8364.327145,-5033.400406,1378.971896
1322.286905,8586.388927,-4663.297435,995.924147
1322.287234,8956.491898,-3849.070898,1149.143247
1322.287564,9030.512492,-4293.194464,1685.410096
1322.287893,8364.327145,-4441.235652,919.314598
1322.288223,8808.450710,-4441.235652,536.266849
1322.288552,8660.409521,-4737.318029,229.828649
1322.288881,9104.533087,-5329.482782,459.657299
1322.289211,9252.574275,-6069.688724,76.609550
1322.289540,8956.491898,-5921.647536,383.047749
1322.289870,8882.471304,-5329.482782,306.438199
1322.290199,9252.574275,-4885.359217,0.000000
1322.290528,9400.615463,-5181.441594,153.219100
1322.290858,9400.615463,-5107.421000,766.095498
1322.291187,9474.636058,-3997.112087,1378.971896
1322.291517,9918.759623,-3552.988522,1915.238745
1322.291846,9400.615463,-3108.864956,2145.067394
1322.292176,9474.636058,-2886.803174,2451.505594
1322.292505,9474.636058,-3256.906145,1838.629195
1322.292834,9474.636058,-3182.885551,1608.800546
1322.293164,9326.594869,-3256.906145,1302.362347
1322.293493,8808.450710,-3404.947333,919.314598
1322.293823,9178.553681,-3627.009116,612.876398
1322.294152,9178.553681,-4293.194464,76.609550
1322.294482,8808.450710,-4737.318029,-459.657299
1322.294811,7994.224174,-5477.523971,-306.438199
1322.295140,8734.430116,-6069.688724,766.095498
1322.295470,8882.471304,-6439.791695,0.000000
1322.295799,8512.368333,-6291.750507,306.438199
1322.296129,8216.285956,-6439.791695,1225.752797
1322.296458,8734.430116,-5995.668130,1838.629195
1322.296787,9178.553681,-4737.318029,2681.334243
1322.297117,9030.512492,-4441.235652,1915.238745
1322.297446,8956.491898,-3108.864956,1762.019645
1322.297776,9474.636058,-2368.659014,1532.190996
1322.298105,9474.636058,-1924.535449,612.876398
1322.298435,10140.821405,-1850.514855,689.485948
1322.298764,10955.047942,-1702.473667,459.657299
1322.299093,10881.027347,-1924.535449,0.000000
1322.299423,10140.821405,-3182.885551,76.609550
1322.299752,9400.615463,-4737.318029,536.266849
1322.300082,8734.430116,-6661.853478,306.438199
1322.300411,8068.244768,-7550.100608,919.314598
1322.300741,7179.997637,-8068.244768,1072.533697
1322.301070,7254.018232,-8142.265362,1225.752797
1322.301399,7179.997637,-8438.347739,1149.143247
1322.301729,6661.853478,-7179.997637,689.485948
1322.302058,6513.812290,-5995.668130,612.876398
1322.302388,7105.977043,-3923.091493,1072.533697
1322.302717,8290.306550,-3923.091493,1762.019645
1322.303047,9178.553681,-2960.823768,1455.581446
1322.303376,9030.512492,-1924.535449,1532.190996
1322.303705,9548.656652,-1258.350101,1149.143247
1322.304035,10807.006753,-1036.288319,995.924147
1322.304364,11991.336260,-1332.370696,1225.752797
1322.304694,12583.501014,-2738.761985,1532.190996
1322.305023,11843.295072,-3478.967927,1302.362347
1322.305352,10066.800811,-4737.318029,1072.533697
1322.305682,8290.306550,-6735.874072,1302.362347
1322.306011,7105.977043,-8808.450710,1532.190996
1322.306341,5477.523971,-9104.533087,536.266849
1322.306670,3404.947333,-9104.533087,0.000000
1322.307000,3108.864956,-9030.512492,-306.438199
1322.307329,4885.359217,-7254.018232,0.000000
1322.307658,6587.832884,-7772.162391,383.047749
1322.307988,7772.162391,-5773.606348,1225.752797
1322.308317,8882.471304,-4811.338623,995.924147
1322.308647,9474.636058,-3627.009116,1225.752797
1322.308976,8956.491898,-2812.782580,1608.800546
1322.309306,9178.553681,-3256.906145,1072.533697
1322.309635,10436.903782,-2294.638420,1455.581446
1322.309964,11547.212695,-1998.556043,1455.581446
1322.310294,12139.377449,-3775.050304,1455.581446
1322.310623,11177.109724,-4071.132681,3064.381992
1322.310953,9622.677246,-6143.709319,2298.286494
1322.311282,7328.038826,-6365.771101,1455.581446
1322.311612,4737.318029,-7105.977043,459.657299
1322.311941,4071.132681,-8512.368333,0.000000
1322.312270,3256.906145,-9548.656652,-383.047749
1322.312600,3552.988522,-9992.780217,0.000000
1322.312929,4663.297435,-8956.491898,153.219100
1322.313259,6143.709319,-6957.935855,459.657299
1322.313588,7476.080014,-5921.647536,76.609550
1322.313917,7624.121203,-5181.441594,383.047749
1322.314247,7920.203579,-5107.421000,459.657299
1322.314576,9030.512492,-4367.215058,766.095498
1322.314906,9844.739029,-3923.091493,2145.067394
1322.315235,9474.636058,-5033.400406,1915.238745
1322.315565,9918.759623,-5033.400406,2298.286494
1322.315894,9178.553681,-7624.121203,2604.724693
1322.316223,7402.059420,-7698.141797,2528.115143
1322.316553,5921.647536,-8142.265362,766.095498
1322.316882,4441.235652,-9548.656652,842.705048
1322.317212,3256.906145,-9474.636058,306.438199
1322.317541,2590.720797,-9918.759623,-306.438199
1322.317871,3108.864956,-7402.059420,1072.533697
1322.318200,4885.359217,-4737.318029,612.876398
1322.318529,7994.224174,-3256.906145,1762.019645
1322.318859,10140.821405,-370.102971,1838.629195
1322.319188,10807.006753,-888.247130,1455.581446
1322.319518,11473.192101,-1776.494261,1532.190996
1322.319847,9918.759623,-3701.029710,1762.019645
1322.320176,9474.636058,-5255.462188,1455.581446
1322.320506,8142.265362,-6439.791695,1302.362347
1322.320835,7031.956449,-8734.430116,1455.581446
1322.321165,6143.709319,-11695.253884,1685.410096
1322.321494,4737.318029,-11695.253884,1685.410096
1322.321824,4071.132681,-11177.109724,0.000000
1322.322153,3330.926739,-10066.800811,459.657299
1322.322482,3552.988522,-8734.430116,-229.828649
1322.322812,3034.844362,-7772.162391,-383.047749
1322.323141,4219.173869,-5921.647536,-766.095498
1322.323471,6217.729913,-3923.091493,766.095498
1322.323800,9104.533087,-3404.947333,1225.752797
1322.324130,10510.924376,-2960.823768,3064.381992
1322.324459,10510.924376,-3775.050304,2834.553343
1322.324788,9178.553681,-4885.359217,1991.848295
1322.325118,7920.203579,-5773.606348,919.314598
1322.325447,6513.812290,-8068.244768,612.876398
1322.325777,4737.318029,-10584.944971,612.876398
1322.326106,5181.441594,-11843.295072,1225.752797
1322.326436,4959.379811,-11251.130318,1455.581446
1322.326765,5107.421000,-8364.327145,995.924147
1322.327095,5551.544565,-5551.544565,842.705048
1322.327424,6883.915261,-4737.318029,306.438199
1322.327754,7402.059420,-4145.153275,842.705048
1322.328083,7920.203579,-2146.597232,459.657299
1322.328413,7994.224174,-2886.803174,383.047749
1322.328742,7920.203579,-4145.153275,919.314598
1322.329072,8364.327145,-5255.462188,1225.752797
1322.329401,8512.368333,-6735.874072,1532.190996
1322.329731,8364.327145,-6809.894666,766.095498
1322.330060,8438.347739,-8142.265362,1838.629195
1322.330390,7920.203579,-9178.553681,1991.848295
1322.330719,6735.874072,-9474.636058,1608.800546
1322.331048,5699.585753,-8364.327145,612.876398
1322.331378,4737.318029,-6883.915261,-995.924147
1322.331707,4737.318029,-5921.647536,-689.485948
1322.332037,5847.626942,-5773.606348,0.000000
1322.332366,7031.956449,-4885.359217,766.095498
1322.332696,7920.203579,-3923.091493,1685.410096
1322.333025,8438.347739,-3701.029710,2145.067394
1322.333355,8956.491898,-4515.256246,1838.629195
1322.333684,7920.203579,-5403.503377,1378.971896
1322.334014,6735.874072,-6883.915261,0.000000
1322.334343,5699.585753,-7476.080014,-306.438199
1322.334673,5995.668130,-9474.636058,536.266849
1322.335002,6217.729913,-11473.192101,1685.410096
1322.335332,6957.935855,-9474.636058,1762.019645
1322.335661,7179.997637,-8290.306550,1149.143247
1322.335991,7031.956449,-7105.977043,0.000000
1322.336320,6809.894666,-5329.482782,842.705048
1322.336650,7254.018232,-4737.318029,306.438199
1322.336979,7328.038826,-3034.844362,689.485948
1322.337309,7179.997637,-3849.070898,842.705048
1322.337638,7624.121203,-4219.173869,1762.019645
1322.337968,8068.244768,-5329.482782,1455.581446
1322.338297,7476.080014,-6513.812290,1608.800546
1322.338627,7772.162391,-6513.812290,1072.533697
1322.338956,7698.141797,-7402.059420,1532.190996
1322.339286,7698.141797,-8364.327145,1532.190996
1322.339615,6439.791695,-9104.533087,919.314598
1322.339945,5847.626942,-8364.327145,383.047749
1322.340274,5477.523971,-7624.121203,-383.047749
1322.340604,5551.544565,-7476.080014,76.609550
1322.340933,6809.894666,-6883.915261,1225.752797
1322.341262,8068.244768,-5921.647536,1838.629195
1322.341592,8290.306550,-4811.338623,2145.067394
1322.341921,7402.059420,-4663.297435,2068.457845
1322.342251,7031.956449,-4663.297435,1378.971896
1322.342580,6735.874072,-5329.482782,766.095498
1322.342910,5625.565159,-6291.750507,229.828649
1322.343239,5625.565159,-7105.977043,306.438199
1322.343569,6735.874072,-8438.347739,1378.971896
1322.343898,7476.080014,-8364.327145,1455.581446
1322.344228,8068.244768,-7994.224174,1991.848295
1322.344557,7402.059420,-7328.038826,1378.971896
1322.344887,6735.874072,-6513.812290,536.266849
1322.345216,6291.750507,-6735.874072,766.095498
1322.345546,6291.750507,-5477.523971,689.485948
1322.345875,6883.915261,-5255.462188,919.314598
1322.346205,6809.894666,-5847.626942,1685.410096
1322.346534,6809.894666,-5921.647536,1915.238745
1322.346864,6365.771101,-5921.647536,919.314598
1322.347193,5921.647536,-7031.956449,689.485948
1322.347523,5773.606348,-7328.038826,459.657299
1322.347852,6365.771101,-7698.141797,842.705048
1322.348182,6365.771101,-7698.141797,1225.752797
1322.348511,7254.018232,-7254.018232,306.438199
1322.348841,7402.059420,-6513.812290,536.266849
1322.349170,7550.100608,-6809.894666,536.266849
1322.349500,7624.121203,-6883.915261,842.705048
1322.349829,8216.285956,-6365.771101,1455.581446
1322.350159,7994.224174,-6291.750507,1378.971896
1322.350488,8142.265362,-5847.626942,1762.019645
1322.350818,7105.977043,-5921.647536,1915.238745
1322.351147,6661.853478,-5699.585753,689.485948
1322.351476,5773.606348,-7105.977043,919.314598
1322.351806,5699.585753,-7994.224174,919.314598
1322.352135,5625.565159,-7550.100608,536.266849
1322.352465,6513.812290,-7179.997637,1302.362347
1322.352794,7772.162391,-5255.462188,1991.848295
1322.353124,8290.306550,-5773.606348,1072.533697
1322.353453,8068.244768,-4885.359217,1225.752797
1322.353783,7846.182985,-4367.215058,229.828649
1322.354112,7772.162391,-4811.338623,383.047749
1322.354442,7698.141797,-5255.462188,612.876398
1322.354771,7402.059420,-6365.771101,919.314598
1322.355101,7550.100608,-7105.977043,1991.848295
1322.355430,7402.059420,-6513.812290,1685.410096
1322.355760,6587.832884,-6661.853478,1302.362347
1322.356089,5403.503377,-7550.100608,842.705048
1322.356419,5477.523971,-8586.388927,306.438199
1322.356748,5403.503377,-8586.388927,229.828649
1322.357078,6587.832884,-7254.018232,1302.362347
1322.357407,6957.935855,-6439.791695,-306.438199
1322.357737,6883.915261,-5477.523971,383.047749
1322.358066,7550.100608,-4959.379811,306.438199
1322.358396,8734.430116,-5403.503377,1225.752797
1322.358725,9400.615463,-5107.421000,2145.067394
1322.359055,8882.471304,-5329.482782,1991.848295
1322.359384,7476.080014,-5625.565159,766.095498
1322.359714,6587.832884,-6439.791695,919.314598
1322.360043,5625.565159,-7550.100608,383.047749
1322.360373,5181.441594,-8882.471304,76.609550
1322.360702,4589.276840,-10214.842000,919.314598
1322.361032,5033.400406,-10510.924376,1302.362347
1322.361361,6513.812290,-8808.450710,1302.362347
1322.361691,6661.853478,-6883.915261,766.095498
1322.362020,6587.832884,-5921.647536,919.314598
1322.362349,6957.935855,-4811.338623,0.000000
1322.362679,7624.121203,-4293.194464,459.657299
1322.363008,8364.327145,-4071.132681,995.924147
1322.363338,9326.594869,-4959.379811,1302.362347
1322.363667,8808.450710,-5477.523971,2068.457845
1322.363997,7920.203579,-5625.565159,1685.410096
1322.364326,6809.894666,-6587.832884,459.657299
1322.364656,6439.791695,-7402.059420,612.876398
1322.364985,6143.709319,-8364.327145,995.924147
1322.365315,4959.379811,-9696.697840,689.485948
1322.365644,5033.400406,-8586.388927,995.924147
1322.365974,5847.626942,-7179.997637,229.828649
1322.366303,6587.832884,-7105.977043,1072.533697
1322.366633,7105.977043,-5625.565159,1532.190996
1322.366962,7920.203579,-4811.338623,1378.971896
1322.367292,8734.430116,-2960.823768,1838.629195
1322.367621,8882.471304,-2960.823768,1685.410096
1322.367951,8734.430116,-3849.070898,2145.067394
1322.368280,7994.224174,-4959.379811,2145.067394
1322.368610,6809.894666,-6365.771101,153.219100
1322.368939,4885.359217,-8068.244768,383.047749
1322.369269,4441.235652,-10066.800811,612.876398
1322.369598,5033.400406,-11547.212695,536.266849
1322.369928,5403.503377,-9992.780217,1378.971896
1322.370257,5995.668130,-7994.224174,1149.143247
1322.370587,6883.915261,-6957.935855,995.924147
1322.370916,7476.080014,-5107.421000,1915.238745
1322.371246,7105.977043,-4515.256246,689.485948
1322.371575,7254.018232,-3182.885551,536.266849
1322.371905,8142.265362,-3849.070898,919.314598
1322.372234,8216.285956,-4959.379811,1455.581446
1322.372563,8216.285956,-6143.709319,1838.629195
1322.372893,7105.977043,-6217.729913,1302.362347
1322.373222,6883.915261,-7105.977043,766.095498
1322.373552,5921.647536,-7920.203579,995.924147
1322.373881,5699.585753,-8808.450710,842.705048
1322.374211,6217.729913,-8882.471304,919.314598
1322.374540,6291.750507,-7846.182985,842.705048
1322.374870,6143.709319,-7476.080014,306.438199
1322.375199,6291.750507,-6883.915261,306.438199
1322.375529,7328.038826,-5995.668130,1225.752797
1322.375858,8438.347739,-5107.421000,1149.143247
1322.376188,7994.224174,-4589.276840,1762.019645
1322.376517,7402.059420,-4589.276840,1302.362347
1322.376847,7328.038826,-5921.647536,1762.019645
1322.377176,7476.080014,-5625.565159,766.095498
1322.377506,6291.750507,-7105.977043,306.438199
1322.377835,6365.771101,-7254.018232,842.705048
1322.378165,6513.812290,-9104.533087,995.924147
1322.378494,6809.894666,-9104.533087,1149.143247
1322.378824,6661.853478,-7698.141797,1225.752797
1322.379153,7105.977043,-7031.956449,842.705048
1322.379483,7328.038826,-5403.503377,459.657299
1322.379812,7624.121203,-4293.194464,919.314598
1322.380142,8290.306550,-3775.050304,1532.190996
1322.380471,8882.471304,-3034.844362,1608.800546
1322.380801,8586.388927,-3849.070898,1838.629195
1322.381130,7550.100608,-4959.379811,1685.410096
1322.381460,7328.038826,-5699.585753,1225.752797
1322.381789,6513.812290,-6365.771101,612.876398
1322.382119,6513.812290,-7846.182985,842.705048
1322.382448,6291.750507,-9030.512492,1378.971896
1322.382777,6365.771101,-9548.656652,1532.190996
1322.383107,6365.771101,-8364.327145,1225.752797
1322.383436,6143.709319,-7328.038826,229.828649
1322.383766,5847.626942,-7105.977043,536.266849
1322.384095,6365.771101,-6661.853478,229.828649
1322.384425,6883.915261,-6735.874072,229.828649
1322.384754,7550.100608,-4885.359217,1302.362347
1322.385084,7772.162391,-4811.338623,1302.362347
1322.385413,8438.347739,-5477.523971,2145.067394
1322.385743,7846.182985,-5847.626942,1685.410096
1322.386072,6735.874072,-6735.874072,612.876398
1322.386402,5773.606348,-7105.977043,459.657299
1322.386731,5403.503377,-8734.430116,0.000000
1322.387061,5477.523971,-10214.842000,919.314598
1322.387390,5921.647536,-9548.656652,1072.533697
1322.387720,6439.791695,-8512.368333,1149.143247
1322.388049,6957.935855,-7031.956449,689.485948
1322.388379,6957.935855,-5773.606348,1532.190996
1322.388708,7328.038826,-5551.544565,1302.362347
1322.389038,7550.100608,-4441.235652,2451.505594
1322.389367,7550.100608,-2738.761985,1378.971896
1322.389697,8142.265362,-3849.070898,995.924147
1322.390026,8142.265362,-4367.215058,2298.286494
1322.390356,7179.997637,-5847.626942,995.924147
1322.390685,6439.791695,-6217.729913,536.266849
1322.391015,5921.647536,-7920.203579,689.485948
1322.391344,6291.750507,-9992.780217,1149.143247
1322.391674,6957.935855,-10214.842000,1915.238745
1322.392003,6735.874072,-8142.265362,995.924147
1322.392333,6513.812290,-7328.038826,153.219100
1322.392662,6735.874072,-6587.832884,536.266849
1322.392991,7328.038826,-5403.503377,842.705048
1322.393321,7254.018232,-5403.503377,766.095498
1322.393650,7328.038826,-4441.235652,1685.410096
1322.393980,7254.018232,-4293.194464,842.705048
1322.394309,7105.977043,-5107.421000,1455.581446
1322.394639,7105.977043,-6365.771101,1838.629195
1322.394968,7402.059420,-7254.018232,1302.362347
1322.395298,7105.977043,-7698.141797,1302.362347
1322.395627,5921.647536,-9030.512492,919.314598
1322.395957,5995.668130,-8142.265362,1072.533697
1322.396286,6661.853478,-7994.224174,842.705048
1322.396616,7105.977043,-7328.038826,919.314598
1322.396945,7624.121203,-6069.688724,689.485948
1322.397275,7624.121203,-5329.482782,919.314598
1322.397604,7476.080014,-4811.338623,1149.143247
1322.397934,7550.100608,-4737.318029,1225.752797
1322.398263,7254.018232,-4515.256246,766.095498
1322.398593,6365.771101,-5699.585753,1455.581446
1322.398922,6217.729913,-6291.750507,919.314598
1322.399252,6143.709319,-6439.791695,536.266849
1322.399581,5921.647536,-7179.997637,76.609550
1322.399911,6513.812290,-8290.306550,1225.752797
1322.400240,7179.997637,-8512.368333,1302.362347
1322.400570,7772.162391,-7698.141797,919.314598
1322.400899,7476.080014,-7031.956449,842.705048
1322.401229,7920.203579,-5625.565159,689.485948
1322.401558,7772.162391,-5107.421000,612.876398
1322.401888,8216.285956,-4663.297435,919.314598
1322.402217,8216.285956,-4219.173869,1608.800546
1322.402547,7846.182985,-5107.421000,1762.019645
1322.402876,7105.977043,-5403.503377,1149.143247
1322.403205,5255.462188,-6069.688724,842.705048
1322.403535,4811.338623,-7550.100608,0.000000
1322.403864,4737.318029,-7994.224174,76.609550
1322.404194,4959.379811,-9474.636058,919.314598
1322.404523,5699.585753,-10214.842000,1608.800546
1322.404853,6735.874072,-8660.409521,1685.410096
1322.405182,7105.977043,-7402.059420,766.095498
1322.405512,7105.977043,-5773.606348,536.266849
1322.405841,7920.203579,-5255.462188,306.438199
1322.406171,8216.285956,-4737.318029,766.095498
1322.406500,8734.430116,-4663.297435,1532.190996
1322.406830,8512.368333,-4663.297435,1455.581446
1322.407159,7846.182985,-4885.359217,1455.581446
1322.407489,7105.977043,-5773.606348,1378.971896
1322.407818,6513.812290,-6513.812290,536.266849
1322.408148,5921.647536,-7772.162391,536.266849
1322.408477,5551.544565,-8068.244768,536.266849
1322.408807,5181.441594,-8216.285956,1378.971896
1322.409136,5921.647536,-8882.471304,1072.533697
1322.409466,6587.832884,-7994.224174,612.876398
1322.409795,7031.956449,-7105.977043,612.876398
1322.410125,7402.059420,-6217.729913,1225.752797
1322.410454,7994.224174,-4737.318029,1762.019645
1322.410784,8290.306550,-4737.318029,1378.971896
1322.411113,8142.265362,-4071.132681,1762.019645
1322.411443,7254.018232,-4811.338623,1225.752797
1322.411772,7179.997637,-5995.668130,1225.752797
1322.412102,6587.832884,-6365.771101,919.314598
1322.412431,5699.585753,-7402.059420,306.438199
1322.412761,5255.462188,-8438.347739,306.438199
1322.413090,4737.318029,-9770.718434,919.314598
1322.413419,5255.462188,-9474.636058,1378.971896
1322.413749,6217.729913,-8068.244768,842.705048
1322.414078,6957.935855,-6661.853478,612.876398
1322.414408,7698.141797,-5699.585753,842.705048
1322.414737,8586.388927,-4367.215058,1302.362347
1322.415067,8364.327145,-3775.050304,1149.143247
1322.415396,8364.327145,-3552.988522,1378.971896
1322.415726,8586.388927,-4145.153275,1455.581446
1322.416055,8068.244768,-5033.400406,1838.629195
1322.416385,7105.977043,-5403.503377,1149.143247
1322.416714,6587.832884,-6661.853478,1225.752797
1322.417044,6809.894666,-8216.285956,919.314598
1322.417373,6365.771101,-8512.368333,1149.143247
1322.417703,5847.626942,-8808.450710,1072.533697
1322.418032,5921.647536,-7476.080014,1225.752797
1322.418362,6365.771101,-7254.018232,612.876398
1322.418691,6513.812290,-6291.750507,536.266849
1322.419021,7105.977043,-6143.709319,689.485948
1322.419350,8068.244768,-5255.462188,919.314598
1322.419680,8068.244768,-4959.379811,1302.362347
1322.420009,7328.038826,-5107.421000,1685.410096
1322.420339,7328.038826,-5403.503377,1149.143247
1322.420668,7031.956449,-6291.750507,995.924147
1322.420998,7179.997637,-7105.977043,842.705048
1322.421327,5921.647536,-8216.285956,689.485948
1322.421657,5847.626942,-9178.553681,612.876398
1322.421986,6143.709319,-9474.636058,995.924147
1322.422316,6217.729913,-8660.409521,536.266849
1322.422645,6957.935855,-7624.121203,1072.533697
1322.422975,7254.018232,-6217.729913,536.266849
1322.423304,7476.080014,-4959.379811,306.438199
1322.423634,7402.059420,-4441.235652,842.705048
1322.423963,7772.162391,-3849.070898,1685.410096
1322.424292,8586.388927,-4367.215058,1225.752797
1322.424622,8364.327145,-5107.421000,1991.848295
1322.424951,7328.038826,-5551.544565,1532.190996
1322.425281,6365.771101,-5995.668130,612.876398
1322.425610,6217.729913,-7031.956449,459.657299
1322.425939,6957.935855,-8438.347739,1608.800546
1322.426269,7105.977043,-9548.656652,1685.410096
1322.426598,6735.874072,-8882.471304,1838.629195
1322.426927,5995.668130,-7179.997637,995.924147
1322.427257,5773.606348,-6883.915261,0.000000
1322.427586,5921.647536,-6143.709319,306.438199
1322.427915,6587.832884,-5921.647536,766.095498
1322.428245,7920.203579,-5403.503377,612.876398
1322.428574,8660.409521,-4441.235652,1608.800546
1322.428903,7994.224174,-5033.400406,1378.971896
1322.429233,7328.038826,-5551.544565,1378.971896
1322.429562,7031.956449,-6365.771101,689.485948
1322.429891,6365.771101,-8586.388927,995.924147
1322.430221,5329.482782,-9178.553681,612.876398
1322.430550,5773.606348,-9844.739029,689.485948
1322.430879,5773.606348,-9474.636058,689.485948
1322.431209,6291.750507,-7846.182985,842.705048
1322.431538,7476.080014,-6513.812290,919.314598
1322.431868,7476.080014,-5995.668130,459.657299
1322.432197,7328.038826,-4737.318029,919.314598
1322.432526,7105.977043,-4293.194464,689.485948
1322.432856,7920.203579,-4367.215058,995.924147
1322.433185,8364.327145,-4367.215058,1915.238745
1322.433514,7772.162391,-5107.421000,2451.505594
1322.433844,7772.162391,-5921.647536,2068.457845
1322.434173,7105.977043,-6291.750507,842.705048
1322.434502,6365.771101,-7254.018232,1378.971896
1322.434832,5699.585753,-8956.491898,766.095498
1322.435161,5995.668130,-9474.636058,459.657299
1322.435490,6291.750507,-8216.285956,153.219100
1322.435820,6217.729913,-7698.141797,0.000000
1322.436149,6735.874072,-6809.894666,1225.752797
1322.436478,7105.977043,-5921.647536,153.219100
1322.436808,6883.915261,-5625.565159,842.705048
1322.437137,6957.935855,-5033.400406,536.266849
1322.437466,7476.080014,-5181.441594,1378.971896
1322.437796,7698.141797,-5625.565159,1838.629195
1322.438125,7179.997637,-6365.771101,1455.581446
1322.438455,6513.812290,-6883.915261,919.314598
1322.438784,6143.709319,-7179.997637,536.266849
1322.439113,6143.709319,-8882.471304,1302.362347
1322.439443,6217.729913,-9104.533087,1455.581446
1322.439772,6587.832884,-7698.141797,1149.143247
1322.440101,7105.977043,-7328.038826,536.266849
1322.440431,6809.894666,-5995.668130,919.314598
1322.440760,7846.182985,-5773.606348,995.924147
1322.441089,7846.182985,-5329.482782,1149.143247
1322.441419,7624.121203,-4589.276840,1378.971896
1322.441748,7402.059420,-4885.359217,1225.752797
1322.442077,7846.182985,-4959.379811,1991.848295
1322.442407,7105.977043,-5995.668130,1225.752797
1322.442736,6735.874072,-6217.729913,459.657299
1322.443065,6439.791695,-6513.812290,1072.533697
1322.443395,7105.977043,-7550.100608,1225.752797
1322.443724,7328.038826,-7994.224174,1532.190996
1322.444053,7402.059420,-7476.080014,1225.752797
1322.444383,7105.977043,-7624.121203,383.047749
1322.444712,6661.853478,-6365.771101,383.047749
1322.445042,7328.038826,-5255.462188,995.924147
1322.445371,7624.121203,-5181.441594,995.924147
1322.445700,8364.327145,-4737.318029,1991.848295
1322.446030,7846.182985,-5033.400406,1762.019645
1322.446359,7179.997637,-5847.626942,1685.410096
1322.446688,6439.791695,-5699.585753,1532.190996
1322.447018,5773.606348,-7105.977043,536.266849
1322.447347,5255.462188,-8438.347739,612.876398
1322.447676,4885.359217,-8882.471304,919.314598
1322.448006,5477.523971,-9770.718434,1072.533697
1322.448335,6217.729913,-8734.430116,1608.800546
1322.448664,6735.874072,-7994.224174,1225.752797
1322.448994,7105.977043,-6513.812290,995.924147
1322.449323,7105.977043,-4885.359217,536.266849
1322.449652,6957.935855,-4515.256246,919.314598
1322.449982,7624.121203,-4737.318029,766.095498
1322.450311,7846.182985,-4589.276840,1225.752797
1322.450640,7994.224174,-5255.462188,1532.190996
1322.450970,7624.121203,-4737.318029,1838.629195
1322.451299,7402.059420,-5773.606348,1838.629195
1322.451629,7179.997637,-6735.874072,1072.533697
1322.451958,6513.812290,-7920.203579,1302.362347
1322.452287,6439.791695,-8364.327145,1455.581446
1322.452617,6587.832884,-7846.182985,1072.533697
1322.452946,6365.771101,-7402.059420,1072.533697
1322.453275,6587.832884,-6809.894666,536.266849
1322.453605,7179.997637,-6439.791695,1149.143247
1322.453934,7920.203579,-5625.565159,1302.362347
1322.454263,8216.285956,-5403.503377,1302.362347
1322.454593,7402.059420,-5033.400406,995.924147
1322.454922,7179.997637,-5181.441594,1225.752797
1322.455251,6735.874072,-6661.853478,1225.752797
1322.455581,6439.791695,-6883.915261,1608.800546
1322.455910,5699.585753,-7846.182985,1072.533697
1322.456239,5033.400406,-9104.533087,612.876398
1322.456569,4737.318029,-9474.636058,536.266849
1322.456898,5551.544565,-9622.677246,1378.971896
1322.457227,6735.874072,-8808.450710,1072.533697
1322.457557,6735.874072,-7328.038826,919.314598
1322.457886,7846.182985,-5773.606348,995.924147
1322.458216,8290.306550,-4589.276840,919.314598
1322.458545,8512.368333,-4145.153275,1072.533697
1322.458874,8290.306550,-3182.885551,1225.752797
1322.459204,7994.224174,-4145.153275,1225.752797
1322.459533,8438.347739,-4589.276840,2068.457845
1322.459862,7550.100608,-4811.338623,766.095498
1322.460192,6365.771101,-5847.626942,1072.533697
1322.460521,6439.791695,-7179.997637,459.657299
1322.460850,6735.874072,-9178.553681,1455.581446
1322.461180,7031.956449,-9178.553681,1762.019645
1322.461509,6365.771101,-8068.244768,1302.362347
1322.461838,6365.771101,-6587.832884,689.485948
1322.462168,7031.956449,-6069.688724,612.876398
1322.462497,7254.018232,-5921.647536,689.485948
1322.462826,7402.059420,-4959.379811,995.924147
1322.463156,7994.224174,-4367.215058,1762.019645
1322.463485,8142.265362,-4219.173869,1685.410096
1322.463814,7254.018232,-5477.523971,1225.752797
1322.464144,6217.729913,-6513.812290,1302.362347
1322.464473,5551.544565,-7402.059420,76.609550
1322.464803,5255.462188,-9474.636058,-229.828649
1322.465132,5329.482782,-9326.594869,612.876398
1322.465461,6365.771101,-10066.800811,995.924147
1322.465791,6809.894666,-9030.512492,1455.581446
1322.466120,6661.853478,-7994.224174,766.095498
1322.466449,6883.915261,-6957.935855,536.266849
1322.466779,7624.121203,-4737.318029,536.266849
1322.467108,7846.182985,-4589.276840,842.705048
1322.467437,7920.203579,-3701.029710,1149.143247
1322.467767,7920.203579,-3701.029710,1685.410096
1322.468096,8512.368333,-4663.297435,1838.629195
1322.468425,7772.162391,-5181.441594,1762.019645
1322.468755,7624.121203,-5699.585753,1225.752797
1322.469084,6735.874072,-6809.894666,919.314598
1322.469413,6439.791695,-8512.368333,459.657299
1322.469743,5921.647536,-9400.615463,1225.752797
1322.470072,5847.626942,-8586.388927,689.485948
1322.470401,6439.791695,-7994.224174,919.314598
1322.470731,6809.894666,-6365.771101,1072.533697
1322.471060,6957.935855,-6291.750507,689.485948
1322.471390,7105.977043,-5181.441594,766.095498
1322.471719,7550.100608,-4811.338623,919.314598
1322.472048,8216.285956,-5107.421000,1608.800546
1322.472378,8216.285956,-4589.276840,2221.676944
1322.472707,7179.997637,-5625.565159,1762.019645
1322.473036,6957.935855,-5699.585753,536.266849
1322.473366,6143.709319,-7550.100608,229.828649
1322.473695,6069.688724,-8882.471304,689.485948
1322.474024,5921.647536,-10140.821405,995.924147
1322.474354,6143.709319,-9770.718434,689.485948
1322.474683,5995.668130,-8660.409521,612.876398
1322.475012,6143.709319,-7698.141797,536.266849
1322.475342,6735.874072,-5625.565159,306.438199
1322.475671,7031.956449,-5847.626942,1072.533697
1322.476000,7105.977043,-3923.091493,995.924147
1322.476330,7698.141797,-3034.844362,1149.143247
1322.476659,8216.285956,-3997.112087,1838.629195
1322.476988,8512.368333,-4145.153275,2528.115143
1322.477318,8142.265362,-5329.482782,1532.190996
1322.477647,7179.997637,-5921.647536,995.924147
1322.477977,6143.709319,-7476.080014,459.657299
1322.478306,6217.729913,-9252.574275,1532.190996
1322.478635,6587.832884,-9030.512492,1608.800546
1322.478965,6735.874072,-9030.512492,766.095498
1322.479294,6513.812290,-7179.997637,459.657299
1322.479623,6587.832884,-6587.832884,536.266849
1322.479953,7031.956449,-5625.565159,536.266849
1322.480282,7846.182985,-5033.400406,995.924147
1322.480611,7476.080014,-5773.606348,995.924147
1322.480941,7402.059420,-4959.379811,1378.971896
1322.481270,7254.018232,-5773.606348,1762.019645
1322.481599,7105.977043,-5773.606348,612.876398
1322.481929,6661.853478,-6365.771101,459.657299
1322.482258,6069.688724,-7105.977043,689.485948
1322.482587,6143.709319,-8512.368333,612.876398
1322.482917,6587.832884,-9474.636058,689.485948
1322.483246,6365.771101,-8956.491898,1378.971896
1322.483575,6439.791695,-7031.956449,153.219100
1322.483905,6661.853478,-6735.874072,766.095498
1322.484234,7105.977043,-5773.606348,766.095498
1322.484564,7254.018232,-5255.462188,612.876398
1322.484893,7402.059420,-4219.173869,1302.362347
1322.485222,7920.203579,-4293.194464,1378.971896
1322.485552,8142.265362,-5107.421000,1915.238745
1322.485881,7920.203579,-4737.318029,2451.505594
1322.486210,6883.915261,-5329.482782,1072.533697
1322.486540,7105.977043,-6735.874072,536.266849
1322.486869,6883.915261,-7402.059420,1302.362347
1322.487198,7031.956449,-8586.388927,1302.362347
1322.487528,8068.244768,-7994.224174,2298.286494
1322.487857,7550.100608,-7328.038826,1378.971896
1322.488186,7402.059420,-6143.709319,689.485948
1322.488516,7179.997637,-5699.585753,612.876398
1322.488845,7105.977043,-5255.462188,612.876398
1322.489174,7105.977043,-4737.318029,383.047749
1322.489504,6957.935855,-4811.338623,1378.971896
1322.489833,7476.080014,-5477.523971,1762.019645
1322.490162,7254.018232,-6365.771101,1225.752797
1322.490492,6439.791695,-6217.729913,1915.238745
1322.490821,5329.482782,-7254.018232,153.219100
1322.491151,5551.544565,-8808.450710,536.266849
1322.491480,5773.606348,-9992.780217,1378.971896
1322.491809,6365.771101,-9844.739029,1455.581446
1322.492139,7105.977043,-7698.141797,459.657299
1322.492468,6735.874072,-7328.038826,1149.143247
1322.492797,6661.853478,-6513.812290,0.000000
1322.493127,6587.832884,-5699.585753,383.047749
1322.493456,6365.771101,-4737.318029,536.266849
1322.493785,7254.018232,-5255.462188,842.705048
1322.494115,7328.038826,-5699.585753,1532.190996
1322.494444,7105.977043,-5625.565159,1685.410096
1322.494773,6957.935855,-5773.606348,842.705048
1322.495103,6957.935855,-6439.791695,842.705048
1322.495432,6365.771101,-7105.977043,229.828649
1322.495761,6661.853478,-8512.368333,1455.581446
1322.496091,7624.121203,-8586.388927,2145.067394
1322.496420,7846.182985,-7846.182985,1378.971896
1322.496749,7772.162391,-6365.771101,1302.362347
1322.497079,7105.977043,-5329.482782,612.876398
1322.497408,7994.224174,-4663.297435,612.876398
1322.497738,8438.347739,-4515.256246,1608.800546
1322.498067,8216.285956,-4589.276840,2068.457845
1322.498396,8438.347739,-4441.235652,1762.019645
1322.498726,7476.080014,-5255.462188,1915.238745
1322.499055,6735.874072,-6069.688724,1072.533697
1322.499384,5625.565159,-7105.977043,459.657299
1322.499714,4663.297435,-7846.182985,612.876398
1322.500043,4515.256246,-10140.821405,229.828649
1322.500372,4737.318029,-10658.965565,919.314598
1322.500702,5107.421000,-9474.636058,1072.533697
1322.501031,6217.729913,-8216.285956,229.828649
1322.501360,6661.853478,-6513.812290,689.485948
1322.501690,7105.977043,-5551.544565,766.095498
1322.502019,8216.285956,-4663.297435,842.705048
1322.502348,8512.368333,-3404.947333,1072.533697
1322.502678,8882.471304,-4441.235652,1608.800546
1322.503007,8734.430116,-4219.173869,1762.019645
1322.503336,8290.306550,-4589.276840,1378.971896
1322.503666,7624.121203,-5995.668130,995.924147
1322.503995,6957.935855,-6661.853478,1532.190996
1322.504325,7179.997637,-8068.244768,1608.800546
1322.504654,7105.977043,-8364.327145,1302.362347
1322.504983,6513.812290,-7698.141797,1149.143247
1322.505313,6883.915261,-7698.141797,995.924147
1322.505642,6735.874072,-6291.750507,689.485948
1322.505971,6661.853478,-5921.647536,766.095498
1322.506301,7105.977043,-5181.441594,612.876398
1322.506630,7179.997637,-4959.379811,1225.752797
1322.506959,7550.100608,-5329.482782,1915.238745
1322.507289,7476.080014,-5033.400406,2145.067394
1322.507618,7105.977043,-5773.606348,1302.362347
1322.507947,6513.812290,-6439.791695,689.485948
1322.508277,5773.606348,-7476.080014,0.000000
1322.508606,5403.503377,-8808.450710,229.828649
1322.508935,5551.544565,-9770.718434,919.314598
1322.509265,6513.812290,-9844.739029,1149.143247
1322.509594,6513.812290,-8364.327145,919.314598
1322.509923,6587.832884,-7031.956449,-153.219100
1322.510253,7105.977043,-6661.853478,-459.657299
1322.510582,7105.977043,-5181.441594,153.219100
1322.510912,7105.977043,-5329.482782,689.485948
1322.511241,7550.100608,-4811.338623,1225.752797
1322.511570,7624.121203,-4293.194464,1762.019645
1322.511900,8290.306550,-5551.544565,1762.019645
1322.512229,7476.080014,-5773.606348,1225.752797
1322.512558,6957.935855,-5847.626942,842.705048
1322.512888,6957.935855,-7105.977043,995.924147
1322.513217,7624.121203,-7698.141797,2221.676944
1322.513546,7624.121203,-8512.368333,2068.457845
1322.513876,7402.059420,-6957.935855,1455.581446
1322.514205,6883.915261,-6439.791695,842.705048
1322.514534,6735.874072,-5921.647536,459.657299
1322.514864,7254.018232,-5033.400406,1225.752797
1322.515193,7624.121203,-5181.441594,1455.581446
1322.515522,8068.244768,-5033.400406,1838.629195
1322.515852,7624.121203,-5329.482782,1532.190996
1322.516181,7179.997637,-5551.544565,1685.410096
1322.516510,6809.894666,-6217.729913,1149.143247
1322.516840,6143.709319,-7254.018232,766.095498
1322.517169,5625.565159,-8068.244768,0.000000
1322.517499,5403.503377,-9474.636058,459.657299
1322.517828,5847.626942,-9844.739029,995.924147
1322.518157,6439.791695,-8734.430116,612.876398
1322.518487,6439.791695,-8068.244768,995.924147
1322.518816,6883.915261,-5995.668130,383.047749
1322.519145,7179.997637,-5625.565159,306.438199
1322.519475,7698.141797,-5033.400406,842.705048
1322.519804,7550.100608,-4441.235652,842.705048
1322.520133,7402.059420,-4811.338623,1072.533697
1322.520463,7254.018232,-5403.503377,1378.971896
1322.520792,6439.791695,-5699.585753,842.705048
1322.521121,6735.874072,-6439.791695,995.924147
1322.521451,7105.977043,-7179.997637,1072.533697
1322.521780,6513.812290,-8068.244768,689.485948
1322.522109,6735.874072,-8586.388927,1225.752797
1322.522439,7179.997637,-8142.265362,1455.581446
1322.522768,7402.059420,-7254.018232,689.485948
1322.523097,7105.977043,-6439.791695,76.609550
1322.523427,6735.874072,-5403.503377,612.876398
1322.523756,7476.080014,-5255.462188,1072.533697
1322.524086,8142.265362,-4737.318029,1608.800546
1322.524415,8364.327145,-4737.318029,1532.190996
1322.524744,8364.327145,-5329.482782,1991.848295
1322.525074,7994.224174,-5329.482782,1532.190996
1322.525403,6735.874072,-6143.709319,0.000000
1322.525732,5403.503377,-7254.018232,153.219100
1322.526062,5181.441594,-8808.450710,536.266849
1322.526391,6069.688724,-10140.821405,1225.752797
1322.526720,6439.791695,-7994.224174,1532.190996
1322.527049,6735.874072,-7328.038826,919.314598
1322.527378,6661.853478,-6217.729913,0.000000
1322.527707,7105.977043,-6365.771101,383.047749
1322.528036,7402.059420,-6069.688724,1225.752797
1322.528366,7624.121203,-4811.338623,995.924147
1322.528695,7550.100608,-4885.359217,1149.143247
1322.529024,7105.977043,-4885.359217,1685.410096
1322.529353,7624.121203,-6069.688724,1302.362347
1322.529682,7254.018232,-5921.647536,1149.143247
1322.530011,6587.832884,-5995.668130,1149.143247
1322.530340,6883.915261,-7550.100608,689.485948
1322.530669,6735.874072,-8216.285956,1532.190996
1322.530998,6957.935855,-8290.306550,1225.752797
1322.531327,7105.977043,-7105.977043,459.657299
1322.531656,7105.977043,-6291.750507,995.924147
1322.531986,7402.059420,-5773.606348,689.485948
1322.532315,7624.121203,-5181.441594,766.095498
1322.532644,7846.182985,-4811.338623,1072.533697
1322.532973,7772.162391,-5477.523971,995.924147
1322.533302,7179.997637,-5329.482782,1532.190996
1322.533631,7105.977043,-6291.750507,1455.581446
1322.533960,6439.791695,-6513.812290,919.314598
1322.534289,5699.585753,-7328.038826,459.657299
1322.534618,5699.585753,-8438.347739,536.266849
1322.534947,5995.668130,-9474.636058,1455.581446
1322.535277,6735.874072,-8808.450710,1608.800546
1322.535606,7105.977043,-7698.141797,1072.533697
1322.535935,6957.935855,-6365.771101,536.266849
1322.536264,7254.018232,-6217.729913,1685.410096
1322.536593,7698.141797,-5699.585753,1072.533697
1322.536922,7328.038826,-4737.318029,1149.143247
1322.537251,6957.935855,-4885.359217,1072.533697
1322.537580,6513.812290,-5551.544565,1378.971896
1322.537909,7031.956449,-5995.668130,1225.752797
1322.538238,6957.935855,-6217.729913,1149.143247
1322.538567,6957.935855,-6809.894666,842.705048
1322.538897,6957.935855,-7179.997637,1225.752797
1322.539226,6365.771101,-8660.409521,1378.971896
1322.539555,6587.832884,-8956.491898,1149.143247
1322.539884,6735.874072,-8364.327145,995.924147
1322.540213,6883.915261,-6883.915261,306.438199
1322.540542,7105.977043,-5847.626942,919.314598
1322.540871,7920.203579,-5551.544565,1762.019645
1322.541200,8216.285956,-4515.256246,1149.143247
1322.541529,7994.224174,-4293.194464,1838.629195
1322.541858,7476.080014,-4663.297435,1455.581446
1322.542187,7254.018232,-5403.503377,1225.752797
1322.542517,5995.668130,-6291.750507,842.705048
1322.542846,5699.585753,-7550.100608,536.266849
1322.543175,5403.503377,-9030.512492,536.266849
1322.543504,5847.626942,-9622.677246,1378.971896
1322.543833,6513.812290,-9548.656652,1149.143247
1322.544162,6439.791695,-8290.306550,995.924147
1322.544491,6439.791695,-7550.100608,995.924147
1322.544820,6587.832884,-6365.771101,0.000000
1322.545149,7105.977043,-5403.503377,766.095498
1322.545478,7402.059420,-5181.441594,689.485948
1322.545807,7920.203579,-5107.421000,919.314598
1322.546137,7328.038826,-5403.503377,1302.362347
1322.546466,6809.894666,-5847.626942,1455.581446
1322.546795,6883.915261,-5625.565159,1072.533697
1322.547124,6883.915261,-5329.482782,1225.752797
1322.547453,7105.977043,-6365.771101,689.485948
1322.547782,7328.038826,-7031.956449,1532.190996
1322.548111,7772.162391,-7920.203579,2145.067394
1322.548440,6809.894666,-8956.491898,1378.971896
1322.548769,7031.956449,-4515.256246,459.657299
1322.549098,7031.956449,-5921.647536,689.485948
1322.549427,7772.162391,-5921.647536,1225.752797
1322.549757,8956.491898,-3552.988522,1608.800546
1322.550086,8586.388927,-5181.441594,1685.410096
1322.550415,8142.265362,-3034.844362,842.705048
1322.550744,7105.977043,-4737.318029,1455.581446
1322.551073,6439.791695,-6661.853478,1149.143247
1322.551402,6143.709319,-6809.894666,612.876398
1322.551731,5773.606348,-8290.306550,1378.971896
1322.552060,5921.647536,-8882.471304,919.314598
1322.552389,5921.647536,-9252.574275,842.705048
1322.552718,6069.688724,-8438.347739,689.485948
1322.553048,6143.709319,-8142.265362,459.657299
1322.553377,6735.874072,-6587.832884,383.047749
1322.553706,6735.874072,-5181.441594,0.000000
1322.554035,7476.080014,-5477.523971,229.828649
1322.554364,7920.203579,-5255.462188,919.314598
1322.554693,7920.203579,-5773.606348,1149.143247
1322.555022,7476.080014,-5551.544565,1455.581446
1322.555351,7105.977043,-5551.544565,1149.143247
1322.555680,7105.977043,-6143.709319,1149.143247
1322.556009,6735.874072,-7328.038826,459.657299
1322.556338,6365.771101,-8438.347739,995.924147
1322.556668,6143.709319,-8956.491898,1149.143247
1322.556997,6069.688724,-9252.574275,1072.533697
1322.557326,5773.606348,-7772.162391,766.095498
1322.557655,5847.626942,-6587.832884,306.438199
1322.557984,6809.894666,-6661.853478,459.657299
1322.558313,7476.080014,-5107.421000,842.705048
1322.558642,8586.388927,-4737.318029,1838.629195
1322.558971,8734.430116,-4071.132681,1762.019645
1322.559300,8364.327145,-4663.297435,1455.581446
1322.559629,7698.141797,-5477.523971,1532.190996
1322.559958,7179.997637,-5255.462188,1455.581446
1322.560288,7624.121203,-7179.997637,919.314598
1322.560617,6587.832884,-7624.121203,842.705048
1322.560946,6069.688724,-9400.615463,995.924147
1322.561275,5995.668130,-9400.615463,1072.533697
1322.561604,5921.647536,-7105.977043,689.485948
1322.561933,5921.647536,-7105.977043,229.828649
1322.562262,5847.626942,-5625.565159,0.000000
1322.562591,7031.956449,-5847.626942,842.705048
1322.562920,7846.182985,-5477.523971,1225.752797
1322.563249,7550.100608,-4811.338623,1608.800546
1322.563578,7328.038826,-5847.626942,1302.362347
1322.563908,7550.100608,-5477.523971,1378.971896
1322.564237,7179.997637,-6513.812290,1302.362347
1322.564566,6809.894666,-5699.585753,1072.533697
1322.564895,6809.894666,-6661.853478,1532.190996
1322.565224,6957.935855,-8142.265362,1302.362347
1322.565553,6883.915261,-8364.327145,1225.752797
1322.565882,6513.812290,-8364.327145,1072.533697
1322.566211,5773.606348,-7402.059420,689.485948
1322.566540,5699.585753,-6439.791695,0.000000
1322.566869,7105.977043,-5773.606348,689.485948
1322.567198,8586.388927,-4515.256246,1762.019645
1322.567528,9104.533087,-4441.235652,1838.629195
1322.567857,8660.409521,-3775.050304,1302.362347
1322.568186,7772.162391,-5329.482782,1608.800546
1322.568515,6809.894666,-6217.729913,689.485948
1322.568844,5773.606348,-7105.977043,536.266849
1322.569173,4515.256246,-8216.285956,842.705048
1322.569502,4959.379811,-9474.636058,612.876398
1322.569831,5403.503377,-9992.780217,1608.800546
1322.570160,6439.791695,-8364.327145,1302.362347
1322.570489,6883.915261,-6809.894666,1225.752797
1322.570819,7031.956449,-5699.585753,919.314598
1322.571148,7105.977043,-4959.379811,536.266849
1322.571477,7624.121203,-4811.338623,1608.800546
1322.571806,8438.347739,-4219.173869,1685.410096
1322.572135,8512.368333,-4663.297435,1838.629195
1322.572464,8142.265362,-5699.585753,2451.505594
1322.572793,7328.038826,-5773.606348,1532.190996
1322.573122,6883.915261,-6661.853478,766.095498
1322.573451,6365.771101,-7179.997637,766.095498
1322.573780,6069.688724,-8586.388927,842.705048
1322.574109,6587.832884,-9400.615463,1455.581446
1322.574439,6291.750507,-7772.162391,842.705048
1322.574768,5921.647536,-7772.162391,229.828649
1322.575097,5847.626942,-7402.059420,-306.438199
1322.575426,6513.812290,-6069.688724,153.219100
1322.575755,7328.038826,-5625.565159,612.876398
1322.576084,8586.388927,-4441.235652,1532.190996
1322.576413,9326.594869,-4737.318029,1915.238745
1322.576742,8512.368333,-4663.297435,2451.505594
1322.577071,8290.306550,-4737.318029,1532.190996
1322.577400,7476.080014,-5995.668130,689.485948
1322.577729,6883.915261,-6587.832884,766.095498
1322.578059,5921.647536,-8438.347739,689.485948
1322.578388,5773.606348,-9178.553681,1608.800546
1322.578717,6069.688724,-9474.636058,1762.019645
1322.579046,6439.791695,-7698.141797,1378.971896
1322.579375,6069.688724,-6661.853478,153.219100
1322.579704,5847.626942,-5329.482782,0.000000
1322.580033,6365.771101,-5107.421000,0.000000
1322.580362,7254.018232,-5625.565159,536.266849
1322.580691,7994.224174,-4885.359217,1532.190996
1322.581020,7920.203579,-4885.359217,1915.238745
1322.581349,8364.327145,-4885.359217,1762.019645
1322.581679,7328.038826,-5847.626942,1149.143247
1322.582008,6957.935855,-6809.894666,995.924147
1322.582337,6809.894666,-7698.141797,919.314598
1322.582666,7105.977043,-9030.512492,1302.362347
1322.582995,6883.915261,-8808.450710,995.924147
1322.583324,6217.729913,-8438.347739,612.876398
1322.583653,5773.606348,-7476.080014,76.609550
1322.583982,5625.565159,-7328.038826,153.219100
1322.584311,6143.709319,-6809.894666,229.828649
1322.584640,6883.915261,-4737.318029,766.095498
1322.584969,7550.100608,-4959.379811,919.314598
1322.585299,7698.141797,-4959.379811,1915.238745
1322.585628,7846.182985,-5255.462188,2068.457845
1322.585957,7772.162391,-5477.523971,1608.800546
1322.586286,6735.874072,-5625.565159,842.705048
1322.586615,6365.771101,-7550.100608,995.924147
1322.586944,6661.853478,-8734.430116,1225.752797
1322.587273,6883.915261,-9178.553681,1762.019645
1322.587602,6883.915261,-8068.244768,1838.629195
1322.587931,6735.874072,-6439.791695,383.047749
1322.588260,6735.874072,-5699.585753,229.828649
1322.588590,7105.977043,-6291.750507,536.266849
1322.588919,7624.121203,-5921.647536,1685.410096
1322.589248,7328.038826,-5181.441594,842.705048
1322.589577,7105.977043,-5625.565159,1149.143247
1322.589906,7105.977043,-5255.462188,1532.190996
1322.590235,6957.935855,-5329.482782,1149.143247
1322.590564,6735.874072,-6069.688724,842.705048
1322.590893,6587.832884,-6735.874072,766.095498
1322.591222,7328.038826,-7846.182985,1072.533697
1322.591551,7328.038826,-8364.327145,1455.581446
1322.591880,7105.977043,-8734.430116,1762.019645
1322.592210,7105.977043,-7476.080014,995.924147
1322.592539,6735.874072,-6217.729913,229.828649
1322.592868,6883.915261,-5477.523971,306.438199
1322.593197,7846.182985,-5403.503377,1149.143247
1322.593526,8586.388927,-5403.503377,1378.971896
1322.593855,7624.121203,-4515.256246,1608.800546
1322.594184,7105.977043,-5847.626942,1915.238745
1322.594513,7105.977043,-5181.441594,1915.238745
1322.594842,5847.626942,-5921.647536,612.876398
1322.595171,5255.462188,-7550.100608,-229.828649
1322.595500,5033.400406,-8512.368333,766.095498
1322.595830,5995.668130,-10066.800811,1149.143247
1322.596159,6661.853478,-8660.409521,1532.190996
1322.596488,6587.832884,-6735.874072,1302.362347
1322.596817,7105.977043,-6661.853478,306.438199
1322.597146,7328.038826,-5329.482782,536.266849
1322.597475,7920.203579,-5699.585753,995.924147
1322.597804,8808.450710,-4589.276840,1455.581446
1322.598133,8512.368333,-4441.235652,2068.457845
1322.598462,8068.244768,-4811.338623,1685.410096
1322.598791,6809.894666,-5107.421000,1225.752797
1322.599120,6143.709319,-5847.626942,995.924147
1322.599450,6513.812290,-6069.688724,1072.533697
1322.599779,6809.894666,-6883.915261,1225.752797
1322.600108,6587.832884,-7402.059420,1149.143247
1322.600437,6439.791695,-8364.327145,1225.752797
1322.600766,6587.832884,-8216.285956,995.924147
1322.601095,6513.812290,-7105.977043,842.705048
1322.601424,6883.915261,-6513.812290,76.609550
1322.601753,7698.141797,-6143.709319,1149.143247
1322.602082,8364.327145,-6439.791695,1608.800546
1322.602411,8290.306550,-6365.771101,1302.362347
1322.602741,7624.121203,-4737.318029,1532.190996
1322.603070,7105.977043,-5995.668130,1149.143247
1322.603399,7031.956449,-6365.771101,1072.533697
1322.603728,6217.729913,-7031.956449,1072.533697
1322.604057,5625.565159,-8290.306550,306.438199
1322.604386,5551.544565,-9104.533087,919.314598
1322.604715,6291.750507,-9548.656652,1149.143247
1322.605044,6513.812290,-8068.244768,842.705048
1322.605373,6957.935855,-5921.647536,383.047749
1322.605702,7328.038826,-5625.565159,-306.438199
1322.606031,7550.100608,-5699.585753,459.657299
1322.606361,8142.265362,-5403.503377,1608.800546
1322.606690,8586.388927,-4885.359217,1225.752797
1322.607019,8438.347739,-4219.173869,1302.362347
1322.607348,7476.080014,-5107.421000,1608.800546
1322.607677,6735.874072,-5847.626942,995.924147
1322.608006,6809.894666,-6587.832884,1072.533697
1322.608335,6809.894666,-7402.059420,1762.019645
1322.608664,6513.812290,-7994.224174,1608.800546
1322.608993,5551.544565,-8290.306550,1378.971896
1322.609322,5477.523971,-8216.285956,919.314598
1322.609651,5995.668130,-7105.977043,0.000000
1322.609981,6365.771101,-7105.977043,612.876398
1322.610310,7105.977043,-5699.585753,76.609550
1322.610639,8290.306550,-5033.400406,842.705048
1322.610968,8956.491898,-4663.297435,1455.581446
1322.611297,8660.409521,-5181.441594,1608.800546
1322.611626,7772.162391,-5329.482782,1915.238745
1322.611955,7179.997637,-5699.585753,1302.362347
1322.612284,5921.647536,-6735.874072,459.657299
1322.612613,5255.462188,-7476.080014,536.266849
1322.612942,5107.421000,-8956.491898,612.876398
1322.613271,5625.565159,-9770.718434,1915.238745
1322.613601,6143.709319,-8216.285956,1302.362347
1322.613930,5921.647536,-7550.100608,766.095498
1322.614259,7105.977043,-5551.544565,612.876398
1322.614588,7402.059420,-4515.256246,306.438199
1322.614917,7698.141797,-5329.482782,766.095498
1322.615246,7920.203579,-4589.276840,1378.971896
1322.615575,8142.265362,-4885.359217,1685.410096
1322.615904,8290.306550,-5255.462188,1378.971896
1322.616233,7698.141797,-6069.688724,2221.676944
1322.616562,7328.038826,-6661.853478,1455.581446
1322.616891,6587.832884,-7328.038826,842.705048
1322.617221,6069.688724,-7698.141797,689.485948
1322.617550,6735.874072,-8586.388927,1225.752797
1322.617879,5921.647536,-9104.533087,1455.581446
1322.618208,6439.791695,-7624.121203,689.485948
1322.618537,5847.626942,-7105.977043,76.609550
1322.618866,6217.729913,-6069.688724,229.828649
1322.619195,7105.977043,-5477.523971,1149.143247
1322.619524,8068.244768,-4885.359217,1072.533697
1322.619853,8290.306550,-4737.318029,1532.190996
1322.620182,8068.244768,-5255.462188,1608.800546
1322.620512,7328.038826,-6143.709319,1302.362347
1322.620841,6587.832884,-6069.688724,536.266849
1322.621170,6069.688724,-7328.038826,536.266849
1322.621499,5551.544565,-8734.430116,766.095498
1322.621828,5403.503377,-9918.759623,612.876398
1322.622157,6587.832884,-8956.491898,1225.752797
1322.622486,6809.894666,-7994.224174,995.924147
1322.622815,6587.832884,-6365.771101,306.438199
1322.623144,6587.832884,-5255.462188,76.609550
1322.623473,7105.977043,-4885.359217,536.266849
1322.623802,8512.368333,-4885.359217,1608.800546
1322.624132,8364.327145,-4663.297435,1378.971896
1322.624461,7994.224174,-5033.400406,1685.410096
1322.624790,7550.100608,-5403.503377,1762.019645
1322.625119,6883.915261,-5847.626942,459.657299
1322.625448,6365.771101,-6587.832884,459.657299
1322.625777,5847.626942,-7624.121203,536.266849
1322.626106,5995.668130,-9030.512492,689.485948
1322.626435,6735.874072,-9030.512492,1302.362347
1322.626764,7031.956449,-8364.327145,1608.800546
1322.627094,6957.935855,-7328.038826,1072.533697
1322.627423,6735.874072,-6291.750507,536.266849
1322.627752,6661.853478,-5551.544565,459.657299
1322.628081,7550.100608,-4737.318029,689.485948
1322.628410,8216.285956,-4515.256246,1378.971896
1322.628739,8216.285956,-5181.441594,1762.019645
1322.629068,7624.121203,-5773.606348,1838.629195
1322.629397,6735.874072,-5773.606348,995.924147
1322.629726,5477.523971,-7624.121203,76.609550
1322.630056,5255.462188,-8586.388927,919.314598
1322.630385,5329.482782,-9178.553681,536.266849
1322.630714,6291.750507,-10214.842000,1149.143247
1322.631043,7031.956449,-8364.327145,1991.848295
1322.631372,7402.059420,-7254.018232,1225.752797
1322.631701,7105.977043,-5773.606348,612.876398
1322.632030,6513.812290,-5107.421000,459.657299
1322.632359,7328.038826,-5181.441594,689.485948
1322.632688,8142.265362,-3627.009116,1378.971896
1322.633018,8660.409521,-4589.276840,1532.190996
1322.633347,8438.347739,-5033.400406,1608.800546
1322.633676,7920.203579,-4663.297435,1455.581446
1322.634005,7031.956449,-5255.462188,0.000000
1322.634334,6587.832884,-5773.606348,536.266849
1322.634663,6587.832884,-8290.306550,1149.143247
1322.634992,6735.874072,-9474.636058,1302.362347
1322.635321,6069.688724,-8512.368333,1149.143247
1322.635651,5995.668130,-7994.224174,229.828649
1322.635980,6661.853478,-6439.791695,0.000000
1322.636309,6957.935855,-6735.874072,919.314598
1322.636638,7402.059420,-5625.565159,1225.752797
1322.636967,7772.162391,-4737.318029,766.095498
1322.637296,7920.203579,-5033.400406,2068.457845
1322.637625,7550.100608,-5403.503377,1838.629195
1322.637954,7550.100608,-5699.585753,1608.800546
1322.638283,7105.977043,-5921.647536,1149.143247
1322.638613,6365.771101,-6957.935855,459.657299
1322.638942,6291.750507,-8068.244768,995.924147
1322.639271,6291.750507,-9178.553681,1149.143247
1322.639600,6439.791695,-9252.574275,995.924147
1322.639929,6661.853478,-7698.141797,766.095498
1322.640258,6809.894666,-6661.853478,-229.828649
1322.640587,6513.812290,-5551.544565,153.219100
1322.640916,7105.977043,-5625.565159,459.657299
1322.641246,8068.244768,-5107.421000,1149.143247
1322.641575,8660.409521,-4737.318029,1225.752797
1322.641904,8512.368333,-4737.318029,1608.800546
1322.642233,8364.327145,-4811.338623,1762.019645
1322.642562,7698.141797,-4737.318029,995.924147
1322.642891,6883.915261,-5847.626942,536.266849
1322.643220,6809.894666,-7179.997637,1225.752797
1322.643549,7179.997637,-8882.471304,1532.190996
1322.643878,6735.874072,-8956.491898,1149.143247
1322.644208,6291.750507,-8068.244768,919.314598
1322.644537,5995.668130,-7698.141797,459.657299
1322.644866,6217.729913,-6217.729913,689.485948
1322.645195,6217.729913,-6439.791695,306.438199
1322.645524,6957.935855,-6143.709319,1072.533697
1322.645853,7328.038826,-5403.503377,995.924147
1322.646182,7328.038826,-5699.585753,1608.800546
1322.646511,7105.977043,-5699.585753,2374.896044
1322.646840,6957.935855,-6143.709319,1302.362347
1322.647170,6217.729913,-7105.977043,1149.143247
1322.647499,5921.647536,-6957.935855,689.485948
1322.647828,6143.709319,-8882.471304,919.314598
1322.648157,6513.812290,-9104.533087,1608.800546
1322.648486,6661.853478,-8216.285956,1225.752797
1322.648815,6735.874072,-7031.956449,459.657299
1322.649144,6513.812290,-5921.647536,306.438199
1322.649473,7550.100608,-6439.791695,842.705048
1322.649803,7402.059420,-4737.318029,842.705048
1322.650132,7550.100608,-4367.215058,1378.971896
1322.650461,7550.100608,-5329.482782,1838.629195
1322.650790,7846.182985,-4959.379811,2145.067394
1322.651119,8068.244768,-5329.482782,1532.190996
1322.651448,7179.997637,-5477.523971,995.924147
1322.651777,6883.915261,-6883.915261,995.924147
1322.652106,6735.874072,-8142.265362,1532.190996
1322.652435,6883.915261,-8660.409521,1838.629195
1322.652765,6883.915261,-7994.224174,1072.533697
1322.653094,6217.729913,-7254.018232,842.705048
1322.653423,6513.812290,-6957.935855,459.657299
1322.653752,6735.874072,-6069.688724,76.609550
1322.654081,7031.956449,-5699.585753,612.876398
1322.654410,6957.935855,-6439.791695,766.095498
1322.654739,6809.894666,-5551.544565,1225.752797
1322.655068,6513.812290,-6587.832884,919.314598
1322.655398,6365.771101,-6957.935855,1302.362347
1322.655727,6143.709319,-7031.956449,766.095498
1322.656056,6143.709319,-7920.203579,536.266849
1322.656385,6143.709319,-7994.224174,1302.362347
1322.656714,6735.874072,-8734.430116,1378.971896
1322.657043,7179.997637,-7994.224174,1149.143247
1322.657372,6809.894666,-6735.874072,1072.533697
1322.657701,7550.100608,-6069.688724,1225.752797
1322.658030,8142.265362,-4885.359217,1149.143247
1322.658360,8290.306550,-4663.297435,1225.752797
1322.658689,7846.182985,-4737.318029,1225.752797
1322.659018,7624.121203,-5181.441594,1072.533697
1322.659347,7179.997637,-5625.565159,1532.190996
1322.659676,6883.915261,-5403.503377,1302.362347
1322.660005,6587.832884,-5995.668130,995.924147
1322.660334,6439.791695,-6365.771101,1225.752797
1322.660663,6291.750507,-7772.162391,1072.533697
1322.660992,6217.729913,-8512.368333,1302.362347
1322.661322,6957.935855,-7698.141797,995.924147
1322.661651,7031.956449,-6217.729913,612.876398
1322.661980,6957.935855,-6439.791695,383.047749
1322.662309,7328.038826,-6439.791695,536.266849
1322.662638,7920.203579,-5847.626942,612.876398
1322.662967,8216.285956,-5477.523971,1302.362347
1322.663296,8512.368333,-5625.565159,1225.752797
1322.663625,7402.059420,-6291.750507,1378.971896
1322.663955,6883.915261,-7031.956449,1072.533697
1322.664284,5847.626942,-7179.997637,766.095498
1322.664613,4959.379811,-7550.100608,0.000000
1322.664942,4515.256246,-8438.347739,306.438199
1322.665271,5403.503377,-9104.533087,1149.143247
1322.665600,6439.791695,-8660.409521,1608.800546
1322.665929,7105.977043,-7328.038826,1149.143247
1322.666258,7105.977043,-6217.729913,612.876398
1322.666587,7328.038826,-4885.359217,766.095498
1322.666917,8290.306550,-5107.421000,995.924147
1322.667246,8882.471304,-4811.338623,1455.581446
1322.667575,8882.471304,-4293.194464,1915.238745
1322.667904,7846.182985,-5181.441594,2068.457845
1322.668233,7179.997637,-5847.626942,1532.190996
1322.668562,7105.977043,-5625.565159,1072.533697
1322.668891,7105.977043,-6883.915261,766.095498
1322.669220,6809.894666,-6883.915261,1072.533697
1322.669550,6513.812290,-8142.265362,995.924147
1322.669879,6439.791695,-8216.285956,995.924147
1322.670208,5921.647536,-7698.141797,1072.533697
1322.670537,5995.668130,-7328.038826,-306.438199
1322.670866,6661.853478,-6365.771101,536.266849
1322.671195,7105.977043,-6069.688724,306.438199
1322.671524,7920.203579,-5773.606348,995.924147
1322.671853,8068.244768,-5107.421000,1685.410096
1322.672182,8290.306550,-5625.565159,1685.410096
1322.672512,7402.059420,-5995.668130,1685.410096
1322.672841,6661.853478,-6439.791695,1378.971896
1322.673170,5995.668130,-7476.080014,612.876398
1322.673499,5847.626942,-7624.121203,766.095498
1322.673828,5625.565159,-9326.594869,1072.533697
1322.674157,5551.544565,-9030.512492,995.924147
1322.674486,5847.626942,-7624.121203,919.314598
1322.674815,6513.812290,-6661.853478,919.314598
1322.675144,7031.956449,-5625.565159,153.219100
1322.675474,6883.915261,-4219.173869,229.828649
1322.675803,7624.121203,-5329.482782,766.095498
1322.676132,8512.368333,-4737.318029,1608.800546
1322.676461,8734.430116,-4589.276840,2068.457845
1322.676790,9178.553681,-5107.421000,2221.676944
1322.677119,8364.327145,-5477.523971,1532.190996
1322.677448,7476.080014,-6143.709319,1455.581446
1322.677777,7105.977043,-6587.832884,1072.533697
1322.678107,6587.832884,-7254.018232,919.314598
1322.678436,6291.750507,-8290.306550,1225.752797
1322.678765,6291.750507,-8216.285956,1072.533697
1322.679094,6587.832884,-7105.977043,612.876398
1322.679423,6513.812290,-6587.832884,459.657299
1322.679752,6735.874072,-5921.647536,536.266849
1322.680081,7402.059420,-5551.544565,536.266849
1322.680410,7179.997637,-5403.503377,1225.752797
1322.680739,7105.977043,-5477.523971,1072.533697
1322.681069,7254.018232,-6291.750507,1225.752797
1322.681398,7550.100608,-6587.832884,1378.971896
1322.681727,6291.750507,-7698.141797,842.705048
1322.682056,6439.791695,-7994.224174,1302.362347
1322.682385,6143.709319,-8808.450710,919.314598
1322.682714,5773.606348,-10066.800811,1225.752797
1322.683043,5847.626942,-8808.450710,1149.143247
1322.683372,5995.668130,-7920.203579,459.657299
1322.683702,6217.729913,-6143.709319,0.000000
1322.684031,6735.874072,-4367.215058,153.219100
1322.684360,7846.182985,-4737.318029,229.828649
1322.684689,8956.491898,-3849.070898,1685.410096
1322.685018,8882.471304,-4293.194464,1685.410096
1322.685347,8512.368333,-4589.276840,1532.190996
1322.685676,8512.368333,-3997.112087,1838.629195
1322.686005,8290.306550,-5255.462188,1225.752797
1322.686334,7254.018232,-5773.606348,1455.581446
1322.686664,7105.977043,-7254.018232,1302.362347
1322.686993,7105.977043,-8438.347739,1072.533697
1322.687322,6587.832884,-8290.306550,1378.971896
1322.687651,6143.709319,-7846.182985,1149.143247
1322.687980,5847.626942,-7105.977043,689.485948
1322.688309,6439.791695,-6365.771101,153.219100
1322.688638,6365.771101,-5921.647536,383.047749
1322.688967,7402.059420,-5477.523971,1072.533697
1322.689296,7994.224174,-5255.462188,1455.581446
1322.689626,7698.141797,-5625.565159,1149.143247
1322.689955,6809.894666,-6587.832884,1149.143247
1322.690284,6587.832884,-6513.812290,766.095498
1322.690613,5847.626942,-7698.141797,383.047749
1322.690942,5403.503377,-8438.347739,306.438199
1322.691271,5033.400406,-9548.656652,689.485948
1322.691600,5551.544565,-9770.718434,919.314598
1322.691929,5625.565159,-8660.409521,1532.190996
1322.692259,5699.585753,-7105.977043,766.095498
1322.692588,6809.894666,-5847.626942,76.609550
1322.692917,7402.059420,-5255.462188,306.438199
1322.693246,8290.306550,-4515.256246,919.314598
1322.693575,8364.327145,-4441.235652,1608.800546
1322.693904,8660.409521,-4219.173869,1378.971896
1322.694233,8364.327145,-4959.379811,1838.629195
1322.694562,7476.080014,-5477.523971,1685.410096
1322.694891,7254.018232,-4811.338623,919.314598
1322.695221,7105.977043,-6587.832884,842.705048
1322.695550,7105.977043,-7698.141797,1378.971896
1322.695879,7105.977043,-8216.285956,2374.896044
1322.696208,7328.038826,-7698.141797,1532.190996
1322.696537,7031.956449,-6217.729913,1149.143247
1322.696866,6217.729913,-6365.771101,536.266849
1322.697195,6217.729913,-6439.791695,383.047749
1322.697524,6661.853478,-5699.585753,689.485948
1322.697854,7254.018232,-5107.421000,995.924147
1322.698183,7105.977043,-5995.668130,1302.362347
1322.698512,7402.059420,-5995.668130,1762.019645
1322.698841,7105.977043,-6513.812290,1149.143247
1322.699170,6143.709319,-6661.853478,612.876398
1322.699499,5477.523971,-7179.997637,459.657299
1322.699828,5921.647536,-8364.327145,229.828649
1322.700157,6513.812290,-9474.636058,1608.800546
1322.700486,6809.894666,-8734.430116,1762.019645
1322.700816,7179.997637,-7624.121203,1072.533697
1322.701145,6957.935855,-5773.606348,536.266849
1322.701474,6957.935855,-5551.544565,306.438199
1322.701803,7698.141797,-4737.318029,1149.143247
1322.702132,8364.327145,-4441.235652,1149.143247
1322.702461,8290.306550,-4737.318029,1455.581446
1322.702790,7254.018232,-6143.709319,1762.019645
1322.703119,6809.894666,-5995.668130,1225.752797
1322.703448,6439.791695,-6513.812290,689.485948
1322.703778,5773.606348,-7105.977043,383.047749
1322.704107,6513.812290,-7920.203579,1302.362347
1322.704436,7031.956449,-8956.491898,1302.362347
1322.704765,7179.997637,-8142.265362,1608.800546
1322.705094,7105.977043,-7031.956449,995.924147
1322.705423,7624.121203,-5995.668130,612.876398
1322.705752,7402.059420,-5329.482782,612.876398
1322.706081,7994.224174,-4959.379811,919.314598
1322.706411,8586.388927,-4811.338623,1302.362347
1322.706740,9030.512492,-4441.235652,1915.238745
1322.707069,7994.224174,-5699.585753,1762.019645
1322.707398,7105.977043,-5921.647536,1685.410096
1322.707727,5921.647536,-6513.812290,383.047749
1322.708056,4811.338623,-7920.203579,0.000000
1322.708385,4441.235652,-9030.512492,459.657299
1322.708714,4589.276840,-10214.842000,612.876398
1322.709043,5551.544565,-10436.903782,1225.752797
1322.709373,6217.729913,-8586.388927,1072.533697
1322.709702,6883.915261,-7031.956449,1149.143247
1322.710031,6883.915261,-5329.482782,1149.143247
1322.710360,7254.018232,-4737.318029,919.314598
1322.710689,8142.265362,-3627.009116,1072.533697
1322.711018,8808.450710,-4071.132681,1225.752797
1322.711347,8808.450710,-4663.297435,2068.457845
1322.711676,8216.285956,-5699.585753,1915.238745
1322.712006,6957.935855,-5625.565159,689.485948
1322.712335,5995.668130,-6069.688724,536.266849
1322.712664,6513.812290,-7846.182985,995.924147
1322.712993,6291.750507,-8364.327145,1762.019645
1322.713322,6439.791695,-8512.368333,1455.581446
1322.713651,6957.935855,-7476.080014,1072.533697
1322.713980,7031.956449,-6809.894666,306.438199
1322.714309,7031.956449,-5847.626942,459.657299
1322.714638,8068.244768,-5551.544565,612.876398
1322.714968,8364.327145,-4663.297435,1149.143247
1322.715297,8956.491898,-4219.173869,1685.410096
1322.715626,8882.471304,-4959.379811,2221.676944
1322.715955,8438.347739,-5403.503377,1762.019645
1322.716284,7105.977043,-5773.606348,689.485948
1322.716613,5477.523971,-7031.956449,0.000000
1322.716942,4367.215058,-8216.285956,0.000000
1322.717271,4515.256246,-10362.883188,459.657299
1322.717600,4959.379811,-10510.924376,1302.362347
1322.717930,5625.565159,-9326.594869,1455.581446
1322.718259,5847.626942,-8290.306550,612.876398
1322.718588,5847.626942,-6587.832884,459.657299
1322.718917,6439.791695,-5921.647536,766.095498
1322.719246,7328.038826,-4811.338623,383.047749
1322.719575,8290.306550,-4145.153275,1149.143247
1322.719904,8586.388927,-4959.379811,1915.238745
1322.720233,9178.553681,-5329.482782,2374.896044
1322.720563,7994.224174,-4219.173869,2068.457845
1322.720892,7846.182985,-5551.544565,1149.143247
1322.721221,6957.935855,-5921.647536,1072.533697
1322.721550,6587.832884,-7105.977043,536.266849
1322.721879,7179.997637,-8660.409521,1302.362347
1322.722208,7328.038826,-7624.121203,1838.629195
1322.722537,7031.956449,-7031.956449,689.485948
1322.722866,6513.812290,-5995.668130,612.876398
1322.723195,6809.894666,-5995.668130,459.657299
1322.723525,7920.203579,-5329.482782,1302.362347
1322.723854,7550.100608,-4441.235652,995.924147
1322.724183,8142.265362,-4515.256246,1532.190996
1322.724512,7772.162391,-5033.400406,1762.019645
1322.724841,7105.977043,-5921.647536,1838.629195
1322.725170,6587.832884,-5921.647536,1685.410096
1322.725499,5699.585753,-7105.977043,306.438199
1322.725828,4737.318029,-9326.594869,1072.533697
1322.726158,4885.359217,-9696.697840,919.314598
1322.726487,6143.709319,-9844.739029,919.314598
1322.726816,5921.647536,-8734.430116,1072.533697
1322.727145,6143.709319,-7550.100608,306.438199
1322.727474,5995.668130,-6217.729913,0.000000
1322.727803,6513.812290,-5995.668130,0.000000
1322.728132,7179.997637,-5773.606348,306.438199
1322.728462,8290.306550,-5107.421000,1838.629195
1322.728791,8290.306550,-5921.647536,1455.581446
1322.729120,8068.244768,-5329.482782,1991.848295
1322.729449,7402.059420,-5329.482782,919.314598
1322.729778,6735.874072,-5699.585753,612.876398
1322.730107,6291.750507,-6365.771101,383.047749
1322.730437,6735.874072,-7920.203579,1225.752797
1322.730766,7328.038826,-7994.224174,1685.410096
1322.731095,7846.182985,-6883.915261,1378.971896
1322.731424,7476.080014,-6883.915261,995.924147
1322.731753,7402.059420,-5921.647536,689.485948
1322.732082,7402.059420,-5699.585753,1072.533697
1322.732412,7920.203579,-5255.462188,1149.143247
1322.732741,7772.162391,-4737.318029,1302.362347
1322.733070,8068.244768,-5255.462188,2145.067394
1322.733399,7328.038826,-5921.647536,1378.971896
1322.733728,6439.791695,-6513.812290,689.485948
1322.734057,5329.482782,-6809.894666,153.219100
1322.734387,4959.379811,-8364.327145,76.609550
1322.734716,5255.462188,-9770.718434,612.876398
1322.735045,5773.606348,-10214.842000,1455.581446
1322.735374,6365.771101,-9104.533087,995.924147
1322.735703,6661.853478,-7254.018232,1225.752797
1322.736033,6883.915261,-6513.812290,306.438199
1322.736362,6809.894666,-5847.626942,0.000000
1322.736691,7402.059420,-4885.359217,612.876398
1322.737020,7846.182985,-5329.482782,1072.533697
1322.737349,7846.182985,-4367.215058,2145.067394
1322.737678,8068.244768,-5847.626942,1838.629195
1322.738008,7550.100608,-5329.482782,1608.800546
1322.738337,6735.874072,-5403.503377,1149.143247
1322.738666,6143.709319,-5625.565159,612.876398
1322.738995,5773.606348,-7105.977043,612.876398
1322.739324,6513.812290,-8512.368333,1302.362347
1322.739653,7031.956449,-8290.306550,1685.410096
1322.739983,6883.915261,-6883.915261,995.924147
1322.740312,7105.977043,-5995.668130,536.266849
1322.740641,7254.018232,-5699.585753,919.314598
1322.740970,7994.224174,-5773.606348,842.705048
1322.741299,7920.203579,-4811.338623,1455.581446
1322.741628,7846.182985,-5181.441594,1991.848295
1322.741958,7994.224174,-5921.647536,1455.581446
1322.742287,7402.059420,-5255.462188,1149.143247
1322.742616,6513.812290,-6809.894666,1072.533697
1322.742945,5699.585753,-7402.059420,919.314598
1322.743274,4959.379811,-8142.265362,919.314598
1322.743604,4959.379811,-9770.718434,766.095498
1322.743933,5995.668130,-9030.512492,919.314598
1322.744262,6513.812290,-7994.224174,459.657299
1322.744591,6809.894666,-7031.956449,536.266849
1322.744920,7105.977043,-5773.606348,842.705048
1322.745249,7920.203579,-5403.503377,919.314598
1322.745579,8438.347739,-5033.400406,1762.019645
1322.745908,7772.162391,-4959.379811,1302.362347
1322.746237,7624.121203,-6143.709319,1302.362347
1322.746566,7105.977043,-5921.647536,1455.581446
1322.746895,6809.894666,-6513.812290,1455.581446
1322.747224,6661.853478,-6291.750507,842.705048
1322.747554,6365.771101,-6661.853478,919.314598
1322.747883,6883.915261,-7994.224174,1762.019645
1322.748212,6809.894666,-8068.244768,1225.752797
1322.748541,6661.853478,-7254.018232,689.485948
1322.748870,6143.709319,-6661.853478,306.438199
1322.749199,6513.812290,-5551.544565,153.219100
1322.749529,7624.121203,-5773.606348,1149.143247
1322.749858,9104.533087,-5477.523971,1762.019645
1322.750187,8882.471304,-5033.400406,1838.629195
1322.750516,8586.388927,-4737.318029,1838.629195
1322.750845,7994.224174,-5699.585753,842.705048
1322.751175,6957.935855,-6365.771101,842.705048
1322.751504,6217.729913,-6587.832884,1072.533697
1322.751833,5551.544565,-7772.162391,-153.219100
1322.752162,5033.400406,-9104.533087,766.095498
1322.752491,5477.523971,-9178.553681,1302.362347
1322.752820,6513.812290,-8956.491898,1378.971896
1322.753150,6513.812290,-6587.832884,459.657299
1322.753479,5773.606348,-5477.523971,0.000000
1322.753808,6439.791695,-5477.523971,76.609550
1322.754137,7105.977043,-5699.585753,459.657299
1322.754466,7179.997637,-6957.935855,689.485948
1322.754795,7402.059420,-6217.729913,1762.019645
1322.755125,7846.182985,-6291.750507,1532.190996
1322.755454,7624.121203,-5625.565159,1302.362347
1322.755783,6809.894666,-5921.647536,1608.800546
1322.756112,7254.018232,-7105.977043,1378.971896
1322.756441,7550.100608,-6883.915261,1378.971896
1322.756770,6291.750507,-7550.100608,1072.533697
1322.757100,5625.565159,-7328.038826,612.876398
1322.757429,6217.729913,-6957.935855,766.095498
1322.757758,6883.915261,-6883.915261,689.485948
1322.758087,7254.018232,-5625.565159,1225.752797
1322.758416,8290.306550,-4811.338623,1072.533697
1322.758746,8734.430116,-3849.070898,1225.752797
1322.759075,8290.306550,-4515.256246,1762.019645
1322.759404,7920.203579,-6069.688724,1838.629195
1322.759733,6957.935855,-5921.647536,1455.581446
1322.760062,6661.853478,-7031.956449,766.095498
1322.760391,5403.503377,-7698.141797,842.705048
1322.760721,5181.441594,-8290.306550,612.876398
1322.761050,5403.503377,-10288.862594,1225.752797
1322.761379,6365.771101,-8586.388927,2068.457845
1322.761708,6587.832884,-7550.100608,612.876398
1322.762037,6883.915261,-5625.565159,153.219100
1322.762366,6883.915261,-4811.338623,459.657299
1322.762696,7031.956449,-5403.503377,689.485948
1322.763025,7179.997637,-5329.482782,919.314598
1322.763354,7476.080014,-5551.544565,1455.581446
1322.763683,7994.224174,-5921.647536,1378.971896
1322.764012,7698.141797,-6069.688724,1991.848295
1322.764341,6883.915261,-5699.585753,995.924147
1322.764671,6883.915261,-6587.832884,766.095498
1322.765000,6439.791695,-7105.977043,689.485948
1322.765329,6143.709319,-8142.265362,1302.362347
1322.765658,6439.791695,-8364.327145,766.095498
1322.765987,6883.915261,-7105.977043,1149.143247
1322.766317,6809.894666,-6661.853478,76.609550
1322.766646,7105.977043,-6217.729913,689.485948
1322.766975,8142.265362,-5477.523971,1685.410096
1322.767304,9178.553681,-5033.400406,2145.067394
1322.767633,9474.636058,-4145.153275,1149.143247
1322.767962,7846.182985,-4737.318029,1685.410096
1322.768292,7254.018232,-5329.482782,1302.362347
1322.768621,5995.668130,-6957.935855,1455.581446
1322.768950,6217.729913,-7772.162391,1072.533697
1322.769279,5403.503377,-8290.306550,306.438199
1322.769608,5477.523971,-9252.574275,1149.143247
1322.769937,6069.688724,-9474.636058,1225.752797
1322.770267,6439.791695,-8216.285956,1149.143247
1322.770596,6439.791695,-6883.915261,306.438199
1322.770925,6143.709319,-5699.585753,0.000000
1322.771254,6809.894666,-5477.523971,0.000000
1322.771583,7624.121203,-5255.462188,919.314598
1322.771912,8364.327145,-5847.626942,1378.971896
1322.772242,8068.244768,-6291.750507,1378.971896
1322.772571,7846.182985,-6143.709319,1378.971896
1322.772900,7328.038826,-6291.750507,1072.533697
1322.773229,6883.915261,-6069.688724,919.314598
1322.773558,6809.894666,-6439.791695,536.266849
1322.773887,6513.812290,-7846.182985,1225.752797
1322.774217,6439.791695,-8068.244768,1225.752797
1322.774546,7031.956449,-7179.997637,919.314598
1322.774875,7105.977043,-6883.915261,1378.971896
1322.775204,7254.018232,-4959.379811,612.876398
1322.775533,7920.203579,-4959.379811,766.095498
1322.775863,8660.409521,-4737.318029,1149.143247
1322.776192,8364.327145,-4737.318029,1608.800546
1322.776521,8438.347739,-5181.441594,1608.800546
1322.776850,7550.100608,-5329.482782,1608.800546
1322.777179,7254.018232,-6143.709319,1225.752797
1322.777508,7031.956449,-7105.977043,995.924147
1322.777838,5847.626942,-7550.100608,1225.752797
1322.778167,5329.482782,-8956.491898,1149.143247
1322.778496,5255.462188,-9252.574275,689.485948
1322.778825,5847.626942,-8364.327145,766.095498
1322.779154,5625.565159,-7772.162391,536.266849
1322.779483,6513.812290,-6143.709319,919.314598
1322.779813,6661.853478,-5921.647536,-383.047749
1322.780142,7624.121203,-5329.482782,612.876398
1322.780471,8364.327145,-5181.441594,1225.752797
1322.780800,8586.388927,-5403.503377,1302.362347
1322.781129,8364.327145,-5477.523971,1532.190996
1322.781458,7105.977043,-6735.874072,1149.143247
1322.781788,6735.874072,-6809.894666,919.314598
1322.782117,6143.709319,-7105.977043,766.095498
1322.782446,5995.668130,-8290.306550,919.314598
1322.782775,6291.750507,-8216.285956,1149.143247
1322.783104,6143.709319,-7994.224174,1072.533697
1322.783434,6513.812290,-7179.997637,766.095498
1322.783763,6883.915261,-6143.709319,612.876398
1322.784092,7402.059420,-5033.400406,995.924147
1322.784421,8290.306550,-4367.215058,1149.143247
1322.784750,8438.347739,-4367.215058,1302.362347
1322.785079,8142.265362,-4737.318029,1991.848295
1322.785409,7846.182985,-6143.709319,1762.019645
1322.785738,7179.997637,-5921.647536,1991.848295
1322.786067,6365.771101,-6365.771101,1072.533697
1322.786396,5551.544565,-7994.224174,383.047749
1322.786725,5255.462188,-8660.409521,689.485948
1322.787054,5329.482782,-9474.636058,1072.533697
1322.787384,5625.565159,-9178.553681,842.705048
1322.787713,6217.729913,-7476.080014,689.485948
1322.788042,6809.894666,-6143.709319,536.266849
1322.788371,7105.977043,-5329.482782,76.609550
1322.788700,7105.977043,-5033.400406,1072.533697
1322.789029,8068.244768,-5255.462188,1532.190996
1322.789359,8808.450710,-5033.400406,1608.800546
1322.789688,8586.388927,-5033.400406,1838.629195
1322.790017,7624.121203,-5329.482782,2145.067394
1322.790346,7105.977043,-6365.771101,1225.752797
1322.790675,6439.791695,-6883.915261,919.314598
1322.791005,6291.750507,-7698.141797,995.924147
1322.791334,6439.791695,-8660.409521,1532.190996
1322.791663,6365.771101,-7846.182985,1532.190996
1322.791992,5699.585753,-8290.306550,459.657299
1322.792321,5403.503377,-7179.997637,76.609550
1322.792650,6217.729913,-5773.606348,0.000000
1322.792980,7105.977043,-5403.503377,229.828649
1322.793309,7994.224174,-4367.215058,1685.410096
1322.793638,8808.450710,-4811.338623,1532.190996
1322.793967,9104.533087,-4737.318029,1991.848295
1322.794296,8216.285956,-5033.400406,1838.629195
1322.794625,7328.038826,-5847.626942,1225.752797
1322.794955,6587.832884,-6587.832884,1302.362347
1322.795284,6217.729913,-8068.244768,689.485948
1322.795613,5773.606348,-8882.471304,766.095498
1322.795942,5551.544565,-9030.512492,1072.533697
1322.796271,6291.750507,-8586.388927,1149.143247
1322.796600,6735.874072,-7179.997637,1225.752797
1322.796930,7031.956449,-5773.606348,536.266849
1322.797259,7179.997637,-4737.318029,306.438199
1322.797588,8216.285956,-4959.379811,1302.362347
1322.797917,8438.347739,-4737.318029,1685.410096
1322.798246,8142.265362,-5255.462188,1149.143247
1322.798576,7328.038826,-5995.668130,1608.800546
1322.798905,6809.894666,-6069.688724,1149.143247
1322.799234,6069.688724,-6809.894666,919.314598
1322.799563,4959.379811,-7846.182985,229.828649
1322.799892,5477.523971,-8734.430116,383.047749
1322.800221,6365.771101,-9474.636058,1302.362347
1322.800551,6513.812290,-8216.285956,1685.410096
1322.800880,6439.791695,-7105.977043,383.047749
1322.801209,6883.915261,-5995.668130,612.876398
1322.801538,7698.141797,-4885.359217,0.000000
1322.801867,7846.182985,-5107.421000,1072.533697
1322.802196,9030.512492,-4885.359217,1762.019645
1322.802526,9548.656652,-4737.318029,1915.238745
1322.802855,8364.327145,-5107.421000,1838.629195
1322.803184,7105.977043,-5107.421000,1302.362347
1322.803513,6069.688724,-7179.997637,536.266849
1322.803842,5551.544565,-7920.203579,919.314598
1322.804171,5107.421000,-9474.636058,919.314598
1322.804501,5255.462188,-9400.615463,1378.971896
1322.804830,5921.647536,-8142.265362,1149.143247
1322.805159,6143.709319,-7328.038826,995.924147
1322.805488,6735.874072,-5995.668130,612.876398
1322.805817,7105.977043,-4515.256246,766.095498
1322.806146,7846.182985,-4663.297435,1149.143247
1322.806476,8364.327145,-4515.256246,1225.752797
1322.806805,8142.265362,-4811.338623,1532.190996
1322.807134,7698.141797,-5921.647536,1915.238745
1322.807463,7179.997637,-6883.915261,1532.190996
1322.807792,6217.729913,-6291.750507,1685.410096
1322.808122,5921.647536,-6883.915261,612.876398
1322.808451,5995.668130,-7179.997637,919.314598
1322.808780,6513.812290,-8956.491898,1149.143247
1322.809109,6291.750507,-9252.574275,1378.971896
1322.809438,6513.812290,-7698.141797,842.705048
1322.809767,6883.915261,-6291.750507,612.876398
1322.810097,7328.038826,-5181.441594,459.657299
1322.810426,7920.203579,-5033.400406,1149.143247
1322.810755,8660.409521,-4515.256246,1532.190996
1322.811084,9104.533087,-4515.256246,1378.971896
1322.811413,9178.553681,-4737.318029,1991.848295
1322.811742,7328.038826,-5329.482782,1455.581446
1322.812072,6143.709319,-6957.935855,689.485948
1322.812401,5255.462188,-7920.203579,229.828649
1322.812730,5033.400406,-9030.512492,76.609550
1322.813059,5033.400406,-9548.656652,612.876398
1322.813388,6365.771101,-9400.615463,1762.019645
1322.813717,7328.038826,-8586.388927,1302.362347
1322.814047,7179.997637,-6217.729913,612.876398
1322.814376,6957.935855,-5255.462188,0.000000
1322.814705,7254.018232,-5181.441594,536.266849
1322.815034,7772.162391,-5107.421000,1072.533697
1322.815363,8734.430116,-4515.256246,1149.143247
1322.815693,8142.265362,-5329.482782,1378.971896
1322.816022,7698.141797,-6513.812290,919.314598
1322.816351,6809.894666,-5921.647536,766.095498
1322.816680,6661.853478,-6883.915261,536.266849
1322.817009,6365.771101,-7698.141797,306.438199
1322.817338,6143.709319,-7550.100608,919.314598
1322.817668,6291.750507,-8956.491898,766.095498
1322.817997,6365.771101,-8290.306550,766.095498
1322.818326,7031.956449,-7624.121203,612.876398
1322.818655,7105.977043,-6365.771101,689.485948
1322.818984,7920.203579,-4589.276840,1072.533697
1322.819313,7994.224174,-4885.359217,1378.971896
1322.819643,8512.368333,-3923.091493,1532.190996
1322.819972,8660.409521,-4367.215058,1532.190996
1322.820301,8956.491898,-4959.379811,1608.800546
1322.820630,7550.100608,-5477.523971,1838.629195
1322.820959,6365.771101,-7105.977043,995.924147
1322.821288,5403.503377,-8068.244768,306.438199
1322.821618,4959.379811,-9104.533087,689.485948
1322.821947,5773.606348,-10955.047942,1072.533697
1322.822276,5699.585753,-9474.636058,1455.581446
1322.822605,6217.729913,-7402.059420,919.314598
1322.822934,7031.956449,-6513.812290,612.876398
1322.823264,7328.038826,-4885.359217,766.095498
1322.823593,7846.182985,-5033.400406,766.095498
1322.823922,8364.327145,-4737.318029,1302.362347
1322.824251,8512.368333,-4959.379811,1532.190996
1322.824580,8216.285956,-5477.523971,2221.676944
1322.824909,7920.203579,-5181.441594,1302.362347
1322.825239,6069.688724,-6217.729913,1149.143247
1322.825568,5995.668130,-6365.771101,766.095498
1322.825897,5403.503377,-8438.347739,1378.971896
1322.826226,5773.606348,-8808.450710,1378.971896
1322.826555,5551.544565,-8142.265362,995.924147
1322.826885,5403.503377,-8512.368333,536.266849
1322.827214,5625.565159,-7105.977043,306.438199
1322.827543,5847.626942,-6587.832884,76.609550
1322.827872,6587.832884,-6365.771101,1149.143247
1322.828201,8512.368333,-5921.647536,1991.848295
1322.828531,8660.409521,-5477.523971,1685.410096
1322.828860,7698.141797,-5255.462188,2068.457845
1322.829189,7328.038826,-5551.544565,1532.190996
1322.829518,6513.812290,-6069.688724,1302.362347
1322.829847,6291.750507,-6291.750507,536.266849
1322.830177,5921.647536,-7846.182985,919.314598
1322.830506,6735.874072,-7994.224174,1455.581446
1322.830835,7031.956449,-8364.327145,1838.629195
1322.831164,6957.935855,-6957.935855,1302.362347
1322.831493,7402.059420,-5773.606348,689.485948
1322.831823,7254.018232,-5329.482782,229.828649
1322.832152,7476.080014,-4737.318029,612.876398
1322.832481,8216.285956,-5403.503377,612.876398
1322.832810,8290.306550,-5403.503377,1455.581446
1322.833139,8068.244768,-6365.771101,1608.800546
1322.833469,7624.121203,-5477.523971,1455.581446
1322.833798,7105.977043,-5477.523971,306.438199
1322.834127,6661.853478,-7031.956449,842.705048
1322.834456,6217.729913,-7328.038826,995.924147
1322.834785,5921.647536,-8290.306550,1302.362347
1322.835115,6513.812290,-7994.224174,1532.190996
1322.835444,6217.729913,-7402.059420,153.219100
1322.835773,6365.771101,-6957.935855,459.657299
1322.836102,6735.874072,-5995.668130,383.047749
1322.836431,7105.977043,-6143.709319,612.876398
1322.836761,8068.244768,-5181.441594,995.924147
1322.837090,7624.121203,-4737.318029,1225.752797
1322.837419,7846.182985,-5551.544565,919.314598
1322.837748,7772.162391,-5921.647536,1455.581446
1322.838077,7031.956449,-6957.935855,1302.362347
1322.838407,6217.729913,-7179.997637,689.485948
1322.838736,5551.544565,-7476.080014,383.047749
1322.839065,5403.503377,-8808.450710,689.485948
1322.839394,5921.647536,-9474.636058,1455.581446
1322.839723,6587.832884,-7772.162391,1455.581446
1322.840053,6809.894666,-6143.709319,1455.581446
1322.840382,7105.977043,-5403.503377,306.438199
1322.840711,7550.100608,-4515.256246,229.828649
1322.841040,7328.038826,-4737.318029,842.705048
1322.841369,7624.121203,-5847.626942,1149.143247
1322.841699,7846.182985,-5921.647536,1762.019645
1322.842028,7920.203579,-5995.668130,1915.238745
1322.842357,7328.038826,-5847.626942,1532.190996
1322.842686,7031.956449,-6143.709319,919.314598
1322.843015,7179.997637,-6661.853478,383.047749
1322.843345,6513.812290,-8216.285956,1072.533697
1322.843674,6439.791695,-8660.409521,1608.800546
1322.844003,6809.894666,-7476.080014,1072.533697
1322.844332,6365.771101,-6735.874072,766.095498
1322.844661,6513.812290,-6217.729913,766.095498
1322.844991,7179.997637,-6143.709319,995.924147
1322.845320,8068.244768,-4737.318029,1149.143247
1322.845649,8586.388927,-4293.194464,1072.533697
1322.845978,8586.388927,-5033.400406,1302.362347
1322.846307,7772.162391,-5551.544565,1455.581446
1322.846637,6587.832884,-6513.812290,766.095498
1322.846966,5403.503377,-6735.874072,306.438199
1322.847295,4959.379811,-8068.244768,76.609550
1322.847624,4959.379811,-9030.512492,919.314598
1322.847953,5625.565159,-9548.656652,1302.362347
1322.848283,6069.688724,-9474.636058,1532.190996
1322.848612,7031.956449,-7328.038826,1072.533697
1322.848941,7476.080014,-5773.606348,919.314598
1322.849270,7846.182985,-4885.359217,536.266849
1322.849600,7476.080014,-4737.318029,689.485948
1322.849929,7698.141797,-4441.235652,1072.533697
1322.850258,7772.162391,-5551.544565,1072.533697
1322.850587,7846.182985,-6143.709319,1991.848295
1322.850916,7846.182985,-6661.853478,1762.019645
1322.851246,7105.977043,-5995.668130,842.705048
1322.851575,5995.668130,-5921.647536,536.266849
1322.851904,5773.606348,-7254.018232,229.828649
1322.852233,6143.709319,-8364.327145,1532.190996
1322.852562,6735.874072,-8586.388927,1455.581446
1322.852892,6513.812290,-7624.121203,919.314598
1322.853221,6217.729913,-6661.853478,689.485948
1322.853550,6587.832884,-5625.565159,229.828649
1322.853879,7772.162391,-5181.441594,1378.971896
1322.854208,9178.553681,-4367.215058,1608.800546
1322.854538,9548.656652,-3701.029710,2068.457845
1322.854867,8364.327145,-5107.421000,2145.067394
1322.855196,6883.915261,-5625.565159,1838.629195
1322.855525,5255.462188,-6513.812290,0.000000
1322.855854,4589.276840,-8364.327145,-383.047749
1322.856184,3997.112087,-9400.615463,459.657299
1322.856513,4663.297435,-10288.862594,842.705048
1322.856842,5181.441594,-10066.800811,995.924147
1322.857171,5921.647536,-8068.244768,1608.800546
1322.857500,6957.935855,-6957.935855,383.047749
1322.857830,7402.059420,-5107.421000,153.219100
1322.858159,7624.121203,-4589.276840,1149.143247
1322.858488,9030.512492,-4293.194464,1762.019645
1322.858817,10066.800811,-4145.153275,1915.238745
1322.859146,10066.800811,-4737.318029,2681.334243
1322.859476,9548.656652,-5107.421000,2374.896044
1322.859805,8512.368333,-4737.318029,1685.410096
1322.860134,6439.791695,-5625.565159,0.000000
1322.860463,4959.379811,-7179.997637,0.000000
1322.860792,4811.338623,-9030.512492,229.828649
1322.861122,5033.400406,-10066.800811,1225.752797
1322.861451,4885.359217,-8808.450710,766.095498
1322.861780,5329.482782,-8068.244768,383.047749
1322.862109,6735.874072,-6809.894666,229.828649
1322.862438,7846.182985,-6513.812290,1072.533697
1322.862768,8512.368333,-4885.359217,1838.629195
1322.863097,9030.512492,-4441.235652,1455.581446
1322.863426,8882.471304,-4737.318029,1532.190996
1322.863755,8586.388927,-5255.462188,1838.629195
1322.864084,7624.121203,-5995.668130,1532.190996
1322.864414,7254.018232,-6291.750507,842.705048
1322.864743,5403.503377,-7105.977043,0.000000
1322.865072,4885.359217,-8808.450710,459.657299
1322.865401,5255.462188,-9474.636058,1149.143247
1322.865730,5847.626942,-9252.574275,995.924147
1322.866060,6291.750507,-7402.059420,612.876398
1322.866389,6069.688724,-6513.812290,153.219100
1322.866718,6809.894666,-5921.647536,0.000000
1322.867047,7624.121203,-5403.503377,842.705048
1322.867376,8586.388927,-4885.359217,1608.800546
1322.867706,9400.615463,-4737.318029,1532.190996
1322.868035,9696.697840,-4515.256246,2068.457845
1322.868364,8808.450710,-4589.276840,1762.019645
1322.868693,7402.059420,-4515.256246,1685.410096
1322.869022,7105.977043,-6069.688724,536.266849
1322.869352,6365.771101,-7105.977043,766.095498
1322.869681,5921.647536,-8660.409521,1225.752797
1322.870010,6069.688724,-8438.347739,1302.362347
1322.870339,5625.565159,-7476.080014,612.876398
1322.870668,5847.626942,-7550.100608,229.828649
1322.870998,6143.709319,-6809.894666,0.000000
1322.871327,6883.915261,-6439.791695,306.438199
1322.871656,7105.977043,-5773.606348,1532.190996
1322.871985,7476.080014,-5403.503377,1915.238745
1322.872314,7624.121203,-6069.688724,1608.800546
1322.872644,7105.977043,-6439.791695,1532.190996
1322.872973,6513.812290,-7031.956449,1225.752797
1322.873302,6439.791695,-7105.977043,689.485948
1322.873631,6291.750507,-7254.018232,842.705048
1322.873961,6069.688724,-9326.594869,1225.752797
1322.874290,6513.812290,-8438.347739,1532.190996
1322.874619,6069.688724,-7698.141797,612.876398
1322.874948,6365.771101,-7105.977043,-383.047749
1322.875277,6217.729913,-5107.421000,76.609550
1322.875607,7179.997637,-5699.585753,689.485948
1322.875936,8142.265362,-5181.441594,1072.533697
1322.876265,7994.224174,-5403.503377,2374.896044
1322.876594,8290.306550,-5033.400406,1991.848295
1322.876923,8068.244768,-4737.318029,1838.629195
1322.877253,7254.018232,-5329.482782,1455.581446
1322.877582,6957.935855,-5255.462188,842.705048
1322.877911,6809.894666,-7031.956449,919.314598
1322.878240,6439.791695,-8290.306550,1762.019645
1322.878569,6513.812290,-8586.388927,2068.457845
1322.878899,6809.894666,-8364.327145,1378.971896
1322.879228,6439.791695,-6809.894666,459.657299
1322.879557,6365.771101,-6069.688724,-612.876398
1322.879886,6735.874072,-5699.585753,766.095498
1322.880215,7550.100608,-5625.565159,689.485948
1322.880545,7698.141797,-5847.626942,1378.971896
1322.880874,8808.450710,-4959.379811,1455.581446
1322.881203,7772.162391,-6069.688724,1608.800546
1322.881532,7402.059420,-6365.771101,1532.190996
1322.881861,6735.874072,-6661.853478,1072.533697
1322.882191,5773.606348,-8068.244768,229.828649
1322.882520,5625.565159,-8734.430116,76.609550
1322.882849,5477.523971,-9326.594869,842.705048
1322.883178,5773.606348,-8290.306550,1072.533697
1322.883507,6365.771101,-7179.997637,1072.533697
1322.883837,6809.894666,-6069.688724,995.924147
1322.884166,7624.121203,-4663.297435,919.314598
1322.884495,8068.244768,-4293.194464,1149.143247
1322.884824,8586.388927,-3997.112087,1225.752797
1322.885153,7994.224174,-5033.400406,1532.190996
1322.885483,7624.121203,-5329.482782,2451.505594
1322.885812,7772.162391,-5551.544565,1302.362347
1322.886141,7179.997637,-5847.626942,1149.143247
1322.886470,7105.977043,-6735.874072,995.924147
1322.886799,6587.832884,-7920.203579,842.705048
1322.887129,6513.812290,-8290.306550,1762.019645
1322.887458,6365.771101,-8734.430116,842.705048
1322.887787,5551.544565,-7772.162391,0.000000
1322.888116,5107.421000,-6957.935855,-76.609550
1322.888445,5847.626942,-6587.832884,-842.705048
1322.888775,6957.935855,-6587.832884,919.314598
1322.889104,7772.162391,-6217.729913,1455.581446
1322.889433,8068.244768,-5921.647536,1378.971896
1322.889762,7328.038826,-5699.585753,1532.190996
1322.890091,7402.059420,-6069.688724,1378.971896
1322.890421,6883.915261,-6291.750507,842.705048
1322.890750,6439.791695,-7846.182985,612.876398
1322.891079,5847.626942,-8438.347739,1072.533697
1322.891408,6143.709319,-8290.306550,919.314598
1322.891737,6587.832884,-8290.306550,1608.800546
1322.892067,6439.791695,-7105.977043,1225.752797
1322.892396,7105.977043,-6661.853478,842.705048
1322.892725,6883.915261,-5255.462188,766.095498
1322.893054,6365.771101,-4811.338623,842.705048
1322.893383,7476.080014,-4737.318029,919.314598
1322.893713,8364.327145,-4219.173869,1608.800546
1322.894042,8216.285956,-5921.647536,2068.457845
1322.894371,7994.224174,-4959.379811,2068.457845
1322.894700,7772.162391,-4811.338623,1532.190996
1322.895029,7179.997637,-5773.606348,995.924147
1322.895359,6809.894666,-6143.709319,1149.143247
1322.895688,6957.935855,-8586.388927,1378.971896
1322.896017,7105.977043,-7994.224174,1225.752797
1322.896346,6587.832884,-7179.997637,1072.533697
1322.896676,7031.956449,-7031.956449,689.485948
1322.897005,7550.100608,-5033.400406,995.924147
1322.897334,7772.162391,-5033.400406,383.047749
1322.897663,8142.265362,-4811.338623,689.485948
1322.897992,7328.038826,-4885.359217,842.705048
1322.898322,6957.935855,-6439.791695,1302.362347
1322.898651,6661.853478,-6587.832884,1302.362347
1322.898980,6365.771101,-6809.894666,766.095498
1322.899309,5551.544565,-7772.162391,0.000000
1322.899638,5403.503377,-8586.388927,153.219100
1322.899968,5699.585753,-10214.842000,1838.629195
1322.900297,6439.791695,-9622.677246,1685.410096
1322.900626,6809.894666,-7698.141797,1455.581446
1322.900955,6439.791695,-7254.018232,766.095498
1322.901284,6587.832884,-6069.688724,0.000000
1322.901614,7031.956449,-5551.544565,229.828649
1322.901943,7624.121203,-5107.421000,842.705048
1322.902272,8512.368333,-4737.318029,995.924147
1322.902601,8660.409521,-4367.215058,1838.629195
1322.902930,8512.368333,-5255.462188,1915.238745
1322.903260,7772.162391,-5181.441594,1302.362347
1322.903589,7105.977043,-5329.482782,842.705048
1322.903918,6439.791695,-7031.956449,383.047749
1322.904247,6439.791695,-7994.224174,1608.800546
1322.904576,7105.977043,-8660.409521,1762.019645
1322.904906,6957.935855,-8364.327145,1532.190996
1322.905235,6439.791695,-7105.977043,1149.143247
1322.905564,6809.894666,-6365.771101,766.095498
1322.905893,7254.018232,-5551.544565,536.266849
1322.906222,7772.162391,-4441.235652,919.314598
1322.906552,7624.121203,-4145.153275,766.095498
1322.906881,7254.018232,-5921.647536,1072.533697
1322.907210,7402.059420,-5773.606348,1762.019645
1322.907539,6587.832884,-7179.997637,1915.238745
1322.907868,6217.729913,-6957.935855,612.876398
1322.908198,6439.791695,-7402.059420,1302.362347
1322.908527,5625.565159,-9770.718434,919.314598
1322.908856,5477.523971,-9696.697840,995.924147
1322.909185,4959.379811,-9030.512492,612.876398
1322.909514,5181.441594,-7920.203579,-229.828649
1322.909844,6809.894666,-6587.832884,76.609550
1322.910173,6957.935855,-6957.935855,536.266849
1322.910502,7772.162391,-5699.585753,1378.971896
1322.910831,8438.347739,-4441.235652,1149.143247
1322.911160,8808.450710,-4367.215058,1302.362347
1322.911490,8364.327145,-4589.276840,1532.190996
1322.911819,8290.306550,-4811.338623,612.876398
1322.912148,7624.121203,-5181.441594,1378.971896
1322.912477,6735.874072,-5995.668130,536.266849
1322.912806,6365.771101,-7105.977043,766.095498
1322.913136,6883.915261,-8438.347739,1532.190996
1322.913465,7402.059420,-8364.327145,2068.457845
1322.913794,7031.956449,-7031.956449,1685.410096
1322.914123,6883.915261,-6735.874072,766.095498
1322.914452,6439.791695,-6069.688724,459.657299
1322.914782,6735.874072,-6365.771101,919.314598
1322.915111,7402.059420,-5329.482782,842.705048
1322.915440,7624.121203,-5033.400406,1608.800546
1322.915769,8068.244768,-6365.771101,1455.581446
1322.916098,7328.038826,-6143.709319,1225.752797
1322.916428,6291.750507,-6883.915261,1225.752797
1322.916757,5773.606348,-7846.182985,459.657299
1322.917086,5329.482782,-7550.100608,459.657299
1322.917415,5107.421000,-9104.533087,919.314598
1322.917744,6439.791695,-9104.533087,1149.143247
1322.918074,7105.977043,-7476.080014,1149.143247
1322.918403,7031.956449,-7105.977043,689.485948
1322.918732,7105.977043,-4737.318029,229.828649
1322.919061,7772.162391,-5329.482782,689.485948
1322.919390,8290.306550,-4811.338623,919.314598
1322.919720,8068.244768,-5107.421000,1149.143247
1322.920049,7846.182985,-5329.482782,1762.019645
1322.920378,7254.018232,-4219.173869,1149.143247
1322.920707,6957.935855,-5699.585753,1455.581446
1322.921037,7031.956449,-5255.462188,842.705048
1322.921366,6513.812290,-6809.894666,766.095498
1322.921695,7031.956449,-7920.203579,1838.629195
1322.922024,7105.977043,-8068.244768,2068.457845
1322.922353,7105.977043,-7105.977043,1072.533697
1322.922683,6883.915261,-6365.771101,612.876398
1322.923012,6587.832884,-6291.750507,229.828649
1322.923341,7476.080014,-6069.688724,1149.143247
1322.923670,7698.141797,-5255.462188,612.876398
1322.923999,7772.162391,-4885.359217,842.705048
1322.924329,7476.080014,-5551.544565,1455.581446
1322.924658,7402.059420,-6143.709319,2221.676944
1322.924987,7328.038826,-7105.977043,1685.410096
1322.925316,6291.750507,-7105.977043,842.705048
1322.925645,4885.359217,-8068.244768,-306.438199
1322.925975,4663.297435,-9992.780217,76.609550
1322.926304,4663.297435,-10807.006753,689.485948
1322.926633,5255.462188,-10436.903782,459.657299
1322.926962,5255.462188,-8660.409521,612.876398
1322.927291,6143.709319,-7254.018232,459.657299
1322.927621,6439.791695,-6883.915261,306.438199
1322.927950,6365.771101,-6439.791695,1302.362347
1322.928279,6809.894666,-5551.544565,612.876398
1322.928608,6809.894666,-5921.647536,536.266849
1322.928937,7031.956449,-7328.038826,1532.190996
1322.929266,7105.977043,-7550.100608,1685.410096
1322.929595,6439.791695,-7179.997637,1455.581446
1322.929925,5551.544565,-7254.018232,536.266849
1322.930254,4885.359217,-8216.285956,536.266849
1322.930583,5477.523971,-9696.697840,1225.752797
1322.930912,6661.853478,-9400.615463,1915.238745
1322.931241,5773.606348,-8290.306550,1532.190996
1322.931570,5847.626942,-6069.688724,1225.752797
1322.931899,6217.729913,-4959.379811,1838.629195
1322.932228,7994.224174,-4293.194464,2451.505594
1322.932558,8956.491898,-3849.070898,2221.676944
1322.932887,8068.244768,-3997.112087,1455.581446
1322.933216,6513.812290,-5921.647536,1455.581446
1322.933545,5847.626942,-7402.059420,1685.410096
1322.933874,4663.297435,-9030.512492,1762.019645
1322.934203,3478.967927,-10955.047942,306.438199
1322.934532,1110.308913,-13175.665768,0.000000
1322.934861,666.185348,-14137.933492,0.000000
1322.935191,1480.411884,-14211.954086,536.266849
1322.935520,2664.741391,-13323.706956,1685.410096
1322.935849,3330.926739,-9400.615463,1378.971896
1322.936178,4515.256246,-7994.224174,2451.505594
1322.936507,5477.523971,-6217.729913,2451.505594
1322.936836,6217.729913,-3478.967927,2451.505594
1322.937165,7328.038826,-3108.864956,2374.896044
1322.937494,7105.977043,-3478.967927,995.924147
1322.937824,6587.832884,-5773.606348,536.266849
1322.938153,5329.482782,-7920.203579,919.314598
1322.938482,3923.091493,-10658.965565,612.876398
1322.938811,3182.885551,-12139.377449,76.609550
1322.939140,2516.700203,-12953.603985,229.828649
1322.939469,2960.823768,-13841.851115,0.000000
1322.939798,3404.947333,-13841.851115,-153.219100
1322.940127,2516.700203,-12287.418637,-689.485948
1322.940457,2590.720797,-12361.439231,-995.924147
1322.940786,2886.803174,-11547.212695,-1072.533697
1322.941115,2812.782580,-10140.821405,-919.314598
1322.941444,3478.967927,-9770.718434,3217.601092
1322.941773,6143.709319,-6217.729913,1838.629195
1322.942102,8660.409521,-2664.741391,4826.401637
1322.942431,11325.150913,444.123565,4213.525239
1322.942760,11621.233289,740.205942,3677.258390
1322.943090,9252.574275,370.102971,2145.067394
1322.943419,6217.729913,-5477.523971,76.609550
1322.943748,4959.379811,-7105.977043,-229.828649
1322.944077,3701.029710,-11991.336260,-76.609550
1322.944406,4737.318029,-14137.933492,3140.991542
1322.944735,6809.894666,-11325.150913,1685.410096
1322.945064,6661.853478,-11251.130318,1838.629195
1322.945394,4515.256246,-10955.047942,1685.410096
1322.945723,2886.803174,-10066.800811,383.047749
1322.946052,1702.473667,-9252.574275,-1455.581446
1322.946381,-666.185348,-10362.883188,-2451.505594
1322.946710,888.247130,-11473.192101,-919.314598
1322.947039,3330.926739,-11399.171507,-229.828649
1322.947368,5625.565159,-9474.636058,1532.190996
1322.947697,6661.853478,-7698.141797,842.705048
1322.948027,7254.018232,-4737.318029,229.828649
1322.948356,6513.812290,-5921.647536,1378.971896
1322.948685,6217.729913,-6957.935855,1991.848295
1322.949014,7550.100608,-7328.038826,2834.553343
1322.949343,8438.347739,-7476.080014,4366.744339
1322.949672,9992.780217,-7550.100608,4903.011187
1322.950001,9252.574275,-6365.771101,4903.011187
1322.950330,6291.750507,-6587.832884,3600.648841
1322.950660,4219.173869,-5995.668130,919.314598
1322.950989,2368.659014,-7105.977043,-459.657299
1322.951318,1628.453072,-9104.533087,0.000000
1322.951647,1036.288319,-10436.903782,-459.657299
1322.951976,1554.432478,-9770.718434,-1455.581446
1322.952305,1850.514855,-10362.883188,-1838.629195
1322.952634,1998.556043,-10214.842000,-919.314598
1322.952963,4515.256246,-10807.006753,612.876398
1322.953293,6291.750507,-12139.377449,1302.362347
1322.953622,6143.709319,-11621.233289,2528.115143
1322.953951,5033.400406,-11473.192101,2451.505594
1322.954280,5699.585753,-10140.821405,2374.896044
1322.954609,5699.585753,-8142.265362,3140.991542
1322.954938,6513.812290,-7031.956449,3677.258390
1322.955267,6365.771101,-5329.482782,3907.087040
1322.955596,6217.729913,-5255.462188,3447.429741
1322.955926,6735.874072,-5255.462188,2834.553343
1322.956255,5477.523971,-5773.606348,2298.286494
1322.956584,5033.400406,-6809.894666,1915.238745
1322.956913,4663.297435,-7846.182985,1072.533697
1322.957242,3627.009116,-9252.574275,919.314598
1322.957571,3256.906145,-9844.739029,1225.752797
1322.957900,3701.029710,-10955.047942,1378.971896
1322.958229,3923.091493,-12435.459826,1838.629195
1322.958559,2960.823768,-11917.315666,1838.629195
1322.958888,3701.029710,-10881.027347,2374.896044
1322.959217,5921.647536,-8364.327145,3140.991542
1322.959546,7476.080014,-6439.791695,3753.867940
1322.959875,8142.265362,-5107.421000,5056.230287
1322.960204,8512.368333,-3478.967927,3907.087040
1322.960533,8882.471304,-3923.091493,3677.258390
1322.960862,7624.121203,-3923.091493,2987.772442
1322.961192,6661.853478,-5107.421000,2068.457845
1322.961521,6587.832884,-6069.688724,1532.190996
1322.961850,6809.894666,-7105.977043,2068.457845
1322.962179,6661.853478,-9178.553681,2757.943793
1322.962508,6809.894666,-8364.327145,3907.087040
1322.962837,7254.018232,-8364.327145,3983.696590
1322.963166,5181.441594,-8438.347739,3217.601092
1322.963496,4663.297435,-7772.162391,3370.820191
1322.963825,6069.688724,-6439.791695,3294.210641
1322.964154,7920.203579,-5699.585753,4826.401637
1322.964483,9104.533087,-4219.173869,5822.325785
1322.964812,9770.718434,-2516.700203,5822.325785
1322.965141,10066.800811,-2442.679609,5362.668486
1322.965470,9400.615463,-3108.864956,4673.182538
1322.965799,7402.059420,-5033.400406,4519.963438
1322.966129,6957.935855,-6069.688724,2911.162892
1322.966458,6809.894666,-7698.141797,3370.820191
1322.966787,5995.668130,-9474.636058,3370.820191
1322.967116,5551.544565,-10881.027347,3064.381992
1322.967445,4441.235652,-11473.192101,3600.648841
1322.967774,3404.947333,-11547.212695,2834.553343
1322.968103,2516.700203,-10436.903782,3140.991542
1322.968432,2886.803174,-9548.656652,3370.820191
1322.968762,4663.297435,-7105.977043,4366.744339
1322.969091,7031.956449,-5255.462188,4979.620737
1322.969420,8808.450710,-4441.235652,5209.449386
1322.969749,9918.759623,-3627.009116,6511.811733
1322.970078,9992.780217,-2738.761985,6358.592633
1322.970407,10066.800811,-2590.720797,5592.497135
1322.970736,9770.718434,-2886.803174,5439.278036
1322.971065,9474.636058,-4367.215058,5209.449386
1322.971395,8660.409521,-5773.606348,4903.011187
1322.971724,7920.203579,-6957.935855,4596.572988
1322.972053,6809.894666,-7254.018232,4136.915689
1322.972382,5477.523971,-8438.347739,3677.258390
1322.972711,4219.173869,-10288.862594,3907.087040
1322.973040,3034.844362,-10732.986159,4290.134789
1322.973369,2960.823768,-10584.944971,3753.867940
