#time,accel_x,accel_y,accel_z
1302.407981,7328.038826,-6291.750507,1149.143247
1302.408312,7254.018232,-6217.729913,842.705048
1302.408642,7105.977043,-6291.750507,842.705048
1302.408973,7550.100608,-6143.709319,689.485948
1302.409303,7179.997637,-5995.668130,919.314598
1302.409634,6957.935855,-6513.812290,1302.362347
1302.409964,6957.935855,-6513.812290,1225.752797
1302.410295,7328.038826,-5995.668130,1149.143247
1302.410625,6735.874072,-6439.791695,1149.143247
1302.410956,6735.874072,-6809.894666,842.705048
1302.411286,6661.853478,-6661.853478,1762.019645
1302.411616,6661.853478,-6661.853478,1302.362347
1302.411947,6587.832884,-6809.894666,1225.752797
1302.412277,6809.894666,-6439.791695,995.924147
1302.412608,7031.956449,-6587.832884,995.924147
1302.412938,7031.956449,-6883.915261,995.924147
1302.413269,6587.832884,-7105.977043,689.485948
1302.413599,6661.853478,-7105.977043,1302.362347
1302.413930,7031.956449,-6661.853478,995.924147
1302.414260,7105.977043,-6291.750507,919.314598
1302.414590,7105.977043,-6735.874072,995.924147
1302.414921,7105.977043,-6809.894666,842.705048
1302.415251,7105.977043,-6661.853478,1302.362347
1302.415582,7105.977043,-6587.832884,919.314598
1302.415912,7105.977043,-6439.791695,1302.362347
1302.416243,6957.935855,-6143.709319,766.095498
1302.416573,7402.059420,-6661.853478,1072.533697
1302.416904,6883.915261,-6217.729913,1225.752797
1302.417234,6883.915261,-6217.729913,995.924147
1302.417564,6883.915261,-6439.791695,1378.971896
1302.417895,7328.038826,-5921.647536,1378.971896
1302.418225,6883.915261,-6365.771101,1149.143247
1302.418556,6809.894666,-6809.894666,689.485948
1302.418886,6809.894666,-6661.853478,1302.362347
1302.419217,6809.894666,-6735.874072,919.314598
1302.419547,7105.977043,-6883.915261,766.095498
1302.419878,6735.874072,-6661.853478,1072.533697
1302.420208,7031.956449,-6957.935855,919.314598
1302.420539,6809.894666,-6883.915261,1225.752797
1302.420869,6735.874072,-6513.812290,995.924147
1302.421199,7031.956449,-6587.832884,842.705048
1302.421530,7179.997637,-6513.812290,995.924147
1302.421860,7476.080014,-6661.853478,1072.533697
1302.422191,7179.997637,-6439.791695,1149.143247
1302.422521,7698.141797,-6513.812290,1532.190996
1302.422852,7105.977043,-6439.791695,1072.533697
1302.423182,7328.038826,-6661.853478,1072.533697
1302.423513,7105.977043,-6587.832884,919.314598
1302.423843,7254.018232,-6587.832884,842.705048
1302.424173,7550.100608,-6217.729913,1225.752797
1302.424504,6883.915261,-6365.771101,1378.971896
1302.424834,7031.956449,-6217.729913,1149.143247
1302.425165,7105.977043,-6291.750507,1149.143247
1302.425495,7031.956449,-6143.709319,842.705048
1302.425826,6883.915261,-6217.729913,766.095498
1302.426156,6513.812290,-6883.915261,1225.752797
1302.426487,6883.915261,-7105.977043,919.314598
1302.426817,6809.894666,-6365.771101,1302.362347
1302.427148,6735.874072,-6809.894666,1455.581446
1302.427478,6291.750507,-6957.935855,995.924147
1302.427808,6809.894666,-6809.894666,919.314598
1302.428139,6513.812290,-7031.956449,1072.533697
1302.428469,7031.956449,-7031.956449,1225.752797
1302.428800,7105.977043,-6587.832884,919.314598
1302.429130,7031.956449,-6365.771101,1302.362347
1302.429461,7031.956449,-7179.997637,842.705048
1302.429791,7328.038826,-6291.750507,1225.752797
1302.430122,7105.977043,-5921.647536,1149.143247
1302.430452,7105.977043,-6365.771101,1149.143247
1302.430782,7105.977043,-5921.647536,842.705048
1302.431113,7105.977043,-6809.894666,842.705048
1302.431443,6883.915261,-6291.750507,459.657299
1302.431774,6957.935855,-6291.750507,919.314598
1302.432104,6883.915261,-6587.832884,1225.752797
1302.432435,6661.853478,-6291.750507,1225.752797
1302.432765,6809.894666,-6735.874072,1072.533697
1302.433096,6735.874072,-6513.812290,689.485948
1302.433426,6513.812290,-6957.935855,1302.362347
1302.433756,6735.874072,-6661.853478,842.705048
1302.434087,6735.874072,-6661.853478,689.485948
1302.434417,6809.894666,-6587.832884,1149.143247
1302.434748,7031.956449,-6661.853478,1225.752797
1302.435078,7179.997637,-6809.894666,919.314598
1302.435409,6957.935855,-6809.894666,842.705048
1302.435739,6957.935855,-6587.832884,995.924147
1302.436070,6957.935855,-6365.771101,383.047749
1302.436400,7031.956449,-6439.791695,1072.533697
1302.436731,7105.977043,-6661.853478,919.314598
1302.437061,7328.038826,-6069.688724,1072.533697
1302.437391,7328.038826,-6291.750507,1225.752797
1302.437722,6957.935855,-5847.626942,1455.581446
1302.438052,7254.018232,-6365.771101,1302.362347
1302.438383,7550.100608,-6365.771101,995.924147
1302.438713,7179.997637,-6291.750507,1225.752797
1302.439044,7031.956449,-6439.791695,1302.362347
1302.439374,6661.853478,-5773.606348,689.485948
1302.439705,7031.956449,-6587.832884,919.314598
1302.440035,6587.832884,-6365.771101,919.314598
1302.440365,6735.874072,-6291.750507,689.485948
1302.440696,6809.894666,-6661.853478,842.705048
1302.441026,7105.977043,-7031.956449,1685.410096
1302.441357,7105.977043,-6661.853478,919.314598
1302.441687,6957.935855,-6587.832884,1149.143247
1302.442018,6809.894666,-6661.853478,1072.533697
1302.442348,6957.935855,-6661.853478,536.266849
1302.442679,6439.791695,-7476.080014,1302.362347
1302.443009,6661.853478,-6883.915261,842.705048
1302.443340,6957.935855,-6661.853478,689.485948
1302.443670,7476.080014,-6587.832884,1608.800546
1302.444000,6957.935855,-6883.915261,1072.533697
1302.444331,7179.997637,-6661.853478,1302.362347
1302.444661,7179.997637,-6661.853478,1149.143247
1302.444992,7105.977043,-6661.853478,842.705048
1302.445322,6957.935855,-6069.688724,1991.848295
1302.445653,7105.977043,-6365.771101,689.485948
1302.445983,6883.915261,-6217.729913,1455.581446
1302.446314,6809.894666,-6217.729913,1378.971896
1302.446644,7031.956449,-6365.771101,1072.533697
1302.446974,7031.956449,-6217.729913,1149.143247
1302.447305,6809.894666,-6291.750507,1072.533697
1302.447635,6661.853478,-7105.977043,919.314598
1302.447966,6661.853478,-6661.853478,919.314598
1302.448296,6809.894666,-6809.894666,536.266849
1302.448627,6365.771101,-6809.894666,1149.143247
1302.448957,6661.853478,-6661.853478,919.314598
1302.449288,6957.935855,-6735.874072,842.705048
1302.449618,7105.977043,-7105.977043,536.266849
1302.449949,7328.038826,-6883.915261,842.705048
1302.450279,7105.977043,-6735.874072,1225.752797
1302.450609,7254.018232,-6883.915261,842.705048
1302.450940,7105.977043,-6439.791695,1302.362347
1302.451270,7772.162391,-6661.853478,1302.362347
1302.451601,7179.997637,-6883.915261,1149.143247
1302.451931,7105.977043,-6365.771101,842.705048
1302.452262,7105.977043,-6735.874072,612.876398
1302.452592,6957.935855,-6291.750507,1225.752797
1302.452923,7698.141797,-6291.750507,1532.190996
1302.453253,7328.038826,-6513.812290,1378.971896
1302.453583,7105.977043,-5847.626942,1149.143247
1302.453914,6735.874072,-6143.709319,842.705048
1302.454244,6809.894666,-5847.626942,536.266849
1302.454575,7254.018232,-6291.750507,1149.143247
1302.454905,7179.997637,-6513.812290,919.314598
1302.455236,7031.956449,-6587.832884,1149.143247
1302.455566,6957.935855,-7105.977043,1149.143247
1302.455897,7328.038826,-6809.894666,1225.752797
1302.456227,6661.853478,-7031.956449,842.705048
1302.456557,6587.832884,-6883.915261,1225.752797
1302.456888,6957.935855,-6957.935855,689.485948
1302.457218,6883.915261,-6957.935855,1149.143247
1302.457549,6439.791695,-6883.915261,1072.533697
1302.457879,6957.935855,-6291.750507,1072.533697
1302.458210,7105.977043,-6217.729913,995.924147
1302.458540,7105.977043,-6513.812290,995.924147
1302.458871,7031.956449,-6365.771101,1149.143247
1302.459201,7179.997637,-6587.832884,995.924147
1302.459532,6439.791695,-6439.791695,689.485948
1302.459862,6587.832884,-6439.791695,1072.533697
1302.460192,6809.894666,-6513.812290,919.314598
1302.460523,7031.956449,-6883.915261,1455.581446
1302.460853,7031.956449,-6439.791695,1072.533697
1302.461184,6883.915261,-6735.874072,1302.362347
1302.461514,7105.977043,-6809.894666,1149.143247
1302.461845,6957.935855,-6513.812290,1455.581446
1302.462175,6513.812290,-6069.688724,383.047749
1302.462506,6735.874072,-6439.791695,766.095498
1302.462836,6661.853478,-6735.874072,1149.143247
1302.463166,6217.729913,-7105.977043,919.314598
1302.463497,6809.894666,-6513.812290,766.095498
1302.463827,6735.874072,-6513.812290,1072.533697
1302.464158,6883.915261,-7105.977043,842.705048
1302.464488,6661.853478,-7105.977043,842.705048
1302.464819,6661.853478,-7254.018232,995.924147
1302.465149,7105.977043,-6217.729913,995.924147
1302.465480,7179.997637,-6587.832884,1532.190996
1302.465810,7105.977043,-6587.832884,1072.533697
1302.466141,7105.977043,-6735.874072,1072.533697
1302.466471,7179.997637,-6143.709319,995.924147
1302.466801,7105.977043,-6291.750507,612.876398
1302.467132,6957.935855,-6217.729913,995.924147
1302.467462,7328.038826,-5921.647536,1072.533697
1302.467793,7550.100608,-6365.771101,766.095498
1302.468123,7179.997637,-6365.771101,919.314598
1302.468454,7105.977043,-6217.729913,919.314598
1302.468784,7179.997637,-6217.729913,1149.143247
1302.469115,7254.018232,-6143.709319,1149.143247
1302.469445,6957.935855,-6513.812290,842.705048
1302.469775,6587.832884,-6439.791695,1072.533697
1302.470106,6809.894666,-7031.956449,1072.533697
1302.470436,6809.894666,-6661.853478,995.924147
1302.470767,6883.915261,-6587.832884,842.705048
1302.471097,7105.977043,-6365.771101,1455.581446
1302.471428,6957.935855,-6661.853478,1149.143247
1302.471758,6809.894666,-6957.935855,919.314598
1302.472089,6735.874072,-6957.935855,1149.143247
1302.472419,6587.832884,-6957.935855,689.485948
1302.472750,6957.935855,-6883.915261,1532.190996
1302.473080,6957.935855,-6365.771101,1149.143247
1302.473410,7105.977043,-6661.853478,995.924147
1302.473740,7105.977043,-6661.853478,1302.362347
1302.474069,7105.977043,-6217.729913,1378.971896
1302.474399,7105.977043,-6513.812290,995.924147
1302.474728,7031.956449,-6217.729913,1149.143247
1302.475057,7179.997637,-6513.812290,919.314598
1302.475387,6957.935855,-6291.750507,1225.752797
1302.475716,6883.915261,-6735.874072,1532.190996
1302.476046,7031.956449,-6439.791695,1225.752797
1302.476375,7031.956449,-6439.791695,1072.533697
1302.476704,6439.791695,-6587.832884,995.924147
1302.477034,6587.832884,-6439.791695,842.705048
1302.477363,6365.771101,-7105.977043,1149.143247
1302.477693,6957.935855,-6883.915261,1072.533697
1302.478022,6809.894666,-6513.812290,995.924147
1302.478351,6809.894666,-6217.729913,1149.143247
1302.478681,6735.874072,-6661.853478,1302.362347
1302.479010,6513.812290,-6735.874072,1072.533697
1302.479340,6661.853478,-6883.915261,1302.362347
1302.479669,6883.915261,-6513.812290,842.705048
1302.479998,7031.956449,-6587.832884,842.705048
1302.480328,7624.121203,-6365.771101,1378.971896
1302.480657,7105.977043,-7031.956449,995.924147
1302.480987,7179.997637,-6587.832884,919.314598
1302.481316,7105.977043,-6661.853478,612.876398
1302.481645,7328.038826,-6587.832884,612.876398
1302.481975,7105.977043,-5995.668130,919.314598
1302.482304,7254.018232,-6661.853478,1072.533697
1302.482634,7105.977043,-5995.668130,689.485948
1302.482963,6883.915261,-6069.688724,1302.362347
1302.483292,7254.018232,-6365.771101,919.314598
1302.483622,7031.956449,-6661.853478,1302.362347
1302.483951,7105.977043,-6365.771101,919.314598
1302.484281,6957.935855,-6809.894666,1149.143247
1302.484610,7328.038826,-6513.812290,1302.362347
1302.484939,7105.977043,-7031.956449,919.314598
1302.485269,7031.956449,-6661.853478,766.095498
1302.485598,6735.874072,-6661.853478,919.314598
1302.485928,6957.935855,-6587.832884,995.924147
1302.486257,6661.853478,-6661.853478,1378.971896
1302.486586,6513.812290,-6809.894666,919.314598
1302.486916,6809.894666,-6661.853478,1149.143247
1302.487245,6957.935855,-6735.874072,1072.533697
1302.487575,7105.977043,-6735.874072,1149.143247
1302.487904,7550.100608,-6291.750507,766.095498
1302.488233,7328.038826,-6513.812290,842.705048
1302.488563,7550.100608,-6291.750507,919.314598
1302.488892,7031.956449,-6661.853478,1072.533697
1302.489222,7105.977043,-6365.771101,612.876398
1302.489551,7179.997637,-6439.791695,153.219100
1302.489880,7105.977043,-6587.832884,1225.752797
1302.490210,6957.935855,-6513.812290,1302.362347
1302.490539,6957.935855,-6513.812290,1149.143247
1302.490869,7031.956449,-6365.771101,1072.533697
1302.491198,6661.853478,-6291.750507,1149.143247
1302.491527,6513.812290,-6439.791695,766.095498
1302.491857,6439.791695,-6809.894666,842.705048
1302.492186,6143.709319,-6809.894666,1149.143247
1302.492516,6513.812290,-6587.832884,995.924147
1302.492845,6809.894666,-6883.915261,1225.752797
1302.493174,6661.853478,-7031.956449,1378.971896
1302.493504,6809.894666,-7179.997637,995.924147
1302.493833,7328.038826,-7550.100608,1532.190996
1302.494163,6883.915261,-7105.977043,1072.533697
1302.494492,6957.935855,-6735.874072,766.095498
1302.494821,7031.956449,-6365.771101,1072.533697
1302.495151,6957.935855,-6513.812290,1302.362347
1302.495480,7476.080014,-6513.812290,995.924147
1302.495810,7179.997637,-6217.729913,1072.533697
1302.496139,7105.977043,-6439.791695,1149.143247
1302.496468,7179.997637,-5921.647536,766.095498
1302.496798,6883.915261,-6143.709319,1838.629195
1302.497127,7254.018232,-6513.812290,1149.143247
1302.497457,7031.956449,-6217.729913,995.924147
1302.497786,7105.977043,-6291.750507,1149.143247
1302.498115,7105.977043,-6439.791695,919.314598
1302.498445,7254.018232,-6069.688724,842.705048
1302.498774,6809.894666,-6809.894666,842.705048
1302.499104,7031.956449,-6513.812290,995.924147
1302.499433,6661.853478,-6587.832884,842.705048
1302.499762,7105.977043,-6439.791695,842.705048
1302.500092,6957.935855,-6661.853478,612.876398
1302.500421,7031.956449,-6661.853478,995.924147
1302.500751,6957.935855,-6661.853478,842.705048
1302.501080,6883.915261,-6661.853478,842.705048
1302.501409,7105.977043,-6957.935855,842.705048
1302.501739,6957.935855,-7105.977043,919.314598
1302.502068,7105.977043,-6217.729913,1455.581446
1302.502398,7179.997637,-6883.915261,1149.143247
1302.502727,7328.038826,-6809.894666,1072.533697
1302.503056,7105.977043,-5921.647536,1072.533697
1302.503386,6957.935855,-6587.832884,766.095498
1302.503715,7031.956449,-6513.812290,995.924147
1302.504045,7105.977043,-6291.750507,1225.752797
1302.504374,7328.038826,-6291.750507,1608.800546
1302.504703,6365.771101,-6143.709319,1685.410096
1302.505033,6957.935855,-6365.771101,1302.362347
1302.505362,6883.915261,-6661.853478,1685.410096
1302.505692,6809.894666,-6217.729913,1532.190996
1302.506021,7031.956449,-6291.750507,1225.752797
1302.506350,6809.894666,-6809.894666,919.314598
1302.506680,6809.894666,-6957.935855,1149.143247
1302.507009,6735.874072,-6883.915261,842.705048
1302.507339,6735.874072,-6809.894666,995.924147
1302.507668,6957.935855,-6661.853478,1225.752797
1302.507997,6439.791695,-6883.915261,536.266849
1302.508327,6365.771101,-7031.956449,919.314598
1302.508656,6513.812290,-7105.977043,1225.752797
1302.508986,6957.935855,-6217.729913,842.705048
1302.509315,6735.874072,-6439.791695,1302.362347
1302.509644,6439.791695,-6439.791695,689.485948
1302.509974,6883.915261,-6661.853478,842.705048
1302.510303,7105.977043,-6883.915261,1225.752797
1302.510633,7105.977043,-6291.750507,919.314598
1302.510962,7179.997637,-6217.729913,995.924147
1302.511291,7179.997637,-6365.771101,1072.533697
1302.511621,7772.162391,-7105.977043,1378.971896
1302.511950,7328.038826,-5699.585753,1455.581446
1302.512280,7105.977043,-6365.771101,995.924147
1302.512609,7105.977043,-6291.750507,842.705048
1302.512938,7179.997637,-6291.750507,1072.533697
1302.513268,6735.874072,-6439.791695,995.924147
1302.513597,6587.832884,-6291.750507,842.705048
1302.513927,6735.874072,-6587.832884,1072.533697
1302.514256,6883.915261,-7031.956449,1149.143247
1302.514585,7105.977043,-6513.812290,1149.143247
1302.514915,7254.018232,-6587.832884,1532.190996
1302.515244,7105.977043,-7031.956449,1302.362347
1302.515574,6957.935855,-6661.853478,1608.800546
1302.515903,7105.977043,-6513.812290,1072.533697
1302.516232,6883.915261,-6587.832884,919.314598
1302.516562,7105.977043,-5995.668130,1072.533697
1302.516891,7179.997637,-6439.791695,1149.143247
1302.517221,7105.977043,-6587.832884,1225.752797
1302.517550,7328.038826,-6217.729913,1072.533697
1302.517879,7031.956449,-6143.709319,1072.533697
1302.518209,7254.018232,-6069.688724,1072.533697
1302.518538,7031.956449,-6217.729913,842.705048
1302.518868,7105.977043,-6365.771101,1149.143247
1302.519197,7328.038826,-6439.791695,1455.581446
1302.519526,7031.956449,-5477.523971,1302.362347
1302.519856,7105.977043,-6439.791695,1378.971896
1302.520185,7105.977043,-6439.791695,1455.581446
1302.520515,6587.832884,-6587.832884,1072.533697
1302.520844,6661.853478,-6735.874072,1225.752797
1302.521173,6883.915261,-6439.791695,1685.410096
1302.521503,6513.812290,-6957.935855,1532.190996
1302.521832,6809.894666,-7105.977043,1378.971896
1302.522162,6587.832884,-6957.935855,1072.533697
1302.522491,6809.894666,-6883.915261,842.705048
1302.522820,6587.832884,-6957.935855,689.485948
1302.523150,6439.791695,-7105.977043,1072.533697
1302.523479,6735.874072,-7105.977043,766.095498
1302.523809,7105.977043,-6957.935855,1225.752797
1302.524138,7254.018232,-6365.771101,1225.752797
1302.524467,7179.997637,-6883.915261,919.314598
1302.524797,7105.977043,-6661.853478,1225.752797
1302.525126,7254.018232,-6291.750507,766.095498
1302.525456,7031.956449,-6365.771101,1072.533697
1302.525785,7105.977043,-5921.647536,1378.971896
1302.526114,7328.038826,-5255.462188,842.705048
1302.526444,7920.203579,-5255.462188,1455.581446
1302.526773,8068.244768,-5255.462188,1378.971896
1302.527103,8438.347739,-4885.359217,1455.581446
1302.527432,7846.182985,-5773.606348,1455.581446
1302.527761,6735.874072,-6143.709319,383.047749
1302.528091,5551.544565,-7254.018232,0.000000
1302.528420,6439.791695,-6661.853478,76.609550
1302.528750,6883.915261,-7328.038826,1149.143247
1302.529079,8068.244768,-6735.874072,1455.581446
1302.529408,8364.327145,-5995.668130,1838.629195
1302.529738,8142.265362,-4663.297435,1378.971896
1302.530067,8142.265362,-4885.359217,689.485948
1302.530397,7624.121203,-5255.462188,689.485948
1302.530726,8142.265362,-4441.235652,766.095498
1302.531055,9030.512492,-4589.276840,1302.362347
1302.531385,9252.574275,-3775.050304,1532.190996
1302.531714,8660.409521,-4145.153275,1302.362347
1302.532044,8882.471304,-4737.318029,1378.971896
1302.532373,8956.491898,-4145.153275,842.705048
1302.532702,8956.491898,-5551.544565,689.485948
1302.533032,8290.306550,-5255.462188,689.485948
1302.533361,7994.224174,-5625.565159,0.000000
1302.533691,7920.203579,-5995.668130,842.705048
1302.534020,7698.141797,-5255.462188,1149.143247
1302.534349,7994.224174,-5551.544565,919.314598
1302.534679,8882.471304,-4959.379811,1685.410096
1302.535008,8512.368333,-5033.400406,1302.362347
1302.535338,8290.306550,-3849.070898,1302.362347
1302.535667,8512.368333,-3627.009116,1149.143247
1302.535996,8734.430116,-4071.132681,1072.533697
1302.536326,9696.697840,-3108.864956,1225.752797
1302.536655,9474.636058,-3775.050304,1302.362347
1302.536985,9918.759623,-3849.070898,1455.581446
1302.537314,9474.636058,-3849.070898,1072.533697
1302.537643,9474.636058,-5181.441594,1378.971896
1302.537973,8956.491898,-5107.421000,919.314598
1302.538302,9030.512492,-5921.647536,1149.143247
1302.538632,8290.306550,-4589.276840,842.705048
1302.538961,7624.121203,-5625.565159,842.705048
1302.539290,8142.265362,-4885.359217,919.314598
1302.539620,8586.388927,-4811.338623,842.705048
1302.539949,8734.430116,-4959.379811,842.705048
1302.540279,8290.306550,-3997.112087,689.485948
1302.540608,8512.368333,-5107.421000,1225.752797
1302.540937,8956.491898,-4811.338623,842.705048
1302.541267,8882.471304,-4293.194464,689.485948
1302.541596,9548.656652,-3997.112087,1455.581446
1302.541926,10214.842000,-3997.112087,1149.143247
1302.542255,10436.903782,-4885.359217,842.705048
1302.542584,9400.615463,-4367.215058,766.095498
1302.542914,8956.491898,-4219.173869,76.609550
1302.543243,8586.388927,-5477.523971,842.705048
1302.543573,8660.409521,-5403.503377,919.314598
1302.543902,8512.368333,-5329.482782,1072.533697
1302.544231,8586.388927,-4293.194464,1378.971896
1302.544561,8956.491898,-4737.318029,1838.629195
1302.544890,9548.656652,-4663.297435,1915.238745
1302.545220,9474.636058,-3478.967927,2221.676944
1302.545549,9474.636058,-3478.967927,1225.752797
1302.545879,8956.491898,-2664.741391,995.924147
1302.546208,8882.471304,-2960.823768,383.047749
1302.546537,9400.615463,-4145.153275,689.485948
1302.546867,9400.615463,-3034.844362,689.485948
1302.547196,9548.656652,-3997.112087,-459.657299
1302.547526,8808.450710,-3923.091493,-306.438199
1302.547855,8660.409521,-5403.503377,0.000000
1302.548184,9030.512492,-5847.626942,1072.533697
1302.548514,9400.615463,-5921.647536,919.314598
1302.548843,8882.471304,-5699.585753,1149.143247
1302.549173,8660.409521,-5403.503377,1838.629195
1302.549502,8956.491898,-5847.626942,2221.676944
1302.549831,8660.409521,-4441.235652,1991.848295
1302.550161,8808.450710,-3478.967927,2068.457845
1302.550490,9104.533087,-2812.782580,1915.238745
1302.550820,9474.636058,-1924.535449,1455.581446
1302.551149,9178.553681,-1850.514855,995.924147
1302.551478,9548.656652,-1702.473667,919.314598
1302.551808,9770.718434,-2368.659014,-229.828649
1302.552137,9696.697840,-3849.070898,-536.266849
1302.552467,9252.574275,-5329.482782,0.000000
1302.552796,8808.450710,-7254.018232,536.266849
1302.553125,7846.182985,-8512.368333,459.657299
1302.553455,7402.059420,-8586.388927,689.485948
1302.553784,7402.059420,-9400.615463,995.924147
1302.554114,6957.935855,-9178.553681,1225.752797
1302.554443,6143.709319,-8068.244768,306.438199
1302.554772,6069.688724,-5847.626942,0.000000
1302.555102,6365.771101,-5773.606348,919.314598
1302.555431,7846.182985,-4589.276840,1302.362347
1302.555761,8512.368333,-2590.720797,1991.848295
1302.556090,9178.553681,-2368.659014,1302.362347
1302.556419,9474.636058,-1332.370696,1455.581446
1302.556749,9992.780217,-1924.535449,1608.800546
1302.557078,11103.089130,-1554.432478,995.924147
1302.557408,11325.150913,-1924.535449,995.924147
1302.557737,11177.109724,-3404.947333,1532.190996
1302.558066,10584.944971,-5033.400406,1302.362347
1302.558396,8586.388927,-6809.894666,1991.848295
1302.558725,6883.915261,-6883.915261,1762.019645
1302.559055,5995.668130,-7772.162391,1302.362347
1302.559384,5625.565159,-7846.182985,612.876398
1302.559713,4959.379811,-8956.491898,1072.533697
1302.560043,4737.318029,-8882.471304,612.876398
1302.560372,5181.441594,-7846.182985,0.000000
1302.560702,4737.318029,-6883.915261,-153.219100
1302.561031,5255.462188,-6809.894666,-229.828649
1302.561360,6957.935855,-6513.812290,766.095498
1302.561690,8290.306550,-5995.668130,842.705048
1302.562019,8808.450710,-5107.421000,919.314598
1302.562349,9400.615463,-4219.173869,1149.143247
1302.562678,10584.944971,-4071.132681,1072.533697
1302.563007,10510.924376,-4737.318029,1762.019645
1302.563337,9622.677246,-4737.318029,2068.457845
1302.563666,9104.533087,-5329.482782,1532.190996
1302.563996,8290.306550,-5773.606348,2145.067394
1302.564325,7624.121203,-6439.791695,2298.286494
1302.564654,6143.709319,-7105.977043,1302.362347
1302.564984,3701.029710,-6809.894666,842.705048
1302.565313,3034.844362,-7920.203579,0.000000
1302.565643,3478.967927,-7772.162391,0.000000
1302.565972,4737.318029,-7920.203579,383.047749
1302.566301,6143.709319,-7105.977043,76.609550
1302.566631,7476.080014,-5995.668130,766.095498
1302.566960,7994.224174,-5329.482782,995.924147
1302.567290,8142.265362,-5847.626942,689.485948
1302.567619,8512.368333,-5033.400406,1149.143247
1302.567948,9326.594869,-3552.988522,1685.410096
1302.568278,9844.739029,-4293.194464,1762.019645
1302.568607,9992.780217,-4441.235652,2451.505594
1302.568937,9622.677246,-5921.647536,2681.334243
1302.569266,8438.347739,-6735.874072,2681.334243
1302.569595,6661.853478,-6883.915261,1991.848295
1302.569925,4737.318029,-7476.080014,612.876398
1302.570254,3256.906145,-8882.471304,-229.828649
1302.570584,2960.823768,-10732.986159,76.609550
1302.570913,3997.112087,-9992.780217,306.438199
1302.571242,4589.276840,-8882.471304,229.828649
1302.571572,5551.544565,-6661.853478,766.095498
1302.571901,6513.812290,-4811.338623,919.314598
1302.572231,7328.038826,-4737.318029,1378.971896
1302.572560,8586.388927,-3108.864956,919.314598
1302.572889,9400.615463,-3404.947333,1532.190996
1302.573219,10140.821405,-3701.029710,1608.800546
1302.573548,9844.739029,-5033.400406,2221.676944
1302.573878,9326.594869,-6291.750507,1915.238745
1302.574207,7994.224174,-6809.894666,1915.238745
1302.574536,7105.977043,-8142.265362,1838.629195
1302.574866,6217.729913,-8882.471304,1072.533697
1302.575195,5107.421000,-9178.553681,229.828649
1302.575525,4293.194464,-9770.718434,-766.095498
1302.575854,3182.885551,-9696.697840,-995.924147
1302.576183,3034.844362,-9548.656652,-919.314598
1302.576512,3923.091493,-9104.533087,-229.828649
1302.576841,5107.421000,-6661.853478,-153.219100
1302.577170,6439.791695,-4737.318029,0.000000
1302.577499,7698.141797,-4811.338623,1072.533697
1302.577828,9622.677246,-4219.173869,1915.238745
1302.578157,11103.089130,-3775.050304,2298.286494
1302.578486,11177.109724,-3034.844362,2757.943793
1302.578815,10732.986159,-2960.823768,2757.943793
1302.579144,10436.903782,-4811.338623,2451.505594
1302.579473,8956.491898,-6809.894666,2757.943793
1302.579802,6735.874072,-8364.327145,1838.629195
1302.580131,5033.400406,-8882.471304,229.828649
1302.580460,3627.009116,-8808.450710,-153.219100
1302.580789,3182.885551,-10214.842000,76.609550
1302.581118,2738.761985,-9252.574275,-536.266849
1302.581447,3182.885551,-8438.347739,153.219100
1302.581776,4515.256246,-6513.812290,-536.266849
1302.582105,6365.771101,-4367.215058,-229.828649
1302.582434,7994.224174,-3478.967927,995.924147
1302.582763,9770.718434,-3256.906145,1378.971896
1302.583092,11103.089130,-2960.823768,2528.115143
1302.583421,11251.130318,-3108.864956,2068.457845
1302.583750,10510.924376,-5625.565159,2528.115143
1302.584079,10140.821405,-6365.771101,3064.381992
1302.584408,8660.409521,-7624.121203,1991.848295
1302.584737,6809.894666,-8216.285956,995.924147
1302.585067,5403.503377,-8512.368333,919.314598
1302.585396,4885.359217,-8808.450710,0.000000
1302.585725,4737.318029,-9326.594869,76.609550
1302.586054,3182.885551,-7624.121203,766.095498
1302.586383,2738.761985,-7031.956449,-1072.533697
1302.586712,2812.782580,-6365.771101,-1225.752797
1302.587041,4737.318029,-6291.750507,0.000000
1302.587370,7179.997637,-5847.626942,689.485948
1302.587699,9326.594869,-4737.318029,1608.800546
1302.588028,10732.986159,-4441.235652,2451.505594
1302.588357,11399.171507,-3849.070898,2834.553343
1302.588686,11103.089130,-5551.544565,3217.601092
1302.589015,9918.759623,-7105.977043,3294.210641
1302.589344,8142.265362,-7105.977043,1608.800546
1302.589673,6513.812290,-8808.450710,1378.971896
1302.590002,4663.297435,-8956.491898,0.000000
1302.590331,3849.070898,-9844.739029,153.219100
1302.590660,3478.967927,-9770.718434,-229.828649
1302.590989,2590.720797,-8660.409521,-612.876398
1302.591318,2960.823768,-7254.018232,-536.266849
1302.591647,4737.318029,-4737.318029,76.609550
1302.591976,6513.812290,-4663.297435,0.000000
1302.592305,7994.224174,-3701.029710,1685.410096
1302.592634,10066.800811,-1702.473667,1378.971896
1302.592963,11769.274478,-2886.803174,1915.238745
1302.593292,11991.336260,-3330.926739,2834.553343
1302.593621,11177.109724,-5995.668130,3447.429741
1302.593950,10066.800811,-7179.997637,2757.943793
1302.594279,7698.141797,-7772.162391,1915.238745
1302.594608,5699.585753,-9252.574275,1302.362347
1302.594938,4663.297435,-8216.285956,306.438199
1302.595267,4367.215058,-8956.491898,459.657299
1302.595596,3701.029710,-9400.615463,76.609550
1302.595925,3330.926739,-7402.059420,-153.219100
1302.596254,3256.906145,-6291.750507,-995.924147
1302.596583,4071.132681,-5403.503377,-1685.410096
1302.596912,5847.626942,-5181.441594,0.000000
1302.597241,7624.121203,-5033.400406,306.438199
1302.597570,9696.697840,-5033.400406,1991.848295
1302.597899,11695.253884,-3404.947333,2451.505594
1302.598228,12139.377449,-4737.318029,2757.943793
1302.598557,11103.089130,-6587.832884,3524.039291
1302.598886,9326.594869,-7698.141797,2757.943793
1302.599215,7624.121203,-8290.306550,1532.190996
1302.599544,5625.565159,-8808.450710,383.047749
1302.599873,4515.256246,-9326.594869,-306.438199
1302.600202,4071.132681,-10066.800811,153.219100
1302.600531,3775.050304,-9474.636058,689.485948
1302.600860,3552.988522,-7328.038826,0.000000
1302.601189,3627.009116,-4959.379811,153.219100
1302.601518,4663.297435,-4441.235652,0.000000
1302.601847,6291.750507,-3849.070898,612.876398
1302.602176,8512.368333,-2368.659014,1072.533697
1302.602505,10362.883188,-2442.679609,1685.410096
1302.602834,11843.295072,-2664.741391,2528.115143
1302.603163,11621.233289,-5181.441594,2834.553343
1302.603492,10066.800811,-7179.997637,2681.334243
1302.603821,7994.224174,-9326.594869,2221.676944
1302.604150,6513.812290,-9548.656652,1838.629195
1302.604479,5551.544565,-9622.677246,612.876398
1302.604809,4589.276840,-9770.718434,306.438199
1302.605138,4071.132681,-9918.759623,76.609550
1302.605467,3849.070898,-8956.491898,-229.828649
1302.605796,3701.029710,-6587.832884,0.000000
1302.606125,3256.906145,-6217.729913,-1225.752797
1302.606454,4219.173869,-5403.503377,-612.876398
1302.606783,6291.750507,-4219.173869,0.000000
1302.607112,8660.409521,-4293.194464,766.095498
1302.607441,10362.883188,-3182.885551,2221.676944
1302.607770,12435.459826,-2294.638420,2987.772442
1302.608099,12583.501014,-3330.926739,3294.210641
1302.608428,11029.068536,-5995.668130,3677.258390
1302.608757,9400.615463,-7624.121203,2604.724693
1302.609086,6661.853478,-9104.533087,1608.800546
1302.609415,4811.338623,-9918.759623,689.485948
1302.609744,3627.009116,-9992.780217,229.828649
1302.610073,3330.926739,-10288.862594,153.219100
1302.610402,2886.803174,-9474.636058,383.047749
1302.610731,3256.906145,-7698.141797,153.219100
1302.611060,4589.276840,-4959.379811,0.000000
1302.611389,5477.523971,-3701.029710,-76.609550
1302.611718,6809.894666,-3182.885551,76.609550
1302.612047,9326.594869,-2738.761985,919.314598
1302.612376,11251.130318,-2590.720797,1455.581446
1302.612705,11843.295072,-2960.823768,2145.067394
1302.613034,11843.295072,-4737.318029,2987.772442
1302.613363,10658.965565,-6957.935855,2834.553343
1302.613692,9326.594869,-8956.491898,2374.896044
1302.614021,6883.915261,-9770.718434,1762.019645
1302.614350,5255.462188,-9252.574275,306.438199
1302.614680,3775.050304,-10066.800811,-153.219100
1302.615009,3552.988522,-9474.636058,459.657299
1302.615338,3182.885551,-9030.512492,0.000000
1302.615667,2812.782580,-7772.162391,-612.876398
1302.615996,3108.864956,-5699.585753,-1149.143247
1302.616325,4663.297435,-5033.400406,-689.485948
1302.616654,5995.668130,-4441.235652,229.828649
1302.616983,8586.388927,-3923.091493,1608.800546
1302.617312,10881.027347,-2442.679609,1838.629195
1302.617641,12657.521608,-2368.659014,2451.505594
1302.617970,11843.295072,-4145.153275,3217.601092
1302.618299,10658.965565,-6735.874072,3294.210641
1302.618628,8290.306550,-8586.388927,2374.896044
1302.618957,6365.771101,-9474.636058,1072.533697
1302.619286,4811.338623,-10732.986159,383.047749
1302.619615,3627.009116,-10436.903782,0.000000
1302.619944,3404.947333,-9992.780217,0.000000
1302.620273,3256.906145,-9030.512492,-306.438199
1302.620602,3775.050304,-7179.997637,0.000000
1302.620931,4737.318029,-4885.359217,-612.876398
1302.621260,5033.400406,-3997.112087,-459.657299
1302.621589,6735.874072,-2738.761985,842.705048
1302.621918,9548.656652,-1628.453072,612.876398
1302.622247,11177.109724,-1776.494261,2374.896044
1302.622576,11917.315666,-3627.009116,3524.039291
1302.622905,11251.130318,-5699.585753,3600.648841
1302.623234,9770.718434,-7328.038826,2528.115143
1302.623563,7402.059420,-9474.636058,2298.286494
1302.623892,5921.647536,-10288.862594,1302.362347
1302.624221,4959.379811,-10214.842000,612.876398
1302.624551,4515.256246,-10436.903782,229.828649
1302.624880,3478.967927,-9548.656652,-306.438199
1302.625209,2516.700203,-8068.244768,-766.095498
1302.625538,2516.700203,-7624.121203,-1149.143247
1302.625867,3034.844362,-6661.853478,-1302.362347
1302.626196,4515.256246,-5847.626942,0.000000
1302.626525,7031.956449,-4515.256246,459.657299
1302.626854,9770.718434,-2590.720797,2298.286494
1302.627183,12139.377449,-1850.514855,2681.334243
1302.627512,13249.686362,-2368.659014,2911.162892
1302.627841,11991.336260,-3923.091493,3294.210641
1302.628170,10584.944971,-6513.812290,2757.943793
1302.628499,8660.409521,-8068.244768,2451.505594
1302.628828,6661.853478,-9400.615463,1302.362347
1302.629157,5181.441594,-9992.780217,612.876398
1302.629486,4219.173869,-10584.944971,689.485948
1302.629815,4219.173869,-9622.677246,919.314598
1302.630144,3775.050304,-8142.265362,-229.828649
1302.630473,3404.947333,-6365.771101,-383.047749
1302.630802,3404.947333,-5033.400406,-842.705048
1302.631131,3997.112087,-4367.215058,-1149.143247
1302.631460,6291.750507,-3034.844362,383.047749
1302.631789,8956.491898,-3108.864956,1302.362347
1302.632118,11843.295072,-3256.906145,2604.724693
1302.632447,12435.459826,-4515.256246,3294.210641
1302.632776,11399.171507,-6217.729913,3524.039291
1302.633105,9474.636058,-6883.915261,2911.162892
1302.633434,7994.224174,-8512.368333,1302.362347
1302.633763,7105.977043,-8512.368333,0.000000
1302.634092,5625.565159,-9548.656652,229.828649
1302.634422,5551.544565,-10362.883188,-536.266849
1302.634751,4663.297435,-9474.636058,76.609550
1302.635080,4071.132681,-8586.388927,0.000000
1302.635409,3849.070898,-6069.688724,-689.485948
1302.635738,4071.132681,-5403.503377,-995.924147
1302.636067,4515.256246,-4737.318029,-383.047749
1302.636396,6365.771101,-3182.885551,-229.828649
1302.636725,8586.388927,-3256.906145,1455.581446
1302.637054,10510.924376,-2960.823768,2451.505594
1302.637383,11251.130318,-3923.091493,2911.162892
1302.637712,10658.965565,-5625.565159,3370.820191
1302.638041,9474.636058,-7624.121203,3294.210641
1302.638370,7846.182985,-8734.430116,2298.286494
1302.638699,6957.935855,-9178.553681,1225.752797
1302.639028,6587.832884,-9474.636058,1225.752797
1302.639357,5403.503377,-10436.903782,612.876398
1302.639686,4145.153275,-9474.636058,536.266849
1302.640015,3108.864956,-8068.244768,-229.828649
1302.640344,2886.803174,-6069.688724,-1302.362347
1302.640673,3923.091493,-4367.215058,-1455.581446
1302.641002,4737.318029,-4219.173869,-229.828649
1302.641331,7031.956449,-3330.926739,995.924147
1302.641660,10066.800811,-1850.514855,1378.971896
1302.641989,12213.398043,-2442.679609,2451.505594
1302.642318,11843.295072,-3997.112087,3677.258390
1302.642647,10658.965565,-6735.874072,3064.381992
1302.642976,9326.594869,-8438.347739,2451.505594
1302.643305,7254.018232,-9474.636058,1915.238745
1302.643634,6365.771101,-9400.615463,766.095498
1302.643963,6143.709319,-9474.636058,842.705048
1302.644293,5625.565159,-10140.821405,1149.143247
1302.644622,4663.297435,-9030.512492,229.828649
1302.644951,3034.844362,-7105.977043,153.219100
1302.645280,2590.720797,-6143.709319,-766.095498
1302.645609,3256.906145,-4737.318029,-1149.143247
1302.645938,4959.379811,-4515.256246,-766.095498
1302.646267,7254.018232,-3182.885551,689.485948
1302.646596,10066.800811,-2516.700203,1838.629195
1302.646925,11843.295072,-3478.967927,3064.381992
1302.647254,12065.356855,-4219.173869,3370.820191
1302.647583,10658.965565,-6661.853478,3064.381992
1302.647912,9030.512492,-8438.347739,2374.896044
1302.648241,6809.894666,-9770.718434,1532.190996
1302.648570,5625.565159,-10807.006753,612.876398
1302.648899,4811.338623,-11103.089130,383.047749
1302.649228,3627.009116,-11029.068536,0.000000
1302.649557,3478.967927,-9030.512492,-229.828649
1302.649886,3627.009116,-7254.018232,-459.657299
1302.650215,4219.173869,-4959.379811,-306.438199
1302.650544,5107.421000,-3552.988522,0.000000
1302.650873,5847.626942,-2960.823768,76.609550
1302.651202,8512.368333,-888.247130,1149.143247
1302.651531,10881.027347,-1702.473667,2068.457845
1302.651860,12509.480420,-2664.741391,3140.991542
1302.652189,12287.418637,-4959.379811,4060.306139
1302.652518,11251.130318,-7254.018232,3983.696590
1302.652847,8586.388927,-9400.615463,2374.896044
1302.653176,5921.647536,-10214.842000,689.485948
1302.653505,4219.173869,-10288.862594,459.657299
1302.653834,3404.947333,-11399.171507,-229.828649
1302.654164,2590.720797,-10362.883188,0.000000
1302.654493,2960.823768,-9178.553681,-306.438199
1302.654822,3182.885551,-8216.285956,-383.047749
1302.655151,4515.256246,-5773.606348,0.000000
1302.655480,5255.462188,-4663.297435,0.000000
1302.655809,6587.832884,-2442.679609,153.219100
1302.656138,9104.533087,-2072.576638,1072.533697
1302.656467,11769.274478,-1924.535449,1838.629195
1302.656796,12139.377449,-2960.823768,2757.943793
1302.657125,11547.212695,-4959.379811,3370.820191
1302.657454,9844.739029,-7698.141797,2681.334243
1302.657783,8068.244768,-9622.677246,2221.676944
1302.658112,6439.791695,-10214.842000,1302.362347
1302.658441,4885.359217,-11029.068536,1072.533697
1302.658770,4441.235652,-10955.047942,229.828649
1302.659099,3849.070898,-9252.574275,76.609550
1302.659428,4071.132681,-7402.059420,0.000000
1302.659757,4071.132681,-6069.688724,459.657299
1302.660086,4737.318029,-4293.194464,536.266849
1302.660415,5625.565159,-1998.556043,76.609550
1302.660744,7476.080014,-740.205942,459.657299
1302.661073,10214.842000,-1406.391290,1455.581446
1302.661402,11917.315666,-2442.679609,2987.772442
1302.661731,11843.295072,-4663.297435,2451.505594
1302.662060,10436.903782,-6069.688724,2451.505594
1302.662389,9104.533087,-7476.080014,2374.896044
1302.662718,7994.224174,-10140.821405,1915.238745
1302.663047,6217.729913,-11103.089130,1072.533697
1302.663376,3997.112087,-11103.089130,76.609550
1302.663705,3256.906145,-11251.130318,-383.047749
1302.664035,2812.782580,-9770.718434,-766.095498
1302.664364,2442.679609,-8882.471304,0.000000
1302.664693,3182.885551,-7402.059420,-383.047749
1302.665022,4441.235652,-5329.482782,-995.924147
1302.665351,5329.482782,-4663.297435,0.000000
1302.665680,7328.038826,-3552.988522,995.924147
1302.666009,10584.944971,-1924.535449,1838.629195
1302.666338,12583.501014,-2442.679609,2528.115143
1302.666667,11991.336260,-3627.009116,3064.381992
1302.666996,10881.027347,-5995.668130,2987.772442
1302.667325,9696.697840,-7846.182985,3140.991542
1302.667654,7772.162391,-9844.739029,2451.505594
1302.667983,5773.606348,-10807.006753,995.924147
1302.668312,3627.009116,-10066.800811,0.000000
1302.668641,2664.741391,-10362.883188,-459.657299
1302.668970,2886.803174,-9474.636058,76.609550
1302.669299,3627.009116,-7624.121203,229.828649
1302.669628,3552.988522,-5551.544565,-383.047749
1302.669957,4663.297435,-2960.823768,-536.266849
1302.670286,6365.771101,-2368.659014,-306.438199
1302.670615,9548.656652,-2294.638420,1378.971896
1302.670944,13101.645173,-1258.350101,2604.724693
1302.671273,13767.830521,-2220.617826,3600.648841
1302.671602,12361.439231,-4145.153275,3677.258390
1302.671931,10510.924376,-6365.771101,2681.334243
1302.672260,9030.512492,-7846.182985,1225.752797
1302.672589,6809.894666,-9548.656652,1302.362347
1302.672918,5033.400406,-11177.109724,612.876398
1302.673247,3775.050304,-10807.006753,0.000000
1302.673576,3034.844362,-10658.965565,0.000000
1302.673906,2960.823768,-9696.697840,-766.095498
1302.674235,2294.638420,-7698.141797,-383.047749
1302.674564,2738.761985,-6735.874072,-1072.533697
1302.674893,3997.112087,-5477.523971,-995.924147
1302.675222,6291.750507,-3923.091493,536.266849
1302.675551,8808.450710,-3182.885551,1455.581446
1302.675880,11621.233289,-2960.823768,2145.067394
1302.676209,12139.377449,-2442.679609,3140.991542
1302.676538,11621.233289,-4515.256246,3064.381992
1302.676867,9474.636058,-6587.832884,2911.162892
1302.677196,7624.121203,-8438.347739,2068.457845
1302.677525,6217.729913,-9992.780217,766.095498
1302.677854,4811.338623,-10658.965565,229.828649
1302.678183,3627.009116,-11769.274478,383.047749
1302.678513,3034.844362,-10732.986159,76.609550
1302.678842,3256.906145,-8734.430116,153.219100
1302.679171,4071.132681,-6439.791695,76.609550
1302.679500,4663.297435,-4441.235652,306.438199
1302.679829,5773.606348,-3256.906145,1072.533697
1302.680159,8290.306550,-1258.350101,1455.581446
1302.680488,10584.944971,-666.185348,1608.800546
1302.680817,12139.377449,-1036.288319,2298.286494
1302.681146,12213.398043,-2960.823768,3294.210641
1302.681475,11399.171507,-4885.359217,2221.676944
1302.681805,9474.636058,-6883.915261,2528.115143
1302.682134,7698.141797,-9696.697840,2068.457845
1302.682463,6587.832884,-10732.986159,1378.971896
1302.682792,4885.359217,-10214.842000,842.705048
1302.683121,3478.967927,-11029.068536,0.000000
1302.683451,2960.823768,-10066.800811,-995.924147
1302.683780,3182.885551,-8734.430116,-383.047749
1302.684109,3627.009116,-9400.615463,-612.876398
1302.684438,3775.050304,-5847.626942,0.000000
1302.684768,4959.379811,-4441.235652,-689.485948
1302.685097,6957.935855,-3627.009116,76.609550
1302.685426,9770.718434,-2960.823768,1532.190996
1302.685755,11695.253884,-3108.864956,2374.896044
1302.686084,11843.295072,-2590.720797,2604.724693
1302.686414,10955.047942,-4367.215058,2374.896044
1302.686743,9400.615463,-6883.915261,2221.676944
1302.687072,7846.182985,-9252.574275,1915.238745
1302.687401,6735.874072,-10362.883188,919.314598
1302.687730,5255.462188,-10214.842000,612.876398
1302.688060,4219.173869,-10288.862594,689.485948
1302.688389,4441.235652,-9400.615463,153.219100
1302.688718,4441.235652,-7328.038826,153.219100
1302.689047,4145.153275,-5625.565159,306.438199
1302.689376,4145.153275,-4145.153275,-536.266849
1302.689706,5551.544565,-2442.679609,-536.266849
1302.690035,7105.977043,-2368.659014,229.828649
1302.690364,9992.780217,-2442.679609,1302.362347
1302.690693,12139.377449,-2664.741391,2681.334243
1302.691023,12139.377449,-3997.112087,3524.039291
1302.691352,10881.027347,-6143.709319,3294.210641
1302.691681,9178.553681,-7328.038826,2834.553343
1302.692010,7550.100608,-8438.347739,1225.752797
1302.692339,5847.626942,-10362.883188,229.828649
1302.692669,5033.400406,-9992.780217,383.047749
1302.692998,4737.318029,-10214.842000,306.438199
1302.693327,4811.338623,-9918.759623,1149.143247
1302.693656,4441.235652,-6661.853478,459.657299
1302.693985,3849.070898,-6143.709319,-306.438199
1302.694315,4071.132681,-4071.132681,-1149.143247
1302.694644,4515.256246,-4071.132681,-1072.533697
1302.694973,7105.977043,-3849.070898,383.047749
1302.695302,9696.697840,-2886.803174,1762.019645
1302.695631,11177.109724,-3330.926739,2911.162892
1302.695961,11029.068536,-4293.194464,3217.601092
1302.696290,10288.862594,-6957.935855,3447.429741
1302.696619,9178.553681,-9326.594869,2757.943793
1302.696948,6957.935855,-10288.862594,1455.581446
1302.697278,5625.565159,-11695.253884,1072.533697
1302.697607,4145.153275,-11177.109724,76.609550
1302.697936,2960.823768,-10436.903782,76.609550
1302.698265,3404.947333,-9400.615463,383.047749
1302.698594,4589.276840,-7254.018232,306.438199
1302.698924,4885.359217,-4959.379811,536.266849
1302.699253,5255.462188,-3552.988522,-459.657299
1302.699582,5921.647536,-2072.576638,0.000000
1302.699911,7846.182985,-2220.617826,536.266849
1302.700240,10214.842000,-2812.782580,1532.190996
1302.700570,11547.212695,-3404.947333,2528.115143
1302.700899,11177.109724,-4885.359217,2528.115143
1302.701228,9622.677246,-7105.977043,2451.505594
1302.701557,8734.430116,-9030.512492,2681.334243
1302.701886,7402.059420,-9770.718434,1762.019645
1302.702216,6291.750507,-10140.821405,919.314598
1302.702545,5033.400406,-10140.821405,919.314598
1302.702874,4219.173869,-9326.594869,76.609550
1302.703203,3775.050304,-8216.285956,0.000000
1302.703533,3256.906145,-6809.894666,-306.438199
1302.703862,3775.050304,-5625.565159,-383.047749
1302.704191,4811.338623,-3701.029710,-842.705048
1302.704520,5847.626942,-3108.864956,0.000000
1302.704849,8586.388927,-2886.803174,1149.143247
1302.705179,10807.006753,-3627.009116,2374.896044
1302.705508,11029.068536,-3997.112087,3600.648841
1302.705837,10584.944971,-5107.421000,2987.772442
1302.706166,9104.533087,-7328.038826,2451.505594
1302.706495,7772.162391,-9104.533087,1762.019645
1302.706825,6513.812290,-10658.965565,1455.581446
1302.707154,5255.462188,-9548.656652,459.657299
1302.707483,3923.091493,-10584.944971,-383.047749
1302.707812,3775.050304,-9770.718434,0.000000
1302.708142,4367.215058,-8512.368333,536.266849
1302.708471,5107.421000,-6661.853478,459.657299
1302.708800,5625.565159,-3404.947333,0.000000
1302.709129,5403.503377,-2812.782580,-689.485948
1302.709458,7179.997637,-1480.411884,0.000000
1302.709788,9400.615463,-2294.638420,766.095498
1302.710117,11103.089130,-2442.679609,2068.457845
1302.710446,11843.295072,-4219.173869,3217.601092
1302.710775,11695.253884,-5551.544565,3370.820191
1302.711104,10288.862594,-7179.997637,3064.381992
1302.711434,7994.224174,-9326.594869,2528.115143
1302.711763,6217.729913,-9474.636058,1455.581446
1302.712092,4737.318029,-9696.697840,0.000000
1302.712421,3404.947333,-9696.697840,-612.876398
1302.712750,3923.091493,-9252.574275,0.000000
1302.713080,4145.153275,-9030.512492,383.047749
1302.713409,4515.256246,-7254.018232,153.219100
1302.713738,4811.338623,-5329.482782,-459.657299
1302.714067,5181.441594,-4071.132681,-766.095498
1302.714397,6957.935855,-3182.885551,229.828649
1302.714726,9770.718434,-3330.926739,1378.971896
1302.715055,10807.006753,-3923.091493,1915.238745
1302.715384,10955.047942,-4293.194464,2374.896044
1302.715713,10584.944971,-5773.606348,2068.457845
1302.716043,9326.594869,-8364.327145,2834.553343
1302.716372,7772.162391,-9474.636058,2374.896044
1302.716701,6217.729913,-10436.903782,1149.143247
1302.717030,4663.297435,-10362.883188,919.314598
1302.717359,3182.885551,-10510.924376,153.219100
1302.717689,2960.823768,-8734.430116,-306.438199
1302.718018,2664.741391,-7846.182985,-306.438199
1302.718347,3701.029710,-5847.626942,-842.705048
1302.718676,5329.482782,-4663.297435,-153.219100
1302.719005,6735.874072,-3404.947333,842.705048
1302.719335,9104.533087,-1776.494261,1378.971896
1302.719664,10807.006753,-1480.411884,2145.067394
1302.719993,12139.377449,-2220.617826,2604.724693
1302.720322,12139.377449,-3923.091493,3447.429741
1302.720652,10658.965565,-6587.832884,3294.210641
1302.720981,8808.450710,-7698.141797,2604.724693
1302.721310,7105.977043,-9474.636058,766.095498
1302.721639,5551.544565,-10362.883188,306.438199
1302.721968,3923.091493,-10807.006753,0.000000
1302.722298,3849.070898,-10955.047942,306.438199
1302.722627,4071.132681,-8438.347739,0.000000
1302.722956,4293.194464,-7402.059420,-383.047749
1302.723285,4663.297435,-5699.585753,0.000000
1302.723614,4885.359217,-4367.215058,-689.485948
1302.723944,5995.668130,-3552.988522,-383.047749
1302.724273,7772.162391,-3108.864956,459.657299
1302.724602,10140.821405,-2960.823768,1762.019645
1302.724931,11695.253884,-3404.947333,2834.553343
1302.725260,11399.171507,-4885.359217,3677.258390
1302.725590,9844.739029,-7105.977043,4213.525239
1302.725919,7846.182985,-8660.409521,2374.896044
1302.726248,6217.729913,-9548.656652,1149.143247
1302.726577,4293.194464,-10732.986159,0.000000
1302.726907,2886.803174,-10807.006753,-153.219100
1302.727236,2442.679609,-11029.068536,-536.266849
1302.727565,2516.700203,-9548.656652,0.000000
1302.727894,4441.235652,-7772.162391,76.609550
1302.728223,5995.668130,-4589.276840,383.047749
1302.728553,6587.832884,-3182.885551,536.266849
1302.728882,7105.977043,-2664.741391,306.438199
1302.729211,8956.491898,-814.226536,612.876398
1302.729540,11547.212695,-1702.473667,1532.190996
1302.729869,13027.624579,-1776.494261,3370.820191
1302.730199,11843.295072,-4663.297435,3370.820191
1302.730528,9992.780217,-7105.977043,2911.162892
1302.730857,8142.265362,-8216.285956,2298.286494
1302.731186,7031.956449,-9770.718434,1149.143247
1302.731515,5329.482782,-10140.821405,995.924147
1302.731845,4663.297435,-10362.883188,612.876398
1302.732174,4219.173869,-9622.677246,0.000000
1302.732503,3330.926739,-8216.285956,0.000000
1302.732832,3775.050304,-8068.244768,-536.266849
1302.733162,4441.235652,-5995.668130,-383.047749
1302.733491,4959.379811,-4885.359217,0.000000
1302.733820,6439.791695,-3627.009116,0.000000
1302.734149,8586.388927,-3404.947333,919.314598
1302.734478,10955.047942,-3182.885551,2374.896044
1302.734808,11473.192101,-3923.091493,3140.991542
1302.735137,10732.986159,-5181.441594,3217.601092
1302.735466,9770.718434,-6291.750507,2757.943793
1302.735795,8068.244768,-8660.409521,2298.286494
1302.736124,5995.668130,-10140.821405,1455.581446
1302.736454,4737.318029,-11103.089130,383.047749
1302.736783,3775.050304,-10807.006753,-383.047749
1302.737112,3034.844362,-10436.903782,0.000000
1302.737441,3923.091493,-8660.409521,-383.047749
1302.737770,4441.235652,-6661.853478,0.000000
1302.738100,5329.482782,-4293.194464,-229.828649
1302.738429,6069.688724,-3330.926739,0.000000
1302.738758,7328.038826,-2368.659014,76.609550
1302.739087,10288.862594,-1702.473667,1225.752797
1302.739417,11177.109724,-2368.659014,2145.067394
1302.739746,11695.253884,-3330.926739,2987.772442
1302.740075,11769.274478,-5107.421000,3677.258390
1302.740404,10140.821405,-7105.977043,2911.162892
1302.740733,7920.203579,-8290.306550,2145.067394
1302.741063,6069.688724,-9474.636058,766.095498
1302.741392,4441.235652,-10288.862594,0.000000
1302.741721,3701.029710,-10584.944971,-306.438199
1302.742050,3849.070898,-10288.862594,153.219100
1302.742379,3849.070898,-8586.388927,0.000000
1302.742709,4737.318029,-6143.709319,-306.438199
1302.743038,5403.503377,-4589.276840,-766.095498
1302.743367,6291.750507,-4589.276840,383.047749
1302.743696,7550.100608,-2960.823768,229.828649
1302.744025,9326.594869,-2812.782580,995.924147
1302.744355,10436.903782,-3478.967927,2145.067394
1302.744684,10584.944971,-4811.338623,2604.724693
1302.745013,9844.739029,-6661.853478,3294.210641
1302.745342,8512.368333,-9030.512492,2528.115143
1302.745672,7105.977043,-9178.553681,2145.067394
1302.746001,5773.606348,-10955.047942,1149.143247
1302.746330,5033.400406,-10584.944971,459.657299
1302.746659,3849.070898,-9844.739029,76.609550
1302.746988,3997.112087,-9696.697840,0.000000
1302.747318,3701.029710,-7698.141797,-153.219100
1302.747647,4367.215058,-6439.791695,0.000000
1302.747976,5033.400406,-4219.173869,-766.095498
1302.748305,6587.832884,-3108.864956,153.219100
1302.748634,8364.327145,-2590.720797,536.266849
1302.748964,10214.842000,-2368.659014,2145.067394
1302.749293,11695.253884,-2738.761985,2451.505594
1302.749622,11473.192101,-4367.215058,2757.943793
1302.749951,9918.759623,-5847.626942,2987.772442
1302.750281,8512.368333,-8586.388927,2374.896044
1302.750610,7105.977043,-9622.677246,1915.238745
1302.750939,5995.668130,-9992.780217,1378.971896
1302.751268,4885.359217,-9622.677246,76.609550
1302.751597,4885.359217,-9252.574275,306.438199
1302.751927,5181.441594,-8512.368333,919.314598
1302.752256,5551.544565,-6883.915261,306.438199
1302.752585,4737.318029,-4737.318029,0.000000
1302.752914,4811.338623,-3552.988522,-766.095498
1302.753243,5477.523971,-3478.967927,-689.485948
1302.753573,7254.018232,-2812.782580,459.657299
1302.753902,9252.574275,-3775.050304,1838.629195
1302.754231,10288.862594,-4071.132681,2604.724693
1302.754560,10881.027347,-5329.482782,3753.867940
1302.754889,9844.739029,-7105.977043,3370.820191
1302.755219,7624.121203,-8660.409521,2298.286494
1302.755548,6291.750507,-10066.800811,1072.533697
1302.755877,4811.338623,-10584.944971,153.219100
1302.756206,3849.070898,-10807.006753,0.000000
1302.756536,2886.803174,-11325.150913,0.000000
1302.756865,3404.947333,-9474.636058,0.000000
1302.757194,4515.256246,-7105.977043,459.657299
1302.757523,5847.626942,-4737.318029,0.000000
1302.757852,6291.750507,-3478.967927,306.438199
1302.758182,7179.997637,-2368.659014,459.657299
1302.758511,8734.430116,-1258.350101,459.657299
1302.758840,9992.780217,-1924.535449,1302.362347
1302.759169,11399.171507,-2738.761985,2681.334243
1302.759498,11695.253884,-5255.462188,2987.772442
1302.759828,10510.924376,-7402.059420,3753.867940
1302.760157,9030.512492,-8808.450710,2298.286494
1302.760486,7031.956449,-9252.574275,1149.143247
1302.760815,6069.688724,-9474.636058,919.314598
1302.761144,5033.400406,-9918.759623,536.266849
1302.761474,4441.235652,-9252.574275,459.657299
1302.761803,3849.070898,-7698.141797,0.000000
1302.762132,3701.029710,-6883.915261,-306.438199
1302.762461,4737.318029,-5107.421000,-229.828649
1302.762791,5847.626942,-4145.153275,0.000000
1302.763120,7179.997637,-3552.988522,153.219100
1302.763449,8660.409521,-3034.844362,1149.143247
1302.763778,10066.800811,-3627.009116,1991.848295
1302.764107,10436.903782,-4959.379811,2374.896044
1302.764437,10066.800811,-6661.853478,2604.724693
1302.764766,9104.533087,-7772.162391,2681.334243
1302.765095,7624.121203,-9474.636058,1455.581446
1302.765424,6439.791695,-10732.986159,1225.752797
1302.765753,4959.379811,-10807.006753,536.266849
1302.766083,3923.091493,-10510.924376,76.609550
1302.766412,3552.988522,-10436.903782,0.000000
1302.766741,3108.864956,-8882.471304,-306.438199
1302.767070,3256.906145,-6883.915261,-229.828649
1302.767399,4293.194464,-4663.297435,-1072.533697
1302.767729,5255.462188,-3108.864956,-229.828649
1302.768058,7772.162391,-2812.782580,689.485948
1302.768387,10214.842000,-2368.659014,1991.848295
1302.768716,11621.233289,-1924.535449,2681.334243
1302.769046,12065.356855,-3034.844362,2987.772442
1302.769375,11843.295072,-4737.318029,3447.429741
1302.769704,10066.800811,-7179.997637,3064.381992
1302.770033,7550.100608,-8438.347739,2145.067394
1302.770362,5625.565159,-9474.636058,842.705048
1302.770692,4737.318029,-9104.533087,0.000000
1302.771021,3775.050304,-10584.944971,459.657299
1302.771350,3775.050304,-10140.821405,1072.533697
1302.771679,4737.318029,-7254.018232,0.000000
1302.772008,4737.318029,-5255.462188,306.438199
1302.772338,4885.359217,-3849.070898,-229.828649
1302.772667,5921.647536,-3552.988522,229.828649
1302.772996,8216.285956,-2960.823768,459.657299
1302.773325,9326.594869,-2886.803174,1072.533697
1302.773654,10288.862594,-3108.864956,2451.505594
1302.773984,10955.047942,-5403.503377,2681.334243
1302.774313,10214.842000,-7179.997637,2987.772442
1302.774642,8512.368333,-9030.512492,2911.162892
1302.774971,7105.977043,-9474.636058,1455.581446
1302.775301,5699.585753,-9844.739029,76.609550
1302.775630,3775.050304,-10881.027347,229.828649
1302.775959,2812.782580,-11029.068536,-229.828649
1302.776288,2812.782580,-9992.780217,0.000000
1302.776617,3552.988522,-8438.347739,0.000000
1302.776947,3775.050304,-6143.709319,76.609550
1302.777276,5033.400406,-4293.194464,536.266849
1302.777605,6587.832884,-2738.761985,-76.609550
1302.777934,8660.409521,-1184.329507,919.314598
1302.778263,10807.006753,-888.247130,1685.410096
1302.778593,11843.295072,-2516.700203,2604.724693
1302.778922,11621.233289,-4737.318029,3217.601092
1302.779251,9844.739029,-6661.853478,2451.505594
1302.779580,8142.265362,-8068.244768,1838.629195
1302.779909,7254.018232,-9622.677246,1225.752797
1302.780239,6439.791695,-10436.903782,1378.971896
1302.780568,5847.626942,-9918.759623,689.485948
1302.780897,4811.338623,-8808.450710,306.438199
1302.781226,4589.276840,-7179.997637,0.000000
1302.781555,4737.318029,-6365.771101,0.000000
1302.781885,4737.318029,-5255.462188,-229.828649
1302.782214,5255.462188,-4737.318029,-459.657299
1302.782543,5921.647536,-3478.967927,-229.828649
1302.782872,7402.059420,-3034.844362,76.609550
1302.783201,10140.821405,-3552.988522,2068.457845
1302.783531,11917.315666,-4589.276840,3447.429741
1302.783860,11843.295072,-4737.318029,3524.039291
1302.784189,9696.697840,-6439.791695,3217.601092
1302.784518,7920.203579,-8216.285956,1685.410096
1302.784847,6291.750507,-9474.636058,995.924147
1302.785177,4293.194464,-11103.089130,0.000000
1302.785506,2886.803174,-11695.253884,-76.609550
1302.785835,2220.617826,-12213.398043,459.657299
1302.786164,3108.864956,-9326.594869,0.000000
1302.786493,3849.070898,-7105.977043,0.000000
1302.786823,4737.318029,-5107.421000,0.000000
1302.787152,5625.565159,-3330.926739,0.000000
1302.787481,7328.038826,-2294.638420,306.438199
1302.787810,9770.718434,-2294.638420,995.924147
1302.788139,11251.130318,-2146.597232,2068.457845
1302.788468,11917.315666,-3182.885551,2757.943793
1302.788798,11547.212695,-5625.565159,2987.772442
1302.789127,9770.718434,-7698.141797,3447.429741
1302.789456,8068.244768,-8956.491898,2374.896044
1302.789785,6661.853478,-9104.533087,1072.533697
1302.790114,5255.462188,-8882.471304,689.485948
1302.790444,4737.318029,-9178.553681,0.000000
1302.790773,4367.215058,-9178.553681,459.657299
1302.791102,4145.153275,-7402.059420,536.266849
1302.791431,4589.276840,-6439.791695,0.000000
1302.791760,4515.256246,-3849.070898,153.219100
1302.792090,5329.482782,-4145.153275,0.000000
1302.792419,7179.997637,-3108.864956,76.609550
1302.792748,9400.615463,-2960.823768,1225.752797
1302.793077,11029.068536,-3182.885551,2374.896044
1302.793406,12065.356855,-4441.235652,2911.162892
1302.793736,10658.965565,-5625.565159,2987.772442
1302.794065,8512.368333,-8882.471304,2298.286494
1302.794394,5921.647536,-9844.739029,1455.581446
1302.794723,4811.338623,-11325.150913,612.876398
1302.795052,4071.132681,-11769.274478,-153.219100
1302.795381,4293.194464,-11621.233289,229.828649
1302.795711,4293.194464,-10362.883188,383.047749
1302.796040,4441.235652,-7846.182985,0.000000
1302.796369,3330.926739,-6513.812290,-229.828649
1302.796698,4663.297435,-4441.235652,0.000000
1302.797027,5773.606348,-3997.112087,-766.095498
1302.797357,7550.100608,-2368.659014,306.438199
1302.797686,9548.656652,-2368.659014,1685.410096
1302.798015,11473.192101,-2960.823768,2145.067394
1302.798344,12213.398043,-4293.194464,3753.867940
1302.798673,10510.924376,-7105.977043,3370.820191
1302.799003,8512.368333,-7476.080014,2681.334243
1302.799332,6735.874072,-8142.265362,1838.629195
1302.799661,5995.668130,-10436.903782,1149.143247
1302.799990,5181.441594,-9400.615463,306.438199
1302.800319,4219.173869,-9548.656652,383.047749
1302.800649,4737.318029,-8364.327145,229.828649
1302.800978,5551.544565,-5847.626942,766.095498
1302.801307,5255.462188,-4811.338623,76.609550
1302.801636,5773.606348,-3997.112087,-306.438199
1302.801965,6217.729913,-2294.638420,-306.438199
1302.802295,8068.244768,-2738.761985,229.828649
1302.802624,10214.842000,-2442.679609,1685.410096
1302.802953,11103.089130,-2886.803174,2911.162892
1302.803282,10955.047942,-4811.338623,3217.601092
1302.803611,9918.759623,-6365.771101,2604.724693
1302.803940,8142.265362,-9178.553681,2374.896044
1302.804270,6809.894666,-10214.842000,1378.971896
1302.804599,5551.544565,-10658.965565,919.314598
1302.804928,4367.215058,-10732.986159,76.609550
1302.805257,3256.906145,-10732.986159,0.000000
1302.805586,2516.700203,-9844.739029,229.828649
1302.805916,2886.803174,-8956.491898,-306.438199
1302.806245,3923.091493,-6143.709319,-459.657299
1302.806574,4959.379811,-5033.400406,0.000000
1302.806903,6143.709319,-3108.864956,689.485948
1302.807232,8438.347739,-2442.679609,1302.362347
1302.807562,9844.739029,-2368.659014,1608.800546
1302.807891,11251.130318,-2516.700203,1991.848295
1302.808220,11547.212695,-4515.256246,2681.334243
1302.808549,10584.944971,-6661.853478,3064.381992
1302.808878,9030.512492,-8142.265362,2298.286494
1302.809208,7105.977043,-9178.553681,1149.143247
1302.809537,5921.647536,-9548.656652,229.828649
1302.809866,4959.379811,-10362.883188,153.219100
1302.810195,4515.256246,-10362.883188,612.876398
1302.810524,3923.091493,-8290.306550,76.609550
1302.810854,4071.132681,-6143.709319,-459.657299
1302.811183,5033.400406,-4737.318029,-306.438199
1302.811512,5995.668130,-3330.926739,-306.438199
1302.811841,7179.997637,-3182.885551,459.657299
1302.812170,8882.471304,-2590.720797,919.314598
1302.812499,10510.924376,-2146.597232,1838.629195
1302.812829,11547.212695,-3330.926739,2911.162892
1302.813158,11695.253884,-5403.503377,3370.820191
1302.813487,9548.656652,-7328.038826,2911.162892
1302.813816,7402.059420,-9178.553681,2068.457845
1302.814145,5921.647536,-10732.986159,1072.533697
1302.814475,4219.173869,-11103.089130,306.438199
1302.814804,2738.761985,-12435.459826,0.000000
1302.815133,2368.659014,-11473.192101,-766.095498
1302.815462,2812.782580,-8438.347739,-689.485948
1302.815791,3775.050304,-7105.977043,-306.438199
1302.816121,5625.565159,-4515.256246,0.000000
1302.816450,7105.977043,-3108.864956,459.657299
1302.816779,9104.533087,-2072.576638,536.266849
1302.817108,9918.759623,-1628.453072,1072.533697
1302.817437,11029.068536,-2368.659014,1838.629195
1302.817767,11029.068536,-3627.009116,1915.238745
1302.818096,9992.780217,-6661.853478,2604.724693
1302.818425,9178.553681,-8438.347739,2681.334243
1302.818754,7772.162391,-9400.615463,2374.896044
1302.819083,7254.018232,-10584.944971,1455.581446
1302.819412,4959.379811,-10066.800811,919.314598
1302.819742,3997.112087,-9918.759623,153.219100
1302.820071,3552.988522,-8882.471304,459.657299
1302.820400,3923.091493,-7476.080014,536.266849
1302.820729,4959.379811,-5551.544565,-153.219100
1302.821058,5551.544565,-4145.153275,919.314598
1302.821388,6069.688724,-3775.050304,229.828649
1302.821717,7179.997637,-2368.659014,1455.581446
1302.822046,9252.574275,-666.185348,1302.362347
1302.822375,11325.150913,-2590.720797,1762.019645
1302.822704,11103.089130,-4145.153275,2681.334243
1302.823034,9696.697840,-6809.894666,2604.724693
1302.823363,8586.388927,-9104.533087,2298.286494
1302.823692,6587.832884,-10288.862594,1838.629195
1302.824021,5181.441594,-11843.295072,995.924147
1302.824350,3701.029710,-11843.295072,536.266849
1302.824680,2590.720797,-12139.377449,229.828649
1302.825009,2812.782580,-10658.965565,-459.657299
1302.825338,2886.803174,-7402.059420,536.266849
1302.825667,4441.235652,-5107.421000,0.000000
1302.825996,5995.668130,-3256.906145,995.924147
1302.826326,7772.162391,-1036.288319,1532.190996
1302.826655,10066.800811,-1480.411884,995.924147
1302.826984,11029.068536,-222.061783,1762.019645
1302.827313,10955.047942,-2738.761985,2298.286494
1302.827642,11251.130318,-4737.318029,2451.505594
1302.827971,9400.615463,-7179.997637,2451.505594
1302.828301,7772.162391,-10658.965565,2834.553343
1302.828630,6809.894666,-10955.047942,1302.362347
1302.828959,5699.585753,-10881.027347,995.924147
1302.829288,4737.318029,-10732.986159,842.705048
1302.829617,4441.235652,-10066.800811,383.047749
1302.829947,3997.112087,-7920.203579,-689.485948
1302.830276,3552.988522,-6883.915261,-1225.752797
1302.830605,4367.215058,-6217.729913,-612.876398
1302.830934,5551.544565,-4367.215058,-383.047749
1302.831263,6809.894666,-2442.679609,0.000000
1302.831593,8882.471304,-2812.782580,1225.752797
1302.831922,11473.192101,-2072.576638,1991.848295
1302.832251,12657.521608,-1554.432478,2298.286494
1302.832580,11769.274478,-3849.070898,2528.115143
1302.832909,10584.944971,-5477.523971,2911.162892
1302.833239,8882.471304,-8512.368333,2451.505594
1302.833568,7031.956449,-9918.759623,1685.410096
1302.833897,5403.503377,-10362.883188,842.705048
1302.834226,4441.235652,-10955.047942,536.266849
1302.834555,2812.782580,-10658.965565,459.657299
1302.834885,2368.659014,-9178.553681,306.438199
1302.835214,3108.864956,-7254.018232,-229.828649
1302.835543,3775.050304,-4885.359217,-229.828649
1302.835872,5255.462188,-3923.091493,-919.314598
1302.836201,7772.162391,-3478.967927,229.828649
1302.836530,9770.718434,-2738.761985,1608.800546
1302.836860,11843.295072,-2072.576638,2145.067394
1302.837189,12657.521608,-2442.679609,2451.505594
1302.837518,11621.233289,-4737.318029,2834.553343
1302.837847,10140.821405,-7105.977043,2911.162892
1302.838176,8216.285956,-9252.574275,2221.676944
1302.838506,5699.585753,-9400.615463,229.828649
1302.838835,4367.215058,-9770.718434,689.485948
1302.839164,3627.009116,-10955.047942,0.000000
1302.839493,3404.947333,-10066.800811,229.828649
1302.839822,3108.864956,-8956.491898,153.219100
1302.840152,3997.112087,-6957.935855,-536.266849
1302.840481,3849.070898,-5329.482782,-1455.581446
1302.840810,4737.318029,-5033.400406,0.000000
1302.841139,7476.080014,-3775.050304,229.828649
1302.841468,9474.636058,-2812.782580,1685.410096
1302.841798,11547.212695,-2960.823768,2604.724693
1302.842127,12435.459826,-2738.761985,3140.991542
1302.842456,11843.295072,-4663.297435,3447.429741
1302.842785,9622.677246,-6587.832884,2987.772442
1302.843114,7402.059420,-8364.327145,2681.334243
1302.843443,5995.668130,-9474.636058,689.485948
1302.843773,4663.297435,-10140.821405,229.828649
1302.844102,3552.988522,-11029.068536,383.047749
1302.844431,3108.864956,-9622.677246,229.828649
1302.844760,3256.906145,-7772.162391,-306.438199
1302.845089,3404.947333,-6439.791695,-919.314598
1302.845419,4367.215058,-5329.482782,76.609550
1302.845748,6957.935855,-3849.070898,0.000000
1302.846077,8956.491898,-2960.823768,459.657299
1302.846406,10288.862594,-2220.617826,1915.238745
1302.846735,11177.109724,-2294.638420,1915.238745
1302.847065,11251.130318,-3701.029710,2451.505594
1302.847394,9918.759623,-5255.462188,2604.724693
1302.847723,7920.203579,-7698.141797,2451.505594
1302.848052,7105.977043,-9622.677246,2374.896044
1302.848381,6217.729913,-10066.800811,1455.581446
1302.848711,5033.400406,-10214.842000,536.266849
1302.849040,4145.153275,-10066.800811,842.705048
1302.849369,4515.256246,-9326.594869,229.828649
1302.849698,3923.091493,-7994.224174,-306.438199
1302.850027,3404.947333,-6365.771101,-536.266849
1302.850357,4663.297435,-4885.359217,-536.266849
1302.850686,6291.750507,-4293.194464,0.000000
1302.851015,7772.162391,-2886.803174,1072.533697
1302.851344,9474.636058,-2368.659014,1915.238745
1302.851673,11769.274478,-2368.659014,1991.848295
1302.852002,10955.047942,-3923.091493,2757.943793
1302.852332,9326.594869,-5847.626942,3140.991542
1302.852661,8586.388927,-7328.038826,2221.676944
1302.852990,7031.956449,-9474.636058,1532.190996
1302.853319,5107.421000,-10658.965565,536.266849
1302.853648,3849.070898,-11325.150913,612.876398
1302.853978,4589.276840,-10881.027347,0.000000
1302.854307,4145.153275,-10362.883188,766.095498
1302.854636,4367.215058,-7254.018232,0.000000
1302.854965,4737.318029,-5255.462188,-612.876398
1302.855294,5551.544565,-4071.132681,-1149.143247
1302.855624,6587.832884,-3256.906145,0.000000
1302.855953,7994.224174,-1998.556043,383.047749
1302.856282,9696.697840,-2072.576638,1532.190996
1302.856611,11251.130318,-2664.741391,2451.505594
1302.856940,11177.109724,-4293.194464,3370.820191
1302.857270,9770.718434,-6735.874072,3294.210641
1302.857599,8364.327145,-8142.265362,2451.505594
1302.857928,6957.935855,-9252.574275,1225.752797
1302.858257,5847.626942,-10140.821405,995.924147
1302.858586,5477.523971,-10732.986159,612.876398
1302.858916,5033.400406,-10584.944971,306.438199
1302.859245,4441.235652,-9178.553681,459.657299
1302.859574,3997.112087,-6883.915261,-689.485948
1302.859903,3849.070898,-5477.523971,-842.705048
1302.860232,5107.421000,-4293.194464,-612.876398
1302.860561,6291.750507,-3849.070898,-459.657299
1302.860891,8290.306550,-2664.741391,536.266849
1302.861220,9992.780217,-2442.679609,1455.581446
1302.861549,11769.274478,-3034.844362,2298.286494
1302.861878,11251.130318,-4737.318029,2834.553343
1302.862207,10732.986159,-6809.894666,3140.991542
1302.862537,9252.574275,-8438.347739,2604.724693
1302.862866,7698.141797,-9400.615463,1915.238745
1302.863195,6217.729913,-10066.800811,919.314598
1302.863524,4737.318029,-10510.924376,0.000000
1302.863853,3627.009116,-10807.006753,383.047749
1302.864183,3034.844362,-10066.800811,76.609550
1302.864512,3182.885551,-7698.141797,-229.828649
1302.864841,3701.029710,-5181.441594,-1072.533697
1302.865170,4663.297435,-4515.256246,-689.485948
1302.865499,6587.832884,-3701.029710,0.000000
1302.865829,9104.533087,-2516.700203,1149.143247
1302.866158,10584.944971,-2220.617826,1762.019645
1302.866487,11547.212695,-2886.803174,2604.724693
1302.866816,11399.171507,-5181.441594,2451.505594
1302.867145,9696.697840,-8142.265362,2911.162892
1302.867474,7994.224174,-8290.306550,2068.457845
1302.867804,6069.688724,-10066.800811,536.266849
1302.868133,5477.523971,-10955.047942,689.485948
1302.868462,4959.379811,-10214.842000,612.876398
1302.868791,4959.379811,-9770.718434,842.705048
1302.869120,4293.194464,-7624.121203,153.219100
1302.869450,3997.112087,-6661.853478,-612.876398
1302.869779,4293.194464,-5477.523971,-842.705048
1302.870108,4737.318029,-3923.091493,-612.876398
1302.870437,6217.729913,-3478.967927,0.000000
1302.870766,8364.327145,-2886.803174,1225.752797
1302.871096,10955.047942,-3108.864956,2987.772442
1302.871425,12435.459826,-3256.906145,3830.477490
1302.871754,11769.274478,-4515.256246,4060.306139
1302.872083,10066.800811,-6809.894666,2681.334243
1302.872412,7624.121203,-7698.141797,1762.019645
1302.872742,5847.626942,-9548.656652,1072.533697
1302.873071,4515.256246,-10584.944971,306.438199
1302.873400,3552.988522,-11103.089130,612.876398
1302.873729,3849.070898,-10658.965565,306.438199
1302.874058,3627.009116,-9030.512492,0.000000
1302.874388,3923.091493,-7179.997637,76.609550
1302.874717,4737.318029,-4441.235652,-689.485948
1302.875046,5255.462188,-3256.906145,76.609550
1302.875375,7179.997637,-2886.803174,459.657299
1302.875704,9252.574275,-2516.700203,1608.800546
1302.876033,11177.109724,-2738.761985,2374.896044
1302.876363,11251.130318,-4293.194464,3064.381992
1302.876692,10881.027347,-5699.585753,2757.943793
1302.877021,9326.594869,-7920.203579,2145.067394
1302.877350,7846.182985,-9474.636058,2145.067394
1302.877679,6809.894666,-9844.739029,995.924147
1302.878009,5551.544565,-9474.636058,612.876398
1302.878338,3775.050304,-10140.821405,0.000000
1302.878667,2664.741391,-10140.821405,-536.266849
1302.878996,2442.679609,-8882.471304,-536.266849
1302.879325,3256.906145,-7105.977043,-689.485948
1302.879655,4737.318029,-5699.585753,0.000000
1302.879984,5773.606348,-4441.235652,459.657299
1302.880313,7994.224174,-2516.700203,842.705048
1302.880642,10510.924376,-1998.556043,1991.848295
1302.880971,11547.212695,-2368.659014,2834.553343
1302.881301,12139.377449,-3034.844362,2757.943793
1302.881630,11325.150913,-5551.544565,3294.210641
1302.881959,9474.636058,-7254.018232,2987.772442
1302.882288,7772.162391,-9474.636058,1838.629195
1302.882617,6883.915261,-10140.821405,1072.533697
1302.882946,4885.359217,-10510.924376,306.438199
1302.883275,4071.132681,-10881.027347,153.219100
1302.883604,3256.906145,-9548.656652,0.000000
1302.883933,3330.926739,-7772.162391,0.000000
1302.884262,4441.235652,-5551.544565,0.000000
1302.884591,4959.379811,-3701.029710,-383.047749
1302.884920,5847.626942,-2960.823768,-459.657299
1302.885249,7772.162391,-2812.782580,229.828649
1302.885578,10510.924376,-2146.597232,1532.190996
1302.885907,12139.377449,-2368.659014,2604.724693
1302.886236,12139.377449,-4663.297435,3294.210641
1302.886565,10732.986159,-6735.874072,3753.867940
1302.886894,9104.533087,-8216.285956,2528.115143
1302.887223,7179.997637,-8956.491898,612.876398
1302.887552,5403.503377,-10214.842000,459.657299
1302.887881,4293.194464,-11177.109724,0.000000
1302.888210,3256.906145,-11029.068536,0.000000
1302.888539,2886.803174,-9844.739029,76.609550
1302.888868,2812.782580,-7402.059420,-459.657299
1302.889197,3775.050304,-5403.503377,-842.705048
1302.889526,5033.400406,-3997.112087,-842.705048
1302.889855,6957.935855,-3478.967927,306.438199
1302.890184,9252.574275,-1998.556043,1608.800546
1302.890513,12065.356855,-1702.473667,1685.410096
1302.890842,12509.480420,-2368.659014,2911.162892
1302.891171,11917.315666,-4737.318029,3677.258390
1302.891500,10584.944971,-7254.018232,3064.381992
1302.891829,8290.306550,-8734.430116,2757.943793
1302.892158,6513.812290,-9622.677246,1455.581446
1302.892487,5107.421000,-10658.965565,842.705048
1302.892816,3182.885551,-10881.027347,0.000000
1302.893145,2220.617826,-10807.006753,0.000000
1302.893474,2220.617826,-9474.636058,-383.047749
1302.893803,2738.761985,-7179.997637,-306.438199
1302.894132,3997.112087,-5329.482782,-459.657299
1302.894461,5625.565159,-3701.029710,76.609550
1302.894790,7846.182985,-2590.720797,383.047749
1302.895119,9844.739029,-2146.597232,919.314598
1302.895448,11843.295072,-1702.473667,2681.334243
1302.895777,12731.542202,-2516.700203,2681.334243
1302.896106,11695.253884,-4737.318029,2911.162892
1302.896435,9696.697840,-7698.141797,2681.334243
1302.896764,7846.182985,-9548.656652,1608.800546
1302.897093,5995.668130,-10066.800811,612.876398
1302.897422,4737.318029,-10732.986159,1072.533697
1302.897751,3552.988522,-10066.800811,153.219100
1302.898080,2960.823768,-10584.944971,-229.828649
1302.898409,2886.803174,-8586.388927,0.000000
1302.898738,3701.029710,-7031.956449,-383.047749
1302.899067,4515.256246,-4811.338623,-153.219100
1302.899396,5921.647536,-4367.215058,-536.266849
1302.899725,7179.997637,-3034.844362,612.876398
1302.900054,9474.636058,-1850.514855,1991.848295
1302.900383,12065.356855,-2146.597232,2757.943793
1302.900712,12879.583391,-3108.864956,3447.429741
1302.901041,11325.150913,-4589.276840,3447.429741
1302.901370,9252.574275,-7476.080014,2528.115143
1302.901699,6661.853478,-8660.409521,1915.238745
1302.902028,5033.400406,-10658.965565,536.266849
1302.902357,3775.050304,-11547.212695,76.609550
1302.902686,3404.947333,-11547.212695,0.000000
1302.903015,3182.885551,-10955.047942,229.828649
1302.903344,3330.926739,-9326.594869,0.000000
1302.903673,3923.091493,-6957.935855,-153.219100
1302.904002,4811.338623,-4145.153275,-612.876398
1302.904331,6513.812290,-3256.906145,-536.266849
1302.904660,8438.347739,-1998.556043,689.485948
1302.904989,10362.883188,-1850.514855,1762.019645
1302.905318,11621.233289,-2442.679609,2757.943793
1302.905647,11473.192101,-3627.009116,3294.210641
1302.905976,11103.089130,-5477.523971,2987.772442
1302.906305,9474.636058,-6957.935855,2681.334243
1302.906634,7994.224174,-8586.388927,1302.362347
1302.906963,6069.688724,-9178.553681,1072.533697
1302.907292,5181.441594,-9844.739029,459.657299
1302.907621,3775.050304,-10955.047942,842.705048
1302.907950,2886.803174,-10066.800811,-383.047749
1302.908279,2738.761985,-8512.368333,0.000000
1302.908608,3404.947333,-7105.977043,0.000000
1302.908937,4663.297435,-5181.441594,-383.047749
1302.909266,6365.771101,-3849.070898,306.438199
1302.909595,8438.347739,-2886.803174,306.438199
1302.909924,10658.965565,-1702.473667,1838.629195
1302.910253,11473.192101,-1702.473667,2145.067394
1302.910582,11769.274478,-3923.091493,2987.772442
1302.910911,11325.150913,-5773.606348,3140.991542
1302.911240,9696.697840,-7624.121203,2451.505594
1302.911569,7476.080014,-9770.718434,1532.190996
1302.911898,5403.503377,-10732.986159,612.876398
1302.912227,3404.947333,-11251.130318,-306.438199
1302.912556,2072.576638,-11769.274478,-383.047749
1302.912885,2442.679609,-10584.944971,-383.047749
1302.913214,3256.906145,-8364.327145,-306.438199
1302.913543,4219.173869,-6439.791695,-306.438199
1302.913872,5329.482782,-3627.009116,-536.266849
1302.914201,6513.812290,-3478.967927,0.000000
1302.914530,8734.430116,-2738.761985,1302.362347
1302.914859,11103.089130,-1184.329507,2145.067394
1302.915188,12953.603985,-1554.432478,2987.772442
1302.915517,13027.624579,-3256.906145,3907.087040
1302.915846,11103.089130,-5625.565159,3907.087040
1302.916175,8734.430116,-8068.244768,1991.848295
1302.916504,5921.647536,-8956.491898,536.266849
1302.916833,4071.132681,-10584.944971,0.000000
1302.917162,3182.885551,-11695.253884,-306.438199
1302.917491,3182.885551,-11325.150913,306.438199
1302.917820,2960.823768,-9918.759623,-153.219100
1302.918149,3330.926739,-7402.059420,-306.438199
1302.918478,4441.235652,-5255.462188,-383.047749
1302.918807,5847.626942,-3701.029710,-766.095498
1302.919136,6809.894666,-3552.988522,612.876398
1302.919465,8438.347739,-2294.638420,995.924147
1302.919794,10584.944971,-2368.659014,2068.457845
1302.920123,11991.336260,-3330.926739,3294.210641
1302.920452,12287.418637,-4885.359217,4136.915689
1302.920781,9770.718434,-7031.956449,3140.991542
1302.921110,7402.059420,-7994.224174,2145.067394
1302.921439,6143.709319,-9844.739029,1072.533697
1302.921768,5181.441594,-10807.006753,612.876398
1302.922097,3701.029710,-11177.109724,459.657299
1302.922426,2812.782580,-10584.944971,0.000000
1302.922755,2590.720797,-9030.512492,-306.438199
1302.923084,3108.864956,-7328.038826,-612.876398
1302.923413,4737.318029,-4663.297435,76.609550
1302.923742,5995.668130,-3627.009116,0.000000
1302.924071,7772.162391,-2220.617826,689.485948
1302.924400,9474.636058,-1998.556043,1225.752797
1302.924729,11251.130318,-1776.494261,2528.115143
1302.925058,12361.439231,-2442.679609,3447.429741
1302.925387,11473.192101,-5033.400406,3064.381992
1302.925716,9326.594869,-6809.894666,2528.115143
1302.926045,7624.121203,-8956.491898,1378.971896
1302.926374,6957.935855,-10140.821405,1302.362347
1302.926703,6143.709319,-10362.883188,536.266849
1302.927032,4885.359217,-10510.924376,536.266849
1302.927361,4071.132681,-9474.636058,76.609550
1302.927690,3627.009116,-8660.409521,-306.438199
1302.928019,4071.132681,-6883.915261,0.000000
1302.928348,4367.215058,-4663.297435,-383.047749
1302.928677,4737.318029,-4959.379811,-306.438199
1302.929006,6365.771101,-3627.009116,612.876398
1302.929335,8660.409521,-2590.720797,2145.067394
1302.929664,11325.150913,-2368.659014,2451.505594
1302.929993,11325.150913,-3330.926739,3064.381992
1302.930322,10362.883188,-5551.544565,3064.381992
1302.930651,9104.533087,-6809.894666,2374.896044
1302.930980,7920.203579,-9474.636058,1302.362347
1302.931310,6809.894666,-10584.944971,995.924147
1302.931639,4811.338623,-10584.944971,-153.219100
1302.931968,3849.070898,-11177.109724,0.000000
1302.932297,3701.029710,-10658.965565,0.000000
1302.932626,3849.070898,-8882.471304,-383.047749
1302.932955,4145.153275,-5921.647536,153.219100
1302.933284,5033.400406,-4441.235652,-153.219100
1302.933613,6809.894666,-3923.091493,612.876398
1302.933942,7772.162391,-1702.473667,689.485948
1302.934271,9548.656652,-1480.411884,1302.362347
1302.934600,11547.212695,-2146.597232,2451.505594
1302.934929,12139.377449,-3849.070898,3294.210641
1302.935258,11547.212695,-5699.585753,3677.258390
1302.935587,9548.656652,-6957.935855,3294.210641
1302.935916,7994.224174,-8512.368333,1455.581446
1302.936245,5847.626942,-9622.677246,766.095498
1302.936574,4663.297435,-10436.903782,153.219100
1302.936903,3849.070898,-10436.903782,-229.828649
1302.937232,3034.844362,-9992.780217,0.000000
1302.937561,2812.782580,-8882.471304,0.000000
1302.937890,3404.947333,-6587.832884,-459.657299
1302.938219,4737.318029,-5181.441594,-766.095498
1302.938548,5921.647536,-4515.256246,0.000000
1302.938877,7105.977043,-3701.029710,612.876398
1302.939206,9622.677246,-2516.700203,1532.190996
1302.939535,11399.171507,-2960.823768,2374.896044
1302.939864,12139.377449,-4367.215058,3370.820191
1302.940193,11251.130318,-6217.729913,3370.820191
1302.940522,8956.491898,-8364.327145,2374.896044
1302.940851,6809.894666,-9474.636058,1225.752797
1302.941180,5255.462188,-9918.759623,536.266849
1302.941509,4441.235652,-10584.944971,536.266849
1302.941838,3775.050304,-10510.924376,-306.438199
1302.942167,3404.947333,-9400.615463,-229.828649
1302.942496,3997.112087,-7328.038826,-153.219100
1302.942825,4737.318029,-4885.359217,0.000000
1302.943154,5477.523971,-3997.112087,0.000000
1302.943483,6513.812290,-3701.029710,76.609550
1302.943812,8216.285956,-2590.720797,1225.752797
1302.944141,10881.027347,-2442.679609,2145.067394
1302.944470,12065.356855,-2590.720797,2604.724693
1302.944799,11843.295072,-3849.070898,3753.867940
1302.945128,10510.924376,-6661.853478,2987.772442
1302.945457,8586.388927,-7920.203579,2068.457845
1302.945786,6365.771101,-9400.615463,1302.362347
1302.946115,5551.544565,-10584.944971,383.047749
1302.946444,4367.215058,-10288.862594,-306.438199
1302.946773,3478.967927,-10288.862594,0.000000
1302.947102,3256.906145,-9696.697840,-306.438199
1302.947431,3552.988522,-7402.059420,-229.828649
1302.947760,4367.215058,-5403.503377,-612.876398
1302.948089,5181.441594,-4145.153275,-689.485948
1302.948418,6883.915261,-3552.988522,229.828649
1302.948747,8734.430116,-3034.844362,919.314598
1302.949076,10510.924376,-3330.926739,2068.457845
1302.949405,11621.233289,-3701.029710,3294.210641
1302.949734,11029.068536,-5329.482782,2987.772442
1302.950063,9918.759623,-6513.812290,3064.381992
1302.950392,7846.182985,-8068.244768,2834.553343
1302.950721,6735.874072,-9696.697840,1225.752797
1302.951050,4959.379811,-10140.821405,1149.143247
1302.951379,3478.967927,-10658.965565,0.000000
1302.951708,2886.803174,-10066.800811,0.000000
1302.952037,3034.844362,-8068.244768,76.609550
1302.952366,4145.153275,-7550.100608,-153.219100
1302.952695,4959.379811,-4811.338623,0.000000
1302.953024,6291.750507,-3627.009116,229.828649
1302.953353,7846.182985,-2516.700203,766.095498
1302.953682,9474.636058,-1480.411884,1149.143247
1302.954011,10584.944971,-1628.453072,1915.238745
1302.954340,11769.274478,-3701.029710,2911.162892
1302.954669,11621.233289,-5403.503377,3217.601092
1302.954998,9844.739029,-6883.915261,2834.553343
1302.955327,7994.224174,-8216.285956,2068.457845
1302.955656,5921.647536,-9474.636058,1072.533697
1302.955985,5403.503377,-10214.842000,306.438199
1302.956314,4293.194464,-10955.047942,306.438199
1302.956643,4145.153275,-9770.718434,153.219100
1302.956972,4071.132681,-8364.327145,0.000000
1302.957301,4293.194464,-6291.750507,0.000000
1302.957630,4663.297435,-4885.359217,-995.924147
1302.957959,5181.441594,-4441.235652,-689.485948
1302.958288,7105.977043,-5181.441594,383.047749
1302.958617,9400.615463,-3552.988522,1302.362347
1302.958946,10955.047942,-3108.864956,2451.505594
1302.959275,11251.130318,-4367.215058,3064.381992
1302.959604,10584.944971,-6143.709319,3907.087040
1302.959933,8512.368333,-7402.059420,2374.896044
1302.960262,7105.977043,-9030.512492,1685.410096
1302.960591,5921.647536,-9992.780217,842.705048
1302.960920,4737.318029,-10807.006753,306.438199
1302.961249,3478.967927,-10732.986159,-306.438199
1302.961578,3552.988522,-10140.821405,0.000000
1302.961907,3997.112087,-7698.141797,0.000000
1302.962236,4737.318029,-5551.544565,0.000000
1302.962565,5995.668130,-3330.926739,383.047749
1302.962894,7920.203579,-2368.659014,612.876398
1302.963223,8512.368333,-2072.576638,0.000000
1302.963552,9326.594869,-2516.700203,1225.752797
1302.963881,11103.089130,-2738.761985,2068.457845
1302.964210,11547.212695,-3997.112087,2987.772442
1302.964539,10658.965565,-6513.812290,3447.429741
1302.964868,9474.636058,-7476.080014,3217.601092
1302.965197,8068.244768,-8808.450710,2145.067394
1302.965526,6143.709319,-9252.574275,1225.752797
1302.965855,4737.318029,-9992.780217,612.876398
1302.966184,3849.070898,-10214.842000,536.266849
1302.966513,3182.885551,-9474.636058,-229.828649
1302.966842,2960.823768,-8068.244768,-306.438199
1302.967171,4071.132681,-6513.812290,-459.657299
1302.967500,4959.379811,-4737.318029,-383.047749
1302.967829,6291.750507,-4441.235652,-229.828649
1302.968158,7031.956449,-3404.947333,229.828649
1302.968487,8808.450710,-3182.885551,1149.143247
1302.968816,10658.965565,-4071.132681,2374.896044
1302.969145,10658.965565,-5403.503377,2987.772442
1302.969474,9992.780217,-7550.100608,3447.429741
1302.969803,8882.471304,-8734.430116,2451.505594
1302.970132,6661.853478,-9400.615463,1608.800546
1302.970461,5329.482782,-9918.759623,306.438199
1302.970790,4293.194464,-10362.883188,229.828649
1302.971119,3849.070898,-10288.862594,0.000000
1302.971448,3775.050304,-9104.533087,153.219100
1302.971777,4441.235652,-7179.997637,612.876398
1302.972106,5033.400406,-5255.462188,0.000000
1302.972435,5329.482782,-3256.906145,-919.314598
1302.972764,6217.729913,-2886.803174,0.000000
1302.973093,8216.285956,-2368.659014,612.876398
1302.973422,10510.924376,-2664.741391,2374.896044
1302.973751,12139.377449,-2664.741391,3524.039291
1302.974080,11917.315666,-4219.173869,3907.087040
1302.974409,11029.068536,-5477.523971,3447.429741
1302.974738,9104.533087,-7624.121203,2757.943793
1302.975067,6439.791695,-9400.615463,1072.533697
1302.975396,5329.482782,-9622.677246,306.438199
1302.975725,4737.318029,-10584.944971,76.609550
1302.976054,4071.132681,-10140.821405,0.000000
1302.976383,3552.988522,-8660.409521,76.609550
1302.976712,3478.967927,-7550.100608,-383.047749
1302.977041,4737.318029,-5921.647536,-766.095498
1302.977370,5551.544565,-4515.256246,-306.438199
1302.977699,6883.915261,-3775.050304,0.000000
1302.978028,7994.224174,-3849.070898,306.438199
1302.978357,9474.636058,-3775.050304,1838.629195
1302.978686,10955.047942,-4515.256246,2911.162892
1302.979015,11325.150913,-5551.544565,3830.477490
1302.979344,9696.697840,-6291.750507,3447.429741
1302.979673,7624.121203,-8216.285956,1915.238745
1302.980002,6069.688724,-9696.697840,919.314598
1302.980331,4737.318029,-10807.006753,536.266849
1302.980660,3627.009116,-11325.150913,76.609550
1302.980990,3404.947333,-9918.759623,229.828649
1302.981319,3849.070898,-8586.388927,229.828649
1302.981648,4589.276840,-6661.853478,0.000000
1302.981977,5329.482782,-4737.318029,0.000000
1302.982306,6587.832884,-3256.906145,-153.219100
1302.982635,7105.977043,-2442.679609,459.657299
1302.982964,8956.491898,-1554.432478,1149.143247
1302.983294,10881.027347,-1554.432478,1532.190996
1302.983623,12509.480420,-3182.885551,3217.601092
1302.983952,12065.356855,-4737.318029,4519.963438
1302.984281,10362.883188,-7105.977043,2834.553343
1302.984610,8438.347739,-8142.265362,1915.238745
1302.984939,6957.935855,-9030.512492,536.266849
1302.985268,5773.606348,-10066.800811,459.657299
1302.985598,3997.112087,-10140.821405,229.828649
1302.985927,4145.153275,-9844.739029,76.609550
1302.986256,4737.318029,-8438.347739,0.000000
1302.986585,4219.173869,-6291.750507,153.219100
1302.986914,4885.359217,-5181.441594,153.219100
1302.987243,5403.503377,-4219.173869,-842.705048
1302.987572,6143.709319,-4589.276840,-76.609550
1302.987902,7328.038826,-3923.091493,1072.533697
1302.988231,9622.677246,-3701.029710,2145.067394
1302.988560,10584.944971,-4293.194464,3217.601092
1302.988889,10140.821405,-6513.812290,3370.820191
1302.989218,8438.347739,-8068.244768,2528.115143
1302.989547,7031.956449,-9622.677246,1915.238745
1302.989876,5255.462188,-10732.986159,995.924147
1302.990206,4441.235652,-10732.986159,612.876398
1302.990535,3775.050304,-10584.944971,-383.047749
1302.990864,3552.988522,-10066.800811,76.609550
1302.991193,4071.132681,-8364.327145,76.609550
1302.991522,5033.400406,-5773.606348,-383.047749
1302.991851,5625.565159,-3997.112087,0.000000
1302.992180,6957.935855,-2664.741391,306.438199
1302.992510,7994.224174,-1924.535449,612.876398
1302.992839,9622.677246,-1554.432478,1838.629195
1302.993168,11547.212695,-1924.535449,2528.115143
1302.993497,11473.192101,-4071.132681,2911.162892
1302.993826,10732.986159,-5773.606348,3677.258390
1302.994155,9326.594869,-7624.121203,2757.943793
1302.994484,7624.121203,-8660.409521,2068.457845
1302.994814,5625.565159,-9400.615463,689.485948
1302.995143,4663.297435,-10510.924376,153.219100
1302.995472,4441.235652,-10436.903782,612.876398
1302.995801,3849.070898,-9252.574275,306.438199
1302.996130,3478.967927,-8068.244768,-536.266849
1302.996459,4219.173869,-6513.812290,-536.266849
1302.996788,4737.318029,-5477.523971,-229.828649
1302.997118,5773.606348,-4811.338623,0.000000
1302.997447,7772.162391,-3478.967927,536.266849
1302.997776,8956.491898,-3034.844362,1149.143247
1302.998105,10584.944971,-3478.967927,2298.286494
1302.998434,11177.109724,-5181.441594,3217.601092
1302.998763,10066.800811,-7105.977043,2757.943793
1302.999092,8512.368333,-7476.080014,2374.896044
1302.999422,6587.832884,-9252.574275,919.314598
1302.999751,5551.544565,-9770.718434,459.657299
1303.000080,4663.297435,-10807.006753,306.438199
1303.000409,4145.153275,-10288.862594,229.828649
1303.000738,3775.050304,-9400.615463,229.828649
1303.001067,4145.153275,-7476.080014,153.219100
1303.001396,4885.359217,-5181.441594,0.000000
1303.001726,5551.544565,-4145.153275,76.609550
1303.002055,6957.935855,-2664.741391,612.876398
1303.002384,8734.430116,-1702.473667,919.314598
1303.002713,10584.944971,-1850.514855,2374.896044
1303.003042,12139.377449,-2368.659014,3217.601092
1303.003371,12287.418637,-4071.132681,3600.648841
1303.003700,11251.130318,-6587.832884,2834.553343
1303.004030,7846.182985,-7846.182985,2068.457845
1303.004359,5921.647536,-9474.636058,842.705048
1303.004688,5255.462188,-9770.718434,459.657299
1303.005017,4589.276840,-10066.800811,153.219100
1303.005346,4293.194464,-10436.903782,153.219100
1303.005675,4219.173869,-8734.430116,76.609550
1303.006004,4515.256246,-7328.038826,229.828649
1303.006334,4589.276840,-5773.606348,0.000000
1303.006663,5181.441594,-3552.988522,-76.609550
1303.006992,6291.750507,-3923.091493,-306.438199
1303.007321,7920.203579,-3701.029710,919.314598
1303.007650,9844.739029,-3701.029710,2298.286494
1303.007979,11547.212695,-4589.276840,2834.553343
1303.008308,11399.171507,-4959.379811,3753.867940
1303.008638,9844.739029,-7105.977043,3217.601092
1303.008967,7624.121203,-7698.141797,2068.457845
1303.009296,5921.647536,-9030.512492,842.705048
1303.009625,4441.235652,-10807.006753,383.047749
1303.009954,3330.926739,-11695.253884,306.438199
1303.010283,3108.864956,-11177.109724,0.000000
1303.010612,3182.885551,-9474.636058,-459.657299
1303.010942,3256.906145,-7476.080014,-766.095498
1303.011271,4441.235652,-5847.626942,-383.047749
1303.011600,6143.709319,-4885.359217,153.219100
1303.011929,7698.141797,-2368.659014,76.609550
1303.012258,9548.656652,-1258.350101,1302.362347
1303.012587,11473.192101,-2072.576638,2451.505594
1303.012916,12435.459826,-3108.864956,3370.820191
1303.013246,11251.130318,-5107.421000,3064.381992
1303.013575,9770.718434,-6513.812290,2834.553343
1303.013904,8512.368333,-7179.997637,1991.848295
1303.014233,7105.977043,-8586.388927,919.314598
1303.014562,5477.523971,-9844.739029,766.095498
1303.014891,5107.421000,-10214.842000,612.876398
1303.015220,5107.421000,-9030.512492,612.876398
1303.015550,5181.441594,-7402.059420,306.438199
1303.015879,4663.297435,-6587.832884,-612.876398
1303.016208,4145.153275,-5699.585753,-1149.143247
1303.016537,4663.297435,-5403.503377,0.000000
1303.016866,6217.729913,-4515.256246,306.438199
1303.017195,8068.244768,-3923.091493,1838.629195
1303.017524,9770.718434,-3478.967927,2374.896044
1303.017854,10732.986159,-4959.379811,3140.991542
1303.018183,10362.883188,-6587.832884,3064.381992
1303.018512,8586.388927,-7550.100608,2374.896044
1303.018841,6513.812290,-8808.450710,1608.800546
1303.019170,5403.503377,-9770.718434,766.095498
1303.019499,4441.235652,-10732.986159,0.000000
1303.019828,3330.926739,-11325.150913,0.000000
1303.020158,3849.070898,-10436.903782,0.000000
1303.020487,4885.359217,-8290.306550,153.219100
1303.020816,5847.626942,-5625.565159,306.438199
1303.021145,6291.750507,-3775.050304,306.438199
1303.021474,6735.874072,-2664.741391,0.000000
1303.021803,7624.121203,-2442.679609,76.609550
1303.022132,8586.388927,-2664.741391,919.314598
1303.022462,10658.965565,-2960.823768,2221.676944
1303.022791,11399.171507,-5403.503377,3140.991542
1303.023120,10881.027347,-4885.359217,3677.258390
1303.023449,8734.430116,-8216.285956,2834.553343
1303.023778,7254.018232,-8290.306550,1685.410096
1303.024107,6365.771101,-7402.059420,919.314598
1303.024436,5699.585753,-9918.759623,612.876398
1303.024766,5625.565159,-8512.368333,612.876398
1303.025095,4663.297435,-9030.512492,536.266849
1303.025424,4737.318029,-7772.162391,76.609550
1303.025753,5551.544565,-5181.441594,76.609550
1303.026082,5847.626942,-5033.400406,-306.438199
1303.026411,6217.729913,-3627.009116,383.047749
1303.026740,7328.038826,-3552.988522,306.438199
1303.027070,8660.409521,-3478.967927,1378.971896
1303.027399,9918.759623,-3627.009116,2221.676944
1303.027728,10807.006753,-5921.647536,2451.505594
1303.028057,9326.594869,-7105.977043,2451.505594
1303.028386,7698.141797,-9104.533087,2068.457845
1303.028715,6217.729913,-9992.780217,612.876398
1303.029044,5181.441594,-10140.821405,153.219100
1303.029374,4367.215058,-10658.965565,0.000000
1303.029703,4293.194464,-10140.821405,153.219100
1303.030032,4441.235652,-9104.533087,536.266849
1303.030361,4367.215058,-7031.956449,76.609550
1303.030690,4663.297435,-5255.462188,229.828649
1303.031019,5625.565159,-3849.070898,0.000000
1303.031348,6661.853478,-3256.906145,459.657299
1303.031678,8068.244768,-3108.864956,919.314598
1303.032007,10288.862594,-1998.556043,2068.457845
1303.032336,11917.315666,-2960.823768,2681.334243
1303.032665,11991.336260,-4885.359217,3294.210641
1303.032994,10066.800811,-6587.832884,2681.334243
1303.033323,7624.121203,-8068.244768,1455.581446
1303.033652,6291.750507,-9104.533087,76.609550
1303.033982,4959.379811,-10584.944971,383.047749
1303.034311,4441.235652,-10436.903782,383.047749
1303.034640,4515.256246,-9400.615463,536.266849
1303.034969,5033.400406,-8438.347739,536.266849
1303.035298,5181.441594,-5921.647536,0.000000
1303.035627,5477.523971,-4737.318029,306.438199
1303.035956,6143.709319,-3034.844362,-153.219100
1303.036286,6809.894666,-3034.844362,0.000000
1303.036615,7920.203579,-3627.009116,919.314598
1303.036944,9918.759623,-4145.153275,2298.286494
1303.037273,11103.089130,-4589.276840,3140.991542
1303.037602,11325.150913,-5921.647536,3600.648841
1303.037931,9770.718434,-7476.080014,3064.381992
1303.038260,7920.203579,-7772.162391,2298.286494
1303.038590,5625.565159,-9622.677246,689.485948
1303.038919,3997.112087,-11029.068536,76.609550
1303.039248,3182.885551,-11325.150913,-76.609550
1303.039577,3108.864956,-10807.006753,0.000000
1303.039906,2960.823768,-9252.574275,229.828649
1303.040235,3849.070898,-7328.038826,0.000000
1303.040565,5107.421000,-5255.462188,0.000000
1303.040894,6883.915261,-3775.050304,383.047749
1303.041223,8364.327145,-1924.535449,766.095498
1303.041552,9326.594869,-1480.411884,1149.143247
1303.041881,10881.027347,-2516.700203,2221.676944
1303.042210,11473.192101,-4515.256246,2681.334243
1303.042539,10658.965565,-6661.853478,3064.381992
1303.042869,9030.512492,-7402.059420,2681.334243
1303.043198,7402.059420,-8734.430116,1685.410096
1303.043527,6217.729913,-8882.471304,459.657299
1303.043856,5107.421000,-9474.636058,536.266849
1303.044185,4885.359217,-9992.780217,383.047749
1303.044514,5181.441594,-8808.450710,459.657299
1303.044843,4293.194464,-6883.915261,153.219100
1303.045173,4145.153275,-5699.585753,0.000000
1303.045502,4959.379811,-5033.400406,229.828649
1303.045831,5847.626942,-4293.194464,76.609550
1303.046160,7031.956449,-3701.029710,459.657299
1303.046489,8512.368333,-3330.926739,1762.019645
1303.046818,10066.800811,-3108.864956,2298.286494
1303.047147,10510.924376,-4441.235652,2681.334243
1303.047477,10140.821405,-6069.688724,3524.039291
1303.047806,8882.471304,-7846.182985,2528.115143
1303.048135,7328.038826,-9548.656652,1838.629195
1303.048464,5477.523971,-10436.903782,689.485948
1303.048793,3775.050304,-11103.089130,-459.657299
1303.049122,3478.967927,-10955.047942,153.219100
1303.049451,3552.988522,-10362.883188,229.828649
1303.049781,4071.132681,-7920.203579,0.000000
1303.050110,5255.462188,-5033.400406,76.609550
1303.050439,6439.791695,-3330.926739,612.876398
1303.050768,6735.874072,-2516.700203,-229.828649
1303.051097,7772.162391,-2294.638420,306.438199
1303.051426,9474.636058,-2442.679609,1149.143247
1303.051755,11177.109724,-3552.988522,1838.629195
1303.052085,11473.192101,-4589.276840,3370.820191
1303.052414,10732.986159,-6661.853478,3294.210641
1303.052743,9474.636058,-7476.080014,2374.896044
1303.053072,7772.162391,-8512.368333,1149.143247
1303.053401,5921.647536,-9622.677246,689.485948
1303.053730,5477.523971,-10288.862594,536.266849
1303.054059,4441.235652,-10362.883188,536.266849
1303.054389,3997.112087,-9474.636058,612.876398
1303.054718,3923.091493,-7105.977043,0.000000
1303.055047,4441.235652,-5625.565159,-842.705048
1303.055376,5181.441594,-4663.297435,-536.266849
1303.055705,6365.771101,-3108.864956,306.438199
1303.056034,7994.224174,-2960.823768,1072.533697
1303.056363,9992.780217,-3182.885551,1608.800546
1303.056693,11399.171507,-3478.967927,2604.724693
1303.057022,11399.171507,-5255.462188,2451.505594
1303.057351,10288.862594,-7550.100608,3064.381992
1303.057680,7994.224174,-9622.677246,2374.896044
1303.058009,6439.791695,-9400.615463,459.657299
1303.058338,4589.276840,-10955.047942,76.609550
1303.058667,3923.091493,-11177.109724,0.000000
1303.058997,3849.070898,-11177.109724,536.266849
1303.059326,3627.009116,-9178.553681,919.314598
1303.059655,3552.988522,-6143.709319,0.000000
1303.059984,3775.050304,-4885.359217,-689.485948
1303.060313,5181.441594,-3997.112087,0.000000
1303.060642,7105.977043,-3552.988522,689.485948
1303.060971,9252.574275,-1998.556043,689.485948
1303.061301,10881.027347,-2220.617826,2528.115143
1303.061630,12287.418637,-2812.782580,2604.724693
1303.061959,11695.253884,-4441.235652,3983.696590
1303.062288,9474.636058,-7846.182985,3064.381992
1303.062617,7698.141797,-8734.430116,1378.971896
1303.062946,5699.585753,-9400.615463,536.266849
1303.063275,5181.441594,-10436.903782,229.828649
1303.063605,5329.482782,-10955.047942,995.924147
1303.063934,4737.318029,-10140.821405,612.876398
1303.064263,4737.318029,-7179.997637,-229.828649
1303.064592,4441.235652,-6365.771101,-689.485948
1303.064921,4737.318029,-4515.256246,0.000000
1303.065250,5477.523971,-4589.276840,-459.657299
1303.065579,6291.750507,-3849.070898,459.657299
1303.065909,8364.327145,-3034.844362,1072.533697
1303.066238,10214.842000,-4071.132681,1991.848295
1303.066567,11177.109724,-4145.153275,3217.601092
1303.066896,10807.006753,-6069.688724,3370.820191
1303.067225,9770.718434,-7179.997637,3140.991542
1303.067554,7476.080014,-7920.203579,2145.067394
1303.067883,5403.503377,-10214.842000,919.314598
1303.068213,3775.050304,-10436.903782,-306.438199
1303.068542,3034.844362,-10807.006753,-459.657299
1303.068871,3182.885551,-10955.047942,0.000000
1303.069200,3627.009116,-9326.594869,76.609550
1303.069529,4219.173869,-6957.935855,229.828649
1303.069858,5107.421000,-4589.276840,-459.657299
1303.070187,6735.874072,-2812.782580,-306.438199
1303.070517,7846.182985,-1776.494261,536.266849
1303.070846,9696.697840,-2146.597232,1225.752797
1303.071175,11547.212695,-2738.761985,2757.943793
1303.071504,11917.315666,-3849.070898,2374.896044
1303.071833,10510.924376,-6069.688724,3600.648841
1303.072162,8956.491898,-7179.997637,2451.505594
1303.072491,7846.182985,-8586.388927,1455.581446
1303.072821,6883.915261,-8956.491898,1149.143247
1303.073150,6143.709319,-9474.636058,459.657299
1303.073479,5403.503377,-9770.718434,536.266849
1303.073808,5181.441594,-8142.265362,689.485948
1303.074137,4737.318029,-7402.059420,0.000000
1303.074466,4589.276840,-6883.915261,0.000000
1303.074795,4663.297435,-5181.441594,-306.438199
1303.075125,5255.462188,-4737.318029,-383.047749
1303.075454,6513.812290,-3478.967927,76.609550
1303.075783,8290.306550,-3552.988522,1378.971896
1303.076112,10658.965565,-3997.112087,2221.676944
1303.076441,10658.965565,-4663.297435,3064.381992
1303.076770,10066.800811,-6661.853478,2987.772442
1303.077099,9252.574275,-7624.121203,2298.286494
1303.077429,7328.038826,-9252.574275,1685.410096
1303.077758,5773.606348,-10362.883188,383.047749
1303.078087,4145.153275,-10881.027347,76.609550
1303.078416,3330.926739,-10881.027347,383.047749
1303.078745,4145.153275,-9474.636058,76.609550
1303.079074,4441.235652,-7846.182985,153.219100
1303.079403,4959.379811,-5477.523971,0.000000
1303.079733,5477.523971,-3997.112087,-919.314598
1303.080062,5847.626942,-3627.009116,-383.047749
1303.080391,7254.018232,-2738.761985,0.000000
1303.080720,9030.512492,-2812.782580,919.314598
1303.081049,10584.944971,-3256.906145,2145.067394
1303.081378,11251.130318,-5551.544565,3140.991542
1303.081707,10214.842000,-7031.956449,3140.991542
1303.082036,9400.615463,-7550.100608,3064.381992
1303.082365,7920.203579,-8142.265362,1915.238745
1303.082694,6809.894666,-8068.244768,1149.143247
1303.083024,5773.606348,-9030.512492,689.485948
1303.083353,4737.318029,-9252.574275,229.828649
1303.083682,4367.215058,-8142.265362,306.438199
1303.084011,4071.132681,-7105.977043,0.000000
1303.084340,4219.173869,-5329.482782,-536.266849
1303.084669,4737.318029,-4515.256246,-766.095498
1303.084998,6143.709319,-4515.256246,0.000000
1303.085327,8068.244768,-3849.070898,1072.533697
1303.085656,9252.574275,-3478.967927,1762.019645
1303.085986,10732.986159,-3330.926739,1991.848295
1303.086315,10732.986159,-5255.462188,2911.162892
1303.086644,9696.697840,-7031.956449,2911.162892
1303.086973,9104.533087,-8364.327145,2451.505594
1303.087302,7179.997637,-8882.471304,1991.848295
1303.087631,6069.688724,-9474.636058,842.705048
1303.087960,4959.379811,-10362.883188,612.876398
1303.088289,4737.318029,-9918.759623,1302.362347
1303.088618,4737.318029,-8438.347739,383.047749
1303.088948,4589.276840,-7031.956449,0.000000
1303.089277,4515.256246,-5699.585753,0.000000
1303.089606,4737.318029,-5477.523971,-229.828649
1303.089935,6291.750507,-4589.276840,0.000000
1303.090264,6809.894666,-3849.070898,383.047749
1303.090593,8216.285956,-4441.235652,1072.533697
1303.090922,9696.697840,-4515.256246,2068.457845
1303.091251,10288.862594,-6069.688724,2987.772442
1303.091580,10066.800811,-7105.977043,3217.601092
1303.091910,9030.512492,-7476.080014,2681.334243
1303.092239,7698.141797,-8734.430116,2068.457845
1303.092568,6365.771101,-8808.450710,919.314598
1303.092897,6069.688724,-8734.430116,919.314598
1303.093226,5181.441594,-8216.285956,612.876398
1303.093555,4737.318029,-7476.080014,0.000000
1303.093884,4589.276840,-5921.647536,0.000000
1303.094213,5181.441594,-4441.235652,-536.266849
1303.094542,5255.462188,-4737.318029,-612.876398
1303.094872,5921.647536,-4145.153275,306.438199
1303.095201,7402.059420,-4515.256246,229.828649
1303.095530,8808.450710,-4293.194464,1685.410096
1303.095859,10658.965565,-4663.297435,2757.943793
1303.096188,11621.233289,-6069.688724,3907.087040
1303.096517,10807.006753,-7105.977043,3753.867940
1303.096846,8660.409521,-8068.244768,2604.724693
1303.097175,6513.812290,-8660.409521,1608.800546
1303.097504,5255.462188,-8512.368333,0.000000
1303.097834,3552.988522,-10362.883188,0.000000
1303.098163,3182.885551,-9548.656652,0.000000
1303.098492,3034.844362,-8956.491898,-76.609550
1303.098821,3849.070898,-6513.812290,-612.876398
1303.099150,4663.297435,-4885.359217,-383.047749
1303.099479,5773.606348,-4663.297435,-229.828649
1303.099808,7328.038826,-3997.112087,0.000000
1303.100137,8290.306550,-3849.070898,842.705048
1303.100466,9770.718434,-3701.029710,1685.410096
1303.100796,10881.027347,-4515.256246,2374.896044
1303.101125,10658.965565,-5551.544565,3064.381992
1303.101454,10288.862594,-7254.018232,2604.724693
1303.101783,8586.388927,-8216.285956,2374.896044
1303.102112,7402.059420,-7772.162391,1838.629195
1303.102441,6513.812290,-8438.347739,919.314598
1303.102770,5329.482782,-8734.430116,995.924147
1303.103099,4589.276840,-7994.224174,383.047749
1303.103428,4293.194464,-7920.203579,-919.314598
1303.103757,3256.906145,-5699.585753,-842.705048
1303.104087,4219.173869,-5847.626942,-612.876398
1303.104416,6069.688724,-5107.421000,229.828649
1303.104745,7550.100608,-4367.215058,383.047749
1303.105074,8734.430116,-4293.194464,1149.143247
1303.105403,10362.883188,-3849.070898,2145.067394
1303.105732,11473.192101,-4293.194464,2604.724693
1303.106061,10807.006753,-5625.565159,3064.381992
1303.106390,8882.471304,-7031.956449,3524.039291
1303.106719,7179.997637,-8734.430116,1991.848295
1303.107049,5329.482782,-9696.697840,689.485948
1303.107378,4441.235652,-10066.800811,229.828649
1303.107707,3997.112087,-10066.800811,0.000000
1303.108036,4219.173869,-8586.388927,459.657299
1303.108365,4367.215058,-7550.100608,383.047749
1303.108694,4737.318029,-5699.585753,-612.876398
1303.109023,5033.400406,-4885.359217,-689.485948
1303.109352,5995.668130,-4293.194464,0.000000
1303.109681,7550.100608,-3478.967927,0.000000
1303.110011,9548.656652,-3330.926739,1762.019645
1303.110340,11473.192101,-3552.988522,2911.162892
1303.110669,11843.295072,-5033.400406,2987.772442
1303.110998,11103.089130,-5921.647536,4213.525239
1303.111327,9252.574275,-6809.894666,3217.601092
1303.111656,6587.832884,-7846.182985,1455.581446
1303.111985,5403.503377,-8290.306550,766.095498
1303.112314,4293.194464,-9622.677246,0.000000
1303.112643,4293.194464,-9844.739029,229.828649
1303.112973,4293.194464,-8586.388927,153.219100
1303.113302,4293.194464,-7846.182985,0.000000
1303.113631,4663.297435,-6365.771101,-612.876398
1303.113960,4737.318029,-4885.359217,-689.485948
1303.114289,5921.647536,-4811.338623,-306.438199
1303.114618,7624.121203,-3701.029710,229.828649
1303.114947,9400.615463,-3923.091493,1455.581446
1303.115276,10807.006753,-4219.173869,2145.067394
1303.115605,11103.089130,-5255.462188,3907.087040
1303.115935,10510.924376,-6809.894666,2911.162892
1303.116264,8438.347739,-7772.162391,2451.505594
1303.116593,6439.791695,-8808.450710,1685.410096
1303.116922,5551.544565,-9548.656652,459.657299
1303.117251,4219.173869,-10658.965565,689.485948
1303.117580,3478.967927,-10955.047942,229.828649
1303.117909,3256.906145,-9400.615463,76.609550
1303.118238,2960.823768,-7179.997637,-842.705048
1303.118567,3627.009116,-5477.523971,-306.438199
1303.118897,5625.565159,-4589.276840,-153.219100
1303.119226,7328.038826,-3182.885551,306.438199
1303.119555,9104.533087,-2368.659014,153.219100
1303.119884,10584.944971,-2812.782580,2221.676944
1303.120213,12065.356855,-3404.947333,2757.943793
1303.120542,11325.150913,-5107.421000,2987.772442
1303.120871,9918.759623,-6661.853478,3294.210641
1303.121200,8290.306550,-8290.306550,2068.457845
1303.121529,6587.832884,-8438.347739,1378.971896
1303.121859,5625.565159,-9474.636058,1072.533697
1303.122188,4737.318029,-10140.821405,612.876398
1303.122517,3997.112087,-9326.594869,0.000000
1303.122846,3849.070898,-8290.306550,-229.828649
1303.123175,3775.050304,-6069.688724,-766.095498
1303.123504,4219.173869,-5033.400406,-1072.533697
1303.123833,5255.462188,-4737.318029,-919.314598
1303.124162,6809.894666,-4145.153275,76.609550
1303.124491,9104.533087,-3034.844362,1455.581446
1303.124820,11251.130318,-2738.761985,2451.505594
1303.125150,12139.377449,-3478.967927,3140.991542
1303.125479,11917.315666,-4885.359217,3600.648841
1303.125808,10140.821405,-7031.956449,3217.601092
1303.126137,8142.265362,-8216.285956,2834.553343
1303.126466,5921.647536,-9474.636058,995.924147
1303.126795,4219.173869,-10066.800811,0.000000
1303.127124,2812.782580,-11695.253884,-383.047749
1303.127453,2294.638420,-11103.089130,0.000000
1303.127782,2886.803174,-9548.656652,-306.438199
1303.128112,3701.029710,-6587.832884,-383.047749
1303.128441,5107.421000,-4515.256246,-306.438199
1303.128770,6513.812290,-3701.029710,-306.438199
1303.129099,7772.162391,-2664.741391,919.314598
1303.129428,9474.636058,-1924.535449,842.705048
1303.129757,11251.130318,-2886.803174,1762.019645
1303.130086,12139.377449,-3404.947333,2681.334243
1303.130415,11251.130318,-5625.565159,3064.381992
1303.130744,10140.821405,-7698.141797,3064.381992
1303.131074,8216.285956,-8734.430116,2374.896044
1303.131403,6809.894666,-8808.450710,995.924147
1303.131732,5403.503377,-9844.739029,1072.533697
1303.132061,4441.235652,-9918.759623,842.705048
1303.132390,3478.967927,-9104.533087,-153.219100
1303.132719,2146.597232,-8734.430116,-612.876398
1303.133048,2442.679609,-7031.956449,-995.924147
1303.133377,4071.132681,-5403.503377,-995.924147
1303.133706,5921.647536,-4145.153275,306.438199
1303.134036,8364.327145,-2516.700203,766.095498
1303.134365,10288.862594,-2146.597232,1455.581446
1303.134694,12213.398043,-2516.700203,2987.772442
1303.135023,11991.336260,-4737.318029,4060.306139
1303.135352,11103.089130,-5033.400406,3217.601092
1303.135681,8734.430116,-7550.100608,2451.505594
1303.136010,6291.750507,-9622.677246,1149.143247
1303.136339,4737.318029,-9918.759623,842.705048
1303.136668,4811.338623,-11399.171507,842.705048
1303.136998,4071.132681,-10066.800811,306.438199
1303.137327,3997.112087,-9548.656652,459.657299
1303.137656,3478.967927,-7550.100608,0.000000
1303.137985,3997.112087,-5551.544565,-1072.533697
1303.138314,4663.297435,-4515.256246,-919.314598
1303.138643,5921.647536,-3256.906145,-689.485948
1303.138972,8068.244768,-3330.926739,229.828649
1303.139301,10362.883188,-2664.741391,1991.848295
1303.139630,11547.212695,-3108.864956,3370.820191
1303.139960,12139.377449,-4663.297435,4213.525239
1303.140289,10955.047942,-6439.791695,3907.087040
1303.140618,8734.430116,-8660.409521,2834.553343
1303.140947,6809.894666,-8142.265362,1149.143247
1303.141276,5107.421000,-8734.430116,919.314598
1303.141605,3701.029710,-10436.903782,-229.828649
1303.141934,3775.050304,-10436.903782,153.219100
1303.142263,3701.029710,-10066.800811,383.047749
1303.142592,4515.256246,-7624.121203,0.000000
1303.142922,4441.235652,-5625.565159,-612.876398
1303.143251,4737.318029,-4367.215058,-1149.143247
1303.143580,6365.771101,-4737.318029,76.609550
1303.143909,7698.141797,-3256.906145,459.657299
1303.144238,9770.718434,-3256.906145,1532.190996
1303.144567,10510.924376,-3997.112087,2681.334243
1303.144896,10214.842000,-5403.503377,2757.943793
1303.145225,9326.594869,-7402.059420,2604.724693
1303.145554,8364.327145,-8808.450710,2145.067394
1303.145883,7624.121203,-9104.533087,1838.629195
1303.146213,6143.709319,-9474.636058,995.924147
1303.146542,4885.359217,-9474.636058,919.314598
1303.146871,4663.297435,-9178.553681,306.438199
1303.147200,4145.153275,-8512.368333,995.924147
1303.147529,3330.926739,-6513.812290,0.000000
1303.147858,3108.864956,-5181.441594,-842.705048
1303.148187,4737.318029,-3330.926739,-919.314598
1303.148516,7105.977043,-2516.700203,306.438199
1303.148845,9474.636058,-2664.741391,2221.676944
1303.149175,11695.253884,-2220.617826,3064.381992
1303.149504,12065.356855,-2960.823768,2987.772442
1303.149833,11251.130318,-4293.194464,2681.334243
1303.150162,9696.697840,-7105.977043,2834.553343
1303.150491,8216.285956,-8808.450710,2298.286494
1303.150820,6809.894666,-10288.862594,1225.752797
1303.151149,5181.441594,-10881.027347,842.705048
1303.151478,3701.029710,-10732.986159,0.000000
1303.151807,3256.906145,-10140.821405,-536.266849
1303.152137,3256.906145,-9474.636058,0.000000
1303.152466,3478.967927,-6883.915261,-1225.752797
1303.152795,3849.070898,-5181.441594,-1149.143247
1303.153124,5625.565159,-3997.112087,-689.485948
1303.153453,7772.162391,-3627.009116,0.000000
1303.153782,8882.471304,-3108.864956,1455.581446
1303.154111,11103.089130,-2664.741391,2068.457845
1303.154440,11843.295072,-3775.050304,2834.553343
1303.154769,11473.192101,-5403.503377,3217.601092
1303.155099,9474.636058,-7772.162391,2987.772442
1303.155428,7920.203579,-9178.553681,2068.457845
1303.155757,5921.647536,-9474.636058,383.047749
1303.156086,3701.029710,-10807.006753,0.000000
1303.156415,2960.823768,-10658.965565,-229.828649
1303.156744,2886.803174,-10658.965565,-306.438199
1303.157073,3849.070898,-8512.368333,0.000000
1303.157402,4219.173869,-5699.585753,-383.047749
1303.157731,5329.482782,-3775.050304,-1149.143247
1303.158061,7031.956449,-2812.782580,-383.047749
1303.158390,8956.491898,-1628.453072,919.314598
1303.158719,10955.047942,-1184.329507,1378.971896
1303.159048,12287.418637,-2146.597232,2757.943793
1303.159377,12583.501014,-3478.967927,3677.258390
1303.159706,11251.130318,-5921.647536,2911.162892
1303.160035,9400.615463,-8068.244768,2911.162892
1303.160364,7328.038826,-8882.471304,1838.629195
1303.160693,5625.565159,-9400.615463,153.219100
1303.161023,3701.029710,-10288.862594,-306.438199
1303.161352,2738.761985,-10807.006753,-306.438199
1303.161681,2960.823768,-10140.821405,-306.438199
1303.162010,2368.659014,-8586.388927,-766.095498
1303.162339,2960.823768,-7031.956449,0.000000
1303.162668,5181.441594,-5033.400406,-229.828649
1303.162997,6809.894666,-4145.153275,229.828649
1303.163326,8586.388927,-2590.720797,919.314598
1303.163655,10955.047942,-1776.494261,2221.676944
1303.163985,12879.583391,-2516.700203,2987.772442
1303.164314,11843.295072,-3923.091493,3294.210641
1303.164643,10140.821405,-6439.791695,3524.039291
1303.164972,7920.203579,-8142.265362,1838.629195
1303.165301,5847.626942,-10066.800811,766.095498
1303.165630,4219.173869,-10732.986159,536.266849
1303.165959,3330.926739,-11029.068536,-459.657299
1303.166288,2812.782580,-11103.089130,383.047749
1303.166617,2960.823768,-9474.636058,153.219100
1303.166946,3256.906145,-7254.018232,-383.047749
1303.167276,4293.194464,-5847.626942,-383.047749
1303.167605,5847.626942,-3923.091493,0.000000
1303.167934,7920.203579,-3478.967927,919.314598
1303.168263,10066.800811,-1702.473667,1838.629195
1303.168592,11843.295072,-1480.411884,2681.334243
1303.168921,12805.562797,-2146.597232,3524.039291
1303.169250,12213.398043,-4071.132681,3677.258390
1303.169579,9696.697840,-5699.585753,2681.334243
1303.169908,7179.997637,-7698.141797,1532.190996
1303.170238,5403.503377,-9696.697840,689.485948
1303.170567,4589.276840,-10510.924376,0.000000
1303.170896,2886.803174,-11473.192101,229.828649
1303.171225,2442.679609,-10955.047942,0.000000
1303.171554,3404.947333,-10066.800811,-306.438199
1303.171883,3256.906145,-7846.182985,0.000000
1303.172212,4589.276840,-5921.647536,-383.047749
1303.172541,6217.729913,-4515.256246,0.000000
1303.172870,8216.285956,-2886.803174,919.314598
1303.173200,10140.821405,-2220.617826,766.095498
1303.173529,12213.398043,-1998.556043,2604.724693
1303.173858,12879.583391,-2516.700203,3447.429741
1303.174187,11843.295072,-5255.462188,3524.039291
1303.174516,9326.594869,-6365.771101,2681.334243
1303.174845,7328.038826,-8290.306550,1685.410096
1303.175174,5995.668130,-10140.821405,919.314598
1303.175503,4441.235652,-10436.903782,689.485948
1303.175832,3182.885551,-11473.192101,459.657299
1303.176162,2886.803174,-10658.965565,-306.438199
1303.176491,2516.700203,-9030.512492,0.000000
1303.176820,3182.885551,-7624.121203,-383.047749
1303.177149,4589.276840,-5107.421000,-689.485948
1303.177478,6365.771101,-3478.967927,306.438199
1303.177807,8734.430116,-2886.803174,919.314598
1303.178136,10881.027347,-1480.411884,2068.457845
1303.178465,12657.521608,-1628.453072,2834.553343
1303.178794,12583.501014,-2960.823768,2834.553343
1303.179124,10807.006753,-4959.379811,2987.772442
1303.179453,8882.471304,-6957.935855,2374.896044
1303.179782,7179.997637,-8734.430116,1608.800546
1303.180111,6217.729913,-9252.574275,689.485948
1303.180440,4441.235652,-10658.965565,306.438199
1303.180769,3627.009116,-11029.068536,-459.657299
1303.181098,3034.844362,-10362.883188,383.047749
1303.181431,3034.844362,-8142.265362,-612.876398
1303.181760,3552.988522,-6291.750507,-612.876398
1303.182090,5403.503377,-4737.318029,-153.219100
1303.182419,6809.894666,-4441.235652,0.000000
1303.182748,8512.368333,-2960.823768,766.095498
1303.183077,10658.965565,-2220.617826,1991.848295
1303.183406,12065.356855,-2442.679609,2681.334243
1303.183735,12287.418637,-3627.009116,3370.820191
1303.184064,10658.965565,-5773.606348,3140.991542
1303.184393,8142.265362,-7624.121203,2145.067394
1303.184722,5995.668130,-9104.533087,919.314598
1303.185051,4293.194464,-10807.006753,76.609550
1303.185380,2812.782580,-11843.295072,306.438199
1303.185709,2590.720797,-11769.274478,0.000000
1303.186038,3478.967927,-11547.212695,306.438199
1303.186367,3552.988522,-7402.059420,-459.657299
1303.186697,4441.235652,-5181.441594,-919.314598
1303.187026,5625.565159,-4293.194464,-459.657299
1303.187355,7476.080014,-2738.761985,-383.047749
1303.187684,9918.759623,-1480.411884,459.657299
1303.188013,11769.274478,-1554.432478,1838.629195
1303.188342,13101.645173,-2294.638420,3370.820191
1303.188671,12509.480420,-4219.173869,3370.820191
1303.189000,10362.883188,-5625.565159,3217.601092
1303.189329,8512.368333,-7105.977043,2374.896044
1303.189658,6883.915261,-8068.244768,1455.581446
1303.189987,5107.421000,-9696.697840,995.924147
1303.190316,3627.009116,-10658.965565,0.000000
1303.190645,3108.864956,-11103.089130,76.609550
1303.190974,2812.782580,-10066.800811,229.828649
1303.191303,3034.844362,-7698.141797,0.000000
1303.191633,3997.112087,-6439.791695,-306.438199
1303.191962,5847.626942,-4737.318029,0.000000
1303.192291,7031.956449,-3923.091493,306.438199
1303.192620,8808.450710,-2516.700203,459.657299
1303.192949,10362.883188,-2368.659014,1991.848295
1303.193278,11177.109724,-2960.823768,2451.505594
1303.193607,10584.944971,-5551.544565,3447.429741
1303.193936,8808.450710,-7550.100608,2528.115143
1303.194265,7402.059420,-9326.594869,1915.238745
1303.194594,5847.626942,-10140.821405,842.705048
1303.194923,4811.338623,-10732.986159,536.266849
1303.195252,3997.112087,-11325.150913,459.657299
1303.195581,4219.173869,-10436.903782,995.924147
1303.195910,4663.297435,-9400.615463,76.609550
1303.196240,3997.112087,-6809.894666,-689.485948
1303.196569,4737.318029,-4885.359217,-459.657299
1303.196898,5699.585753,-3330.926739,-995.924147
1303.197227,7105.977043,-2368.659014,229.828649
1303.197556,9474.636058,-2146.597232,2068.457845
1303.197885,11917.315666,-2294.638420,2757.943793
1303.198214,12287.418637,-2738.761985,3753.867940
1303.198543,11103.089130,-4441.235652,3447.429741
1303.198872,9104.533087,-6291.750507,2451.505594
1303.199201,7105.977043,-7476.080014,1608.800546
1303.199530,5995.668130,-9474.636058,689.485948
1303.199859,5625.565159,-10362.883188,1072.533697
1303.200188,5181.441594,-10362.883188,383.047749
1303.200517,4737.318029,-9992.780217,689.485948
1303.200847,4515.256246,-8438.347739,612.876398
1303.201176,4219.173869,-6217.729913,-383.047749
1303.201505,4515.256246,-4737.318029,-919.314598
1303.201834,5033.400406,-3775.050304,-306.438199
1303.202163,6735.874072,-3330.926739,-229.828649
1303.202492,8956.491898,-3256.906145,842.705048
1303.202821,10510.924376,-3404.947333,2451.505594
1303.203150,11399.171507,-4737.318029,2145.067394
1303.203479,10436.903782,-6439.791695,2528.115143
1303.203808,8956.491898,-7624.121203,2451.505594
1303.204137,7698.141797,-8882.471304,1685.410096
1303.204466,6143.709319,-10288.862594,919.314598
1303.204795,4515.256246,-10214.842000,1225.752797
1303.205124,3552.988522,-11177.109724,383.047749
1303.205453,3627.009116,-10436.903782,153.219100
1303.205783,3627.009116,-8290.306550,0.000000
1303.206112,3923.091493,-6587.832884,0.000000
1303.206441,5107.421000,-4367.215058,-229.828649
1303.206770,6143.709319,-3182.885551,-153.219100
1303.207099,7328.038826,-2368.659014,76.609550
1303.207428,9400.615463,-1110.308913,1225.752797
1303.207757,11177.109724,-2738.761985,2451.505594
1303.208086,11917.315666,-4071.132681,2834.553343
1303.208415,10807.006753,-6217.729913,2987.772442
1303.208744,9622.677246,-7476.080014,2374.896044
1303.209073,7920.203579,-8882.471304,1532.190996
1303.209402,6661.853478,-9696.697840,459.657299
1303.209731,4737.318029,-9770.718434,0.000000
1303.210060,4441.235652,-10362.883188,383.047749
1303.210390,4145.153275,-9622.677246,229.828649
1303.210719,4071.132681,-7179.997637,0.000000
1303.211048,3997.112087,-6069.688724,-229.828649
1303.211377,4737.318029,-4515.256246,-612.876398
1303.211706,5921.647536,-4441.235652,0.000000
1303.212035,7402.059420,-3552.988522,612.876398
1303.212364,9770.718434,-2812.782580,1149.143247
1303.212693,11473.192101,-3330.926739,2451.505594
1303.213022,11769.274478,-4515.256246,3907.087040
1303.213351,10066.800811,-7031.956449,2987.772442
1303.213680,8364.327145,-8142.265362,2298.286494
1303.214009,6143.709319,-9474.636058,1762.019645
1303.214338,4589.276840,-10658.965565,153.219100
1303.214667,3256.906145,-10658.965565,0.000000
1303.214997,2812.782580,-11769.274478,0.000000
1303.215326,3034.844362,-10362.883188,-153.219100
1303.215655,3552.988522,-7105.977043,0.000000
1303.215984,4589.276840,-5403.503377,-153.219100
1303.216313,5847.626942,-3775.050304,-459.657299
1303.216642,7105.977043,-2886.803174,-306.438199
1303.216971,9252.574275,-2368.659014,306.438199
1303.217300,11399.171507,-1776.494261,2298.286494
1303.217629,12657.521608,-2368.659014,2757.943793
1303.217958,12213.398043,-4737.318029,3064.381992
1303.218287,10510.924376,-6439.791695,3294.210641
1303.218616,8956.491898,-7328.038826,2528.115143
1303.218945,6809.894666,-8882.471304,1302.362347
