#time,accel_x,accel_y,accel_z
1130.449133,6661.853478,-6809.894666,1302.362347
1130.449464,7105.977043,-6661.853478,766.095498
1130.449794,6809.894666,-7105.977043,842.705048
1130.450125,7402.059420,-6587.832884,1455.581446
1130.450455,7105.977043,-6661.853478,1149.143247
1130.450786,7254.018232,-6069.688724,995.924147
1130.451116,7031.956449,-6587.832884,995.924147
1130.451446,6883.915261,-6439.791695,842.705048
1130.451777,6809.894666,-6513.812290,1225.752797
1130.452107,6809.894666,-6587.832884,1149.143247
1130.452438,6661.853478,-6439.791695,1225.752797
1130.452768,6883.915261,-6587.832884,995.924147
1130.453099,6735.874072,-6809.894666,1302.362347
1130.453429,6957.935855,-6809.894666,842.705048
1130.453760,6957.935855,-6883.915261,842.705048
1130.454090,7031.956449,-6957.935855,1225.752797
1130.454421,7031.956449,-6587.832884,1072.533697
1130.454751,6809.894666,-6439.791695,1149.143247
1130.455081,6735.874072,-6439.791695,1225.752797
1130.455412,7105.977043,-6587.832884,919.314598
1130.455742,7031.956449,-6439.791695,995.924147
1130.456073,6513.812290,-6069.688724,1072.533697
1130.456403,6661.853478,-6217.729913,1225.752797
1130.456734,6957.935855,-6513.812290,919.314598
1130.457064,6809.894666,-6661.853478,919.314598
1130.457395,6883.915261,-6365.771101,842.705048
1130.457725,7105.977043,-6661.853478,1302.362347
1130.458056,6883.915261,-6513.812290,612.876398
1130.458386,6957.935855,-6735.874072,995.924147
1130.458716,7031.956449,-6661.853478,1072.533697
1130.459047,7105.977043,-6661.853478,842.705048
1130.459377,7031.956449,-6439.791695,919.314598
1130.459708,7105.977043,-6513.812290,919.314598
1130.460038,6957.935855,-6513.812290,1072.533697
1130.460369,7031.956449,-6143.709319,1072.533697
1130.460699,7402.059420,-6809.894666,995.924147
1130.461030,7105.977043,-6439.791695,1072.533697
1130.461360,7105.977043,-6587.832884,689.485948
1130.461691,7105.977043,-6735.874072,766.095498
1130.462021,7105.977043,-6809.894666,919.314598
1130.462351,7105.977043,-6291.750507,1455.581446
1130.462682,6809.894666,-6513.812290,919.314598
1130.463012,7105.977043,-6439.791695,1072.533697
1130.463343,6957.935855,-6661.853478,1149.143247
1130.463673,7476.080014,-6513.812290,1149.143247
1130.464004,7105.977043,-6661.853478,1149.143247
1130.464334,7179.997637,-6365.771101,919.314598
1130.464665,7105.977043,-6439.791695,1149.143247
1130.464995,6809.894666,-6513.812290,1149.143247
1130.465326,7031.956449,-6661.853478,1378.971896
1130.465656,6957.935855,-6809.894666,1225.752797
1130.465986,7031.956449,-6513.812290,995.924147
1130.466317,6883.915261,-6883.915261,995.924147
1130.466647,6365.771101,-6513.812290,1532.190996
1130.466978,6809.894666,-7105.977043,1225.752797
1130.467308,6883.915261,-6439.791695,1072.533697
1130.467639,6957.935855,-6883.915261,1225.752797
1130.467969,6883.915261,-6365.771101,1072.533697
1130.468300,7105.977043,-6365.771101,1378.971896
1130.468630,7031.956449,-6587.832884,919.314598
1130.468961,6883.915261,-6587.832884,842.705048
1130.469291,6587.832884,-6439.791695,842.705048
1130.469621,6957.935855,-6439.791695,995.924147
1130.469952,7031.956449,-6365.771101,1302.362347
1130.470282,6809.894666,-6513.812290,919.314598
1130.470613,6883.915261,-6809.894666,919.314598
1130.470943,6291.750507,-6439.791695,689.485948
1130.471274,7105.977043,-6735.874072,1149.143247
1130.471604,6957.935855,-7105.977043,1225.752797
1130.471935,7105.977043,-6661.853478,1302.362347
1130.472265,7105.977043,-6513.812290,1149.143247
1130.472596,7105.977043,-6291.750507,995.924147
1130.472926,7031.956449,-5921.647536,919.314598
1130.473256,6957.935855,-6587.832884,995.924147
1130.473587,6883.915261,-6439.791695,842.705048
1130.473917,6957.935855,-6365.771101,1072.533697
1130.474248,6735.874072,-6217.729913,1302.362347
1130.474578,7105.977043,-6587.832884,459.657299
1130.474909,7105.977043,-6809.894666,842.705048
1130.475239,7105.977043,-6735.874072,842.705048
1130.475570,7031.956449,-6661.853478,1149.143247
1130.475900,7105.977043,-6217.729913,612.876398
1130.476231,7105.977043,-6661.853478,995.924147
1130.476561,7105.977043,-6513.812290,1072.533697
1130.476891,7105.977043,-6291.750507,995.924147
1130.477222,7105.977043,-6291.750507,919.314598
1130.477552,6809.894666,-6143.709319,1608.800546
1130.477883,6883.915261,-6291.750507,612.876398
1130.478213,6809.894666,-6291.750507,842.705048
1130.478544,7550.100608,-6439.791695,1225.752797
1130.478874,7105.977043,-6143.709319,919.314598
1130.479205,6957.935855,-6809.894666,766.095498
1130.479535,6809.894666,-6365.771101,995.924147
1130.479866,7105.977043,-6735.874072,842.705048
1130.480196,7105.977043,-6957.935855,919.314598
1130.480526,7179.997637,-6291.750507,1072.533697
1130.480857,7031.956449,-6513.812290,1072.533697
1130.481187,7105.977043,-6439.791695,919.314598
1130.481518,7031.956449,-6439.791695,995.924147
1130.481848,6957.935855,-6513.812290,1225.752797
1130.482179,6809.894666,-6291.750507,1072.533697
1130.482509,6735.874072,-6513.812290,842.705048
1130.482840,6439.791695,-6587.832884,842.705048
1130.483170,6957.935855,-6439.791695,1149.143247
1130.483501,7254.018232,-6957.935855,1149.143247
1130.483831,7031.956449,-6957.935855,1149.143247
1130.484161,6809.894666,-6883.915261,1072.533697
1130.484492,6883.915261,-6661.853478,842.705048
1130.484822,7105.977043,-6883.915261,1072.533697
1130.485153,7031.956449,-6957.935855,1685.410096
1130.485483,6957.935855,-6513.812290,1149.143247
1130.485814,6883.915261,-6513.812290,919.314598
1130.486144,6735.874072,-6661.853478,1149.143247
1130.486475,7105.977043,-6365.771101,2068.457845
1130.486805,6735.874072,-6439.791695,1225.752797
1130.487136,7031.956449,-6809.894666,1072.533697
1130.487466,7031.956449,-6735.874072,995.924147
1130.487796,6735.874072,-6587.832884,1149.143247
1130.488127,7105.977043,-6439.791695,1608.800546
1130.488457,7105.977043,-6661.853478,1072.533697
1130.488788,7031.956449,-6439.791695,919.314598
1130.489118,7105.977043,-6735.874072,919.314598
1130.489449,7031.956449,-6957.935855,842.705048
1130.489779,6957.935855,-6439.791695,1149.143247
1130.490110,7031.956449,-6291.750507,689.485948
1130.490440,7031.956449,-6365.771101,919.314598
1130.490771,7105.977043,-6513.812290,842.705048
1130.491101,7105.977043,-6365.771101,995.924147
1130.491431,7179.997637,-6587.832884,612.876398
1130.491762,7254.018232,-6587.832884,1072.533697
1130.492092,7179.997637,-6735.874072,1302.362347
1130.492423,7179.997637,-6513.812290,1225.752797
1130.492753,7698.141797,-6513.812290,1149.143247
1130.493084,7179.997637,-6513.812290,1225.752797
1130.493414,7031.956449,-6513.812290,1072.533697
1130.493745,6957.935855,-6365.771101,1225.752797
1130.494075,7105.977043,-5921.647536,229.828649
1130.494406,6957.935855,-6513.812290,919.314598
1130.494736,7328.038826,-6587.832884,1302.362347
1130.495066,6735.874072,-6883.915261,1149.143247
1130.495397,7105.977043,-6439.791695,1302.362347
1130.495727,6735.874072,-6809.894666,919.314598
1130.496058,6957.935855,-6439.791695,995.924147
1130.496388,7031.956449,-6957.935855,919.314598
1130.496719,7031.956449,-7031.956449,995.924147
1130.497049,7328.038826,-6513.812290,1455.581446
1130.497380,6957.935855,-6291.750507,536.266849
1130.497710,6883.915261,-6661.853478,1072.533697
1130.498041,7105.977043,-6217.729913,1378.971896
1130.498371,6883.915261,-6735.874072,1302.362347
1130.498701,7105.977043,-6587.832884,1302.362347
1130.499032,6735.874072,-6661.853478,919.314598
1130.499362,6661.853478,-6513.812290,1302.362347
1130.499693,6661.853478,-6587.832884,842.705048
1130.500023,6883.915261,-6587.832884,919.314598
1130.500354,6735.874072,-6735.874072,919.314598
1130.500684,6809.894666,-6809.894666,766.095498
1130.501015,6883.915261,-6661.853478,1149.143247
1130.501345,7031.956449,-7031.956449,919.314598
1130.501676,7031.956449,-6439.791695,1378.971896
1130.502006,6957.935855,-6661.853478,1149.143247
1130.502336,6809.894666,-6735.874072,1149.143247
1130.502667,6735.874072,-6735.874072,919.314598
1130.502997,6809.894666,-6661.853478,919.314598
1130.503328,6661.853478,-6365.771101,1225.752797
1130.503658,6809.894666,-6661.853478,1149.143247
1130.503989,6809.894666,-6365.771101,612.876398
1130.504319,6883.915261,-6735.874072,1072.533697
1130.504650,7179.997637,-6587.832884,1149.143247
1130.504980,7031.956449,-6587.832884,919.314598
1130.505311,7179.997637,-6513.812290,1149.143247
1130.505641,7031.956449,-6587.832884,689.485948
1130.505971,6883.915261,-6587.832884,1225.752797
1130.506302,7031.956449,-6513.812290,1302.362347
1130.506632,7105.977043,-6587.832884,1072.533697
1130.506963,7031.956449,-6513.812290,766.095498
1130.507293,7031.956449,-6587.832884,766.095498
1130.507624,7105.977043,-6291.750507,1072.533697
1130.507954,7031.956449,-6291.750507,1072.533697
1130.508285,7179.997637,-6735.874072,1072.533697
1130.508615,7254.018232,-6439.791695,995.924147
1130.508946,7105.977043,-6217.729913,1225.752797
1130.509276,7328.038826,-6365.771101,1302.362347
1130.509606,7254.018232,-6513.812290,919.314598
1130.509937,7328.038826,-6513.812290,1149.143247
1130.510267,7105.977043,-6587.832884,995.924147
1130.510598,7105.977043,-6513.812290,766.095498
1130.510928,7105.977043,-6587.832884,689.485948
1130.511259,6957.935855,-6735.874072,1225.752797
1130.511589,6809.894666,-6809.894666,1072.533697
1130.511920,6883.915261,-6365.771101,842.705048
1130.512250,7476.080014,-6217.729913,919.314598
1130.512581,6883.915261,-6661.853478,766.095498
1130.512911,7031.956449,-6661.853478,1225.752797
1130.513241,6883.915261,-6957.935855,1149.143247
1130.513572,7031.956449,-6587.832884,919.314598
1130.513902,6661.853478,-6661.853478,1455.581446
1130.514233,6883.915261,-6809.894666,1149.143247
1130.514563,6809.894666,-6883.915261,1225.752797
1130.514894,6809.894666,-6957.935855,612.876398
1130.515224,6809.894666,-6661.853478,919.314598
1130.515555,6957.935855,-6883.915261,919.314598
1130.515885,6735.874072,-6883.915261,1072.533697
1130.516216,6661.853478,-6661.853478,1072.533697
1130.516545,6661.853478,-6513.812290,919.314598
1130.516875,6587.832884,-6439.791695,1685.410096
1130.517205,6957.935855,-6661.853478,842.705048
1130.517535,6809.894666,-6661.853478,1225.752797
1130.517864,6957.935855,-6809.894666,1225.752797
1130.518194,6957.935855,-6661.853478,842.705048
1130.518524,6809.894666,-6513.812290,1149.143247
1130.518854,6661.853478,-6809.894666,1302.362347
1130.519183,7105.977043,-6439.791695,1149.143247
1130.519513,6957.935855,-6809.894666,995.924147
1130.519843,7105.977043,-6439.791695,766.095498
1130.520173,7031.956449,-7254.018232,1072.533697
1130.520502,7031.956449,-6217.729913,995.924147
1130.520832,6957.935855,-6513.812290,919.314598
1130.521162,7105.977043,-6365.771101,1302.362347
1130.521492,7402.059420,-6439.791695,842.705048
1130.521821,7179.997637,-6217.729913,1455.581446
1130.522151,7105.977043,-6439.791695,995.924147
1130.522481,7031.956449,-6513.812290,1072.533697
1130.522811,7179.997637,-6439.791695,919.314598
1130.523141,7031.956449,-6587.832884,1455.581446
1130.523470,7105.977043,-6439.791695,919.314598
1130.523800,7105.977043,-6735.874072,1149.143247
1130.524130,7254.018232,-6735.874072,1072.533697
1130.524460,7105.977043,-6587.832884,1302.362347
1130.524789,7105.977043,-6661.853478,1149.143247
1130.525119,7105.977043,-6291.750507,1225.752797
1130.525449,7031.956449,-6513.812290,1225.752797
1130.525779,7105.977043,-6587.832884,1149.143247
1130.526108,7328.038826,-6217.729913,1378.971896
1130.526438,7179.997637,-6439.791695,1149.143247
1130.526768,7031.956449,-6661.853478,842.705048
1130.527098,6661.853478,-6291.750507,995.924147
1130.527427,6735.874072,-6291.750507,919.314598
1130.527757,7105.977043,-6365.771101,536.266849
1130.528087,7031.956449,-6587.832884,842.705048
1130.528417,6809.894666,-6661.853478,919.314598
1130.528746,6883.915261,-6365.771101,919.314598
1130.529076,6661.853478,-6217.729913,1608.800546
1130.529406,6809.894666,-6587.832884,1149.143247
1130.529736,6957.935855,-6661.853478,995.924147
1130.530065,7031.956449,-6513.812290,1072.533697
1130.530395,7105.977043,-6809.894666,1302.362347
1130.530725,6809.894666,-6587.832884,1225.752797
1130.531055,6735.874072,-6809.894666,919.314598
1130.531385,6735.874072,-6883.915261,1149.143247
1130.531714,6883.915261,-6735.874072,1072.533697
1130.532044,6809.894666,-6143.709319,995.924147
1130.532374,6735.874072,-6661.853478,1149.143247
1130.532704,6883.915261,-6587.832884,919.314598
1130.533033,7031.956449,-6587.832884,1225.752797
1130.533363,6809.894666,-6809.894666,1149.143247
1130.533693,7105.977043,-6809.894666,1302.362347
1130.534023,6735.874072,-6587.832884,1149.143247
1130.534352,6883.915261,-6809.894666,1225.752797
1130.534682,6735.874072,-6809.894666,919.314598
1130.535012,7105.977043,-6291.750507,459.657299
1130.535342,7031.956449,-6661.853478,766.095498
1130.535671,7031.956449,-6513.812290,1225.752797
1130.536001,6883.915261,-6439.791695,1072.533697
1130.536331,7179.997637,-6587.832884,995.924147
1130.536661,6809.894666,-5625.565159,1072.533697
1130.536990,6957.935855,-6439.791695,1149.143247
1130.537320,7105.977043,-6291.750507,919.314598
1130.537650,7105.977043,-6513.812290,995.924147
1130.537980,7105.977043,-6661.853478,1072.533697
1130.538309,6883.915261,-6439.791695,1225.752797
1130.538639,7105.977043,-6587.832884,842.705048
1130.538969,7105.977043,-6883.915261,842.705048
1130.539299,6809.894666,-6439.791695,1225.752797
1130.539629,7698.141797,-6217.729913,1378.971896
1130.539958,7105.977043,-6365.771101,766.095498
1130.540288,7031.956449,-6217.729913,1072.533697
1130.540618,7105.977043,-6513.812290,1072.533697
1130.540948,7105.977043,-6291.750507,689.485948
1130.541277,6957.935855,-6735.874072,306.438199
1130.541607,7105.977043,-6513.812290,689.485948
1130.541937,6809.894666,-6809.894666,1072.533697
1130.542267,7254.018232,-6587.832884,1225.752797
1130.542596,7179.997637,-5995.668130,1149.143247
1130.542926,7179.997637,-6587.832884,919.314598
1130.543256,6661.853478,-6809.894666,1225.752797
1130.543586,6957.935855,-6587.832884,1149.143247
1130.543915,6809.894666,-6587.832884,1149.143247
1130.544245,6809.894666,-6513.812290,1762.019645
1130.544575,7105.977043,-6661.853478,1225.752797
1130.544905,6587.832884,-6661.853478,995.924147
1130.545234,6735.874072,-6809.894666,689.485948
1130.545564,6883.915261,-7031.956449,1225.752797
1130.545894,6957.935855,-6735.874072,1149.143247
1130.546224,6809.894666,-6735.874072,766.095498
1130.546553,6883.915261,-6883.915261,995.924147
1130.546883,6809.894666,-6809.894666,1149.143247
1130.547213,7031.956449,-6439.791695,1072.533697
1130.547543,6957.935855,-6587.832884,995.924147
1130.547873,6809.894666,-6513.812290,1149.143247
1130.548202,6513.812290,-6217.729913,1149.143247
1130.548532,6661.853478,-6587.832884,995.924147
1130.548862,6661.853478,-6365.771101,842.705048
1130.549192,7105.977043,-6513.812290,1225.752797
1130.549521,7031.956449,-6883.915261,842.705048
1130.549851,7105.977043,-6735.874072,995.924147
1130.550181,7254.018232,-6661.853478,766.095498
1130.550511,6735.874072,-6439.791695,1149.143247
1130.550840,7031.956449,-6735.874072,995.924147
1130.551170,7179.997637,-6587.832884,1302.362347
1130.551500,6883.915261,-6439.791695,842.705048
1130.551830,7402.059420,-6735.874072,1072.533697
1130.552159,6957.935855,-6661.853478,919.314598
1130.552489,7105.977043,-6587.832884,1072.533697
1130.552819,7105.977043,-6439.791695,766.095498
1130.553149,6957.935855,-6143.709319,1762.019645
1130.553478,6957.935855,-6661.853478,1225.752797
1130.553808,7105.977043,-6661.853478,1149.143247
1130.554138,7105.977043,-6809.894666,1072.533697
1130.554468,7105.977043,-6661.853478,1225.752797
1130.554797,7328.038826,-5699.585753,1072.533697
1130.555127,6957.935855,-6439.791695,1072.533697
1130.555457,6883.915261,-6365.771101,842.705048
1130.555787,7105.977043,-6661.853478,919.314598
1130.556117,7031.956449,-6069.688724,919.314598
1130.556446,6957.935855,-6439.791695,1149.143247
1130.556776,6809.894666,-6365.771101,842.705048
1130.557106,7031.956449,-6513.812290,919.314598
1130.557436,6957.935855,-6587.832884,1149.143247
1130.557765,7105.977043,-6735.874072,1149.143247
1130.558095,6883.915261,-6291.750507,1149.143247
1130.558425,6957.935855,-6735.874072,919.314598
1130.558755,7105.977043,-6661.853478,842.705048
1130.559084,6883.915261,-6439.791695,1072.533697
1130.559414,6809.894666,-6661.853478,1302.362347
1130.559744,6587.832884,-6513.812290,919.314598
1130.560074,6661.853478,-6439.791695,1072.533697
1130.560403,6735.874072,-6513.812290,1072.533697
1130.560733,6513.812290,-6217.729913,1302.362347
1130.561063,7031.956449,-6661.853478,1225.752797
1130.561393,6735.874072,-6809.894666,1149.143247
1130.561722,6957.935855,-6217.729913,1149.143247
1130.562052,6957.935855,-6883.915261,689.485948
1130.562382,7031.956449,-6291.750507,1685.410096
1130.562712,7031.956449,-6661.853478,1149.143247
1130.563041,6957.935855,-6513.812290,995.924147
1130.563371,7105.977043,-6809.894666,1072.533697
1130.563701,7476.080014,-6883.915261,1302.362347
1130.564031,6587.832884,-6809.894666,1302.362347
1130.564361,6809.894666,-6809.894666,919.314598
1130.564690,6883.915261,-6587.832884,1072.533697
1130.565020,6883.915261,-6587.832884,612.876398
1130.565350,7105.977043,-6439.791695,1149.143247
1130.565680,7179.997637,-6735.874072,1149.143247
1130.566009,7105.977043,-6143.709319,1302.362347
1130.566339,7254.018232,-5403.503377,766.095498
1130.566669,7846.182985,-5403.503377,1302.362347
1130.566999,8290.306550,-5625.565159,1762.019645
1130.567328,8290.306550,-5921.647536,1455.581446
1130.567658,7772.162391,-6143.709319,842.705048
1130.567988,6513.812290,-6661.853478,383.047749
1130.568318,5773.606348,-7402.059420,306.438199
1130.568647,6291.750507,-6587.832884,612.876398
1130.568977,7179.997637,-7105.977043,842.705048
1130.569307,7698.141797,-6143.709319,1455.581446
1130.569637,7994.224174,-5773.606348,1532.190996
1130.569966,8734.430116,-4441.235652,1149.143247
1130.570296,8216.285956,-4367.215058,1072.533697
1130.570626,7920.203579,-4589.276840,1072.533697
1130.570956,8290.306550,-4071.132681,689.485948
1130.571285,8808.450710,-4737.318029,1608.800546
1130.571615,8808.450710,-4441.235652,1532.190996
1130.571945,7994.224174,-4737.318029,612.876398
1130.572275,7920.203579,-5107.421000,842.705048
1130.572605,8438.347739,-4737.318029,459.657299
1130.572934,8882.471304,-6217.729913,1149.143247
1130.573264,8512.368333,-5921.647536,842.705048
1130.573594,7772.162391,-6069.688724,612.876398
1130.573924,7402.059420,-6217.729913,459.657299
1130.574253,7328.038826,-5181.441594,689.485948
1130.574583,7179.997637,-5995.668130,76.609550
1130.574913,8216.285956,-5551.544565,1455.581446
1130.575243,8290.306550,-5699.585753,995.924147
1130.575572,8512.368333,-5033.400406,1685.410096
1130.575902,7920.203579,-3849.070898,2145.067394
1130.576232,8808.450710,-4219.173869,1532.190996
1130.576562,9104.533087,-3997.112087,1225.752797
1130.576891,9030.512492,-4441.235652,1455.581446
1130.577221,9178.553681,-4737.318029,1225.752797
1130.577551,8882.471304,-4293.194464,1762.019645
1130.577881,8660.409521,-5625.565159,1149.143247
1130.578210,8438.347739,-6291.750507,1072.533697
1130.578540,7994.224174,-6513.812290,1149.143247
1130.578870,8068.244768,-6291.750507,766.095498
1130.579200,7105.977043,-6069.688724,842.705048
1130.579529,7031.956449,-6957.935855,1072.533697
1130.579859,7105.977043,-6957.935855,1225.752797
1130.580189,7105.977043,-5699.585753,919.314598
1130.580519,7031.956449,-5625.565159,919.314598
1130.580849,7550.100608,-5477.523971,1302.362347
1130.581178,8290.306550,-4885.359217,1378.971896
1130.581508,9030.512492,-4441.235652,995.924147
1130.581838,9030.512492,-4293.194464,1608.800546
1130.582168,8808.450710,-5403.503377,995.924147
1130.582497,8068.244768,-5477.523971,919.314598
1130.582827,7624.121203,-5847.626942,766.095498
1130.583157,7772.162391,-5995.668130,689.485948
1130.583487,7624.121203,-6735.874072,919.314598
1130.583816,7179.997637,-7624.121203,1378.971896
1130.584146,6809.894666,-6735.874072,459.657299
1130.584476,6587.832884,-6439.791695,536.266849
1130.584806,6809.894666,-6661.853478,842.705048
1130.585135,6957.935855,-7031.956449,689.485948
1130.585465,6809.894666,-6883.915261,919.314598
1130.585795,6957.935855,-6291.750507,1072.533697
1130.586125,6883.915261,-5921.647536,995.924147
1130.586454,7031.956449,-5773.606348,919.314598
1130.586784,7105.977043,-6661.853478,842.705048
1130.587114,7476.080014,-6957.935855,1455.581446
1130.587444,7698.141797,-6957.935855,1302.362347
1130.587774,7772.162391,-6069.688724,1532.190996
1130.588103,7105.977043,-5625.565159,2145.067394
1130.588433,6957.935855,-6513.812290,1608.800546
1130.588763,6957.935855,-6217.729913,1378.971896
1130.589093,7105.977043,-5921.647536,1072.533697
1130.589422,6587.832884,-6217.729913,1302.362347
1130.589752,6809.894666,-5921.647536,842.705048
1130.590082,6587.832884,-6661.853478,383.047749
1130.590412,6365.771101,-6439.791695,612.876398
1130.590741,6291.750507,-7105.977043,612.876398
1130.591071,6217.729913,-6735.874072,1302.362347
1130.591401,6957.935855,-7846.182985,842.705048
1130.591731,6587.832884,-7402.059420,383.047749
1130.592060,6513.812290,-7328.038826,229.828649
1130.592390,6365.771101,-7920.203579,76.609550
1130.592720,6661.853478,-7624.121203,536.266849
1130.593050,7254.018232,-7179.997637,842.705048
1130.593379,7624.121203,-6365.771101,995.924147
1130.593709,7179.997637,-6513.812290,1378.971896
1130.594039,7031.956449,-6291.750507,1838.629195
1130.594369,7402.059420,-6143.709319,1532.190996
1130.594698,7105.977043,-5699.585753,1455.581446
1130.595028,7031.956449,-5181.441594,1608.800546
1130.595358,6809.894666,-5329.482782,1072.533697
1130.595688,7031.956449,-5403.503377,2145.067394
1130.596018,7328.038826,-6513.812290,1915.238745
1130.596347,7105.977043,-6661.853478,1378.971896
1130.596677,6809.894666,-6365.771101,1225.752797
1130.597007,6735.874072,-6661.853478,536.266849
1130.597337,6883.915261,-7179.997637,689.485948
1130.597666,6735.874072,-7254.018232,842.705048
1130.597996,7105.977043,-6809.894666,995.924147
1130.598326,7031.956449,-6365.771101,612.876398
1130.598656,7179.997637,-5477.523971,842.705048
1130.598985,7105.977043,-6291.750507,1225.752797
1130.599315,7031.956449,-6365.771101,1302.362347
1130.599645,6957.935855,-6291.750507,919.314598
1130.599975,6809.894666,-5773.606348,536.266849
1130.600304,6735.874072,-5995.668130,1149.143247
1130.600634,7179.997637,-6513.812290,1072.533697
1130.600964,7105.977043,-7031.956449,612.876398
1130.601294,7031.956449,-7254.018232,995.924147
1130.601623,7328.038826,-6809.894666,842.705048
1130.601953,6957.935855,-6735.874072,842.705048
1130.602283,7105.977043,-6957.935855,1378.971896
1130.602613,7254.018232,-7105.977043,1378.971896
1130.602942,7328.038826,-6809.894666,1685.410096
1130.603272,7105.977043,-6587.832884,1455.581446
1130.603602,7105.977043,-6439.791695,1378.971896
1130.603932,7105.977043,-6143.709319,1532.190996
1130.604262,6661.853478,-6439.791695,1455.581446
1130.604591,6809.894666,-6143.709319,1149.143247
1130.604921,6365.771101,-6143.709319,1072.533697
1130.605251,6735.874072,-7105.977043,919.314598
1130.605581,6661.853478,-7031.956449,612.876398
1130.605910,6291.750507,-7624.121203,459.657299
1130.606240,6069.688724,-6735.874072,459.657299
1130.606570,6291.750507,-7031.956449,0.000000
1130.606900,6957.935855,-7031.956449,1149.143247
1130.607229,7105.977043,-6661.853478,995.924147
1130.607559,7105.977043,-6513.812290,995.924147
1130.607889,6957.935855,-6217.729913,689.485948
1130.608219,6217.729913,-6365.771101,612.876398
1130.608548,6513.812290,-6587.832884,919.314598
1130.608878,7105.977043,-6587.832884,1302.362347
1130.609208,7328.038826,-6661.853478,1378.971896
1130.609538,7105.977043,-6069.688724,1532.190996
1130.609867,7105.977043,-6587.832884,1302.362347
1130.610197,6883.915261,-6365.771101,766.095498
1130.610527,7179.997637,-5921.647536,1378.971896
1130.610857,7402.059420,-6513.812290,1455.581446
1130.611186,7402.059420,-6735.874072,766.095498
1130.611516,6883.915261,-6883.915261,1302.362347
1130.611846,6661.853478,-7105.977043,1072.533697
1130.612176,7105.977043,-7254.018232,1302.362347
1130.612506,6957.935855,-6809.894666,995.924147
1130.612835,6587.832884,-6365.771101,919.314598
1130.613165,6439.791695,-6217.729913,919.314598
1130.613495,7031.956449,-6513.812290,919.314598
1130.613825,7254.018232,-5773.606348,689.485948
1130.614154,7402.059420,-5699.585753,842.705048
1130.614484,7624.121203,-5625.565159,1072.533697
1130.614814,7920.203579,-6365.771101,1532.190996
1130.615144,7772.162391,-6365.771101,1149.143247
1130.615473,7402.059420,-5847.626942,842.705048
1130.615803,7179.997637,-5921.647536,766.095498
1130.616133,7328.038826,-6439.791695,919.314598
1130.616463,7179.997637,-6883.915261,1149.143247
1130.616792,6957.935855,-7254.018232,1149.143247
1130.617122,5477.523971,-6883.915261,612.876398
1130.617452,5551.544565,-6809.894666,842.705048
1130.617782,5921.647536,-7031.956449,689.485948
1130.618111,6735.874072,-7179.997637,1532.190996
1130.618441,7698.141797,-6957.935855,1762.019645
1130.618771,7772.162391,-5773.606348,1685.410096
1130.619100,7920.203579,-5921.647536,1685.410096
1130.619429,7476.080014,-5847.626942,1532.190996
1130.619759,7550.100608,-5403.503377,1915.238745
1130.620088,7920.203579,-5921.647536,1302.362347
1130.620418,7698.141797,-5699.585753,1225.752797
1130.620747,6809.894666,-6883.915261,766.095498
1130.621076,6217.729913,-7179.997637,536.266849
1130.621406,5995.668130,-7772.162391,153.219100
1130.621735,6069.688724,-7476.080014,0.000000
1130.622064,6143.709319,-7328.038826,459.657299
1130.622394,6217.729913,-7772.162391,842.705048
1130.622723,6143.709319,-7550.100608,689.485948
1130.623053,6957.935855,-6439.791695,1072.533697
1130.623382,6957.935855,-6365.771101,0.000000
1130.623711,7105.977043,-6291.750507,842.705048
1130.624041,7402.059420,-7179.997637,1532.190996
1130.624370,8290.306550,-6661.853478,1762.019645
1130.624700,8068.244768,-5921.647536,1225.752797
1130.625029,7328.038826,-6217.729913,1149.143247
1130.625358,7105.977043,-6661.853478,1225.752797
1130.625688,6809.894666,-7254.018232,1302.362347
1130.626017,6809.894666,-7254.018232,1915.238745
1130.626346,6513.812290,-6439.791695,1149.143247
1130.626676,6291.750507,-6957.935855,612.876398
1130.627005,6217.729913,-7476.080014,1149.143247
1130.627335,6513.812290,-6735.874072,842.705048
1130.627664,6513.812290,-5921.647536,842.705048
1130.627993,6439.791695,-6217.729913,919.314598
1130.628323,6809.894666,-6735.874072,919.314598
1130.628652,7031.956449,-6217.729913,1072.533697
1130.628982,6883.915261,-5921.647536,1455.581446
1130.629311,7476.080014,-5921.647536,1149.143247
1130.629640,8068.244768,-5699.585753,1378.971896
1130.629970,8216.285956,-5625.565159,1685.410096
1130.630299,8068.244768,-5921.647536,1455.581446
1130.630629,7772.162391,-5255.462188,766.095498
1130.630958,6883.915261,-6513.812290,612.876398
1130.631287,6957.935855,-6143.709319,153.219100
1130.631617,7105.977043,-6587.832884,383.047749
1130.631946,7550.100608,-6439.791695,1072.533697
1130.632275,7846.182985,-6291.750507,1149.143247
1130.632605,7105.977043,-6661.853478,919.314598
1130.632934,6513.812290,-6883.915261,689.485948
1130.633264,6587.832884,-6809.894666,536.266849
1130.633593,7328.038826,-7476.080014,1378.971896
1130.633922,7179.997637,-7254.018232,1455.581446
1130.634252,7254.018232,-6661.853478,1149.143247
1130.634581,6957.935855,-6735.874072,1378.971896
1130.634911,7328.038826,-6069.688724,1532.190996
1130.635240,7402.059420,-6217.729913,1302.362347
1130.635569,7328.038826,-6439.791695,1149.143247
1130.635899,6661.853478,-6291.750507,995.924147
1130.636228,6513.812290,-6587.832884,536.266849
1130.636557,6365.771101,-6957.935855,1072.533697
1130.636887,6365.771101,-7179.997637,536.266849
1130.637216,6439.791695,-6735.874072,612.876398
1130.637546,6809.894666,-6957.935855,842.705048
1130.637875,6735.874072,-6661.853478,842.705048
1130.638204,5995.668130,-6661.853478,766.095498
1130.638534,6365.771101,-7105.977043,612.876398
1130.638863,6439.791695,-6809.894666,383.047749
1130.639193,6809.894666,-6809.894666,1302.362347
1130.639522,7179.997637,-6587.832884,1149.143247
1130.639851,7328.038826,-5699.585753,1685.410096
1130.640181,7105.977043,-6069.688724,1378.971896
1130.640510,7328.038826,-6143.709319,1608.800546
1130.640840,7920.203579,-5995.668130,1455.581446
1130.641169,7772.162391,-6513.812290,919.314598
1130.641498,7105.977043,-6513.812290,1072.533697
1130.641828,6735.874072,-6661.853478,842.705048
1130.642157,6735.874072,-7105.977043,1149.143247
1130.642486,6513.812290,-6809.894666,1302.362347
1130.642816,6587.832884,-7105.977043,919.314598
1130.643145,6661.853478,-7476.080014,1378.971896
1130.643475,6883.915261,-6661.853478,842.705048
1130.643804,6883.915261,-6735.874072,766.095498
1130.644133,6735.874072,-6069.688724,1991.848295
1130.644463,7105.977043,-6291.750507,689.485948
1130.644792,6957.935855,-6291.750507,995.924147
1130.645122,7105.977043,-5699.585753,766.095498
1130.645451,7328.038826,-5921.647536,842.705048
1130.645780,7698.141797,-5773.606348,995.924147
1130.646110,7624.121203,-6291.750507,919.314598
1130.646439,7550.100608,-6217.729913,766.095498
1130.646768,7105.977043,-6217.729913,766.095498
1130.647098,7402.059420,-6883.915261,1302.362347
1130.647427,7254.018232,-7031.956449,1072.533697
1130.647757,6513.812290,-7402.059420,1225.752797
1130.648086,6143.709319,-7105.977043,766.095498
1130.648415,6143.709319,-6365.771101,536.266849
1130.648745,6735.874072,-6587.832884,1149.143247
1130.649074,7179.997637,-6957.935855,1608.800546
1130.649404,7402.059420,-6217.729913,2068.457845
1130.649733,7476.080014,-5329.482782,1762.019645
1130.650062,7550.100608,-5403.503377,1225.752797
1130.650392,7179.997637,-5699.585753,1302.362347
1130.650721,7476.080014,-6217.729913,1302.362347
1130.651051,7328.038826,-6587.832884,1608.800546
1130.651380,7698.141797,-7031.956449,919.314598
1130.651709,6883.915261,-7105.977043,612.876398
1130.652039,6439.791695,-7920.203579,536.266849
1130.652368,6439.791695,-8290.306550,766.095498
1130.652697,5699.585753,-7698.141797,459.657299
1130.653027,6439.791695,-7105.977043,459.657299
1130.653356,6365.771101,-6809.894666,306.438199
1130.653686,6143.709319,-6957.935855,766.095498
1130.654015,6365.771101,-6439.791695,766.095498
1130.654344,6809.894666,-6587.832884,612.876398
1130.654674,7031.956449,-6069.688724,995.924147
1130.655003,7254.018232,-5921.647536,1455.581446
1130.655333,7698.141797,-5921.647536,1685.410096
1130.655662,7476.080014,-5773.606348,1378.971896
1130.655991,7402.059420,-6735.874072,1762.019645
1130.656321,7402.059420,-6661.853478,2145.067394
1130.656650,7105.977043,-6883.915261,1532.190996
1130.656979,6661.853478,-6883.915261,1532.190996
1130.657309,6735.874072,-7105.977043,1225.752797
1130.657638,6365.771101,-7846.182985,1072.533697
1130.657968,6809.894666,-7105.977043,1225.752797
1130.658297,6809.894666,-6439.791695,1072.533697
1130.658626,6735.874072,-5699.585753,689.485948
1130.658956,6587.832884,-6735.874072,689.485948
1130.659285,6883.915261,-6513.812290,919.314598
1130.659615,6809.894666,-6291.750507,766.095498
1130.659944,6883.915261,-5995.668130,612.876398
1130.660273,7328.038826,-6291.750507,919.314598
1130.660603,7920.203579,-6291.750507,1302.362347
1130.660932,7920.203579,-6809.894666,1302.362347
1130.661262,7846.182985,-6217.729913,1149.143247
1130.661591,7105.977043,-6217.729913,153.219100
1130.661920,6957.935855,-5921.647536,153.219100
1130.662250,7031.956449,-5921.647536,919.314598
1130.662579,8142.265362,-6513.812290,1455.581446
1130.662908,7994.224174,-6069.688724,1455.581446
1130.663238,7031.956449,-5625.565159,842.705048
1130.663567,6291.750507,-5773.606348,536.266849
1130.663897,7254.018232,-6217.729913,1225.752797
1130.664226,7254.018232,-6883.915261,1149.143247
1130.664555,7402.059420,-7105.977043,1608.800546
1130.664885,7105.977043,-6883.915261,1225.752797
1130.665214,6883.915261,-6217.729913,689.485948
1130.665544,7328.038826,-7105.977043,1455.581446
1130.665873,7105.977043,-7328.038826,1455.581446
1130.666202,6957.935855,-6809.894666,1762.019645
1130.666532,6291.750507,-6883.915261,689.485948
1130.666861,6291.750507,-6735.874072,153.219100
1130.667190,6291.750507,-6735.874072,766.095498
1130.667520,6439.791695,-7402.059420,536.266849
1130.667849,6365.771101,-6513.812290,766.095498
1130.668179,6291.750507,-6365.771101,612.876398
1130.668508,6883.915261,-6365.771101,842.705048
1130.668837,6957.935855,-6069.688724,919.314598
1130.669167,6809.894666,-6883.915261,1149.143247
1130.669496,6735.874072,-6513.812290,919.314598
1130.669826,6957.935855,-6439.791695,842.705048
1130.670155,7031.956449,-6439.791695,1378.971896
1130.670484,7476.080014,-6735.874072,919.314598
1130.670814,7402.059420,-7105.977043,1225.752797
1130.671143,7105.977043,-6809.894666,1225.752797
1130.671473,7328.038826,-6661.853478,1225.752797
1130.671802,6809.894666,-6365.771101,1378.971896
1130.672131,7105.977043,-6291.750507,1532.190996
1130.672461,6883.915261,-6143.709319,1302.362347
1130.672790,6957.935855,-5699.585753,1225.752797
1130.673119,6587.832884,-6587.832884,1455.581446
1130.673449,7031.956449,-6735.874072,1225.752797
1130.673778,7254.018232,-6957.935855,1762.019645
1130.674108,6957.935855,-7254.018232,1149.143247
1130.674437,6957.935855,-7031.956449,1149.143247
1130.674766,6587.832884,-6883.915261,612.876398
1130.675096,6661.853478,-7179.997637,612.876398
1130.675425,7031.956449,-6957.935855,919.314598
1130.675755,7105.977043,-6587.832884,689.485948
1130.676084,7105.977043,-5847.626942,612.876398
1130.676413,7179.997637,-6217.729913,995.924147
1130.676743,7179.997637,-6439.791695,689.485948
1130.677072,7031.956449,-6143.709319,766.095498
1130.677402,7105.977043,-5773.606348,1072.533697
1130.677731,7476.080014,-5699.585753,995.924147
1130.678060,7550.100608,-5847.626942,1302.362347
1130.678390,7402.059420,-6809.894666,1072.533697
1130.678719,7105.977043,-6735.874072,1072.533697
1130.679048,6661.853478,-6661.853478,1455.581446
1130.679378,6439.791695,-6883.915261,689.485948
1130.679707,7105.977043,-6809.894666,1532.190996
1130.680037,7476.080014,-7105.977043,1838.629195
1130.680366,7105.977043,-6291.750507,1302.362347
1130.680695,7105.977043,-6439.791695,1378.971896
1130.681025,6661.853478,-6217.729913,766.095498
1130.681354,6587.832884,-6365.771101,766.095498
1130.681684,6809.894666,-6513.812290,1225.752797
1130.682013,6809.894666,-6143.709319,1532.190996
1130.682342,6957.935855,-6809.894666,919.314598
1130.682672,6957.935855,-6587.832884,766.095498
1130.683001,6809.894666,-6883.915261,1149.143247
1130.683330,6069.688724,-7031.956449,383.047749
1130.683660,6809.894666,-6735.874072,842.705048
1130.683989,6439.791695,-7254.018232,153.219100
1130.684319,6661.853478,-7105.977043,689.485948
1130.684648,6513.812290,-7105.977043,612.876398
1130.684977,6365.771101,-7105.977043,1149.143247
1130.685307,6439.791695,-7698.141797,995.924147
1130.685636,6661.853478,-6735.874072,1455.581446
1130.685966,6513.812290,-6661.853478,1072.533697
1130.686295,6661.853478,-6439.791695,919.314598
1130.686624,6809.894666,-6291.750507,1762.019645
1130.686954,7179.997637,-6217.729913,1608.800546
1130.687283,7328.038826,-6291.750507,1225.752797
1130.687613,7105.977043,-5995.668130,1149.143247
1130.687942,7105.977043,-6217.729913,766.095498
1130.688271,7179.997637,-6957.935855,1149.143247
1130.688601,7105.977043,-7402.059420,1608.800546
1130.688930,7031.956449,-7105.977043,1302.362347
1130.689259,6809.894666,-6365.771101,842.705048
1130.689589,6883.915261,-6957.935855,536.266849
1130.689918,6587.832884,-7179.997637,1302.362347
1130.690248,6439.791695,-7031.956449,995.924147
1130.690577,6439.791695,-6439.791695,459.657299
1130.690906,6735.874072,-5403.503377,1072.533697
1130.691236,7179.997637,-6217.729913,919.314598
1130.691565,7846.182985,-6365.771101,1455.581446
1130.691895,7994.224174,-5921.647536,1149.143247
1130.692224,7328.038826,-5551.544565,689.485948
1130.692553,7328.038826,-5255.462188,229.828649
1130.692883,7179.997637,-5699.585753,459.657299
1130.693212,7920.203579,-6217.729913,1149.143247
1130.693541,7772.162391,-6143.709319,1302.362347
1130.693871,7624.121203,-6365.771101,919.314598
1130.694200,6809.894666,-6217.729913,1455.581446
1130.694530,7031.956449,-6587.832884,1149.143247
1130.694859,7105.977043,-7105.977043,1455.581446
1130.695188,6883.915261,-7624.121203,1225.752797
1130.695518,6809.894666,-7105.977043,536.266849
1130.695847,5921.647536,-6809.894666,612.876398
1130.696177,6661.853478,-6957.935855,1455.581446
1130.696506,7105.977043,-7105.977043,1532.190996
1130.696835,6735.874072,-6883.915261,1302.362347
1130.697165,6735.874072,-6291.750507,766.095498
1130.697494,6513.812290,-6587.832884,1149.143247
1130.697824,6883.915261,-6291.750507,842.705048
1130.698153,6883.915261,-6661.853478,995.924147
1130.698482,6883.915261,-6365.771101,1072.533697
1130.698812,7105.977043,-6291.750507,995.924147
1130.699141,7031.956449,-6143.709319,995.924147
1130.699470,6957.935855,-6587.832884,842.705048
1130.699800,6809.894666,-6957.935855,919.314598
1130.700129,6957.935855,-7105.977043,919.314598
1130.700459,5995.668130,-6587.832884,306.438199
1130.700788,6143.709319,-6957.935855,536.266849
1130.701117,6735.874072,-6735.874072,612.876398
1130.701447,7328.038826,-7105.977043,1225.752797
1130.701776,7328.038826,-6735.874072,1685.410096
1130.702106,7328.038826,-6217.729913,1685.410096
1130.702435,7550.100608,-5921.647536,1225.752797
1130.702764,7105.977043,-6069.688724,1225.752797
1130.703094,7328.038826,-6217.729913,919.314598
1130.703423,7179.997637,-6365.771101,1225.752797
1130.703752,6957.935855,-6365.771101,995.924147
1130.704082,6883.915261,-6439.791695,1302.362347
1130.704411,6661.853478,-7031.956449,1225.752797
1130.704741,6957.935855,-7402.059420,1532.190996
1130.705070,6883.915261,-7105.977043,612.876398
1130.705399,6291.750507,-6513.812290,766.095498
1130.705729,6439.791695,-6661.853478,306.438199
1130.706058,6735.874072,-7179.997637,306.438199
1130.706388,6661.853478,-6069.688724,842.705048
1130.706717,7105.977043,-6069.688724,612.876398
1130.707046,7624.121203,-6069.688724,842.705048
1130.707376,7402.059420,-6217.729913,1072.533697
1130.707705,7402.059420,-6143.709319,919.314598
1130.708035,7254.018232,-5773.606348,842.705048
1130.708364,7328.038826,-5921.647536,842.705048
1130.708693,7624.121203,-6513.812290,1378.971896
1130.709023,7402.059420,-7105.977043,2068.457845
1130.709352,7254.018232,-7254.018232,1225.752797
1130.709681,6513.812290,-6291.750507,689.485948
1130.710011,6365.771101,-6587.832884,766.095498
1130.710340,6883.915261,-6735.874072,1532.190996
1130.710670,7550.100608,-6809.894666,2145.067394
1130.710999,7476.080014,-6439.791695,2068.457845
1130.711328,7328.038826,-5107.421000,766.095498
1130.711658,6957.935855,-5625.565159,1149.143247
1130.711987,7031.956449,-6291.750507,1455.581446
1130.712317,7254.018232,-6661.853478,1455.581446
1130.712646,6883.915261,-6143.709319,1072.533697
1130.712975,7031.956449,-6439.791695,995.924147
1130.713305,6439.791695,-7328.038826,1149.143247
1130.713634,6291.750507,-7328.038826,459.657299
1130.713963,6365.771101,-8290.306550,459.657299
1130.714293,6217.729913,-7476.080014,536.266849
1130.714622,5995.668130,-7105.977043,459.657299
1130.714952,5995.668130,-7476.080014,766.095498
1130.715281,6217.729913,-6883.915261,842.705048
1130.715610,6217.729913,-6883.915261,536.266849
1130.715940,6661.853478,-6513.812290,919.314598
1130.716269,6957.935855,-6217.729913,995.924147
1130.716599,7328.038826,-6143.709319,1608.800546
1130.716928,7624.121203,-6069.688724,1455.581446
1130.717257,7179.997637,-6439.791695,1302.362347
1130.717587,7179.997637,-6513.812290,1532.190996
1130.717916,7328.038826,-6217.729913,1685.410096
1130.718246,7698.141797,-6365.771101,2221.676944
1130.718575,7328.038826,-5995.668130,1225.752797
1130.718904,6291.750507,-6809.894666,1149.143247
1130.719234,6809.894666,-7476.080014,1378.971896
1130.719563,6809.894666,-6957.935855,1608.800546
1130.719892,6809.894666,-6069.688724,1455.581446
1130.720222,6883.915261,-6291.750507,842.705048
1130.720551,6661.853478,-6735.874072,689.485948
1130.720880,6587.832884,-6661.853478,689.485948
1130.721209,6735.874072,-6291.750507,1225.752797
1130.721539,7179.997637,-6069.688724,919.314598
1130.721868,7179.997637,-5847.626942,995.924147
1130.722197,7179.997637,-5551.544565,383.047749
1130.722526,7846.182985,-6217.729913,995.924147
1130.722855,8142.265362,-5699.585753,766.095498
1130.723184,7550.100608,-6069.688724,536.266849
1130.723513,6883.915261,-6291.750507,459.657299
1130.723842,7031.956449,-6439.791695,383.047749
1130.724172,7105.977043,-6365.771101,536.266849
1130.724501,7031.956449,-7550.100608,766.095498
1130.724830,6735.874072,-7105.977043,689.485948
1130.725159,6809.894666,-6513.812290,919.314598
1130.725488,6513.812290,-6587.832884,536.266849
1130.725817,7105.977043,-6883.915261,1608.800546
1130.726146,7328.038826,-7328.038826,1762.019645
1130.726475,7328.038826,-6957.935855,1762.019645
1130.726804,7254.018232,-6365.771101,1762.019645
1130.727134,7328.038826,-5995.668130,1378.971896
1130.727463,6957.935855,-6217.729913,2374.896044
1130.727792,6957.935855,-6365.771101,1302.362347
1130.728121,6809.894666,-6809.894666,1072.533697
1130.728450,6661.853478,-6809.894666,689.485948
1130.728779,6809.894666,-7179.997637,995.924147
1130.729108,6143.709319,-7105.977043,536.266849
1130.729437,6069.688724,-7476.080014,536.266849
1130.729766,6143.709319,-6661.853478,536.266849
1130.730096,6883.915261,-6809.894666,766.095498
1130.730425,7031.956449,-7031.956449,229.828649
1130.730754,6809.894666,-7105.977043,919.314598
1130.731083,7105.977043,-6587.832884,1072.533697
1130.731412,7402.059420,-6217.729913,842.705048
1130.731741,7179.997637,-6735.874072,1455.581446
1130.732070,7402.059420,-7031.956449,1302.362347
1130.732399,7105.977043,-6365.771101,995.924147
1130.732729,7105.977043,-5847.626942,1149.143247
1130.733058,7254.018232,-5551.544565,1302.362347
1130.733387,7179.997637,-5995.668130,2068.457845
1130.733716,7105.977043,-6587.832884,1455.581446
1130.734045,7105.977043,-6809.894666,1072.533697
1130.734374,6735.874072,-6883.915261,842.705048
1130.734703,6439.791695,-6735.874072,1072.533697
1130.735032,7031.956449,-7254.018232,1455.581446
1130.735361,6883.915261,-6883.915261,1685.410096
1130.735691,6735.874072,-6587.832884,1149.143247
1130.736020,6439.791695,-6143.709319,995.924147
1130.736349,7031.956449,-6143.709319,459.657299
1130.736678,6809.894666,-6439.791695,919.314598
1130.737007,7031.956449,-6069.688724,919.314598
1130.737336,7031.956449,-5995.668130,919.314598
1130.737665,7254.018232,-6439.791695,919.314598
1130.737994,7920.203579,-6513.812290,1378.971896
1130.738323,7624.121203,-6291.750507,995.924147
1130.738653,7179.997637,-5921.647536,766.095498
1130.738982,7254.018232,-6217.729913,766.095498
1130.739311,7698.141797,-6217.729913,919.314598
1130.739640,7846.182985,-6513.812290,1915.238745
1130.739969,7105.977043,-7105.977043,1225.752797
1130.740298,6365.771101,-6661.853478,766.095498
1130.740627,5995.668130,-6661.853478,689.485948
1130.740956,6809.894666,-7105.977043,1149.143247
1130.741286,7105.977043,-6883.915261,1378.971896
1130.741615,7328.038826,-6809.894666,1149.143247
1130.741944,7328.038826,-5995.668130,1378.971896
1130.742273,7328.038826,-5921.647536,1149.143247
1130.742602,7550.100608,-6513.812290,1378.971896
1130.742931,7105.977043,-6365.771101,1455.581446
1130.743260,7105.977043,-6661.853478,1378.971896
1130.743589,7328.038826,-6513.812290,1532.190996
1130.743918,7550.100608,-6513.812290,1685.410096
1130.744248,6735.874072,-7105.977043,1225.752797
1130.744577,6513.812290,-7105.977043,766.095498
1130.744906,5995.668130,-7254.018232,459.657299
1130.745235,5995.668130,-7105.977043,459.657299
1130.745564,5699.585753,-7105.977043,612.876398
1130.745893,6439.791695,-7105.977043,383.047749
1130.746222,6291.750507,-7105.977043,536.266849
1130.746551,6513.812290,-6735.874072,766.095498
1130.746881,6957.935855,-6883.915261,612.876398
1130.747210,7550.100608,-6735.874072,1455.581446
1130.747539,7105.977043,-6957.935855,1302.362347
1130.747868,7105.977043,-6439.791695,1072.533697
1130.748197,7179.997637,-6291.750507,1608.800546
1130.748526,7402.059420,-6513.812290,1608.800546
1130.748855,7328.038826,-6217.729913,1762.019645
1130.749184,7402.059420,-6069.688724,1302.362347
1130.749513,6661.853478,-5625.565159,842.705048
1130.749843,6883.915261,-5995.668130,1225.752797
1130.750172,7031.956449,-6735.874072,1149.143247
1130.750501,7031.956449,-6661.853478,1072.533697
1130.750830,6957.935855,-6143.709319,842.705048
1130.751159,6439.791695,-6809.894666,536.266849
1130.751488,6883.915261,-6143.709319,1225.752797
1130.751817,7031.956449,-7105.977043,1302.362347
1130.752146,7179.997637,-6661.853478,1072.533697
1130.752475,7550.100608,-6217.729913,919.314598
1130.752805,7031.956449,-6143.709319,612.876398
1130.753134,7476.080014,-5921.647536,1991.848295
1130.753463,7254.018232,-6291.750507,1378.971896
1130.753792,7179.997637,-6291.750507,919.314598
1130.754121,7105.977043,-5995.668130,919.314598
1130.754450,6957.935855,-6513.812290,689.485948
1130.754779,6957.935855,-6217.729913,842.705048
1130.755108,7105.977043,-6291.750507,995.924147
1130.755438,6809.894666,-6957.935855,995.924147
1130.755767,7105.977043,-6883.915261,842.705048
1130.756096,6513.812290,-6809.894666,995.924147
1130.756425,6439.791695,-7031.956449,1149.143247
1130.756754,6439.791695,-7105.977043,1149.143247
1130.757083,6587.832884,-7179.997637,1378.971896
1130.757412,7105.977043,-7179.997637,1455.581446
1130.757741,7772.162391,-6883.915261,1302.362347
1130.758070,7254.018232,-6513.812290,1225.752797
1130.758400,7105.977043,-6217.729913,1149.143247
1130.758729,6883.915261,-6439.791695,842.705048
1130.759058,6957.935855,-6217.729913,1838.629195
1130.759387,6735.874072,-6365.771101,536.266849
1130.759716,6809.894666,-6143.709319,459.657299
1130.760045,6809.894666,-6587.832884,459.657299
1130.760374,6735.874072,-6809.894666,689.485948
1130.760703,7179.997637,-6957.935855,612.876398
1130.761032,6957.935855,-7031.956449,459.657299
1130.761362,6661.853478,-6883.915261,995.924147
1130.761691,6439.791695,-7105.977043,612.876398
1130.762020,6143.709319,-6957.935855,536.266849
1130.762349,6587.832884,-7328.038826,1225.752797
1130.762678,7105.977043,-7254.018232,1378.971896
1130.763007,7328.038826,-6809.894666,1378.971896
1130.763336,7031.956449,-5921.647536,1762.019645
1130.763665,7105.977043,-5625.565159,1149.143247
1130.763995,7476.080014,-6217.729913,1225.752797
1130.764324,7550.100608,-6365.771101,1685.410096
1130.764653,7624.121203,-5921.647536,1532.190996
1130.764982,7254.018232,-5847.626942,1302.362347
1130.765311,7328.038826,-5699.585753,1225.752797
1130.765640,7031.956449,-6883.915261,1225.752797
1130.765969,7105.977043,-6735.874072,1225.752797
1130.766298,7105.977043,-6661.853478,1378.971896
1130.766627,6809.894666,-7105.977043,1302.362347
1130.766957,6217.729913,-6587.832884,612.876398
1130.767286,6439.791695,-6883.915261,536.266849
1130.767615,6513.812290,-6661.853478,919.314598
1130.767944,6957.935855,-6809.894666,995.924147
1130.768273,7476.080014,-6513.812290,1149.143247
1130.768602,7031.956449,-5255.462188,1149.143247
1130.768931,7624.121203,-5403.503377,919.314598
1130.769260,7772.162391,-5625.565159,1149.143247
1130.769590,7550.100608,-5255.462188,995.924147
1130.769919,7698.141797,-6143.709319,842.705048
1130.770248,7179.997637,-5699.585753,1072.533697
1130.770577,6883.915261,-6809.894666,689.485948
1130.770906,6957.935855,-7105.977043,995.924147
1130.771235,7105.977043,-7550.100608,995.924147
1130.771564,6217.729913,-7328.038826,919.314598
1130.771893,6439.791695,-6883.915261,1072.533697
1130.772222,6957.935855,-7624.121203,1532.190996
1130.772552,7328.038826,-7105.977043,1838.629195
1130.772881,7624.121203,-5995.668130,2221.676944
1130.773210,7179.997637,-5773.606348,1378.971896
1130.773539,6957.935855,-5699.585753,1225.752797
1130.773868,6883.915261,-6069.688724,1225.752797
1130.774197,8068.244768,-6587.832884,1915.238745
1130.774526,7624.121203,-6217.729913,1149.143247
1130.774855,7328.038826,-6735.874072,919.314598
1130.775184,6661.853478,-7031.956449,459.657299
1130.775514,6365.771101,-7254.018232,306.438199
1130.775843,6587.832884,-7476.080014,306.438199
1130.776172,6661.853478,-7402.059420,612.876398
1130.776501,6513.812290,-7328.038826,383.047749
1130.776830,6217.729913,-7105.977043,306.438199
1130.777159,5995.668130,-7105.977043,1149.143247
1130.777488,6883.915261,-7105.977043,1072.533697
1130.777817,6587.832884,-6809.894666,995.924147
1130.778147,7254.018232,-7254.018232,1455.581446
1130.778476,7105.977043,-6735.874072,1608.800546
1130.778805,7179.997637,-6217.729913,1072.533697
1130.779134,6809.894666,-6217.729913,1302.362347
1130.779463,7402.059420,-6439.791695,1149.143247
1130.779792,7772.162391,-6513.812290,1915.238745
1130.780121,7772.162391,-6291.750507,1455.581446
1130.780450,7328.038826,-6217.729913,842.705048
1130.780779,6809.894666,-6587.832884,995.924147
1130.781109,6661.853478,-6883.915261,995.924147
1130.781438,6661.853478,-6291.750507,919.314598
1130.781767,6513.812290,-6291.750507,1378.971896
1130.782096,6439.791695,-6587.832884,842.705048
1130.782425,6513.812290,-6513.812290,536.266849
1130.782754,6587.832884,-6217.729913,689.485948
1130.783083,7105.977043,-5995.668130,919.314598
1130.783412,7105.977043,-5625.565159,1302.362347
1130.783741,7698.141797,-5995.668130,1302.362347
1130.784071,7994.224174,-5699.585753,1225.752797
1130.784400,7698.141797,-5329.482782,842.705048
1130.784729,6957.935855,-6513.812290,1072.533697
1130.785058,7402.059420,-5699.585753,306.438199
1130.785387,7328.038826,-7105.977043,306.438199
1130.785716,7624.121203,-6661.853478,1225.752797
1130.786045,7476.080014,-6661.853478,766.095498
1130.786374,6587.832884,-6735.874072,383.047749
1130.786704,6291.750507,-6883.915261,919.314598
1130.787033,6513.812290,-7254.018232,995.924147
1130.787362,7105.977043,-6661.853478,1225.752797
1130.787691,7179.997637,-6513.812290,1608.800546
1130.788020,7031.956449,-6439.791695,1455.581446
1130.788349,6957.935855,-6217.729913,1608.800546
1130.788678,7328.038826,-6513.812290,1762.019645
1130.789007,7328.038826,-6217.729913,1225.752797
1130.789336,7328.038826,-6365.771101,995.924147
1130.789666,6661.853478,-6661.853478,995.924147
1130.789995,6365.771101,-6809.894666,612.876398
1130.790324,6365.771101,-7476.080014,383.047749
1130.790653,6661.853478,-7328.038826,306.438199
1130.790982,6661.853478,-7179.997637,689.485948
1130.791311,6513.812290,-6513.812290,306.438199
1130.791640,6957.935855,-6809.894666,153.219100
1130.791969,6809.894666,-6735.874072,1149.143247
1130.792299,6661.853478,-6883.915261,766.095498
1130.792628,6661.853478,-6809.894666,995.924147
1130.792957,6883.915261,-6143.709319,1225.752797
1130.793286,7031.956449,-6291.750507,1225.752797
1130.793615,7031.956449,-6735.874072,1302.362347
1130.793944,7179.997637,-6069.688724,1915.238745
1130.794273,7328.038826,-6513.812290,1302.362347
1130.794602,7328.038826,-5847.626942,1072.533697
1130.794931,7402.059420,-6365.771101,1225.752797
1130.795261,7031.956449,-7179.997637,995.924147
1130.795590,6809.894666,-6809.894666,919.314598
1130.795919,6439.791695,-6735.874072,689.485948
1130.796248,6587.832884,-7031.956449,1149.143247
1130.796577,6439.791695,-7254.018232,1225.752797
1130.796906,6661.853478,-6809.894666,1762.019645
1130.797235,6883.915261,-6143.709319,1455.581446
1130.797564,6883.915261,-6291.750507,1072.533697
1130.797893,6883.915261,-6217.729913,919.314598
1130.798223,6809.894666,-5847.626942,1149.143247
1130.798552,7550.100608,-5403.503377,306.438199
1130.798881,7402.059420,-5551.544565,919.314598
1130.799210,7402.059420,-6365.771101,1072.533697
1130.799539,7624.121203,-6439.791695,842.705048
1130.799868,7254.018232,-5921.647536,766.095498
1130.800197,7031.956449,-6661.853478,383.047749
1130.800526,6661.853478,-6735.874072,229.828649
1130.800856,6883.915261,-6957.935855,689.485948
1130.801185,7031.956449,-7105.977043,842.705048
1130.801514,7105.977043,-6957.935855,1302.362347
1130.801843,6883.915261,-6217.729913,1455.581446
1130.802172,6883.915261,-6513.812290,1149.143247
1130.802501,6883.915261,-5995.668130,1455.581446
1130.802830,7846.182985,-6217.729913,1455.581446
1130.803159,7846.182985,-5921.647536,2068.457845
1130.803488,7920.203579,-5847.626942,1915.238745
1130.803818,7624.121203,-5847.626942,1378.971896
1130.804147,7179.997637,-6217.729913,1225.752797
1130.804476,7254.018232,-6513.812290,1455.581446
1130.804805,7031.956449,-6883.915261,842.705048
1130.805134,6735.874072,-7254.018232,995.924147
1130.805463,6587.832884,-7476.080014,306.438199
1130.805792,6587.832884,-7920.203579,383.047749
1130.806121,5773.606348,-7105.977043,153.219100
1130.806450,5625.565159,-7550.100608,229.828649
1130.806780,5625.565159,-7254.018232,689.485948
1130.807109,6143.709319,-7105.977043,536.266849
1130.807438,6217.729913,-5403.503377,459.657299
1130.807767,7031.956449,-5995.668130,689.485948
1130.808096,7402.059420,-6513.812290,1149.143247
1130.808425,7550.100608,-6291.750507,919.314598
1130.808754,7179.997637,-6587.832884,919.314598
1130.809083,7550.100608,-5921.647536,1149.143247
1130.809413,7772.162391,-6365.771101,1685.410096
1130.809742,7624.121203,-7179.997637,1532.190996
1130.810071,7254.018232,-6957.935855,1225.752797
1130.810400,7179.997637,-7105.977043,1149.143247
1130.810729,6587.832884,-6661.853478,995.924147
1130.811058,6439.791695,-6661.853478,919.314598
1130.811387,5921.647536,-6957.935855,1302.362347
1130.811716,6439.791695,-6513.812290,1455.581446
1130.812045,6661.853478,-6291.750507,1072.533697
1130.812375,6661.853478,-5477.523971,1149.143247
1130.812704,6957.935855,-6069.688724,995.924147
1130.813033,7105.977043,-6883.915261,1225.752797
1130.813362,6883.915261,-6439.791695,995.924147
1130.813691,7105.977043,-6439.791695,306.438199
1130.814020,7328.038826,-6439.791695,919.314598
1130.814349,7698.141797,-6735.874072,995.924147
1130.814678,7476.080014,-6883.915261,1149.143247
1130.815008,7994.224174,-5921.647536,536.266849
1130.815337,6439.791695,-5995.668130,0.000000
1130.815666,6661.853478,-6143.709319,229.828649
1130.815995,7254.018232,-6143.709319,842.705048
1130.816324,7624.121203,-6069.688724,1225.752797
1130.816653,7772.162391,-6143.709319,1225.752797
1130.816982,7031.956449,-6291.750507,995.924147
1130.817311,6587.832884,-6735.874072,1072.533697
1130.817640,6513.812290,-6735.874072,1072.533697
1130.817970,6661.853478,-7031.956449,1302.362347
1130.818299,7254.018232,-6883.915261,1685.410096
1130.818628,7476.080014,-6957.935855,1455.581446
1130.818957,7476.080014,-6883.915261,1532.190996
1130.819286,7105.977043,-7105.977043,1378.971896
1130.819615,6809.894666,-6661.853478,1149.143247
1130.819944,6291.750507,-7031.956449,919.314598
1130.820273,6143.709319,-6735.874072,689.485948
1130.820603,6217.729913,-6513.812290,459.657299
1130.820932,6439.791695,-6513.812290,612.876398
1130.821261,6957.935855,-7105.977043,1072.533697
1130.821590,7105.977043,-6439.791695,1149.143247
1130.821919,7105.977043,-6217.729913,995.924147
1130.822248,6809.894666,-5995.668130,689.485948
1130.822578,7179.997637,-7105.977043,995.924147
1130.822907,6883.915261,-7105.977043,919.314598
1130.823236,6809.894666,-7105.977043,536.266849
1130.823565,6661.853478,-6883.915261,612.876398
1130.823894,6957.935855,-6735.874072,842.705048
1130.824223,6957.935855,-7105.977043,1685.410096
1130.824552,7031.956449,-7328.038826,1378.971896
1130.824882,7105.977043,-7105.977043,1225.752797
1130.825211,6957.935855,-5921.647536,995.924147
1130.825540,7254.018232,-5921.647536,1608.800546
1130.825869,7105.977043,-6365.771101,1455.581446
1130.826198,6957.935855,-5995.668130,1685.410096
1130.826527,7254.018232,-5773.606348,1378.971896
1130.826857,7328.038826,-5773.606348,1225.752797
1130.827186,7105.977043,-5921.647536,1838.629195
1130.827515,7105.977043,-6957.935855,1302.362347
1130.827844,7105.977043,-6587.832884,1378.971896
1130.828173,7105.977043,-6809.894666,1302.362347
1130.828502,6735.874072,-6587.832884,842.705048
1130.828831,6809.894666,-6735.874072,766.095498
1130.829161,6809.894666,-6735.874072,536.266849
1130.829490,6735.874072,-6365.771101,689.485948
1130.829819,7105.977043,-6439.791695,842.705048
1130.830148,7402.059420,-6661.853478,383.047749
1130.830477,7031.956449,-6217.729913,842.705048
1130.830806,7105.977043,-6069.688724,842.705048
1130.831136,7105.977043,-5995.668130,995.924147
1130.831465,7254.018232,-5995.668130,1532.190996
1130.831794,7698.141797,-6217.729913,919.314598
1130.832123,7179.997637,-6587.832884,766.095498
1130.832452,7105.977043,-6587.832884,995.924147
1130.832781,7105.977043,-6883.915261,1149.143247
1130.833110,7254.018232,-6957.935855,1455.581446
1130.833440,7105.977043,-6957.935855,1149.143247
1130.833769,7328.038826,-6957.935855,1532.190996
1130.834098,7402.059420,-6809.894666,1455.581446
1130.834427,7254.018232,-6217.729913,1455.581446
1130.834756,7624.121203,-6957.935855,1149.143247
1130.835085,6883.915261,-6365.771101,1302.362347
1130.835414,6809.894666,-6365.771101,766.095498
1130.835744,6661.853478,-6513.812290,995.924147
1130.836073,6365.771101,-6883.915261,1378.971896
1130.836402,6587.832884,-7105.977043,766.095498
1130.836731,6439.791695,-6809.894666,842.705048
1130.837060,6143.709319,-6883.915261,536.266849
1130.837389,6735.874072,-7105.977043,536.266849
1130.837719,6957.935855,-7031.956449,842.705048
1130.838048,7031.956449,-7179.997637,536.266849
1130.838377,6661.853478,-6291.750507,459.657299
1130.838706,6735.874072,-6587.832884,229.828649
1130.839035,7105.977043,-6883.915261,536.266849
1130.839364,6957.935855,-7179.997637,995.924147
1130.839693,7031.956449,-6809.894666,1149.143247
1130.840023,7105.977043,-5995.668130,995.924147
1130.840352,6957.935855,-6217.729913,1378.971896
1130.840681,6957.935855,-5995.668130,1762.019645
1130.841010,7105.977043,-6217.729913,1608.800546
1130.841339,7328.038826,-6217.729913,1532.190996
1130.841668,7105.977043,-5773.606348,1225.752797
1130.841998,7105.977043,-6439.791695,1072.533697
1130.842327,7105.977043,-7105.977043,1915.238745
1130.842656,7105.977043,-6883.915261,1608.800546
1130.842985,6957.935855,-6883.915261,1072.533697
1130.843314,6809.894666,-6217.729913,919.314598
1130.843643,6809.894666,-7254.018232,842.705048
1130.843972,6513.812290,-6735.874072,689.485948
1130.844302,6365.771101,-6661.853478,689.485948
1130.844631,6587.832884,-6365.771101,536.266849
1130.844960,6809.894666,-6069.688724,536.266849
1130.845289,7402.059420,-6291.750507,1455.581446
1130.845618,7624.121203,-5847.626942,1608.800546
1130.845947,7698.141797,-5625.565159,1149.143247
1130.846277,7328.038826,-5921.647536,842.705048
1130.846606,7105.977043,-5477.523971,536.266849
1130.846935,7105.977043,-6069.688724,229.828649
1130.847264,7476.080014,-6587.832884,919.314598
1130.847593,7624.121203,-6809.894666,612.876398
1130.847922,7031.956449,-6883.915261,689.485948
1130.848251,6587.832884,-6883.915261,1455.581446
1130.848581,6365.771101,-7031.956449,842.705048
1130.848910,6587.832884,-7105.977043,1072.533697
1130.849239,6587.832884,-7105.977043,1225.752797
1130.849568,7031.956449,-6587.832884,1302.362347
1130.849897,7698.141797,-6143.709319,2298.286494
1130.850226,7105.977043,-6217.729913,1685.410096
1130.850555,7254.018232,-6365.771101,995.924147
1130.850885,7105.977043,-6291.750507,1378.971896
1130.851214,6883.915261,-6587.832884,1072.533697
1130.851543,6957.935855,-6439.791695,919.314598
1130.851872,6809.894666,-6661.853478,612.876398
1130.852201,6587.832884,-7328.038826,459.657299
1130.852530,6661.853478,-7328.038826,612.876398
1130.852860,6513.812290,-6439.791695,0.000000
1130.853189,6587.832884,-6957.935855,76.609550
1130.853518,6587.832884,-6883.915261,459.657299
1130.853847,6587.832884,-7254.018232,536.266849
1130.854176,6513.812290,-6957.935855,612.876398
1130.854505,6143.709319,-6513.812290,995.924147
1130.854834,6587.832884,-6809.894666,842.705048
1130.855164,7254.018232,-6809.894666,1378.971896
1130.855493,7550.100608,-6587.832884,1608.800546
1130.855822,7920.203579,-6143.709319,1149.143247
1130.856151,7402.059420,-5921.647536,1302.362347
1130.856480,7550.100608,-5847.626942,1685.410096
1130.856809,7698.141797,-5995.668130,1608.800546
1130.857139,7179.997637,-6365.771101,1378.971896
1130.857468,7031.956449,-6143.709319,995.924147
1130.857797,6735.874072,-6587.832884,995.924147
1130.858126,6439.791695,-6735.874072,1302.362347
1130.858455,6809.894666,-6809.894666,1378.971896
1130.858784,6365.771101,-6291.750507,1225.752797
1130.859113,6365.771101,-6809.894666,1225.752797
1130.859443,6513.812290,-7105.977043,919.314598
1130.859772,6513.812290,-6883.915261,1072.533697
1130.860101,6735.874072,-6661.853478,612.876398
1130.860430,7254.018232,-6439.791695,995.924147
1130.860759,7402.059420,-6143.709319,1149.143247
1130.861088,7624.121203,-6513.812290,1685.410096
1130.861418,7476.080014,-6069.688724,1072.533697
1130.861747,7179.997637,-5995.668130,689.485948
1130.862076,7846.182985,-6217.729913,383.047749
1130.862405,7402.059420,-6291.750507,1149.143247
1130.862734,7550.100608,-6957.935855,1455.581446
1130.863063,7105.977043,-6809.894666,1072.533697
1130.863392,6587.832884,-6365.771101,1072.533697
1130.863722,6143.709319,-6587.832884,995.924147
1130.864051,6513.812290,-7179.997637,766.095498
1130.864380,7031.956449,-7105.977043,1608.800546
1130.864709,7328.038826,-6661.853478,1532.190996
1130.865038,7254.018232,-5847.626942,1991.848295
1130.865367,7476.080014,-5995.668130,1378.971896
1130.865697,7254.018232,-6365.771101,1302.362347
1130.866026,7105.977043,-6069.688724,1225.752797
1130.866355,7105.977043,-6291.750507,1149.143247
1130.866684,6957.935855,-6587.832884,612.876398
1130.867013,6513.812290,-6661.853478,306.438199
1130.867342,6365.771101,-7105.977043,229.828649
1130.867671,6217.729913,-7254.018232,306.438199
1130.868001,6735.874072,-7105.977043,153.219100
1130.868330,6291.750507,-7105.977043,536.266849
1130.868659,6883.915261,-6735.874072,459.657299
1130.868988,6735.874072,-6735.874072,689.485948
1130.869317,6513.812290,-6735.874072,689.485948
1130.869646,6809.894666,-6513.812290,536.266849
1130.869975,7031.956449,-6661.853478,1072.533697
1130.870305,7031.956449,-6291.750507,1455.581446
1130.870634,7105.977043,-6587.832884,1225.752797
1130.870963,7105.977043,-5699.585753,1302.362347
1130.871292,7105.977043,-6513.812290,1455.581446
1130.871621,7105.977043,-6661.853478,1685.410096
1130.871950,7402.059420,-6365.771101,1378.971896
1130.872280,7254.018232,-6291.750507,1302.362347
1130.872609,7105.977043,-6291.750507,919.314598
1130.872938,6365.771101,-7254.018232,1072.533697
1130.873267,6735.874072,-7105.977043,1225.752797
1130.873596,6513.812290,-6957.935855,995.924147
1130.873925,7105.977043,-6661.853478,766.095498
1130.874254,6735.874072,-6661.853478,689.485948
1130.874584,6587.832884,-6809.894666,842.705048
1130.874913,7105.977043,-6143.709319,995.924147
1130.875242,6957.935855,-6587.832884,459.657299
1130.875571,6809.894666,-5847.626942,1532.190996
1130.875900,7179.997637,-6069.688724,995.924147
1130.876229,7402.059420,-6883.915261,1072.533697
1130.876559,7105.977043,-6513.812290,919.314598
1130.876888,7105.977043,-6883.915261,919.314598
1130.877217,6735.874072,-5921.647536,689.485948
1130.877546,7254.018232,-6143.709319,842.705048
1130.877875,8068.244768,-6439.791695,1455.581446
1130.878204,8290.306550,-6143.709319,1455.581446
1130.878533,7772.162391,-6069.688724,995.924147
1130.878863,6809.894666,-5329.482782,919.314598
1130.879192,6809.894666,-6291.750507,842.705048
1130.879521,6883.915261,-6587.832884,1302.362347
1130.879850,7031.956449,-6883.915261,1532.190996
1130.880179,7105.977043,-7031.956449,1302.362347
1130.880508,6883.915261,-6587.832884,1302.362347
1130.880838,6587.832884,-6883.915261,1302.362347
1130.881167,6809.894666,-6809.894666,1149.143247
1130.881496,6217.729913,-6365.771101,1225.752797
1130.881825,6587.832884,-7031.956449,689.485948
1130.882154,6365.771101,-6957.935855,612.876398
1130.882483,6513.812290,-7179.997637,612.876398
1130.882812,6587.832884,-7031.956449,612.876398
1130.883142,6735.874072,-6809.894666,383.047749
1130.883471,6883.915261,-6587.832884,919.314598
1130.883800,7031.956449,-5995.668130,995.924147
1130.884129,7105.977043,-5847.626942,1149.143247
1130.884458,6809.894666,-6217.729913,995.924147
1130.884787,6883.915261,-6291.750507,536.266849
1130.885116,6661.853478,-6439.791695,612.876398
1130.885446,6735.874072,-7031.956449,689.485948
1130.885775,7105.977043,-7254.018232,1072.533697
1130.886104,7105.977043,-6809.894666,612.876398
1130.886433,7254.018232,-6809.894666,1455.581446
1130.886762,7624.121203,-6883.915261,1225.752797
1130.887091,7328.038826,-6883.915261,1225.752797
1130.887421,7254.018232,-6809.894666,842.705048
1130.887750,7254.018232,-6069.688724,1072.533697
1130.888079,6957.935855,-6217.729913,1225.752797
1130.888408,7031.956449,-5921.647536,1302.362347
1130.888737,7031.956449,-6217.729913,1225.752797
1130.889066,7179.997637,-6587.832884,1608.800546
1130.889395,6809.894666,-6883.915261,1302.362347
1130.889725,6809.894666,-6809.894666,995.924147
1130.890054,7031.956449,-6587.832884,689.485948
1130.890383,6365.771101,-6735.874072,536.266849
1130.890712,6365.771101,-7105.977043,0.000000
1130.891041,6957.935855,-6587.832884,842.705048
1130.891370,7031.956449,-6069.688724,766.095498
1130.891700,7328.038826,-5921.647536,1072.533697
1130.892029,7476.080014,-6291.750507,1225.752797
1130.892358,7328.038826,-6513.812290,1225.752797
1130.892687,7031.956449,-5847.626942,766.095498
1130.893016,7105.977043,-5773.606348,766.095498
1130.893345,6809.894666,-5995.668130,1149.143247
1130.893674,7105.977043,-6735.874072,2298.286494
1130.894004,6809.894666,-6883.915261,1302.362347
1130.894333,6883.915261,-6365.771101,842.705048
1130.894662,7031.956449,-6661.853478,919.314598
1130.894991,7328.038826,-6809.894666,1762.019645
1130.895320,7179.997637,-6661.853478,1838.629195
1130.895649,7105.977043,-6291.750507,1455.581446
1130.895979,7105.977043,-6217.729913,1302.362347
1130.896308,7105.977043,-6513.812290,1302.362347
1130.896637,7105.977043,-5995.668130,1991.848295
1130.896966,6809.894666,-6735.874072,1302.362347
1130.897295,6883.915261,-5995.668130,842.705048
1130.897624,6513.812290,-6439.791695,919.314598
1130.897953,6291.750507,-7031.956449,1302.362347
1130.898283,6291.750507,-6661.853478,995.924147
1130.898612,6439.791695,-7031.956449,383.047749
1130.898941,6291.750507,-7105.977043,536.266849
1130.899270,6661.853478,-7476.080014,1149.143247
1130.899599,7031.956449,-7624.121203,689.485948
1130.899928,7179.997637,-6661.853478,842.705048
1130.900258,7031.956449,-6809.894666,766.095498
1130.900587,6957.935855,-6957.935855,689.485948
1130.900916,6809.894666,-7031.956449,1072.533697
1130.901245,6809.894666,-6513.812290,689.485948
1130.901574,7031.956449,-6513.812290,995.924147
1130.901903,6809.894666,-6365.771101,1072.533697
1130.902232,7328.038826,-6661.853478,1302.362347
1130.902562,7031.956449,-6365.771101,1455.581446
1130.902891,7105.977043,-5773.606348,1532.190996
1130.903220,7179.997637,-6143.709319,1225.752797
1130.903549,7105.977043,-6291.750507,1608.800546
1130.903878,7105.977043,-6957.935855,1532.190996
1130.904207,7328.038826,-6069.688724,1455.581446
1130.904536,7031.956449,-6143.709319,1378.971896
1130.904866,7105.977043,-6365.771101,919.314598
1130.905195,6809.894666,-7105.977043,842.705048
1130.905524,6735.874072,-6883.915261,995.924147
1130.905853,6809.894666,-6291.750507,766.095498
1130.906182,6439.791695,-7179.997637,536.266849
1130.906511,6439.791695,-6809.894666,919.314598
1130.906841,7031.956449,-6365.771101,995.924147
1130.907170,7179.997637,-6735.874072,1762.019645
1130.907499,7550.100608,-5921.647536,1072.533697
1130.907828,6957.935855,-6143.709319,766.095498
1130.908157,6957.935855,-5329.482782,536.266849
1130.908486,7402.059420,-5403.503377,612.876398
1130.908815,8364.327145,-5107.421000,1149.143247
1130.909145,8290.306550,-6217.729913,1149.143247
1130.909474,7402.059420,-6661.853478,1149.143247
1130.909803,7105.977043,-6217.729913,1072.533697
1130.910132,6809.894666,-6439.791695,995.924147
1130.910461,6957.935855,-7179.997637,1685.410096
1130.910790,6513.812290,-7994.224174,1532.190996
1130.911120,6587.832884,-7772.162391,1225.752797
1130.911449,6513.812290,-7179.997637,1072.533697
1130.911778,6069.688724,-6661.853478,1302.362347
1130.912107,6365.771101,-7328.038826,1149.143247
1130.912436,6661.853478,-7105.977043,1225.752797
1130.912765,6587.832884,-6661.853478,995.924147
1130.913094,6587.832884,-6069.688724,536.266849
1130.913424,6809.894666,-5255.462188,76.609550
1130.913753,7105.977043,-6365.771101,689.485948
1130.914082,7254.018232,-6809.894666,1072.533697
1130.914411,7328.038826,-6143.709319,919.314598
1130.914740,7105.977043,-6513.812290,1302.362347
1130.915069,6957.935855,-6661.853478,689.485948
1130.915399,6809.894666,-7698.141797,383.047749
1130.915728,6513.812290,-7179.997637,612.876398
1130.916057,6513.812290,-6957.935855,919.314598
1130.916386,6587.832884,-7105.977043,1072.533697
1130.916715,7031.956449,-7105.977043,1532.190996
1130.917044,7031.956449,-6809.894666,1149.143247
1130.917373,7179.997637,-5773.606348,842.705048
1130.917703,7179.997637,-5625.565159,1072.533697
1130.918032,7254.018232,-5329.482782,1762.019645
1130.918361,7550.100608,-5995.668130,1532.190996
1130.918690,7476.080014,-5699.585753,1302.362347
1130.919019,7402.059420,-5847.626942,1149.143247
1130.919348,7328.038826,-6513.812290,1762.019645
1130.919677,7328.038826,-7179.997637,995.924147
1130.920007,6735.874072,-6957.935855,1455.581446
1130.920336,6661.853478,-7031.956449,995.924147
1130.920665,6661.853478,-6735.874072,612.876398
1130.920994,6587.832884,-6365.771101,766.095498
1130.921323,6661.853478,-7402.059420,995.924147
1130.921653,6365.771101,-6439.791695,689.485948
1130.921982,6365.771101,-5921.647536,536.266849
1130.922311,6661.853478,-5477.523971,842.705048
1130.922640,8068.244768,-5773.606348,1149.143247
1130.922969,7476.080014,-6217.729913,1302.362347
1130.923299,7179.997637,-5551.544565,919.314598
1130.923628,7328.038826,-5921.647536,842.705048
1130.923957,7846.182985,-5773.606348,1455.581446
1130.924286,7624.121203,-6883.915261,1225.752797
1130.924615,7402.059420,-7179.997637,1149.143247
1130.924944,6735.874072,-7105.977043,1225.752797
1130.925273,6883.915261,-6883.915261,1532.190996
1130.925602,7179.997637,-6661.853478,1072.533697
1130.925931,6735.874072,-7254.018232,1455.581446
1130.926260,6439.791695,-6957.935855,1302.362347
1130.926589,6513.812290,-6661.853478,1455.581446
1130.926918,6513.812290,-6365.771101,1532.190996
1130.927247,7031.956449,-6513.812290,689.485948
1130.927576,7105.977043,-6513.812290,1072.533697
1130.927905,7031.956449,-6217.729913,1225.752797
1130.928234,7105.977043,-6217.729913,995.924147
1130.928563,6809.894666,-5921.647536,1302.362347
1130.928892,7179.997637,-7105.977043,919.314598
1130.929221,7105.977043,-7031.956449,995.924147
1130.929550,6809.894666,-6883.915261,689.485948
1130.929879,6661.853478,-7031.956449,229.828649
1130.930208,6735.874072,-7105.977043,1302.362347
1130.930538,6513.812290,-6735.874072,689.485948
1130.930867,6291.750507,-6661.853478,459.657299
1130.931196,6513.812290,-6439.791695,612.876398
1130.931525,6439.791695,-6661.853478,766.095498
1130.931854,6883.915261,-6809.894666,612.876398
1130.932183,6883.915261,-6661.853478,919.314598
1130.932512,7105.977043,-6291.750507,1072.533697
1130.932841,7254.018232,-6365.771101,1455.581446
1130.933170,7846.182985,-6809.894666,1378.971896
1130.933499,7698.141797,-6957.935855,1762.019645
1130.933828,7624.121203,-6661.853478,1455.581446
1130.934157,7328.038826,-6291.750507,1225.752797
1130.934486,6661.853478,-6439.791695,1608.800546
1130.934815,7031.956449,-6661.853478,1532.190996
1130.935144,6883.915261,-6513.812290,995.924147
1130.935473,6587.832884,-6217.729913,689.485948
1130.935802,6439.791695,-6587.832884,919.314598
1130.936131,6735.874072,-6661.853478,1149.143247
1130.936460,6587.832884,-6291.750507,689.485948
1130.936789,6735.874072,-6291.750507,842.705048
1130.937118,6365.771101,-6143.709319,842.705048
1130.937447,7624.121203,-5847.626942,689.485948
1130.937777,8068.244768,-5921.647536,1225.752797
1130.938106,8068.244768,-6143.709319,1378.971896
1130.938435,7402.059420,-6291.750507,995.924147
1130.938764,6957.935855,-6069.688724,459.657299
1130.939093,6883.915261,-6439.791695,612.876398
1130.939422,7328.038826,-6587.832884,1149.143247
1130.939751,7402.059420,-6883.915261,1149.143247
1130.940080,7179.997637,-6809.894666,1149.143247
1130.940409,6587.832884,-6735.874072,1302.362347
1130.940738,5847.626942,-6883.915261,1378.971896
1130.941067,6587.832884,-7254.018232,1072.533697
1130.941396,7105.977043,-7179.997637,1685.410096
1130.941725,7179.997637,-6735.874072,1378.971896
1130.942054,6883.915261,-6143.709319,1685.410096
1130.942383,7031.956449,-6143.709319,1225.752797
1130.942712,7254.018232,-6291.750507,1685.410096
1130.943041,7550.100608,-6735.874072,1302.362347
1130.943370,6809.894666,-6365.771101,995.924147
1130.943699,6365.771101,-6069.688724,383.047749
1130.944028,6587.832884,-6661.853478,536.266849
1130.944357,6587.832884,-7105.977043,995.924147
1130.944686,6513.812290,-7402.059420,995.924147
1130.945016,6439.791695,-7031.956449,689.485948
1130.945345,6291.750507,-6883.915261,383.047749
1130.945674,6291.750507,-6957.935855,766.095498
1130.946003,6513.812290,-7031.956449,766.095498
1130.946332,6809.894666,-7105.977043,536.266849
1130.946661,6957.935855,-6661.853478,383.047749
1130.946990,6957.935855,-6291.750507,919.314598
1130.947319,7476.080014,-6291.750507,995.924147
1130.947648,7624.121203,-6143.709319,1302.362347
1130.947977,7254.018232,-6069.688724,1378.971896
1130.948306,7550.100608,-5625.565159,1455.581446
1130.948635,7698.141797,-6069.688724,1532.190996
1130.948964,7476.080014,-6439.791695,1455.581446
1130.949293,6513.812290,-6587.832884,995.924147
1130.949622,6587.832884,-6513.812290,842.705048
1130.949951,6217.729913,-7179.997637,1455.581446
1130.950280,6365.771101,-7179.997637,2145.067394
1130.950609,7031.956449,-6883.915261,919.314598
1130.950938,7105.977043,-6069.688724,995.924147
1130.951267,6735.874072,-5773.606348,1455.581446
1130.951596,6883.915261,-6217.729913,766.095498
1130.951925,6735.874072,-6217.729913,536.266849
1130.952255,6809.894666,-6217.729913,459.657299
1130.952584,7105.977043,-6217.729913,612.876398
1130.952913,7624.121203,-6883.915261,1149.143247
1130.953242,7476.080014,-6439.791695,76.609550
1130.953571,7402.059420,-6217.729913,995.924147
1130.953900,7254.018232,-6439.791695,995.924147
1130.954229,7105.977043,-6291.750507,919.314598
1130.954558,6883.915261,-6735.874072,1072.533697
1130.954887,6587.832884,-6957.935855,842.705048
1130.955216,6439.791695,-7179.997637,919.314598
1130.955545,6365.771101,-7105.977043,1225.752797
1130.955874,6217.729913,-6809.894666,536.266849
1130.956203,6587.832884,-6587.832884,842.705048
1130.956532,6957.935855,-6291.750507,919.314598
1130.956861,7698.141797,-6365.771101,1608.800546
1130.957190,7698.141797,-6217.729913,1838.629195
1130.957519,7698.141797,-5847.626942,1532.190996
1130.957848,7550.100608,-5995.668130,1378.971896
1130.958177,7328.038826,-6291.750507,1225.752797
1130.958506,7254.018232,-6883.915261,1225.752797
1130.958835,7254.018232,-7328.038826,1149.143247
1130.959164,6735.874072,-6957.935855,842.705048
1130.959494,6439.791695,-7179.997637,459.657299
1130.959823,5995.668130,-6809.894666,306.438199
1130.960152,5551.544565,-7328.038826,306.438199
1130.960481,6513.812290,-7105.977043,153.219100
1130.960810,6439.791695,-7105.977043,689.485948
1130.961139,6661.853478,-6069.688724,383.047749
1130.961468,6439.791695,-6365.771101,766.095498
1130.961797,7031.956449,-5921.647536,689.485948
1130.962126,7105.977043,-7105.977043,995.924147
1130.962455,7179.997637,-6587.832884,1762.019645
1130.962784,7772.162391,-5995.668130,1225.752797
1130.963113,7698.141797,-6217.729913,1455.581446
1130.963442,7328.038826,-6217.729913,2298.286494
1130.963771,7031.956449,-7179.997637,1608.800546
1130.964100,6957.935855,-6735.874072,1762.019645
1130.964429,6809.894666,-6291.750507,1149.143247
1130.964758,6809.894666,-6439.791695,1838.629195
1130.965087,6809.894666,-6735.874072,1225.752797
1130.965416,6735.874072,-7105.977043,1302.362347
1130.965745,6661.853478,-6587.832884,1225.752797
1130.966074,6069.688724,-6291.750507,1149.143247
1130.966403,6513.812290,-5921.647536,1072.533697
1130.966732,6661.853478,-6809.894666,689.485948
1130.967062,6883.915261,-6957.935855,1072.533697
1130.967391,7105.977043,-6365.771101,612.876398
1130.967720,7254.018232,-5699.585753,919.314598
1130.968049,7328.038826,-5107.421000,842.705048
1130.968378,8216.285956,-6439.791695,1762.019645
1130.968707,8068.244768,-6217.729913,1378.971896
1130.969036,7179.997637,-5847.626942,536.266849
1130.969365,6957.935855,-6069.688724,0.000000
1130.969694,6809.894666,-5995.668130,306.438199
1130.970023,7328.038826,-7031.956449,1072.533697
1130.970352,8068.244768,-6439.791695,1149.143247
1130.970681,7179.997637,-6291.750507,689.485948
1130.971010,7031.956449,-6661.853478,0.000000
1130.971339,7105.977043,-7031.956449,1378.971896
1130.971668,7105.977043,-7254.018232,1149.143247
1130.971997,6957.935855,-6957.935855,1378.971896
1130.972326,6365.771101,-6439.791695,1302.362347
1130.972655,7105.977043,-7031.956449,842.705048
1130.972984,7402.059420,-6809.894666,1455.581446
1130.973313,6957.935855,-6513.812290,1532.190996
1130.973642,6513.812290,-6735.874072,919.314598
1130.973971,6439.791695,-6439.791695,1838.629195
1130.974301,6587.832884,-7105.977043,842.705048
1130.974630,6439.791695,-6883.915261,459.657299
1130.974959,6439.791695,-7328.038826,689.485948
1130.975288,6735.874072,-7179.997637,536.266849
1130.975617,6365.771101,-6439.791695,153.219100
1130.975946,6439.791695,-7031.956449,459.657299
1130.976275,7031.956449,-7105.977043,842.705048
1130.976604,6957.935855,-7105.977043,919.314598
1130.976933,6143.709319,-6661.853478,842.705048
1130.977262,6217.729913,-6291.750507,842.705048
1130.977591,6439.791695,-6513.812290,612.876398
1130.977920,7105.977043,-6217.729913,1532.190996
1130.978249,7402.059420,-6291.750507,1608.800546
1130.978578,7846.182985,-5773.606348,1532.190996
1130.978907,7550.100608,-5551.544565,2068.457845
1130.979236,7550.100608,-5403.503377,2068.457845
1130.979565,7402.059420,-5995.668130,1378.971896
1130.979894,7105.977043,-6143.709319,1532.190996
1130.980223,6883.915261,-6069.688724,919.314598
1130.980552,6661.853478,-6957.935855,1378.971896
1130.980881,6661.853478,-7254.018232,995.924147
1130.981210,6587.832884,-7402.059420,1149.143247
1130.981540,6661.853478,-7179.997637,1762.019645
1130.981869,6661.853478,-7105.977043,1532.190996
1130.982198,6661.853478,-6661.853478,689.485948
1130.982527,6217.729913,-6661.853478,612.876398
1130.982856,7031.956449,-6365.771101,689.485948
1130.983185,7105.977043,-6587.832884,536.266849
1130.983514,7328.038826,-6143.709319,1072.533697
1130.983843,7179.997637,-6069.688724,766.095498
1130.984172,7624.121203,-5773.606348,1072.533697
1130.984501,7698.141797,-5551.544565,1915.238745
1130.984830,7698.141797,-6587.832884,1302.362347
1130.985159,7402.059420,-6069.688724,1149.143247
1130.985488,7328.038826,-6513.812290,1072.533697
1130.985817,7328.038826,-6661.853478,842.705048
1130.986146,6957.935855,-6883.915261,1378.971896
1130.986475,6217.729913,-7105.977043,612.876398
1130.986804,6291.750507,-6883.915261,919.314598
1130.987133,6587.832884,-6735.874072,1072.533697
1130.987462,7105.977043,-6735.874072,1608.800546
1130.987791,7550.100608,-6291.750507,1532.190996
1130.988120,7550.100608,-5699.585753,1532.190996
1130.988449,7254.018232,-6291.750507,1225.752797
1130.988779,7179.997637,-5921.647536,1225.752797
1130.989108,7179.997637,-5847.626942,1225.752797
1130.989437,7328.038826,-6587.832884,1149.143247
1130.989766,7254.018232,-6809.894666,1225.752797
1130.990095,7031.956449,-6957.935855,766.095498
1130.990424,6513.812290,-7402.059420,536.266849
1130.990753,6291.750507,-7254.018232,919.314598
1130.991082,6069.688724,-7328.038826,229.828649
1130.991411,6365.771101,-7402.059420,766.095498
1130.991740,6143.709319,-7698.141797,612.876398
1130.992069,6217.729913,-7105.977043,536.266849
1130.992398,6069.688724,-6661.853478,612.876398
1130.992727,6439.791695,-6513.812290,459.657299
1130.993056,7254.018232,-6365.771101,1378.971896
1130.993385,7476.080014,-6587.832884,1455.581446
1130.993714,7698.141797,-6217.729913,1225.752797
1130.994043,7328.038826,-5847.626942,1378.971896
1130.994372,7476.080014,-6365.771101,1302.362347
1130.994701,7624.121203,-6513.812290,1532.190996
1130.995030,7179.997637,-6661.853478,2604.724693
1130.995359,7031.956449,-7105.977043,1378.971896
1130.995688,6069.688724,-6513.812290,689.485948
1130.996018,6513.812290,-6883.915261,842.705048
1130.996347,6735.874072,-7031.956449,1532.190996
1130.996676,6883.915261,-6883.915261,1608.800546
1130.997005,6587.832884,-6069.688724,612.876398
1130.997334,6513.812290,-6365.771101,306.438199
1130.997663,6291.750507,-6661.853478,689.485948
1130.997992,6735.874072,-6883.915261,1072.533697
1130.998321,6809.894666,-6217.729913,766.095498
1130.998650,7328.038826,-5995.668130,1149.143247
1130.998979,8142.265362,-6291.750507,1302.362347
1130.999308,8142.265362,-6291.750507,1072.533697
1130.999637,7920.203579,-6069.688724,842.705048
1130.999966,7105.977043,-6365.771101,306.438199
1131.000295,6587.832884,-5921.647536,153.219100
1131.000624,6809.894666,-6587.832884,919.314598
1131.000953,7698.141797,-6587.832884,1302.362347
1131.001282,7624.121203,-5995.668130,1455.581446
1131.001611,6661.853478,-6291.750507,689.485948
1131.001940,6365.771101,-5921.647536,919.314598
1131.002269,7031.956449,-6217.729913,612.876398
1131.002598,7254.018232,-6291.750507,1838.629195
1131.002927,7402.059420,-6587.832884,1302.362347
1131.003257,7624.121203,-6513.812290,1532.190996
1131.003586,7105.977043,-6661.853478,1225.752797
1131.003915,7328.038826,-6809.894666,1225.752797
1131.004244,7254.018232,-6587.832884,919.314598
1131.004573,7031.956449,-6883.915261,1378.971896
1131.004902,6735.874072,-7105.977043,842.705048
1131.005231,6439.791695,-6883.915261,1225.752797
1131.005560,6735.874072,-7328.038826,536.266849
1131.005889,6143.709319,-6883.915261,459.657299
1131.006218,6069.688724,-6883.915261,536.266849
1131.006547,6291.750507,-6513.812290,76.609550
1131.006876,6809.894666,-6735.874072,995.924147
1131.007205,7179.997637,-6883.915261,536.266849
1131.007534,6809.894666,-6513.812290,766.095498
1131.007863,6217.729913,-6735.874072,766.095498
1131.008192,6513.812290,-6661.853478,612.876398
1131.008521,6957.935855,-6661.853478,1149.143247
1131.008850,7698.141797,-6809.894666,1455.581446
1131.009179,8142.265362,-6291.750507,1455.581446
1131.009508,7402.059420,-6217.729913,1532.190996
1131.009837,7179.997637,-5625.565159,1915.238745
1131.010166,7328.038826,-5625.565159,1532.190996
1131.010496,7254.018232,-6143.709319,1378.971896
1131.010825,6957.935855,-6439.791695,1302.362347
1131.011154,6735.874072,-6217.729913,919.314598
1131.011483,6661.853478,-6291.750507,1225.752797
1131.011812,6735.874072,-7031.956449,1608.800546
1131.012141,6883.915261,-7179.997637,1149.143247
1131.012470,6587.832884,-7550.100608,919.314598
1131.012799,6439.791695,-6809.894666,766.095498
1131.013128,6143.709319,-7105.977043,1302.362347
1131.013457,6513.812290,-7254.018232,919.314598
1131.013786,6809.894666,-7105.977043,842.705048
1131.014115,7105.977043,-6587.832884,1072.533697
1131.014444,7402.059420,-6439.791695,1149.143247
1131.014773,7698.141797,-6291.750507,1302.362347
1131.015102,7105.977043,-5625.565159,1378.971896
1131.015431,7402.059420,-5995.668130,766.095498
1131.015760,7476.080014,-5773.606348,459.657299
1131.016089,7550.100608,-5699.585753,842.705048
1131.016418,7698.141797,-6291.750507,919.314598
1131.016747,7105.977043,-6661.853478,919.314598
1131.017076,6661.853478,-6735.874072,1149.143247
1131.017405,6735.874072,-6883.915261,919.314598
1131.017735,6809.894666,-6883.915261,1838.629195
1131.018064,7179.997637,-6587.832884,1685.410096
1131.018393,7550.100608,-6735.874072,1225.752797
1131.018722,7254.018232,-6513.812290,1302.362347
1131.019051,7105.977043,-6661.853478,1378.971896
1131.019380,7031.956449,-7105.977043,1378.971896
1131.019709,7031.956449,-6069.688724,1225.752797
1131.020038,7105.977043,-6735.874072,1225.752797
1131.020367,6809.894666,-6661.853478,1072.533697
1131.020696,6883.915261,-6661.853478,1532.190996
1131.021025,7031.956449,-6365.771101,842.705048
1131.021354,6809.894666,-6143.709319,459.657299
1131.021683,6735.874072,-6883.915261,153.219100
1131.022012,6661.853478,-6661.853478,536.266849
1131.022341,6439.791695,-7031.956449,1072.533697
1131.022671,6439.791695,-7179.997637,612.876398
1131.023000,6513.812290,-6883.915261,612.876398
1131.023329,6439.791695,-6883.915261,612.876398
1131.023658,6587.832884,-7031.956449,536.266849
1131.023987,7550.100608,-7254.018232,1532.190996
1131.024316,7402.059420,-6883.915261,1225.752797
1131.024645,7105.977043,-5995.668130,1532.190996
1131.024974,7031.956449,-5995.668130,1072.533697
1131.025303,6957.935855,-5921.647536,1149.143247
1131.025632,7105.977043,-6291.750507,1225.752797
1131.025961,7328.038826,-6439.791695,1608.800546
1131.026291,7402.059420,-5995.668130,1378.971896
1131.026620,7179.997637,-6217.729913,1225.752797
1131.026949,7031.956449,-6069.688724,612.876398
1131.027278,7105.977043,-6957.935855,766.095498
1131.027607,6809.894666,-6809.894666,689.485948
1131.027936,6661.853478,-6883.915261,766.095498
1131.028265,6883.915261,-6735.874072,995.924147
1131.028594,6883.915261,-6587.832884,229.828649
1131.028923,6439.791695,-7105.977043,919.314598
1131.029252,5699.585753,-6661.853478,689.485948
1131.029581,6735.874072,-6587.832884,766.095498
1131.029910,7624.121203,-6587.832884,689.485948
1131.030240,7105.977043,-5699.585753,1302.362347
1131.030569,7105.977043,-6143.709319,1072.533697
1131.030898,6883.915261,-5921.647536,536.266849
1131.031227,6809.894666,-6217.729913,612.876398
1131.031556,7550.100608,-5551.544565,1149.143247
1131.031885,8438.347739,-5403.503377,1149.143247
1131.032214,7994.224174,-6217.729913,1302.362347
1131.032543,7402.059420,-6291.750507,1149.143247
1131.032872,6883.915261,-6513.812290,1072.533697
1131.033201,7105.977043,-6883.915261,229.828649
1131.033530,6883.915261,-7105.977043,1149.143247
1131.033860,6735.874072,-7105.977043,995.924147
1131.034189,6587.832884,-6809.894666,1072.533697
1131.034518,6661.853478,-6735.874072,1532.190996
1131.034847,7105.977043,-6735.874072,1378.971896
1131.035176,6957.935855,-6365.771101,1149.143247
1131.035505,7254.018232,-6513.812290,1225.752797
1131.035834,6513.812290,-6883.915261,1072.533697
1131.036163,6365.771101,-6957.935855,1072.533697
1131.036492,6365.771101,-6661.853478,383.047749
1131.036821,6587.832884,-6587.832884,459.657299
1131.037150,6661.853478,-6883.915261,536.266849
1131.037479,7698.141797,-6957.935855,1072.533697
1131.037809,7179.997637,-6513.812290,689.485948
1131.038138,7105.977043,-6957.935855,919.314598
1131.038467,6587.832884,-6809.894666,459.657299
1131.038796,6661.853478,-6217.729913,766.095498
1131.039125,6735.874072,-6883.915261,1378.971896
1131.039454,6883.915261,-6883.915261,1302.362347
1131.039783,6957.935855,-7105.977043,1608.800546
1131.040112,7105.977043,-6439.791695,1455.581446
1131.040441,7254.018232,-6069.688724,1762.019645
1131.040770,7031.956449,-5921.647536,1378.971896
1131.041099,6957.935855,-6217.729913,1378.971896
1131.041429,7328.038826,-6439.791695,1532.190996
1131.041758,7328.038826,-6069.688724,1685.410096
1131.042087,7402.059420,-6291.750507,995.924147
1131.042416,6957.935855,-6513.812290,1378.971896
1131.042745,7031.956449,-6809.894666,1072.533697
1131.043074,7105.977043,-7031.956449,1072.533697
1131.043403,6809.894666,-6217.729913,1302.362347
1131.043732,6883.915261,-6291.750507,766.095498
1131.044061,6735.874072,-6735.874072,689.485948
1131.044390,6513.812290,-6809.894666,689.485948
1131.044719,6291.750507,-6883.915261,612.876398
1131.045049,6883.915261,-5699.585753,1225.752797
1131.045378,7105.977043,-6957.935855,995.924147
1131.045707,7254.018232,-6217.729913,842.705048
1131.046036,7328.038826,-6291.750507,1072.533697
1131.046365,7105.977043,-6735.874072,919.314598
1131.046694,7402.059420,-5699.585753,153.219100
1131.047023,7402.059420,-6143.709319,995.924147
1131.047352,7846.182985,-6587.832884,1072.533697
1131.047681,7328.038826,-6661.853478,1378.971896
1131.048010,6809.894666,-6439.791695,919.314598
1131.048339,6587.832884,-6291.750507,842.705048
1131.048668,7105.977043,-6735.874072,1302.362347
1131.048998,7031.956449,-6809.894666,1455.581446
1131.049327,7624.121203,-6587.832884,1149.143247
1131.049656,7031.956449,-6587.832884,1149.143247
1131.049985,6735.874072,-6217.729913,1072.533697
1131.050314,6587.832884,-6735.874072,995.924147
1131.050643,6883.915261,-6735.874072,1225.752797
1131.050972,7402.059420,-6587.832884,995.924147
1131.051301,6883.915261,-6513.812290,1532.190996
1131.051630,6439.791695,-6513.812290,842.705048
1131.051959,6587.832884,-6957.935855,459.657299
1131.052288,6513.812290,-6883.915261,536.266849
1131.052618,7254.018232,-7105.977043,1378.971896
1131.052947,6957.935855,-6957.935855,995.924147
1131.053276,6661.853478,-6217.729913,459.657299
1131.053605,6513.812290,-6069.688724,459.657299
1131.053934,7031.956449,-6809.894666,536.266849
1131.054263,6513.812290,-7179.997637,383.047749
1131.054592,6735.874072,-7031.956449,919.314598
1131.054921,7031.956449,-6513.812290,842.705048
1131.055250,7031.956449,-6809.894666,1225.752797
1131.055579,6957.935855,-7031.956449,2145.067394
1131.055908,7031.956449,-7105.977043,1532.190996
1131.056238,6957.935855,-6809.894666,1225.752797
1131.056567,7105.977043,-6439.791695,1302.362347
1131.056896,7105.977043,-6291.750507,1378.971896
1131.057225,6957.935855,-6217.729913,1762.019645
1131.057554,6883.915261,-6587.832884,1378.971896
1131.057883,7105.977043,-6291.750507,1225.752797
1131.058212,7105.977043,-6217.729913,995.924147
1131.058541,7624.121203,-5699.585753,842.705048
1131.058870,7105.977043,-6661.853478,689.485948
1131.059199,6883.915261,-6661.853478,1149.143247
1131.059528,6587.832884,-6957.935855,766.095498
1131.059857,6439.791695,-6661.853478,612.876398
1131.060187,6735.874072,-6291.750507,1302.362347
1131.060516,7476.080014,-6587.832884,1149.143247
1131.060845,7624.121203,-6587.832884,1532.190996
1131.061174,7476.080014,-6143.709319,995.924147
1131.061503,7105.977043,-6217.729913,612.876398
1131.061832,6883.915261,-5773.606348,383.047749
1131.062161,7254.018232,-6439.791695,919.314598
1131.062490,7846.182985,-5773.606348,1149.143247
1131.062819,7624.121203,-5921.647536,612.876398
1131.063148,7402.059420,-5699.585753,383.047749
1131.063477,7105.977043,-6217.729913,995.924147
1131.063807,7105.977043,-6883.915261,1378.971896
1131.064136,7179.997637,-6661.853478,1532.190996
1131.064465,7105.977043,-6809.894666,1149.143247
1131.064794,7624.121203,-6809.894666,1302.362347
1131.065123,6661.853478,-6513.812290,1225.752797
1131.065452,6883.915261,-6883.915261,1378.971896
1131.065781,6883.915261,-6883.915261,1225.752797
1131.066110,6735.874072,-6365.771101,919.314598
1131.066439,6661.853478,-6883.915261,919.314598
1131.066768,6513.812290,-6291.750507,766.095498
1131.067097,6513.812290,-7031.956449,842.705048
1131.067426,6587.832884,-7105.977043,459.657299
1131.067756,6439.791695,-6809.894666,995.924147
1131.068085,6809.894666,-6513.812290,842.705048
1131.068414,7031.956449,-7105.977043,1072.533697
1131.068743,7105.977043,-7402.059420,1072.533697
1131.069072,6735.874072,-7179.997637,842.705048
1131.069401,6143.709319,-6661.853478,459.657299
1131.069730,6587.832884,-6883.915261,536.266849
1131.070059,7105.977043,-7179.997637,1378.971896
1131.070388,7328.038826,-7179.997637,1608.800546
1131.070717,6883.915261,-6587.832884,1149.143247
1131.071046,6439.791695,-5847.626942,612.876398
1131.071376,6957.935855,-6143.709319,1072.533697
1131.071705,7254.018232,-6439.791695,1149.143247
1131.072034,7328.038826,-6439.791695,1915.238745
1131.072363,7476.080014,-6217.729913,1378.971896
1131.072692,6957.935855,-5773.606348,1149.143247
1131.073021,6883.915261,-6735.874072,1378.971896
1131.073350,7031.956449,-7328.038826,1762.019645
1131.073679,7031.956449,-6735.874072,1455.581446
1131.074008,7105.977043,-6439.791695,919.314598
1131.074337,7402.059420,-5551.544565,995.924147
1131.074666,7105.977043,-6661.853478,1225.752797
1131.074996,6809.894666,-6661.853478,1225.752797
1131.075325,7105.977043,-5921.647536,612.876398
1131.075654,6957.935855,-5107.421000,459.657299
1131.075983,7328.038826,-5847.626942,842.705048
1131.076312,7624.121203,-6439.791695,919.314598
1131.076641,7402.059420,-6291.750507,1455.581446
1131.076970,7105.977043,-6217.729913,306.438199
1131.077299,7105.977043,-6069.688724,536.266849
1131.077628,7254.018232,-6365.771101,1302.362347
1131.077957,7328.038826,-7105.977043,1225.752797
1131.078286,6957.935855,-7254.018232,1378.971896
1131.078615,6735.874072,-6735.874072,1072.533697
1131.078945,6291.750507,-6661.853478,689.485948
1131.079274,6809.894666,-6587.832884,689.485948
1131.079603,7031.956449,-6143.709319,1225.752797
1131.079932,7476.080014,-6291.750507,1455.581446
1131.080261,7328.038826,-5625.565159,1762.019645
1131.080590,7254.018232,-5847.626942,1455.581446
1131.080919,7031.956449,-6291.750507,995.924147
1131.081248,6883.915261,-6217.729913,995.924147
1131.081577,7031.956449,-6735.874072,1072.533697
1131.081906,6513.812290,-7476.080014,1225.752797
1131.082235,6365.771101,-7772.162391,1072.533697
1131.082565,6217.729913,-7476.080014,536.266849
1131.082894,6513.812290,-6439.791695,536.266849
1131.083223,6661.853478,-7105.977043,612.876398
1131.083552,6661.853478,-7550.100608,919.314598
1131.083881,6661.853478,-7179.997637,919.314598
1131.084210,6809.894666,-6217.729913,383.047749
1131.084539,6661.853478,-5403.503377,995.924147
1131.084868,7031.956449,-6513.812290,995.924147
1131.085197,7179.997637,-6439.791695,1225.752797
1131.085526,7328.038826,-6661.853478,1762.019645
1131.085855,7550.100608,-6069.688724,995.924147
1131.086184,7624.121203,-5699.585753,1302.362347
1131.086514,7402.059420,-6661.853478,1532.190996
1131.086843,7105.977043,-7105.977043,1838.629195
1131.087172,6883.915261,-7105.977043,1762.019645
1131.087501,7105.977043,-6957.935855,1302.362347
1131.087830,6661.853478,-6513.812290,1149.143247
1131.088159,6735.874072,-6957.935855,919.314598
1131.088488,6809.894666,-7105.977043,1455.581446
1131.088817,6513.812290,-6587.832884,1915.238745
1131.089146,6809.894666,-5995.668130,1225.752797
1131.089475,6883.915261,-5625.565159,842.705048
1131.089804,6809.894666,-6513.812290,842.705048
1131.090134,6661.853478,-6735.874072,1149.143247
1131.090463,6735.874072,-6217.729913,995.924147
1131.090792,7031.956449,-5847.626942,689.485948
1131.091121,7698.141797,-5995.668130,1225.752797
1131.091450,7846.182985,-6883.915261,1608.800546
1131.091779,7920.203579,-6143.709319,919.314598
1131.092108,6957.935855,-6143.709319,766.095498
1131.092437,6661.853478,-6661.853478,459.657299
1131.092766,6883.915261,-6883.915261,689.485948
1131.093095,6957.935855,-6809.894666,1072.533697
1131.093424,7772.162391,-6217.729913,1378.971896
1131.093754,7031.956449,-6069.688724,995.924147
1131.094083,6883.915261,-6365.771101,919.314598
1131.094412,6957.935855,-6661.853478,1225.752797
1131.094741,7476.080014,-6513.812290,1225.752797
1131.095070,7698.141797,-5847.626942,1608.800546
1131.095399,7328.038826,-6217.729913,1455.581446
1131.095728,7402.059420,-6439.791695,1455.581446
1131.096057,7105.977043,-6661.853478,1608.800546
1131.096386,7402.059420,-6957.935855,1532.190996
1131.096715,7105.977043,-7031.956449,1302.362347
1131.097044,7105.977043,-6587.832884,919.314598
1131.097373,6661.853478,-7105.977043,1225.752797
1131.097703,6587.832884,-6883.915261,536.266849
1131.098032,6365.771101,-7105.977043,383.047749
1131.098361,5699.585753,-7179.997637,229.828649
1131.098690,6069.688724,-6587.832884,76.609550
1131.099019,6365.771101,-6883.915261,612.876398
1131.099348,7105.977043,-7105.977043,0.000000
1131.099677,6513.812290,-6883.915261,689.485948
1131.100006,6661.853478,-6957.935855,536.266849
1131.100335,6957.935855,-6809.894666,612.876398
1131.100664,6957.935855,-7031.956449,842.705048
1131.100993,7328.038826,-6735.874072,1149.143247
1131.101323,7402.059420,-6957.935855,1225.752797
1131.101652,7328.038826,-6735.874072,1378.971896
1131.101981,7328.038826,-6217.729913,1225.752797
1131.102310,7476.080014,-6069.688724,2068.457845
1131.102639,7698.141797,-6217.729913,1762.019645
1131.102968,7254.018232,-6439.791695,1532.190996
1131.103297,7031.956449,-5921.647536,995.924147
1131.103626,6513.812290,-6217.729913,919.314598
1131.103955,6883.915261,-6587.832884,1149.143247
1131.104284,6735.874072,-7254.018232,1378.971896
1131.104613,7105.977043,-7179.997637,1455.581446
1131.104943,7254.018232,-6587.832884,1072.533697
1131.105272,6291.750507,-6661.853478,919.314598
1131.105601,6587.832884,-6513.812290,1149.143247
1131.105930,7328.038826,-6661.853478,1225.752797
1131.106259,7328.038826,-6217.729913,995.924147
1131.106588,7328.038826,-5625.565159,842.705048
1131.106917,7328.038826,-6365.771101,842.705048
1131.107246,7328.038826,-6365.771101,919.314598
1131.107575,7179.997637,-6587.832884,919.314598
1131.107904,7031.956449,-6217.729913,842.705048
1131.108233,6439.791695,-6143.709319,612.876398
1131.108562,7105.977043,-6439.791695,536.266849
1131.108892,6957.935855,-6883.915261,1378.971896
1131.109221,6735.874072,-7031.956449,689.485948
1131.109550,6587.832884,-6587.832884,1072.533697
1131.109879,6587.832884,-6143.709319,1762.019645
1131.110208,7105.977043,-6809.894666,1532.190996
1131.110537,7105.977043,-6439.791695,1762.019645
1131.110866,7550.100608,-6439.791695,1685.410096
1131.111195,7698.141797,-7031.956449,1608.800546
1131.111524,7179.997637,-5921.647536,1455.581446
1131.111853,7031.956449,-6217.729913,1072.533697
1131.112182,7031.956449,-6439.791695,1455.581446
1131.112512,7031.956449,-6883.915261,1455.581446
1131.112841,6957.935855,-7031.956449,1072.533697
1131.113170,6439.791695,-6587.832884,689.485948
1131.113499,6439.791695,-7105.977043,459.657299
1131.113828,6143.709319,-7476.080014,229.828649
1131.114157,6661.853478,-7254.018232,689.485948
1131.114486,6661.853478,-7105.977043,1302.362347
1131.114815,6957.935855,-7179.997637,842.705048
1131.115144,6957.935855,-6809.894666,842.705048
1131.115473,6809.894666,-6513.812290,766.095498
1131.115802,6735.874072,-6587.832884,459.657299
1131.116131,6809.894666,-6291.750507,1378.971896
1131.116461,7254.018232,-6439.791695,1225.752797
1131.116790,7402.059420,-6439.791695,1149.143247
1131.117119,7402.059420,-6587.832884,1455.581446
1131.117448,7402.059420,-6735.874072,1532.190996
1131.117777,7031.956449,-6735.874072,1608.800546
1131.118106,7179.997637,-7105.977043,1378.971896
1131.118435,7254.018232,-6439.791695,1455.581446
1131.118764,7031.956449,-6513.812290,689.485948
1131.119093,6587.832884,-6513.812290,536.266849
1131.119422,6661.853478,-6735.874072,995.924147
1131.119751,6735.874072,-6587.832884,766.095498
1131.120081,6587.832884,-6143.709319,766.095498
1131.120410,6735.874072,-6513.812290,919.314598
1131.120739,6587.832884,-6957.935855,536.266849
1131.121068,6587.832884,-6513.812290,919.314598
1131.121397,7179.997637,-6365.771101,1149.143247
1131.121726,7624.121203,-5995.668130,995.924147
1131.122055,8142.265362,-5625.565159,2145.067394
1131.122384,7920.203579,-5699.585753,1302.362347
1131.122713,7624.121203,-6143.709319,842.705048
1131.123042,7402.059420,-6217.729913,919.314598
1131.123371,7105.977043,-5995.668130,459.657299
1131.123700,7105.977043,-5699.585753,995.924147
1131.124029,7402.059420,-5921.647536,995.924147
1131.124358,6809.894666,-7105.977043,995.924147
1131.124687,6735.874072,-6883.915261,1072.533697
1131.125016,6439.791695,-6587.832884,1072.533697
1131.125345,6513.812290,-7105.977043,689.485948
1131.125675,7105.977043,-6661.853478,1762.019645
1131.126004,7105.977043,-7105.977043,1532.190996
1131.126333,7031.956449,-6439.791695,1225.752797
1131.126662,6809.894666,-6661.853478,1915.238745
1131.126991,7179.997637,-6883.915261,1532.190996
1131.127320,7179.997637,-6735.874072,1685.410096
1131.127649,7624.121203,-6883.915261,1302.362347
1131.127978,6957.935855,-6217.729913,842.705048
1131.128307,6217.729913,-6661.853478,842.705048
1131.128636,5995.668130,-7105.977043,383.047749
1131.128965,5921.647536,-7031.956449,383.047749
1131.129294,6143.709319,-7328.038826,229.828649
1131.129623,6439.791695,-6661.853478,76.609550
1131.129952,6587.832884,-6883.915261,766.095498
1131.130281,7031.956449,-6957.935855,1225.752797
1131.130610,7105.977043,-6809.894666,1072.533697
1131.130939,6809.894666,-6735.874072,1072.533697
1131.131268,7105.977043,-5995.668130,306.438199
1131.131597,6883.915261,-6809.894666,1149.143247
1131.131926,7328.038826,-7254.018232,1685.410096
1131.132255,7550.100608,-6513.812290,1532.190996
1131.132584,7550.100608,-6143.709319,1302.362347
1131.132913,7254.018232,-5699.585753,1302.362347
1131.133242,7698.141797,-5847.626942,1608.800546
1131.133571,7550.100608,-6143.709319,1302.362347
1131.133901,7105.977043,-6513.812290,1225.752797
1131.134230,7624.121203,-6957.935855,689.485948
1131.134559,6661.853478,-6439.791695,1149.143247
1131.134888,6439.791695,-6661.853478,842.705048
1131.135217,6661.853478,-7105.977043,1302.362347
1131.135546,6809.894666,-7402.059420,1455.581446
1131.135875,6883.915261,-6587.832884,919.314598
1131.136204,6809.894666,-6365.771101,766.095498
1131.136533,6809.894666,-6217.729913,612.876398
1131.136862,6883.915261,-6735.874072,689.485948
1131.137191,6957.935855,-6661.853478,1608.800546
1131.137520,7105.977043,-6291.750507,1072.533697
1131.137849,7550.100608,-5551.544565,1072.533697
1131.138178,7402.059420,-5847.626942,995.924147
1131.138507,7328.038826,-6513.812290,842.705048
1131.138836,7402.059420,-5995.668130,689.485948
1131.139165,7105.977043,-6291.750507,919.314598
1131.139494,7105.977043,-6291.750507,919.314598
1131.139823,6661.853478,-6661.853478,995.924147
1131.140152,6217.729913,-6661.853478,689.485948
1131.140481,5773.606348,-6587.832884,612.876398
1131.140810,6365.771101,-6809.894666,842.705048
1131.141139,6957.935855,-6883.915261,1225.752797
1131.141468,7698.141797,-6735.874072,1608.800546
1131.141798,7772.162391,-6365.771101,2068.457845
1131.142127,7476.080014,-5921.647536,1302.362347
1131.142456,7105.977043,-6365.771101,1072.533697
1131.142785,6957.935855,-6661.853478,1302.362347
1131.143114,7105.977043,-7105.977043,1149.143247
1131.143443,6809.894666,-6957.935855,1532.190996
1131.143772,6513.812290,-6513.812290,612.876398
1131.144101,6143.709319,-7105.977043,766.095498
1131.144430,6143.709319,-7254.018232,995.924147
1131.144759,6143.709319,-7550.100608,306.438199
1131.145088,6365.771101,-7031.956449,842.705048
1131.145417,6513.812290,-6513.812290,612.876398
1131.145746,6365.771101,-6883.915261,536.266849
1131.146075,6661.853478,-6735.874072,919.314598
1131.146404,6957.935855,-6217.729913,766.095498
1131.146733,7105.977043,-6217.729913,995.924147
1131.147062,7105.977043,-6217.729913,1762.019645
1131.147391,7105.977043,-6661.853478,1149.143247
1131.147720,7328.038826,-5847.626942,1455.581446
1131.148049,7031.956449,-6439.791695,1302.362347
1131.148378,7031.956449,-6809.894666,1455.581446
1131.148707,6957.935855,-6735.874072,1378.971896
1131.149036,6957.935855,-6587.832884,1378.971896
1131.149365,7105.977043,-6217.729913,1608.800546
1131.149694,6735.874072,-7105.977043,1072.533697
1131.150024,6735.874072,-6957.935855,995.924147
1131.150353,6735.874072,-6365.771101,919.314598
1131.150682,7179.997637,-5995.668130,1225.752797
1131.151011,7179.997637,-6587.832884,842.705048
1131.151340,7105.977043,-6513.812290,919.314598
1131.151669,7105.977043,-6513.812290,1072.533697
1131.151998,7105.977043,-6661.853478,1072.533697
1131.152327,7254.018232,-5551.544565,1149.143247
1131.152656,6957.935855,-5921.647536,536.266849
1131.152985,7105.977043,-6365.771101,766.095498
1131.153314,7624.121203,-5551.544565,689.485948
1131.153643,7698.141797,-6291.750507,919.314598
1131.153972,7920.203579,-5847.626942,459.657299
1131.154301,7254.018232,-5403.503377,612.876398
1131.154630,7624.121203,-6587.832884,995.924147
1131.154959,7994.224174,-6291.750507,1532.190996
1131.155288,7402.059420,-5921.647536,1991.848295
1131.155617,6809.894666,-6291.750507,1072.533697
1131.155946,6587.832884,-6513.812290,766.095498
1131.156275,7105.977043,-7031.956449,1302.362347
1131.156604,7105.977043,-7402.059420,1838.629195
1131.156933,6809.894666,-6883.915261,1838.629195
1131.157262,6217.729913,-6883.915261,1149.143247
1131.157591,6661.853478,-7402.059420,1149.143247
1131.157921,6735.874072,-7105.977043,1149.143247
1131.158250,6883.915261,-7105.977043,1225.752797
1131.158579,6661.853478,-6587.832884,919.314598
1131.158908,6439.791695,-6217.729913,612.876398
1131.159237,6439.791695,-6439.791695,766.095498
1131.159566,6957.935855,-7031.956449,919.314598
1131.159895,6735.874072,-6809.894666,536.266849
1131.160224,6513.812290,-6587.832884,612.876398
1131.160553,6587.832884,-6217.729913,612.876398
1131.160882,6587.832884,-6587.832884,842.705048
1131.161211,6809.894666,-7105.977043,536.266849
1131.161540,6957.935855,-7105.977043,919.314598
1131.161869,6365.771101,-6587.832884,383.047749
1131.162198,6735.874072,-6661.853478,766.095498
1131.162527,7402.059420,-7105.977043,1149.143247
1131.162856,7698.141797,-7476.080014,1762.019645
1131.163185,6365.771101,-6957.935855,1378.971896
1131.163514,6809.894666,-6069.688724,1532.190996
1131.163843,6957.935855,-5625.565159,1302.362347
1131.164172,7254.018232,-5625.565159,1762.019645
1131.164501,7698.141797,-5847.626942,2068.457845
1131.164830,7550.100608,-5921.647536,1378.971896
1131.165159,7105.977043,-5921.647536,1378.971896
1131.165488,7105.977043,-6735.874072,1608.800546
1131.165817,7105.977043,-7105.977043,1608.800546
1131.166147,6957.935855,-6809.894666,1378.971896
1131.166476,6439.791695,-7105.977043,1149.143247
1131.166805,6587.832884,-6735.874072,536.266849
1131.167134,6439.791695,-7254.018232,153.219100
1131.167463,6365.771101,-6587.832884,612.876398
1131.167792,6957.935855,-6069.688724,536.266849
1131.168121,7105.977043,-5921.647536,536.266849
1131.168450,7328.038826,-5921.647536,1149.143247
1131.168779,7476.080014,-6143.709319,1149.143247
1131.169108,7328.038826,-5625.565159,1072.533697
1131.169437,7328.038826,-5477.523971,612.876398
1131.169766,7328.038826,-5921.647536,919.314598
1131.170095,7624.121203,-5921.647536,1149.143247
1131.170424,7179.997637,-7105.977043,995.924147
1131.170753,6513.812290,-7105.977043,1072.533697
1131.171082,6513.812290,-7031.956449,766.095498
1131.171411,7105.977043,-7402.059420,919.314598
1131.171740,7328.038826,-7105.977043,1532.190996
1131.172069,7402.059420,-7105.977043,2068.457845
1131.172398,7254.018232,-6069.688724,1149.143247
1131.172727,7105.977043,-5773.606348,1378.971896
1131.173056,7105.977043,-6069.688724,1378.971896
1131.173385,7624.121203,-5995.668130,1455.581446
1131.173714,6883.915261,-6217.729913,1455.581446
1131.174044,6809.894666,-6661.853478,1302.362347
1131.174373,6365.771101,-6957.935855,842.705048
1131.174702,7105.977043,-7254.018232,995.924147
1131.175031,6809.894666,-7031.956449,919.314598
1131.175360,6143.709319,-7402.059420,306.438199
1131.175689,6069.688724,-7105.977043,383.047749
1131.176018,6365.771101,-7254.018232,459.657299
1131.176347,6735.874072,-7550.100608,1072.533697
1131.176676,7105.977043,-6587.832884,459.657299
1131.177005,6365.771101,-6661.853478,383.047749
1131.177334,6513.812290,-6513.812290,459.657299
1131.177663,7105.977043,-6735.874072,1378.971896
1131.177992,7476.080014,-6661.853478,1608.800546
1131.178321,7179.997637,-6513.812290,1225.752797
1131.178650,6957.935855,-6217.729913,842.705048
1131.178979,6957.935855,-6217.729913,995.924147
1131.179308,7105.977043,-6587.832884,1225.752797
1131.179637,7105.977043,-6587.832884,1455.581446
1131.179966,7254.018232,-6291.750507,1378.971896
1131.180295,6809.894666,-6587.832884,995.924147
1131.180624,6809.894666,-6809.894666,995.924147
1131.180953,7254.018232,-7105.977043,1302.362347
1131.181282,7105.977043,-6809.894666,1149.143247
1131.181611,6735.874072,-6217.729913,1072.533697
1131.181940,6587.832884,-6661.853478,612.876398
1131.182270,6661.853478,-6587.832884,536.266849
1131.182599,6587.832884,-6291.750507,1149.143247
1131.182928,7031.956449,-6587.832884,536.266849
1131.183257,7476.080014,-5995.668130,919.314598
1131.183586,7328.038826,-5551.544565,1378.971896
1131.183915,7846.182985,-5847.626942,1455.581446
1131.184244,7402.059420,-5625.565159,1302.362347
1131.184573,7105.977043,-6217.729913,766.095498
1131.184902,7031.956449,-5921.647536,383.047749
1131.185231,7254.018232,-6365.771101,919.314598
1131.185560,7624.121203,-6069.688724,612.876398
1131.185889,7328.038826,-6957.935855,1149.143247
1131.186218,6587.832884,-6735.874072,995.924147
1131.186547,6809.894666,-7105.977043,995.924147
1131.186876,6809.894666,-7179.997637,1149.143247
1131.187205,7254.018232,-6809.894666,1302.362347
1131.187534,6587.832884,-6735.874072,1302.362347
1131.187863,7179.997637,-6587.832884,1302.362347
1131.188192,7328.038826,-6291.750507,1685.410096
1131.188521,7179.997637,-5551.544565,2145.067394
1131.188850,6957.935855,-5625.565159,1455.581446
1131.189179,7031.956449,-6069.688724,1225.752797
1131.189508,6809.894666,-6809.894666,1072.533697
1131.189837,6735.874072,-6883.915261,1072.533697
1131.190166,6883.915261,-7105.977043,689.485948
1131.190496,6439.791695,-7031.956449,612.876398
1131.190825,6365.771101,-7254.018232,459.657299
1131.191154,6735.874072,-7179.997637,689.485948
1131.191483,6291.750507,-7179.997637,1378.971896
1131.191812,6735.874072,-7031.956449,459.657299
1131.192141,6513.812290,-7179.997637,612.876398
1131.192470,6365.771101,-6735.874072,766.095498
1131.192799,6513.812290,-6587.832884,842.705048
1131.193128,7105.977043,-6069.688724,919.314598
1131.193457,7328.038826,-6143.709319,1378.971896
1131.193786,7550.100608,-5847.626942,1302.362347
1131.194115,7254.018232,-6143.709319,1378.971896
1131.194444,7328.038826,-6291.750507,1225.752797
1131.194773,7624.121203,-6883.915261,1532.190996
1131.195102,7031.956449,-6735.874072,1302.362347
1131.195431,6809.894666,-6883.915261,1149.143247
1131.195760,6809.894666,-6883.915261,1378.971896
1131.196089,6957.935855,-6587.832884,1149.143247
1131.196418,7031.956449,-6661.853478,1225.752797
1131.196747,6809.894666,-6143.709319,1149.143247
1131.197076,7105.977043,-6217.729913,536.266849
1131.197405,6957.935855,-5921.647536,1225.752797
1131.197734,6587.832884,-5847.626942,842.705048
1131.198063,6439.791695,-5921.647536,766.095498
1131.198393,6883.915261,-6291.750507,766.095498
1131.198722,7402.059420,-6735.874072,919.314598
1131.199051,7476.080014,-6587.832884,1302.362347
1131.199380,7476.080014,-6291.750507,995.924147
1131.199709,7179.997637,-6143.709319,459.657299
1131.200038,7254.018232,-6735.874072,842.705048
1131.200367,7624.121203,-7105.977043,766.095498
1131.200696,7105.977043,-6587.832884,1685.410096
1131.201025,7254.018232,-6661.853478,1225.752797
1131.201354,7105.977043,-6883.915261,842.705048
1131.201683,6661.853478,-6587.832884,919.314598
1131.202012,6217.729913,-6587.832884,919.314598
1131.202341,6809.894666,-5921.647536,1762.019645
1131.202670,7328.038826,-6069.688724,1685.410096
1131.202999,7846.182985,-5921.647536,1302.362347
1131.203328,7476.080014,-5847.626942,1532.190996
1131.203657,7105.977043,-6217.729913,1685.410096
1131.203986,7402.059420,-6217.729913,1378.971896
1131.204315,7179.997637,-6587.832884,1225.752797
1131.204644,7105.977043,-6957.935855,1225.752797
1131.204973,6587.832884,-7179.997637,919.314598
1131.205302,7031.956449,-7179.997637,919.314598
1131.205631,6069.688724,-7254.018232,842.705048
1131.205960,5921.647536,-7179.997637,459.657299
1131.206289,5625.565159,-7179.997637,306.438199
1131.206619,6291.750507,-7105.977043,1149.143247
1131.206948,6143.709319,-6587.832884,842.705048
1131.207277,6365.771101,-6439.791695,689.485948
1131.207606,6365.771101,-6439.791695,689.485948
1131.207935,6957.935855,-6735.874072,766.095498
1131.208264,6661.853478,-6365.771101,919.314598
1131.208593,7179.997637,-6661.853478,1072.533697
1131.208922,7402.059420,-6661.853478,1072.533697
1131.209251,7105.977043,-6809.894666,1532.190996
1131.209580,7328.038826,-6883.915261,1378.971896
1131.209909,6883.915261,-5625.565159,1915.238745
1131.210238,7105.977043,-6217.729913,1225.752797
1131.210567,6809.894666,-6143.709319,1455.581446
1131.210896,6513.812290,-6217.729913,1455.581446
1131.211225,6439.791695,-6143.709319,1915.238745
1131.211554,6809.894666,-6217.729913,1149.143247
1131.211883,6513.812290,-5847.626942,766.095498
1131.212212,7254.018232,-6661.853478,919.314598
1131.212541,7105.977043,-7031.956449,1149.143247
1131.212870,7105.977043,-6661.853478,1149.143247
1131.213199,7105.977043,-6217.729913,0.000000
1131.213528,6957.935855,-6217.729913,689.485948
1131.213857,7105.977043,-6661.853478,1072.533697
1131.214186,8142.265362,-6365.771101,1455.581446
1131.214516,8216.285956,-6661.853478,1378.971896
1131.214845,7550.100608,-5847.626942,1149.143247
1131.215174,7105.977043,-5625.565159,459.657299
1131.215503,7031.956449,-6365.771101,383.047749
1131.215832,6809.894666,-6513.812290,919.314598
1131.216161,7254.018232,-6291.750507,383.047749
1131.216490,7105.977043,-5995.668130,612.876398
1131.216819,7328.038826,-6735.874072,919.314598
1131.217148,7698.141797,-6735.874072,995.924147
1131.217477,7031.956449,-6291.750507,1225.752797
1131.217806,7105.977043,-6883.915261,1225.752797
1131.218135,7328.038826,-6809.894666,1532.190996
1131.218464,7402.059420,-6809.894666,1455.581446
1131.218793,7476.080014,-6661.853478,995.924147
1131.219122,7031.956449,-5995.668130,1532.190996
1131.219451,6587.832884,-6069.688724,1072.533697
1131.219780,6883.915261,-6439.791695,1225.752797
1131.220109,6735.874072,-6587.832884,766.095498
1131.220438,6735.874072,-7105.977043,919.314598
1131.220767,6291.750507,-6291.750507,76.609550
1131.221096,5847.626942,-7105.977043,689.485948
1131.221425,6217.729913,-7179.997637,612.876398
1131.221754,6587.832884,-7179.997637,459.657299
1131.222083,6661.853478,-6957.935855,612.876398
1131.222412,6661.853478,-7031.956449,536.266849
1131.222742,6957.935855,-7698.141797,995.924147
1131.223071,6661.853478,-7105.977043,612.876398
1131.223400,6513.812290,-6809.894666,536.266849
1131.223729,6661.853478,-6883.915261,919.314598
1131.224058,7105.977043,-6883.915261,1455.581446
1131.224387,7402.059420,-6513.812290,1532.190996
1131.224716,7254.018232,-6143.709319,1838.629195
1131.225045,7698.141797,-5329.482782,1378.971896
1131.225374,7772.162391,-5699.585753,1532.190996
1131.225703,7402.059420,-5847.626942,1685.410096
1131.226032,7550.100608,-6069.688724,1455.581446
1131.226361,7105.977043,-6143.709319,1608.800546
1131.226690,7105.977043,-6587.832884,1455.581446
1131.227020,6661.853478,-6883.915261,1149.143247
1131.227349,6661.853478,-7105.977043,1378.971896
1131.227678,6735.874072,-7105.977043,1378.971896
1131.228007,7402.059420,-6587.832884,1149.143247
1131.228336,6957.935855,-6143.709319,995.924147
1131.228665,6809.894666,-6513.812290,1072.533697
1131.228994,6883.915261,-6883.915261,842.705048
1131.229323,7031.956449,-6661.853478,536.266849
1131.229652,6883.915261,-5921.647536,842.705048
1131.229981,7328.038826,-5773.606348,1225.752797
1131.230310,7698.141797,-6439.791695,1455.581446
1131.230640,7402.059420,-6439.791695,1149.143247
1131.230969,7105.977043,-6143.709319,459.657299
1131.231298,6883.915261,-6587.832884,459.657299
1131.231627,7105.977043,-6587.832884,1149.143247
1131.231956,7179.997637,-7254.018232,1225.752797
1131.232285,6883.915261,-7105.977043,842.705048
1131.232614,6735.874072,-7105.977043,1302.362347
1131.232943,6661.853478,-6587.832884,1455.581446
1131.233272,7031.956449,-6735.874072,1149.143247
1131.233601,7254.018232,-6883.915261,1608.800546
1131.233930,7476.080014,-6069.688724,1378.971896
1131.234260,6883.915261,-5773.606348,1149.143247
1131.234589,7105.977043,-6587.832884,1149.143247
1131.234918,7031.956449,-6439.791695,1302.362347
1131.235247,7179.997637,-6809.894666,1225.752797
1131.235576,6809.894666,-6661.853478,1302.362347
1131.235905,6291.750507,-6809.894666,612.876398
1131.236234,6217.729913,-7254.018232,919.314598
1131.236563,6661.853478,-7179.997637,459.657299
1131.236892,6439.791695,-7328.038826,459.657299
1131.237221,7031.956449,-6809.894666,153.219100
1131.237551,6291.750507,-6735.874072,229.828649
1131.237880,6735.874072,-7328.038826,842.705048
1131.238209,7105.977043,-6883.915261,919.314598
1131.238538,6661.853478,-6809.894666,1455.581446
1131.238867,6809.894666,-6809.894666,459.657299
1131.239196,6735.874072,-6587.832884,995.924147
1131.239525,7328.038826,-7105.977043,1608.800546
1131.239854,7328.038826,-6291.750507,1149.143247
1131.240183,7105.977043,-5699.585753,612.876398
1131.240512,6883.915261,-6439.791695,1378.971896
1131.240841,7105.977043,-6809.894666,1838.629195
1131.241171,7031.956449,-7179.997637,1762.019645
1131.241500,7328.038826,-5625.565159,1302.362347
1131.241829,6809.894666,-6217.729913,995.924147
1131.242158,6661.853478,-6439.791695,1608.800546
1131.242487,6957.935855,-6513.812290,995.924147
1131.242816,6957.935855,-6217.729913,1149.143247
1131.243145,7179.997637,-5995.668130,689.485948
1131.243474,6735.874072,-6513.812290,1225.752797
1131.243803,7105.977043,-6661.853478,1072.533697
1131.244132,6957.935855,-6513.812290,842.705048
1131.244461,7105.977043,-6587.832884,689.485948
1131.244791,6809.894666,-6143.709319,1685.410096
1131.245120,7402.059420,-6883.915261,1149.143247
1131.245449,7476.080014,-6217.729913,1302.362347
1131.245778,7476.080014,-6291.750507,1149.143247
1131.246107,6883.915261,-6143.709319,153.219100
1131.246436,7105.977043,-5847.626942,689.485948
1131.246765,7402.059420,-6513.812290,1225.752797
1131.247094,8290.306550,-5699.585753,1149.143247
1131.247423,7846.182985,-5847.626942,1302.362347
1131.247752,7105.977043,-5551.544565,1302.362347
1131.248081,6513.812290,-6217.729913,842.705048
1131.248411,6957.935855,-6957.935855,766.095498
1131.248740,7402.059420,-7031.956449,1455.581446
1131.249069,7179.997637,-7179.997637,919.314598
1131.249398,6957.935855,-6809.894666,1072.533697
1131.249727,6735.874072,-7179.997637,1225.752797
1131.250056,6957.935855,-7328.038826,1455.581446
1131.250385,6957.935855,-7105.977043,1072.533697
1131.250714,7105.977043,-6587.832884,842.705048
1131.251043,6587.832884,-7105.977043,229.828649
1131.251372,6291.750507,-6587.832884,459.657299
1131.251702,6513.812290,-7105.977043,459.657299
1131.252031,7031.956449,-6957.935855,229.828649
1131.252360,6365.771101,-6217.729913,1072.533697
1131.252689,6957.935855,-6587.832884,383.047749
1131.253018,6809.894666,-7031.956449,842.705048
1131.253347,6513.812290,-7105.977043,919.314598
1131.253676,6365.771101,-6957.935855,612.876398
1131.254005,6513.812290,-6661.853478,383.047749
1131.254334,6513.812290,-6957.935855,842.705048
1131.254663,7031.956449,-6957.935855,1072.533697
1131.254992,7105.977043,-7031.956449,1378.971896
1131.255322,7105.977043,-6661.853478,1991.848295
1131.255651,7179.997637,-5847.626942,1225.752797
1131.255980,7772.162391,-5921.647536,1149.143247
1131.256309,7476.080014,-5773.606348,1532.190996
1131.256638,7698.141797,-6439.791695,1608.800546
1131.256967,7105.977043,-5329.482782,1532.190996
1131.257296,7179.997637,-5477.523971,1225.752797
1131.257625,7105.977043,-6291.750507,1378.971896
1131.257954,7328.038826,-6809.894666,1532.190996
1131.258283,7254.018232,-6661.853478,995.924147
1131.258612,6957.935855,-6587.832884,1225.752797
1131.258942,6735.874072,-6365.771101,919.314598
1131.259271,6809.894666,-6883.915261,689.485948
1131.259600,6809.894666,-6587.832884,1072.533697
1131.259929,6809.894666,-6735.874072,689.485948
1131.260258,6661.853478,-6069.688724,766.095498
1131.260587,7105.977043,-6365.771101,919.314598
1131.260916,7550.100608,-6513.812290,1225.752797
1131.261245,7254.018232,-5625.565159,1915.238745
1131.261574,7179.997637,-6217.729913,689.485948
1131.261903,7105.977043,-5773.606348,919.314598
1131.262232,7550.100608,-6439.791695,1149.143247
1131.262562,7476.080014,-7031.956449,1225.752797
1131.262891,7179.997637,-6809.894666,1762.019645
1131.263220,6587.832884,-7254.018232,919.314598
