#time,accel_x,accel_y,accel_z
1449.036148,6883.915261,-7031.956449,1225.752797
1449.036477,7031.956449,-6809.894666,1455.581446
1449.036807,7105.977043,-6513.812290,1225.752797
1449.037137,6735.874072,-6217.729913,842.705048
1449.037467,6587.832884,-6439.791695,1072.533697
1449.037797,6809.894666,-6661.853478,766.095498
1449.038127,7105.977043,-7105.977043,995.924147
1449.038457,6883.915261,-5995.668130,919.314598
1449.038787,7105.977043,-6661.853478,842.705048
1449.039116,7550.100608,-6365.771101,1302.362347
1449.039446,7476.080014,-6217.729913,1302.362347
1449.039776,7179.997637,-6587.832884,766.095498
1449.040106,7328.038826,-6439.791695,842.705048
1449.040436,7105.977043,-6217.729913,1302.362347
1449.040766,7105.977043,-6513.812290,536.266849
1449.041096,7328.038826,-6291.750507,995.924147
1449.041426,7254.018232,-6069.688724,689.485948
1449.041756,7031.956449,-5995.668130,919.314598
1449.042085,7105.977043,-6069.688724,1378.971896
1449.042415,7179.997637,-6513.812290,919.314598
1449.042745,7105.977043,-6291.750507,842.705048
1449.043075,6809.894666,-6365.771101,1072.533697
1449.043405,6291.750507,-6513.812290,689.485948
1449.043735,6809.894666,-6957.935855,919.314598
1449.044065,6809.894666,-7031.956449,1302.362347
1449.044395,7031.956449,-6735.874072,919.314598
1449.044725,6809.894666,-6809.894666,1302.362347
1449.045054,7105.977043,-7105.977043,1455.581446
1449.045384,6513.812290,-6661.853478,689.485948
1449.045714,6439.791695,-6883.915261,842.705048
1449.046044,6439.791695,-7105.977043,842.705048
1449.046374,6957.935855,-6735.874072,612.876398
1449.046704,7031.956449,-6809.894666,1532.190996
1449.047034,7105.977043,-6735.874072,842.705048
1449.047364,7031.956449,-6587.832884,1149.143247
1449.047694,7105.977043,-6735.874072,1149.143247
1449.048023,7105.977043,-6957.935855,1149.143247
1449.048353,7031.956449,-6217.729913,1072.533697
1449.048683,7179.997637,-6513.812290,995.924147
1449.049013,7031.956449,-6365.771101,1072.533697
1449.049343,7179.997637,-6365.771101,1225.752797
1449.049673,7328.038826,-5995.668130,1225.752797
1449.050003,7105.977043,-6217.729913,1072.533697
1449.050333,7031.956449,-6143.709319,995.924147
1449.050662,6735.874072,-6735.874072,995.924147
1449.050992,6661.853478,-6513.812290,842.705048
1449.051322,6365.771101,-6661.853478,919.314598
1449.051652,6957.935855,-6661.853478,995.924147
1449.051982,7031.956449,-7105.977043,919.314598
1449.052312,7105.977043,-6587.832884,1072.533697
1449.052642,7105.977043,-7105.977043,459.657299
1449.052972,6957.935855,-6883.915261,919.314598
1449.053302,6809.894666,-6513.812290,995.924147
1449.053631,7105.977043,-6809.894666,919.314598
1449.053961,7624.121203,-5921.647536,1608.800546
1449.054291,7624.121203,-7031.956449,1302.362347
1449.054621,7105.977043,-6661.853478,1225.752797
1449.054951,7105.977043,-6217.729913,919.314598
1449.055281,7105.977043,-6587.832884,536.266849
1449.055611,6883.915261,-6217.729913,1532.190996
1449.055941,7328.038826,-6143.709319,689.485948
1449.056271,7179.997637,-6291.750507,1149.143247
1449.056600,7105.977043,-6069.688724,919.314598
1449.056930,7031.956449,-6513.812290,1149.143247
1449.057260,7698.141797,-5921.647536,919.314598
1449.057590,6809.894666,-6291.750507,995.924147
1449.057920,7105.977043,-5847.626942,919.314598
1449.058250,7031.956449,-6439.791695,842.705048
1449.058580,6883.915261,-7031.956449,612.876398
1449.058910,6883.915261,-6809.894666,1149.143247
1449.059239,6661.853478,-7105.977043,995.924147
1449.059569,6513.812290,-6883.915261,1149.143247
1449.059899,6661.853478,-7105.977043,766.095498
1449.060229,6883.915261,-7328.038826,995.924147
1449.060559,6809.894666,-6661.853478,1072.533697
1449.060889,6957.935855,-6957.935855,919.314598
1449.061219,7105.977043,-6587.832884,1455.581446
1449.061549,6661.853478,-5551.544565,612.876398
1449.061879,7031.956449,-6291.750507,612.876398
1449.062208,7179.997637,-6513.812290,919.314598
1449.062538,6957.935855,-6883.915261,1225.752797
1449.062868,7105.977043,-6661.853478,919.314598
1449.063198,7698.141797,-6883.915261,1608.800546
1449.063528,7105.977043,-6883.915261,842.705048
1449.063858,6957.935855,-6513.812290,766.095498
1449.064188,6957.935855,-6809.894666,1225.752797
1449.064518,7105.977043,-6291.750507,1302.362347
1449.064848,7402.059420,-6661.853478,1149.143247
1449.065177,6957.935855,-6217.729913,1072.533697
1449.065507,6883.915261,-6291.750507,766.095498
1449.065837,7105.977043,-6365.771101,766.095498
1449.066167,6661.853478,-6513.812290,1685.410096
1449.066497,6883.915261,-6587.832884,842.705048
1449.066827,6735.874072,-6661.853478,1225.752797
1449.067157,6809.894666,-6883.915261,1149.143247
1449.067487,7105.977043,-6809.894666,995.924147
1449.067817,6809.894666,-6217.729913,1225.752797
1449.068146,6513.812290,-6883.915261,689.485948
1449.068476,7105.977043,-6735.874072,612.876398
1449.068806,7328.038826,-6365.771101,1225.752797
1449.069136,7550.100608,-6365.771101,766.095498
1449.069466,7402.059420,-6143.709319,1302.362347
1449.069796,7179.997637,-6365.771101,995.924147
1449.070126,7031.956449,-6587.832884,1072.533697
1449.070456,7105.977043,-6069.688724,995.924147
1449.070785,7550.100608,-6291.750507,1072.533697
1449.071115,7254.018232,-6291.750507,1072.533697
1449.071445,6957.935855,-5773.606348,1685.410096
1449.071775,6957.935855,-6513.812290,995.924147
1449.072105,7105.977043,-6513.812290,689.485948
1449.072435,6587.832884,-6217.729913,919.314598
1449.072765,6735.874072,-6365.771101,842.705048
1449.073095,6661.853478,-6957.935855,919.314598
1449.073425,6809.894666,-6809.894666,995.924147
1449.073754,6883.915261,-6957.935855,1532.190996
1449.074084,6217.729913,-6661.853478,995.924147
1449.074414,6735.874072,-6587.832884,1149.143247
1449.074744,6587.832884,-7105.977043,612.876398
1449.075074,6735.874072,-6809.894666,612.876398
1449.075404,7031.956449,-6661.853478,1149.143247
1449.075734,6957.935855,-7105.977043,1072.533697
1449.076064,7105.977043,-6365.771101,1149.143247
1449.076394,7031.956449,-6735.874072,1302.362347
1449.076723,7179.997637,-6735.874072,612.876398
1449.077053,7328.038826,-6809.894666,1225.752797
1449.077383,7105.977043,-7105.977043,1225.752797
1449.077713,6957.935855,-6513.812290,842.705048
1449.078043,7105.977043,-6069.688724,919.314598
1449.078373,7105.977043,-6587.832884,1608.800546
1449.078703,7105.977043,-6439.791695,1378.971896
1449.079033,7105.977043,-6291.750507,1072.533697
1449.079362,6957.935855,-6291.750507,919.314598
1449.079692,6809.894666,-6587.832884,1149.143247
1449.080022,6439.791695,-5847.626942,842.705048
1449.080352,6661.853478,-6661.853478,842.705048
1449.080682,6735.874072,-6957.935855,1685.410096
1449.081012,7179.997637,-6217.729913,919.314598
1449.081342,7105.977043,-6661.853478,1455.581446
1449.081672,6957.935855,-6661.853478,1532.190996
1449.082002,7105.977043,-6957.935855,1072.533697
1449.082331,6661.853478,-6957.935855,919.314598
1449.082661,6513.812290,-6587.832884,1225.752797
1449.082991,6735.874072,-6883.915261,1225.752797
1449.083321,7179.997637,-6439.791695,1302.362347
1449.083651,7328.038826,-6439.791695,1225.752797
1449.083981,7179.997637,-6291.750507,842.705048
1449.084311,7476.080014,-6365.771101,1608.800546
1449.084641,6957.935855,-6587.832884,995.924147
1449.084971,7105.977043,-6439.791695,995.924147
1449.085300,7402.059420,-6291.750507,1225.752797
1449.085630,7550.100608,-6439.791695,842.705048
1449.085960,7624.121203,-6069.688724,1149.143247
1449.086290,6957.935855,-6735.874072,1378.971896
1449.086620,6883.915261,-6217.729913,995.924147
1449.086950,6809.894666,-6291.750507,1072.533697
1449.087280,6661.853478,-6291.750507,1532.190996
1449.087610,6513.812290,-6291.750507,536.266849
1449.087940,6735.874072,-6513.812290,1225.752797
1449.088269,7105.977043,-6513.812290,919.314598
1449.088599,6661.853478,-6735.874072,612.876398
1449.088929,7179.997637,-6809.894666,459.657299
1449.089259,6809.894666,-6883.915261,919.314598
1449.089589,6513.812290,-7254.018232,766.095498
1449.089919,6587.832884,-7031.956449,766.095498
1449.090249,6513.812290,-7402.059420,689.485948
1449.090579,7550.100608,-7328.038826,1072.533697
1449.090908,7105.977043,-6661.853478,1378.971896
1449.091238,7105.977043,-6809.894666,536.266849
1449.091568,7105.977043,-6661.853478,689.485948
1449.091898,7031.956449,-6439.791695,1149.143247
1449.092228,7179.997637,-6587.832884,995.924147
1449.092558,7105.977043,-6069.688724,1149.143247
1449.092888,7254.018232,-5773.606348,842.705048
1449.093218,7105.977043,-6439.791695,1225.752797
1449.093548,6809.894666,-6365.771101,919.314598
1449.093877,7105.977043,-6661.853478,1072.533697
1449.094207,7179.997637,-6883.915261,1225.752797
1449.094537,6957.935855,-6365.771101,1149.143247
1449.094867,6661.853478,-6809.894666,1149.143247
1449.095197,6883.915261,-6809.894666,1149.143247
1449.095527,7105.977043,-6661.853478,1991.848295
1449.095857,7031.956449,-6291.750507,995.924147
1449.096187,6809.894666,-6661.853478,1072.533697
1449.096517,6661.853478,-6365.771101,995.924147
1449.096846,6735.874072,-6883.915261,383.047749
1449.097176,6513.812290,-6661.853478,919.314598
1449.097506,6883.915261,-6735.874072,1072.533697
1449.097836,7179.997637,-6439.791695,842.705048
1449.098166,7402.059420,-6587.832884,919.314598
1449.098496,7105.977043,-6809.894666,1225.752797
1449.098826,6957.935855,-6365.771101,842.705048
1449.099156,7105.977043,-6365.771101,1072.533697
1449.099485,6957.935855,-6587.832884,1455.581446
1449.099815,7105.977043,-6439.791695,919.314598
1449.100145,7402.059420,-5921.647536,1302.362347
1449.100475,7254.018232,-6217.729913,1072.533697
1449.100805,7105.977043,-6291.750507,1149.143247
1449.101135,6883.915261,-6439.791695,1149.143247
1449.101465,6957.935855,-6291.750507,842.705048
1449.101795,6587.832884,-6735.874072,1149.143247
1449.102125,6513.812290,-6439.791695,919.314598
1449.102454,7031.956449,-6883.915261,995.924147
1449.102784,6291.750507,-6661.853478,1455.581446
1449.103114,6883.915261,-6661.853478,1072.533697
1449.103443,7105.977043,-6957.935855,612.876398
1449.103773,6883.915261,-7031.956449,1378.971896
1449.104103,6809.894666,-6661.853478,536.266849
1449.104432,6587.832884,-7031.956449,995.924147
1449.104762,6587.832884,-7031.956449,919.314598
1449.105092,6735.874072,-7031.956449,689.485948
1449.105421,7031.956449,-6513.812290,919.314598
1449.105751,6809.894666,-6291.750507,1455.581446
1449.106080,7254.018232,-6587.832884,612.876398
1449.106410,7105.977043,-6661.853478,995.924147
1449.106740,6957.935855,-6883.915261,1072.533697
1449.107069,7550.100608,-6587.832884,612.876398
1449.107399,7254.018232,-5551.544565,1225.752797
1449.107729,7476.080014,-6513.812290,995.924147
1449.108058,7402.059420,-6365.771101,1225.752797
1449.108388,7105.977043,-6513.812290,1072.533697
1449.108718,7179.997637,-6143.709319,459.657299
1449.109047,6957.935855,-6069.688724,1072.533697
1449.109377,6587.832884,-6513.812290,995.924147
1449.109707,6513.812290,-6661.853478,689.485948
1449.110036,6735.874072,-6587.832884,1378.971896
1449.110366,7031.956449,-6439.791695,1378.971896
1449.110696,7105.977043,-6217.729913,1072.533697
1449.111025,6809.894666,-6735.874072,1072.533697
1449.111355,6661.853478,-6735.874072,1072.533697
1449.111685,7105.977043,-6735.874072,689.485948
1449.112014,7031.956449,-6587.832884,842.705048
1449.112344,7105.977043,-7105.977043,995.924147
1449.112674,7179.997637,-6809.894666,995.924147
1449.113003,7105.977043,-6365.771101,1225.752797
1449.113333,7179.997637,-6587.832884,1149.143247
1449.113663,7105.977043,-6439.791695,919.314598
1449.113992,7105.977043,-6735.874072,919.314598
1449.114322,7105.977043,-6661.853478,919.314598
1449.114652,7179.997637,-6143.709319,1225.752797
1449.114981,7105.977043,-6069.688724,1149.143247
1449.115311,7254.018232,-6143.709319,1149.143247
1449.115641,7105.977043,-6217.729913,1149.143247
1449.115970,7105.977043,-6365.771101,919.314598
1449.116300,7031.956449,-6365.771101,1225.752797
1449.116630,6883.915261,-6365.771101,842.705048
1449.116959,6883.915261,-6587.832884,842.705048
1449.117289,6809.894666,-6809.894666,1072.533697
1449.117619,6365.771101,-6883.915261,1915.238745
1449.117948,6735.874072,-6735.874072,919.314598
1449.118278,6735.874072,-6735.874072,1072.533697
1449.118608,6735.874072,-6661.853478,1302.362347
1449.118937,6587.832884,-6661.853478,842.705048
1449.119267,6587.832884,-6291.750507,1378.971896
1449.119597,6735.874072,-6735.874072,536.266849
1449.119926,7105.977043,-6735.874072,842.705048
1449.120256,7254.018232,-6513.812290,1225.752797
1449.120586,7328.038826,-6439.791695,1072.533697
1449.120915,7328.038826,-6513.812290,919.314598
1449.121245,7031.956449,-6957.935855,1072.533697
1449.121575,6661.853478,-6587.832884,842.705048
1449.121904,6809.894666,-6661.853478,919.314598
1449.122234,7031.956449,-5847.626942,1149.143247
1449.122564,7105.977043,-6439.791695,919.314598
1449.122893,7105.977043,-6291.750507,1302.362347
1449.123223,7105.977043,-6365.771101,1149.143247
1449.123552,7105.977043,-6143.709319,1072.533697
1449.123882,6809.894666,-5921.647536,919.314598
1449.124212,6587.832884,-6439.791695,1072.533697
1449.124541,6957.935855,-6661.853478,1149.143247
1449.124871,7031.956449,-6809.894666,1378.971896
1449.125201,6439.791695,-6365.771101,689.485948
1449.125530,6735.874072,-6735.874072,766.095498
1449.125860,6735.874072,-7031.956449,1302.362347
1449.126190,6883.915261,-7105.977043,689.485948
1449.126519,6661.853478,-6735.874072,766.095498
1449.126849,6957.935855,-6661.853478,1302.362347
1449.127179,7105.977043,-6735.874072,689.485948
1449.127508,7328.038826,-6217.729913,1455.581446
1449.127838,7105.977043,-6365.771101,1225.752797
1449.128168,7402.059420,-6217.729913,995.924147
1449.128497,7624.121203,-6661.853478,1072.533697
1449.128827,7031.956449,-6661.853478,1072.533697
1449.129157,7179.997637,-6587.832884,995.924147
1449.129486,7402.059420,-6217.729913,919.314598
1449.129816,7105.977043,-6439.791695,1532.190996
1449.130146,7105.977043,-6291.750507,919.314598
1449.130475,7031.956449,-6439.791695,842.705048
1449.130805,7105.977043,-6291.750507,1072.533697
1449.131135,6883.915261,-6217.729913,1225.752797
1449.131464,6957.935855,-5921.647536,919.314598
1449.131794,6735.874072,-6587.832884,1149.143247
1449.132124,6735.874072,-6291.750507,1149.143247
1449.132453,6883.915261,-6809.894666,1072.533697
1449.132783,7105.977043,-6439.791695,306.438199
1449.133113,6809.894666,-7031.956449,1302.362347
1449.133442,6587.832884,-7031.956449,1072.533697
1449.133772,6513.812290,-7254.018232,689.485948
1449.134102,6365.771101,-6883.915261,766.095498
1449.134431,6883.915261,-7476.080014,1149.143247
1449.134761,6957.935855,-6883.915261,1149.143247
1449.135091,7179.997637,-6439.791695,1225.752797
1449.135420,7105.977043,-6217.729913,995.924147
1449.135750,6883.915261,-6365.771101,1225.752797
1449.136080,6809.894666,-6217.729913,1302.362347
1449.136409,7031.956449,-6513.812290,1149.143247
1449.136739,7179.997637,-6291.750507,1149.143247
1449.137069,7328.038826,-6217.729913,919.314598
1449.137398,7402.059420,-6217.729913,1072.533697
1449.137728,7105.977043,-6587.832884,1302.362347
1449.138058,6957.935855,-6513.812290,1072.533697
1449.138387,6809.894666,-6439.791695,995.924147
1449.138717,6661.853478,-6217.729913,842.705048
1449.139047,6365.771101,-6143.709319,1455.581446
1449.139376,6809.894666,-6735.874072,1149.143247
1449.139706,7031.956449,-6365.771101,1072.533697
1449.140035,6735.874072,-6217.729913,995.924147
1449.140365,7105.977043,-6587.832884,919.314598
1449.140695,6735.874072,-6513.812290,1302.362347
1449.141024,7031.956449,-7105.977043,995.924147
1449.141354,6809.894666,-7254.018232,995.924147
1449.141684,6957.935855,-6883.915261,842.705048
1449.142013,7328.038826,-7105.977043,612.876398
1449.142343,7105.977043,-6513.812290,1378.971896
1449.142673,7328.038826,-6809.894666,1072.533697
1449.143002,7328.038826,-6587.832884,995.924147
1449.143332,6809.894666,-6217.729913,1149.143247
1449.143662,7105.977043,-6439.791695,612.876398
1449.143991,7105.977043,-6069.688724,919.314598
1449.144321,7328.038826,-5995.668130,995.924147
1449.144651,7254.018232,-5921.647536,995.924147
1449.144980,7179.997637,-6587.832884,1149.143247
1449.145310,7105.977043,-6439.791695,1149.143247
1449.145640,7105.977043,-6513.812290,919.314598
1449.145969,6809.894666,-6587.832884,919.314598
1449.146299,6587.832884,-6883.915261,919.314598
1449.146629,6809.894666,-6957.935855,612.876398
1449.146958,6661.853478,-7031.956449,1149.143247
1449.147288,7031.956449,-6439.791695,1149.143247
1449.147618,6661.853478,-6439.791695,1072.533697
1449.147947,6661.853478,-6143.709319,2145.067394
1449.148277,6809.894666,-6291.750507,1149.143247
1449.148607,6587.832884,-6439.791695,689.485948
1449.148936,6587.832884,-6883.915261,1225.752797
1449.149266,7179.997637,-6883.915261,919.314598
1449.149596,7105.977043,-6735.874072,1225.752797
1449.149925,7105.977043,-6735.874072,1378.971896
1449.150255,7179.997637,-6809.894666,919.314598
1449.150585,7402.059420,-6439.791695,1072.533697
1449.150914,7105.977043,-6439.791695,1149.143247
1449.151244,7402.059420,-5403.503377,842.705048
1449.151574,7994.224174,-4811.338623,766.095498
1449.151903,8364.327145,-5181.441594,1072.533697
1449.152233,8290.306550,-5699.585753,1685.410096
1449.152563,7254.018232,-5995.668130,1685.410096
1449.152892,6661.853478,-6291.750507,536.266849
1449.153222,5551.544565,-7254.018232,0.000000
1449.153552,6069.688724,-6513.812290,995.924147
1449.153881,7105.977043,-7402.059420,689.485948
1449.154211,8364.327145,-6069.688724,1915.238745
1449.154541,8512.368333,-5699.585753,1685.410096
1449.154870,8364.327145,-4589.276840,1072.533697
1449.155200,7846.182985,-5033.400406,1149.143247
1449.155530,7550.100608,-5551.544565,1455.581446
1449.155859,7920.203579,-4811.338623,383.047749
1449.156189,8290.306550,-5107.421000,995.924147
1449.156519,8216.285956,-5033.400406,306.438199
1449.156848,8142.265362,-5625.565159,383.047749
1449.157178,8068.244768,-5033.400406,1149.143247
1449.157507,8512.368333,-4959.379811,229.828649
1449.157837,8660.409521,-5995.668130,995.924147
1449.158167,8438.347739,-5551.544565,995.924147
1449.158496,8142.265362,-5699.585753,383.047749
1449.158826,7772.162391,-5477.523971,842.705048
1449.159156,8512.368333,-4515.256246,995.924147
1449.159485,8956.491898,-4663.297435,766.095498
1449.159815,9104.533087,-3923.091493,1838.629195
1449.160145,9474.636058,-3849.070898,1072.533697
1449.160474,9696.697840,-2960.823768,1685.410096
1449.160804,9622.677246,-3108.864956,1302.362347
1449.161134,9326.594869,-3552.988522,1149.143247
1449.161463,9622.677246,-2812.782580,1302.362347
1449.161793,9326.594869,-2960.823768,1685.410096
1449.162123,9770.718434,-3256.906145,1072.533697
1449.162452,9548.656652,-4737.318029,1455.581446
1449.162782,9104.533087,-5477.523971,1608.800546
1449.163112,8882.471304,-5107.421000,612.876398
1449.163441,7328.038826,-5773.606348,1149.143247
1449.163771,7624.121203,-5033.400406,689.485948
1449.164101,7846.182985,-5699.585753,229.828649
1449.164430,8586.388927,-4589.276840,1838.629195
1449.164760,9030.512492,-4219.173869,1455.581446
1449.165090,9252.574275,-3775.050304,1302.362347
1449.165419,9104.533087,-3997.112087,995.924147
1449.165749,8512.368333,-5033.400406,459.657299
1449.166079,8808.450710,-4737.318029,766.095498
1449.166408,9400.615463,-4663.297435,229.828649
1449.166738,9178.553681,-5403.503377,76.609550
1449.167068,9178.553681,-5477.523971,919.314598
1449.167397,9474.636058,-5403.503377,919.314598
1449.167727,9844.739029,-4515.256246,1532.190996
1449.168057,9326.594869,-4367.215058,612.876398
1449.168386,8882.471304,-4515.256246,842.705048
1449.168716,8586.388927,-4885.359217,1378.971896
1449.169046,8438.347739,-4367.215058,1991.848295
1449.169375,8290.306550,-3182.885551,1225.752797
1449.169705,7994.224174,-4145.153275,1762.019645
1449.170035,8956.491898,-4293.194464,2604.724693
1449.170364,9252.574275,-4219.173869,1991.848295
1449.170694,9548.656652,-3627.009116,995.924147
1449.171024,8882.471304,-3923.091493,1072.533697
1449.171353,8808.450710,-4071.132681,536.266849
1449.171683,8956.491898,-4663.297435,536.266849
1449.172013,9178.553681,-4515.256246,383.047749
1449.172342,8956.491898,-5329.482782,-383.047749
1449.172672,8660.409521,-5625.565159,0.000000
1449.173002,8364.327145,-6365.771101,0.000000
1449.173331,8290.306550,-6439.791695,153.219100
1449.173661,8586.388927,-5107.421000,0.000000
1449.173990,8290.306550,-5847.626942,919.314598
1449.174320,8438.347739,-5477.523971,1838.629195
1449.174650,8882.471304,-4515.256246,2145.067394
1449.174979,9474.636058,-3775.050304,2374.896044
1449.175309,10066.800811,-3256.906145,2374.896044
1449.175639,9474.636058,-2220.617826,2068.457845
1449.175968,9844.739029,-1702.473667,842.705048
1449.176298,10214.842000,-1184.329507,459.657299
1449.176628,10288.862594,-1702.473667,612.876398
1449.176957,11251.130318,-2960.823768,76.609550
1449.177287,10288.862594,-3404.947333,229.828649
1449.177617,9622.677246,-4145.153275,459.657299
1449.177946,9030.512492,-5995.668130,383.047749
1449.178276,7994.224174,-7105.977043,842.705048
1449.178606,7254.018232,-9030.512492,536.266849
1449.178935,7105.977043,-9252.574275,612.876398
1449.179265,6439.791695,-7846.182985,612.876398
1449.179595,6069.688724,-7402.059420,612.876398
1449.179924,6809.894666,-5255.462188,689.485948
1449.180254,8438.347739,-4663.297435,1072.533697
1449.180584,9696.697840,-3330.926739,1685.410096
1449.180913,10140.821405,-740.205942,1762.019645
1449.181243,10140.821405,-370.102971,766.095498
1449.181573,10510.924376,-222.061783,1072.533697
1449.181902,10807.006753,-518.144159,612.876398
1449.182232,11991.336260,-1258.350101,1225.752797
1449.182562,12583.501014,-1332.370696,1685.410096
1449.182891,12731.542202,-1776.494261,1532.190996
1449.183221,11325.150913,-3552.988522,1532.190996
1449.183551,9474.636058,-6513.812290,2221.676944
1449.183880,7476.080014,-7624.121203,1378.971896
1449.184210,5995.668130,-9252.574275,612.876398
1449.184540,4663.297435,-9030.512492,-306.438199
1449.184869,3330.926739,-8586.388927,-1072.533697
1449.185199,3849.070898,-10584.944971,-229.828649
1449.185529,6587.832884,-4737.318029,-383.047749
1449.185858,7624.121203,-6291.750507,1685.410096
1449.186188,9992.780217,-3923.091493,995.924147
1449.186518,11103.089130,296.082377,1685.410096
1449.186847,11917.315666,-1850.514855,1608.800546
1449.187177,11103.089130,-370.102971,919.314598
1449.187507,10658.965565,296.082377,229.828649
1449.187836,11547.212695,-1924.535449,1685.410096
1449.188166,12805.562797,-962.267725,2068.457845
1449.188496,14137.933492,-3997.112087,4213.525239
1449.188825,13101.645173,-3330.926739,2528.115143
1449.189155,9770.718434,-4145.153275,1685.410096
1449.189485,7105.977043,-5699.585753,995.924147
1449.189814,5255.462188,-5773.606348,-383.047749
1449.190144,4145.153275,-7476.080014,-919.314598
1449.190473,3552.988522,-7994.224174,-842.705048
1449.190803,4737.318029,-7846.182985,-689.485948
1449.191133,7624.121203,-5033.400406,-536.266849
1449.191462,10066.800811,-3997.112087,229.828649
1449.191792,11621.233289,-3701.029710,1532.190996
1449.192122,11917.315666,-2368.659014,1608.800546
1449.192451,11325.150913,-3108.864956,1532.190996
1449.192781,10288.862594,-3330.926739,1532.190996
1449.193111,9474.636058,-3775.050304,1225.752797
1449.193440,8956.491898,-6069.688724,842.705048
1449.193770,8438.347739,-7254.018232,1762.019645
1449.194100,8216.285956,-7550.100608,2298.286494
1449.194429,8512.368333,-6439.791695,1378.971896
1449.194759,8216.285956,-4885.359217,995.924147
1449.195089,7328.038826,-3256.906145,612.876398
1449.195418,8438.347739,-2738.761985,0.000000
1449.195748,8956.491898,-2738.761985,306.438199
1449.196078,9104.533087,-2294.638420,306.438199
1449.196407,9326.594869,-2590.720797,766.095498
1449.196737,9770.718434,-2220.617826,1072.533697
1449.197067,11103.089130,-3108.864956,1225.752797
1449.197396,11547.212695,-4737.318029,2451.505594
1449.197726,10881.027347,-5625.565159,2834.553343
1449.198056,10140.821405,-5477.523971,2145.067394
1449.198385,7920.203579,-4811.338623,536.266849
1449.198715,7105.977043,-4441.235652,0.000000
1449.199045,6957.935855,-6143.709319,306.438199
1449.199374,7328.038826,-7920.203579,1072.533697
1449.199704,7031.956449,-7476.080014,1225.752797
1449.200034,6735.874072,-5551.544565,383.047749
1449.200363,6661.853478,-3627.009116,-459.657299
1449.200693,7179.997637,-5699.585753,689.485948
1449.201023,9104.533087,-6291.750507,1838.629195
1449.201352,9474.636058,-2812.782580,766.095498
1449.201681,9252.574275,-1332.370696,689.485948
1449.202011,11251.130318,-296.082377,1378.971896
1449.202340,11843.295072,-1332.370696,1378.971896
1449.202669,11399.171507,-3478.967927,1532.190996
1449.202999,9992.780217,-3997.112087,1532.190996
1449.203328,10140.821405,-4367.215058,1149.143247
1449.203657,9992.780217,-5255.462188,1915.238745
1449.203986,9918.759623,-4515.256246,2221.676944
1449.204316,9696.697840,-4885.359217,1685.410096
1449.204645,9030.512492,-3404.947333,459.657299
1449.204974,8290.306550,-3997.112087,459.657299
1449.205304,8660.409521,-5477.523971,1225.752797
1449.205633,8808.450710,-6439.791695,919.314598
1449.205962,5921.647536,-6587.832884,-383.047749
1449.206292,4293.194464,-6291.750507,-1302.362347
1449.206621,5847.626942,-7328.038826,-766.095498
1449.206950,8586.388927,-6883.915261,1991.848295
1449.207280,10732.986159,-4737.318029,1302.362347
1449.207609,11177.109724,-2664.741391,919.314598
1449.207938,10584.944971,-2886.803174,1455.581446
1449.208268,9696.697840,-5181.441594,1378.971896
1449.208597,8882.471304,-4885.359217,2068.457845
1449.208926,8734.430116,-2442.679609,459.657299
1449.209255,8734.430116,-3404.947333,76.609550
1449.209585,9918.759623,-3997.112087,2068.457845
1449.209914,11103.089130,-4737.318029,2911.162892
1449.210243,10807.006753,-2220.617826,2834.553343
1449.210573,10881.027347,-1924.535449,1608.800546
1449.210902,9770.718434,-4145.153275,1302.362347
1449.211231,7550.100608,-4663.297435,689.485948
1449.211561,5181.441594,-6957.935855,383.047749
1449.211890,5107.421000,-5477.523971,-1378.971896
1449.212219,6365.771101,-7328.038826,0.000000
1449.212549,7994.224174,-8438.347739,1072.533697
1449.212878,9178.553681,-7328.038826,1915.238745
1449.213207,8512.368333,-8660.409521,2374.896044
1449.213537,6513.812290,-7550.100608,459.657299
1449.213866,4515.256246,-7179.997637,-919.314598
1449.214195,4589.276840,-7031.956449,-383.047749
1449.214524,5773.606348,-6365.771101,459.657299
1449.214854,7328.038826,-5847.626942,612.876398
1449.215183,8290.306550,-4589.276840,1378.971896
1449.215512,9992.780217,-3775.050304,1378.971896
1449.215842,10732.986159,-5551.544565,2911.162892
1449.216171,10066.800811,-4663.297435,2604.724693
1449.216500,9104.533087,-3997.112087,766.095498
1449.216830,7772.162391,-4219.173869,536.266849
1449.217159,7550.100608,-5995.668130,995.924147
1449.217488,7402.059420,-5403.503377,612.876398
1449.217818,7772.162391,-5329.482782,995.924147
1449.218147,7698.141797,-5329.482782,766.095498
1449.218476,7328.038826,-5477.523971,995.924147
1449.218806,6513.812290,-5921.647536,1532.190996
1449.219135,7105.977043,-5773.606348,1302.362347
1449.219464,7031.956449,-4959.379811,153.219100
1449.219793,7179.997637,-5995.668130,536.266849
1449.220123,6957.935855,-6365.771101,842.705048
1449.220452,7031.956449,-7179.997637,612.876398
1449.220781,7402.059420,-7476.080014,1149.143247
1449.221111,7105.977043,-8142.265362,1685.410096
1449.221440,7402.059420,-7994.224174,2068.457845
1449.221769,7624.121203,-7105.977043,2451.505594
1449.222099,6735.874072,-6809.894666,1532.190996
1449.222428,5921.647536,-6143.709319,2145.067394
1449.222757,5255.462188,-7105.977043,1149.143247
1449.223087,5181.441594,-6587.832884,995.924147
1449.223416,5625.565159,-5255.462188,459.657299
1449.223745,6365.771101,-5551.544565,76.609550
1449.224075,7179.997637,-5699.585753,1149.143247
1449.224404,7994.224174,-6365.771101,1302.362347
1449.224733,8290.306550,-5625.565159,995.924147
1449.225063,7476.080014,-6217.729913,689.485948
1449.225392,7698.141797,-8142.265362,1225.752797
1449.225721,7179.997637,-7994.224174,2374.896044
1449.226050,6587.832884,-7476.080014,2451.505594
1449.226380,6809.894666,-6809.894666,995.924147
1449.226709,6217.729913,-5995.668130,1532.190996
1449.227038,6439.791695,-6661.853478,1378.971896
1449.227368,5329.482782,-6439.791695,536.266849
1449.227697,4663.297435,-7476.080014,0.000000
1449.228026,4589.276840,-7179.997637,229.828649
1449.228356,6735.874072,-5995.668130,1225.752797
1449.228685,7624.121203,-6661.853478,1225.752797
1449.229014,8216.285956,-6069.688724,1149.143247
1449.229344,8438.347739,-6069.688724,689.485948
1449.229673,8438.347739,-5255.462188,383.047749
1449.230002,7624.121203,-6217.729913,536.266849
1449.230332,7105.977043,-7328.038826,1149.143247
1449.230661,6587.832884,-7550.100608,612.876398
1449.230990,6291.750507,-7402.059420,1149.143247
1449.231319,6587.832884,-7031.956449,1225.752797
1449.231649,6809.894666,-6439.791695,2221.676944
1449.231978,6217.729913,-7179.997637,1149.143247
1449.232307,5699.585753,-5551.544565,0.000000
1449.232637,5477.523971,-5995.668130,383.047749
1449.232966,7254.018232,-4959.379811,1991.848295
1449.233295,8216.285956,-5699.585753,612.876398
1449.233625,7994.224174,-5329.482782,842.705048
1449.233954,8586.388927,-5181.441594,1149.143247
1449.234283,10140.821405,-5181.441594,1225.752797
1449.234613,9474.636058,-6365.771101,1915.238745
1449.234942,7846.182985,-7179.997637,1685.410096
1449.235271,7179.997637,-7179.997637,919.314598
1449.235601,6661.853478,-6883.915261,842.705048
1449.235930,5403.503377,-8660.409521,1378.971896
1449.236259,5107.421000,-6513.812290,1072.533697
1449.236588,5181.441594,-8142.265362,0.000000
1449.236918,4663.297435,-6957.935855,153.219100
1449.237247,4737.318029,-5477.523971,459.657299
1449.237576,6957.935855,-6143.709319,689.485948
1449.237906,7846.182985,-5107.421000,919.314598
1449.238235,7994.224174,-6661.853478,919.314598
1449.238564,8290.306550,-6217.729913,1302.362347
1449.238894,8512.368333,-5847.626942,1225.752797
1449.239223,8216.285956,-7476.080014,842.705048
1449.239552,6809.894666,-7402.059420,1378.971896
1449.239882,6439.791695,-7476.080014,459.657299
1449.240211,7550.100608,-6883.915261,612.876398
1449.240540,6883.915261,-6883.915261,1378.971896
1449.240870,5699.585753,-8438.347739,1608.800546
1449.241199,6217.729913,-6439.791695,689.485948
1449.241528,6069.688724,-6143.709319,459.657299
1449.241858,6883.915261,-4737.318029,1608.800546
1449.242187,7994.224174,-5699.585753,2221.676944
1449.242516,8068.244768,-5921.647536,1455.581446
1449.242845,6439.791695,-4811.338623,383.047749
1449.243175,6143.709319,-6513.812290,1072.533697
1449.243504,7328.038826,-5995.668130,1072.533697
1449.243833,7179.997637,-8142.265362,1072.533697
1449.244163,5773.606348,-9622.677246,1302.362347
1449.244492,5773.606348,-8586.388927,1149.143247
1449.244821,6439.791695,-7328.038826,383.047749
1449.245151,6809.894666,-7031.956449,919.314598
1449.245480,7402.059420,-7031.956449,2145.067394
1449.245809,8216.285956,-6809.894666,1915.238745
1449.246139,7105.977043,-5551.544565,1685.410096
1449.246468,5921.647536,-3997.112087,1225.752797
1449.246797,7698.141797,-3256.906145,995.924147
1449.247127,8068.244768,-4071.132681,919.314598
1449.247456,7031.956449,-4959.379811,1072.533697
1449.247785,6513.812290,-6365.771101,1149.143247
1449.248114,7031.956449,-6587.832884,842.705048
1449.248444,6735.874072,-6883.915261,612.876398
1449.248773,6217.729913,-8364.327145,1225.752797
1449.249102,6735.874072,-9178.553681,1302.362347
1449.249432,5921.647536,-8142.265362,995.924147
1449.249761,5995.668130,-8956.491898,76.609550
1449.250090,6069.688724,-7846.182985,1532.190996
1449.250420,7179.997637,-6957.935855,1225.752797
1449.250749,7476.080014,-5847.626942,1072.533697
1449.251078,7105.977043,-4367.215058,995.924147
1449.251408,7402.059420,-5033.400406,1532.190996
1449.251737,7846.182985,-4737.318029,1532.190996
1449.252066,7031.956449,-4589.276840,1072.533697
1449.252396,6957.935855,-4663.297435,689.485948
1449.252725,7772.162391,-5255.462188,689.485948
1449.253054,7476.080014,-7698.141797,842.705048
1449.253383,6513.812290,-8364.327145,1225.752797
1449.253713,7031.956449,-8438.347739,842.705048
1449.254042,7328.038826,-7550.100608,919.314598
1449.254371,7105.977043,-7624.121203,689.485948
1449.254701,6735.874072,-7402.059420,1455.581446
1449.255030,7105.977043,-7031.956449,1149.143247
1449.255359,7402.059420,-4737.318029,689.485948
1449.255689,7105.977043,-3404.947333,1225.752797
1449.256018,7994.224174,-4219.173869,1991.848295
1449.256347,8512.368333,-4441.235652,1378.971896
1449.256677,7328.038826,-5995.668130,1302.362347
1449.257006,7105.977043,-5551.544565,1302.362347
1449.257335,7920.203579,-5033.400406,766.095498
1449.257665,7328.038826,-7105.977043,995.924147
1449.257994,6513.812290,-8216.285956,1685.410096
1449.258323,6587.832884,-8808.450710,459.657299
1449.258652,6809.894666,-8734.430116,0.000000
1449.258982,5107.421000,-9770.718434,536.266849
1449.259311,5033.400406,-9474.636058,306.438199
1449.259640,5033.400406,-8512.368333,0.000000
1449.259970,5181.441594,-6957.935855,0.000000
1449.260299,5255.462188,-5921.647536,536.266849
1449.260628,7476.080014,-4441.235652,1302.362347
1449.260958,8956.491898,-4737.318029,1532.190996
1449.261287,8882.471304,-3627.009116,1149.143247
1449.261616,8956.491898,-5699.585753,1685.410096
1449.261946,8290.306550,-4441.235652,1149.143247
1449.262275,7624.121203,-6883.915261,1149.143247
1449.262604,7179.997637,-7105.977043,1838.629195
1449.262934,7846.182985,-7328.038826,1072.533697
1449.263263,8364.327145,-7698.141797,842.705048
1449.263592,6291.750507,-7846.182985,612.876398
1449.263922,5255.462188,-8586.388927,612.876398
1449.264251,5477.523971,-7402.059420,153.219100
1449.264580,5255.462188,-6439.791695,0.000000
1449.264909,5329.482782,-5329.482782,536.266849
1449.265239,6291.750507,-5847.626942,766.095498
1449.265568,7994.224174,-4737.318029,1072.533697
1449.265897,8290.306550,-4589.276840,2068.457845
1449.266227,8808.450710,-4737.318029,1991.848295
1449.266556,8882.471304,-5107.421000,1302.362347
1449.266885,7920.203579,-7254.018232,1685.410096
1449.267215,7328.038826,-7254.018232,995.924147
1449.267544,7105.977043,-7328.038826,1532.190996
1449.267873,6587.832884,-8216.285956,1149.143247
1449.268203,5921.647536,-9178.553681,612.876398
1449.268532,5773.606348,-8808.450710,1608.800546
1449.268861,5403.503377,-8068.244768,536.266849
1449.269191,5255.462188,-5921.647536,0.000000
1449.269520,5403.503377,-5033.400406,0.000000
1449.269849,5995.668130,-5551.544565,306.438199
1449.270178,7476.080014,-5551.544565,1455.581446
1449.270508,8142.265362,-5255.462188,1762.019645
1449.270837,8438.347739,-4589.276840,1608.800546
1449.271166,8660.409521,-5699.585753,2451.505594
1449.271496,8808.450710,-6365.771101,2604.724693
1449.271825,8290.306550,-6069.688724,2757.943793
1449.272154,7624.121203,-6069.688724,1608.800546
1449.272484,6439.791695,-7179.997637,1455.581446
1449.272813,5329.482782,-8142.265362,1149.143247
1449.273142,4219.173869,-8808.450710,1302.362347
1449.273472,4293.194464,-7476.080014,-383.047749
1449.273801,4959.379811,-5995.668130,0.000000
1449.274130,5699.585753,-7105.977043,1302.362347
1449.274460,7105.977043,-7031.956449,1225.752797
1449.274789,7105.977043,-4663.297435,842.705048
1449.275118,7476.080014,-5255.462188,919.314598
1449.275447,8216.285956,-6217.729913,1302.362347
1449.275777,8364.327145,-7402.059420,1455.581446
1449.276106,7698.141797,-7402.059420,2298.286494
1449.276435,7550.100608,-6957.935855,1225.752797
1449.276765,7550.100608,-7772.162391,2068.457845
1449.277094,6957.935855,-8956.491898,1762.019645
1449.277423,5551.544565,-8734.430116,919.314598
1449.277753,5329.482782,-7105.977043,0.000000
1449.278082,5033.400406,-6587.832884,-459.657299
1449.278411,5107.421000,-6069.688724,229.828649
1449.278741,6513.812290,-4737.318029,766.095498
1449.279070,7254.018232,-5995.668130,1225.752797
1449.279399,7772.162391,-5181.441594,1149.143247
1449.279729,7550.100608,-4663.297435,612.876398
1449.280058,9178.553681,-4885.359217,2298.286494
1449.280387,9474.636058,-6291.750507,2145.067394
1449.280716,8364.327145,-6291.750507,1762.019645
1449.281046,7328.038826,-5847.626942,919.314598
1449.281375,6883.915261,-7550.100608,1532.190996
1449.281704,6809.894666,-9918.759623,1149.143247
1449.282034,5181.441594,-7698.141797,1149.143247
1449.282363,5551.544565,-7698.141797,536.266849
1449.282692,5033.400406,-7254.018232,0.000000
1449.283022,5181.441594,-5625.565159,0.000000
1449.283351,6587.832884,-5699.585753,1225.752797
1449.283680,8290.306550,-4515.256246,1225.752797
1449.284010,7698.141797,-4145.153275,0.000000
1449.284339,7105.977043,-4367.215058,766.095498
1449.284668,7550.100608,-4959.379811,842.705048
1449.284998,7920.203579,-6957.935855,995.924147
1449.285327,8216.285956,-7254.018232,2298.286494
1449.285656,8364.327145,-6513.812290,1838.629195
1449.285986,8586.388927,-6143.709319,1685.410096
1449.286315,7105.977043,-8068.244768,1378.971896
1449.286644,6069.688724,-8734.430116,1608.800546
1449.286973,5403.503377,-6217.729913,76.609550
1449.287303,4145.153275,-7179.997637,-842.705048
1449.287632,4811.338623,-5329.482782,229.828649
1449.287961,7328.038826,-4811.338623,1302.362347
1449.288291,8586.388927,-6069.688724,1302.362347
1449.288620,8290.306550,-4293.194464,1532.190996
1449.288949,8068.244768,-4367.215058,459.657299
1449.289279,8290.306550,-5551.544565,612.876398
1449.289608,7846.182985,-6513.812290,1072.533697
1449.289937,7328.038826,-7994.224174,612.876398
1449.290267,7328.038826,-7698.141797,1072.533697
1449.290596,7328.038826,-8216.285956,1225.752797
1449.290925,7772.162391,-9178.553681,1149.143247
1449.291255,6809.894666,-8068.244768,842.705048
1449.291584,5847.626942,-8956.491898,995.924147
1449.291913,5773.606348,-8734.430116,383.047749
1449.292242,4885.359217,-6587.832884,0.000000
1449.292572,5625.565159,-5699.585753,-229.828649
1449.292901,7105.977043,-5921.647536,1149.143247
1449.293230,7994.224174,-4145.153275,766.095498
1449.293560,7254.018232,-4145.153275,612.876398
1449.293889,7920.203579,-4959.379811,1378.971896
1449.294218,8734.430116,-5847.626942,1455.581446
1449.294548,8068.244768,-6365.771101,1532.190996
1449.294877,7105.977043,-7105.977043,1915.238745
1449.295206,7476.080014,-7994.224174,1378.971896
1449.295536,6661.853478,-8068.244768,1149.143247
1449.295865,6217.729913,-7846.182985,995.924147
1449.296194,6217.729913,-8364.327145,1378.971896
1449.296524,6439.791695,-6735.874072,842.705048
1449.296853,6069.688724,-6439.791695,536.266849
1449.297182,6143.709319,-4515.256246,1225.752797
1449.297511,7179.997637,-3701.029710,1149.143247
1449.297841,7476.080014,-3108.864956,459.657299
1449.298170,7179.997637,-3330.926739,1608.800546
1449.298499,7402.059420,-4737.318029,1378.971896
1449.298829,7846.182985,-4663.297435,766.095498
1449.299158,7550.100608,-6513.812290,1991.848295
1449.299487,7994.224174,-7624.121203,1762.019645
1449.299817,8438.347739,-7179.997637,1378.971896
1449.300146,7846.182985,-8364.327145,1378.971896
1449.300475,6513.812290,-8438.347739,1838.629195
1449.300805,6365.771101,-9178.553681,1838.629195
1449.301134,4885.359217,-8734.430116,153.219100
1449.301463,3627.009116,-7550.100608,919.314598
1449.301793,4515.256246,-7105.977043,1149.143247
1449.302122,6439.791695,-6069.688724,919.314598
1449.302451,6439.791695,-3701.029710,1762.019645
1449.302780,6957.935855,-4367.215058,1378.971896
1449.303110,7624.121203,-4515.256246,689.485948
1449.303437,7402.059420,-5477.523971,612.876398
1449.303766,6365.771101,-7328.038826,689.485948
1449.304096,7402.059420,-8068.244768,1302.362347
1449.304425,7994.224174,-9474.636058,1685.410096
1449.304754,7179.997637,-10214.842000,1455.581446
1449.305083,5921.647536,-9030.512492,1149.143247
1449.305413,6217.729913,-8808.450710,1302.362347
1449.305742,6069.688724,-9178.553681,0.000000
1449.306071,4441.235652,-7105.977043,612.876398
1449.306401,4737.318029,-7105.977043,766.095498
1449.306730,6513.812290,-4811.338623,766.095498
1449.307059,6883.915261,-2516.700203,612.876398
1449.307388,7031.956449,-3701.029710,1378.971896
1449.307718,7772.162391,-3182.885551,1072.533697
1449.308047,8660.409521,-4293.194464,1149.143247
1449.308376,7698.141797,-5255.462188,1149.143247
1449.308705,7920.203579,-6217.729913,1685.410096
1449.309035,8364.327145,-7772.162391,1762.019645
1449.309364,7328.038826,-9326.594869,1608.800546
1449.309693,6513.812290,-9326.594869,2604.724693
1449.310023,7994.224174,-7105.977043,1915.238745
1449.310352,6883.915261,-7105.977043,536.266849
1449.310681,5477.523971,-6217.729913,153.219100
1449.311010,5625.565159,-6439.791695,229.828649
1449.311340,6661.853478,-5847.626942,153.219100
1449.311669,5773.606348,-5255.462188,76.609550
1449.311998,5551.544565,-4293.194464,766.095498
1449.312328,7402.059420,-5107.421000,306.438199
1449.312657,7994.224174,-5921.647536,995.924147
1449.312986,7476.080014,-6291.750507,1378.971896
1449.313315,7550.100608,-7920.203579,1149.143247
1449.313645,8438.347739,-7402.059420,1302.362347
1449.313974,7624.121203,-8364.327145,995.924147
1449.314303,7254.018232,-8216.285956,1685.410096
1449.314632,7920.203579,-8882.471304,1532.190996
1449.314962,7031.956449,-8364.327145,842.705048
1449.315291,5329.482782,-6587.832884,689.485948
1449.315620,5255.462188,-7179.997637,689.485948
1449.315950,6069.688724,-5255.462188,612.876398
1449.316279,5921.647536,-5255.462188,-229.828649
1449.316608,5699.585753,-5551.544565,0.000000
1449.316937,7254.018232,-4811.338623,1149.143247
1449.317267,8364.327145,-5921.647536,995.924147
1449.317596,8512.368333,-5921.647536,1532.190996
1449.317925,7402.059420,-7476.080014,2298.286494
1449.318254,7772.162391,-7476.080014,612.876398
1449.318584,6661.853478,-7772.162391,459.657299
1449.318913,6217.729913,-8438.347739,1302.362347
1449.319242,7624.121203,-7105.977043,76.609550
1449.319572,7476.080014,-6513.812290,919.314598
1449.319901,5995.668130,-6513.812290,1455.581446
1449.320230,5921.647536,-6661.853478,842.705048
1449.320559,6809.894666,-4441.235652,766.095498
1449.320889,6587.832884,-5181.441594,0.000000
1449.321218,6809.894666,-4737.318029,1149.143247
1449.321547,7920.203579,-4737.318029,995.924147
1449.321876,8512.368333,-6217.729913,1455.581446
1449.322206,8216.285956,-4811.338623,1302.362347
1449.322535,7772.162391,-5625.565159,1225.752797
1449.322864,8586.388927,-6735.874072,1838.629195
1449.323194,7550.100608,-7550.100608,1608.800546
1449.323523,7105.977043,-8438.347739,2681.334243
1449.323852,7031.956449,-8290.306550,1685.410096
1449.324181,5699.585753,-8956.491898,995.924147
1449.324511,4663.297435,-6069.688724,612.876398
1449.324840,4441.235652,-7328.038826,0.000000
1449.325169,5625.565159,-6143.709319,-229.828649
1449.325499,5699.585753,-5773.606348,0.000000
1449.325828,6661.853478,-6217.729913,459.657299
1449.326157,8364.327145,-5329.482782,1608.800546
1449.326486,8956.491898,-6291.750507,1455.581446
1449.326816,8660.409521,-6661.853478,1762.019645
1449.327145,7179.997637,-6957.935855,1838.629195
1449.327474,7031.956449,-7179.997637,766.095498
1449.327803,6513.812290,-7550.100608,842.705048
1449.328133,6513.812290,-7476.080014,2068.457845
1449.328462,6365.771101,-7402.059420,1149.143247
1449.328791,6439.791695,-7402.059420,153.219100
1449.329121,5255.462188,-7698.141797,842.705048
1449.329450,6069.688724,-6291.750507,383.047749
1449.329779,6661.853478,-7179.997637,536.266849
1449.330108,5847.626942,-5477.523971,306.438199
1449.330438,6513.812290,-6365.771101,536.266849
1449.330767,7994.224174,-5625.565159,1685.410096
1449.331096,8438.347739,-5699.585753,1072.533697
1449.331425,7031.956449,-6291.750507,2068.457845
1449.331755,7476.080014,-5255.462188,2221.676944
1449.332084,7994.224174,-5847.626942,1455.581446
1449.332413,8142.265362,-7105.977043,2145.067394
1449.332743,7920.203579,-6587.832884,2604.724693
1449.333072,7550.100608,-6957.935855,1608.800546
1449.333401,6069.688724,-6809.894666,306.438199
1449.333730,5551.544565,-5847.626942,689.485948
1449.334060,6291.750507,-6809.894666,383.047749
1449.334389,6587.832884,-5921.647536,1455.581446
1449.334718,5847.626942,-6883.915261,536.266849
1449.335048,6661.853478,-5921.647536,229.828649
1449.335377,7179.997637,-4737.318029,306.438199
1449.335706,6957.935855,-7031.956449,229.828649
1449.336035,6735.874072,-6587.832884,1378.971896
1449.336365,7624.121203,-6809.894666,1225.752797
1449.336694,8882.471304,-6661.853478,1378.971896
1449.337023,8216.285956,-6661.853478,2451.505594
1449.337352,7994.224174,-6809.894666,1915.238745
1449.337682,7994.224174,-6513.812290,2221.676944
1449.338011,6217.729913,-6735.874072,0.000000
1449.338340,4367.215058,-6883.915261,-153.219100
1449.338670,4441.235652,-6883.915261,229.828649
1449.338999,6365.771101,-7994.224174,1225.752797
1449.339328,6143.709319,-6365.771101,689.485948
1449.339657,6069.688724,-6809.894666,536.266849
1449.339987,6809.894666,-5699.585753,536.266849
1449.340316,7105.977043,-6291.750507,612.876398
1449.340645,7254.018232,-6513.812290,1149.143247
1449.340974,7772.162391,-5551.544565,1302.362347
1449.341304,8068.244768,-7550.100608,1532.190996
1449.341633,7476.080014,-7846.182985,1762.019645
1449.341962,7550.100608,-6587.832884,1685.410096
1449.342292,7920.203579,-7328.038826,1302.362347
1449.342621,7105.977043,-7328.038826,536.266849
1449.342950,6365.771101,-5329.482782,306.438199
1449.343279,7698.141797,-6587.832884,919.314598
1449.343609,7772.162391,-6439.791695,766.095498
1449.343938,6735.874072,-5625.565159,689.485948
1449.344267,5403.503377,-6513.812290,229.828649
1449.344597,5921.647536,-6735.874072,76.609550
1449.344926,6365.771101,-7254.018232,229.828649
1449.345255,6069.688724,-6735.874072,919.314598
1449.345584,7031.956449,-7031.956449,1991.848295
1449.345914,8660.409521,-6439.791695,1608.800546
1449.346243,8290.306550,-6291.750507,2911.162892
1449.346572,8216.285956,-5403.503377,2221.676944
1449.346901,7994.224174,-5773.606348,1302.362347
1449.347231,6883.915261,-5699.585753,1225.752797
1449.347560,6439.791695,-6069.688724,1225.752797
1449.347889,8216.285956,-5551.544565,689.485948
1449.348219,7920.203579,-5403.503377,1608.800546
1449.348548,6587.832884,-6291.750507,1072.533697
1449.348877,5847.626942,-7031.956449,306.438199
1449.349206,5699.585753,-5921.647536,842.705048
1449.349536,5551.544565,-7254.018232,76.609550
1449.349865,5255.462188,-7402.059420,842.705048
1449.350194,5477.523971,-6661.853478,1072.533697
1449.350523,6735.874072,-7994.224174,1072.533697
1449.350853,8216.285956,-6661.853478,2374.896044
1449.351182,8512.368333,-6661.853478,2451.505594
1449.351511,8364.327145,-6661.853478,1991.848295
1449.351841,7550.100608,-6069.688724,1608.800546
1449.352170,7402.059420,-4515.256246,1072.533697
1449.352499,7402.059420,-5033.400406,1455.581446
1449.352828,7328.038826,-6069.688724,1532.190996
1449.353158,6587.832884,-5921.647536,612.876398
1449.353487,5699.585753,-7105.977043,0.000000
1449.353816,5699.585753,-7476.080014,0.000000
1449.354146,4737.318029,-8734.430116,0.000000
1449.354475,4737.318029,-9326.594869,612.876398
1449.354804,5107.421000,-8216.285956,459.657299
1449.355133,6069.688724,-7846.182985,306.438199
1449.355463,7105.977043,-6957.935855,1685.410096
1449.355792,8438.347739,-6661.853478,1991.848295
1449.356121,8882.471304,-6291.750507,2221.676944
1449.356450,8660.409521,-4663.297435,995.924147
1449.356780,8142.265362,-4663.297435,1762.019645
1449.357109,9178.553681,-4219.173869,1915.238745
1449.357438,8364.327145,-4737.318029,1149.143247
1449.357768,6809.894666,-4737.318029,1072.533697
1449.358097,6439.791695,-5699.585753,0.000000
1449.358426,6439.791695,-6809.894666,153.219100
1449.358755,5625.565159,-9104.533087,459.657299
1449.359085,4515.256246,-9400.615463,229.828649
1449.359414,4811.338623,-8512.368333,-229.828649
1449.359743,5699.585753,-9030.512492,689.485948
1449.360072,7179.997637,-7179.997637,1302.362347
1449.360402,8438.347739,-6513.812290,2604.724693
1449.360731,9104.533087,-5625.565159,2221.676944
1449.361060,7698.141797,-6069.688724,1302.362347
1449.361390,7105.977043,-3849.070898,1302.362347
1449.361719,7031.956449,-4885.359217,612.876398
1449.362048,7772.162391,-5551.544565,1915.238745
1449.362377,7254.018232,-6217.729913,1225.752797
1449.362707,6957.935855,-6143.709319,383.047749
1449.363036,6957.935855,-6513.812290,306.438199
1449.363365,6291.750507,-7772.162391,842.705048
1449.363695,5551.544565,-8512.368333,229.828649
1449.364024,4737.318029,-8660.409521,76.609550
1449.364353,5255.462188,-8734.430116,0.000000
1449.364682,6291.750507,-7698.141797,306.438199
1449.365012,7402.059420,-7254.018232,1762.019645
1449.365341,7994.224174,-6735.874072,1685.410096
1449.365670,8142.265362,-4959.379811,1915.238745
1449.365999,8512.368333,-3478.967927,2298.286494
1449.366329,8882.471304,-4219.173869,2068.457845
1449.366658,8290.306550,-3478.967927,1532.190996
1449.366987,7105.977043,-5477.523971,1072.533697
1449.367317,6513.812290,-6587.832884,383.047749
1449.367646,6365.771101,-5329.482782,383.047749
1449.367975,6365.771101,-7031.956449,0.000000
1449.368304,5847.626942,-9178.553681,1532.190996
1449.368634,6439.791695,-9104.533087,1378.971896
1449.368963,6957.935855,-8216.285956,536.266849
1449.369292,6069.688724,-6661.853478,766.095498
1449.369621,5921.647536,-7031.956449,1225.752797
1449.369951,5403.503377,-7254.018232,306.438199
1449.370280,5255.462188,-5699.585753,0.000000
1449.370609,7698.141797,-4515.256246,1838.629195
1449.370939,10510.924376,-3627.009116,2451.505594
1449.371268,10288.862594,-4737.318029,2451.505594
1449.371597,8882.471304,-4811.338623,2221.676944
1449.371926,7698.141797,-5403.503377,689.485948
1449.372256,7698.141797,-5773.606348,-383.047749
1449.372585,5847.626942,-7328.038826,0.000000
1449.372914,5329.482782,-9474.636058,612.876398
1449.373244,6365.771101,-10140.821405,612.876398
1449.373573,6069.688724,-9548.656652,1302.362347
1449.373902,6143.709319,-8142.265362,1225.752797
1449.374231,6439.791695,-7031.956449,1072.533697
1449.374561,6587.832884,-7105.977043,766.095498
1449.374890,5329.482782,-5921.647536,383.047749
1449.375219,6291.750507,-4367.215058,2298.286494
1449.375548,7550.100608,-4293.194464,1455.581446
1449.375878,7624.121203,-4293.194464,1608.800546
1449.376207,7994.224174,-4663.297435,1991.848295
1449.376536,9696.697840,-5403.503377,1991.848295
1449.376866,9104.533087,-5847.626942,1149.143247
1449.377195,7105.977043,-7994.224174,1225.752797
1449.377524,6365.771101,-9104.533087,1378.971896
1449.377853,7031.956449,-8290.306550,383.047749
1449.378183,6439.791695,-8660.409521,229.828649
1449.378512,4811.338623,-8734.430116,383.047749
1449.378841,5033.400406,-9548.656652,612.876398
1449.379170,5033.400406,-8290.306550,153.219100
1449.379500,4959.379811,-4737.318029,0.000000
1449.379829,6957.935855,-4145.153275,1149.143247
1449.380158,7994.224174,-4367.215058,1378.971896
1449.380488,8068.244768,-4589.276840,1455.581446
1449.380817,7920.203579,-4663.297435,1915.238745
1449.381146,9474.636058,-3923.091493,1532.190996
1449.381475,9474.636058,-4441.235652,1378.971896
1449.381805,7846.182985,-6809.894666,766.095498
1449.382134,7179.997637,-9104.533087,1608.800546
1449.382463,7105.977043,-9252.574275,1225.752797
1449.382792,6217.729913,-8586.388927,536.266849
1449.383122,4811.338623,-8956.491898,1455.581446
1449.383451,5995.668130,-6809.894666,153.219100
1449.383780,5329.482782,-8290.306550,-612.876398
1449.384110,3478.967927,-6439.791695,0.000000
1449.384439,4885.359217,-4811.338623,459.657299
1449.384768,8290.306550,-4441.235652,459.657299
1449.385097,9178.553681,-3108.864956,1838.629195
1449.385427,9548.656652,-3330.926739,1915.238745
1449.385756,10214.842000,-3701.029710,1838.629195
1449.386085,9252.574275,-5551.544565,1302.362347
1449.386415,7476.080014,-7179.997637,1378.971896
1449.386744,7476.080014,-7105.977043,1532.190996
1449.387073,8438.347739,-7994.224174,383.047749
1449.387402,6587.832884,-10214.842000,1072.533697
1449.387732,5255.462188,-10066.800811,1225.752797
1449.388061,4885.359217,-8956.491898,229.828649
1449.388390,5477.523971,-8142.265362,-842.705048
1449.388719,4293.194464,-5773.606348,-536.266849
1449.389049,5329.482782,-4885.359217,-229.828649
1449.389378,7105.977043,-5329.482782,0.000000
1449.389707,6809.894666,-4811.338623,1378.971896
1449.390037,7772.162391,-2886.803174,1532.190996
1449.390366,9992.780217,-3108.864956,1532.190996
1449.390695,10584.944971,-5625.565159,2757.943793
1449.391024,9252.574275,-7031.956449,2451.505594
1449.391354,7846.182985,-7772.162391,1685.410096
1449.391683,6957.935855,-8660.409521,1608.800546
1449.392012,5477.523971,-9622.677246,383.047749
1449.392341,5107.421000,-9474.636058,1149.143247
1449.392671,5551.544565,-9030.512492,842.705048
1449.393000,5107.421000,-8438.347739,229.828649
1449.393329,4811.338623,-7254.018232,536.266849
1449.393659,5773.606348,-4663.297435,306.438199
1449.393988,7698.141797,-3627.009116,919.314598
1449.394317,8216.285956,-3849.070898,1149.143247
1449.394646,7624.121203,-3108.864956,459.657299
1449.394976,8142.265362,-4219.173869,1532.190996
1449.395305,8956.491898,-6291.750507,1455.581446
1449.395634,8586.388927,-6143.709319,2451.505594
1449.395964,8142.265362,-6143.709319,1762.019645
1449.396293,7179.997637,-8438.347739,2068.457845
1449.396622,6069.688724,-9770.718434,1532.190996
1449.396951,4885.359217,-9918.759623,995.924147
1449.397281,4737.318029,-8882.471304,995.924147
1449.397610,5921.647536,-7846.182985,689.485948
1449.397939,5995.668130,-6735.874072,76.609550
1449.398268,6143.709319,-5181.441594,995.924147
1449.398598,6735.874072,-5033.400406,1072.533697
1449.398927,7254.018232,-3256.906145,76.609550
1449.399256,7624.121203,-1924.535449,536.266849
1449.399586,9622.677246,-3478.967927,2068.457845
1449.399915,9548.656652,-6143.709319,2451.505594
1449.400244,8142.265362,-6365.771101,1991.848295
1449.400573,6217.729913,-6143.709319,919.314598
1449.400903,6291.750507,-7772.162391,612.876398
1449.401232,5773.606348,-9400.615463,995.924147
1449.401561,5625.565159,-9400.615463,1685.410096
1449.401890,5699.585753,-9474.636058,229.828649
1449.402220,5847.626942,-8290.306550,689.485948
1449.402549,6365.771101,-6587.832884,612.876398
1449.402878,7105.977043,-4885.359217,689.485948
1449.403208,7772.162391,-4145.153275,1225.752797
1449.403537,7402.059420,-3849.070898,536.266849
1449.403866,7550.100608,-3997.112087,842.705048
1449.404195,7772.162391,-4589.276840,1225.752797
1449.404525,8438.347739,-6217.729913,1685.410096
1449.404854,7846.182985,-7031.956449,1532.190996
1449.405183,6143.709319,-7031.956449,1455.581446
1449.405513,6217.729913,-8290.306550,1455.581446
1449.405842,6735.874072,-9030.512492,1072.533697
1449.406171,5921.647536,-9104.533087,1225.752797
1449.406500,5477.523971,-9252.574275,1072.533697
1449.406830,5699.585753,-8956.491898,766.095498
1449.407159,5625.565159,-7698.141797,383.047749
1449.407488,6587.832884,-5625.565159,536.266849
1449.407817,8068.244768,-4737.318029,995.924147
1449.408147,8290.306550,-4441.235652,383.047749
1449.408476,7550.100608,-3256.906145,1072.533697
1449.408805,8512.368333,-4071.132681,1225.752797
1449.409135,8660.409521,-4367.215058,1149.143247
1449.409464,7179.997637,-4737.318029,842.705048
1449.409793,6365.771101,-7328.038826,1838.629195
1449.410122,6735.874072,-7994.224174,766.095498
1449.410452,7105.977043,-9844.739029,1685.410096
1449.410781,6587.832884,-9770.718434,2298.286494
1449.411110,6143.709319,-7624.121203,612.876398
1449.411439,5255.462188,-8512.368333,1838.629195
1449.411769,5773.606348,-6661.853478,383.047749
1449.412098,6957.935855,-5847.626942,612.876398
1449.412427,7772.162391,-4737.318029,1762.019645
1449.412756,7328.038826,-4145.153275,0.000000
1449.413085,7328.038826,-4145.153275,76.609550
1449.413415,7105.977043,-3701.029710,1225.752797
1449.413744,7105.977043,-6439.791695,689.485948
1449.414073,7105.977043,-6587.832884,1455.581446
1449.414402,6735.874072,-6587.832884,1378.971896
1449.414731,7920.203579,-7624.121203,1608.800546
1449.415061,7920.203579,-7772.162391,1302.362347
1449.415390,6809.894666,-9770.718434,2374.896044
1449.415719,6365.771101,-9178.553681,1072.533697
1449.416048,5625.565159,-8586.388927,0.000000
1449.416377,5551.544565,-8068.244768,766.095498
1449.416707,6513.812290,-5329.482782,1378.971896
1449.417036,8734.430116,-5329.482782,1378.971896
1449.417365,8216.285956,-4441.235652,1225.752797
1449.417694,6957.935855,-3923.091493,1532.190996
1449.418023,7254.018232,-3552.988522,459.657299
1449.418352,6587.832884,-4441.235652,0.000000
1449.418682,5921.647536,-7254.018232,919.314598
1449.419011,5921.647536,-7550.100608,1838.629195
1449.419340,6883.915261,-8956.491898,919.314598
1449.419669,6439.791695,-9252.574275,1685.410096
1449.419998,7105.977043,-8808.450710,1685.410096
1449.420328,7402.059420,-8808.450710,1378.971896
1449.420657,5551.544565,-7698.141797,383.047749
1449.420986,4959.379811,-8438.347739,842.705048
1449.421315,6883.915261,-5921.647536,995.924147
1449.421644,7772.162391,-4515.256246,612.876398
1449.421973,7550.100608,-3849.070898,842.705048
1449.422303,7624.121203,-3552.988522,536.266849
1449.422632,8438.347739,-3627.009116,995.924147
1449.422961,7846.182985,-5699.585753,1685.410096
1449.423290,7105.977043,-8142.265362,1685.410096
1449.423619,6957.935855,-5551.544565,1072.533697
1449.423949,5477.523971,-7920.203579,383.047749
1449.424278,5773.606348,-9918.759623,1302.362347
1449.424607,6957.935855,-8142.265362,2374.896044
1449.424936,8438.347739,-8882.471304,2374.896044
1449.425265,8290.306550,-6291.750507,1608.800546
1449.425594,6809.894666,-5033.400406,1302.362347
1449.425924,6513.812290,-6513.812290,766.095498
1449.426253,6883.915261,-3478.967927,919.314598
1449.426582,6587.832884,-5255.462188,919.314598
1449.426911,7031.956449,-4515.256246,1532.190996
1449.427240,7550.100608,-4441.235652,1455.581446
1449.427570,7105.977043,-5329.482782,459.657299
1449.427899,6513.812290,-6735.874072,1149.143247
1449.428228,6513.812290,-8216.285956,1685.410096
1449.428557,7254.018232,-7624.121203,612.876398
1449.428886,6291.750507,-7105.977043,995.924147
1449.429215,6291.750507,-8956.491898,1685.410096
1449.429545,7254.018232,-8808.450710,1072.533697
1449.429874,5699.585753,-8438.347739,612.876398
1449.430203,5625.565159,-7105.977043,766.095498
1449.430532,8142.265362,-5329.482782,1225.752797
1449.430861,9030.512492,-4589.276840,1149.143247
1449.431191,7402.059420,-5181.441594,612.876398
1449.431520,7254.018232,-4219.173869,766.095498
1449.431849,7624.121203,-5033.400406,306.438199
1449.432178,7105.977043,-5551.544565,459.657299
1449.432507,6365.771101,-6587.832884,1072.533697
1449.432837,6365.771101,-5995.668130,536.266849
1449.433166,5773.606348,-10214.842000,1225.752797
1449.433495,5995.668130,-9474.636058,919.314598
1449.433824,7105.977043,-5921.647536,2451.505594
1449.434153,7698.141797,-9474.636058,1149.143247
1449.434482,6883.915261,-6069.688724,766.095498
1449.434812,6439.791695,-6217.729913,536.266849
1449.435141,7550.100608,-6439.791695,1762.019645
1449.435470,8290.306550,-3552.988522,689.485948
1449.435799,7179.997637,-6143.709319,842.705048
1449.436128,6735.874072,-4737.318029,995.924147
1449.436458,7994.224174,-4367.215058,229.828649
1449.436787,7105.977043,-5403.503377,689.485948
1449.437116,6957.935855,-5181.441594,1225.752797
1449.437445,7698.141797,-6587.832884,1455.581446
1449.437774,7994.224174,-6883.915261,766.095498
1449.438103,6217.729913,-7846.182985,1378.971896
1449.438433,6365.771101,-8142.265362,1225.752797
1449.438762,6809.894666,-7624.121203,919.314598
1449.439091,5773.606348,-8142.265362,306.438199
1449.439420,6513.812290,-6143.709319,689.485948
1449.439749,7328.038826,-5551.544565,919.314598
1449.440079,8216.285956,-5625.565159,1915.238745
1449.440408,6143.709319,-5181.441594,306.438199
1449.440737,6143.709319,-5551.544565,383.047749
1449.441066,7550.100608,-5699.585753,306.438199
1449.441395,6809.894666,-6809.894666,842.705048
1449.441724,5773.606348,-7031.956449,1838.629195
1449.442054,6957.935855,-6439.791695,1302.362347
1449.442383,7920.203579,-7772.162391,1225.752797
1449.442712,7550.100608,-6957.935855,1608.800546
1449.443041,7031.956449,-7772.162391,2221.676944
1449.443370,7031.956449,-7846.182985,689.485948
1449.443700,5181.441594,-7105.977043,0.000000
1449.444029,5255.462188,-7402.059420,612.876398
1449.444358,7994.224174,-6735.874072,1302.362347
1449.444687,8808.450710,-5847.626942,1072.533697
1449.445016,6957.935855,-5329.482782,919.314598
1449.445345,6439.791695,-5329.482782,0.000000
1449.445675,7476.080014,-4885.359217,0.000000
1449.446004,7624.121203,-4737.318029,766.095498
1449.446333,7179.997637,-6661.853478,1225.752797
1449.446662,7476.080014,-7476.080014,2451.505594
1449.446991,7772.162391,-6587.832884,1149.143247
1449.447321,7402.059420,-7105.977043,2221.676944
1449.447650,7402.059420,-7624.121203,3447.429741
1449.447979,7846.182985,-5773.606348,1225.752797
1449.448308,6291.750507,-6809.894666,383.047749
1449.448637,4959.379811,-6365.771101,689.485948
1449.448966,7031.956449,-6217.729913,842.705048
1449.449296,8290.306550,-6587.832884,1302.362347
1449.449625,6587.832884,-6513.812290,919.314598
1449.449954,5921.647536,-6439.791695,229.828649
1449.450283,6439.791695,-6291.750507,459.657299
1449.450612,5921.647536,-7254.018232,0.000000
1449.450942,6365.771101,-5921.647536,689.485948
1449.451271,7254.018232,-6587.832884,1455.581446
1449.451600,8438.347739,-7698.141797,1302.362347
1449.451929,8290.306550,-6439.791695,2834.553343
1449.452258,7920.203579,-7031.956449,1838.629195
1449.452588,7476.080014,-7402.059420,1991.848295
1449.452917,6661.853478,-6143.709319,842.705048
1449.453246,6291.750507,-6143.709319,536.266849
1449.453575,6439.791695,-5847.626942,1072.533697
1449.453904,6661.853478,-6809.894666,1072.533697
1449.454233,6513.812290,-6217.729913,0.000000
1449.454563,5847.626942,-6513.812290,459.657299
1449.454892,6957.935855,-6217.729913,1378.971896
1449.455221,8364.327145,-6365.771101,229.828649
1449.455550,6143.709319,-7179.997637,1762.019645
1449.455879,5551.544565,-7476.080014,1149.143247
1449.456209,6143.709319,-7846.182985,1532.190996
1449.456538,6217.729913,-7105.977043,1378.971896
1449.456867,6439.791695,-7254.018232,1532.190996
1449.457196,7105.977043,-6587.832884,1762.019645
1449.457525,7328.038826,-6513.812290,842.705048
1449.457854,7550.100608,-6143.709319,1532.190996
1449.458184,8068.244768,-5107.421000,2451.505594
1449.458513,8216.285956,-5403.503377,1225.752797
1449.458842,6661.853478,-5551.544565,153.219100
1449.459171,5625.565159,-6883.915261,229.828649
1449.459500,6217.729913,-6661.853478,-306.438199
1449.459830,6661.853478,-6883.915261,153.219100
1449.460159,6439.791695,-7550.100608,919.314598
1449.460488,7105.977043,-7772.162391,1455.581446
1449.460817,7550.100608,-7772.162391,1455.581446
1449.461146,6957.935855,-7031.956449,1838.629195
1449.461475,7105.977043,-5921.647536,1455.581446
1449.461805,8142.265362,-6291.750507,1838.629195
1449.462134,7550.100608,-5329.482782,1455.581446
1449.462463,7179.997637,-5329.482782,612.876398
1449.462792,8290.306550,-4811.338623,1915.238745
1449.463121,8142.265362,-5773.606348,1378.971896
1449.463451,7105.977043,-6883.915261,1225.752797
1449.463780,6883.915261,-6439.791695,1149.143247
1449.464109,6143.709319,-6513.812290,306.438199
1449.464438,5403.503377,-6661.853478,-306.438199
1449.464767,4811.338623,-8438.347739,842.705048
1449.465096,6513.812290,-7994.224174,1149.143247
1449.465426,7624.121203,-7179.997637,612.876398
1449.465755,7772.162391,-7476.080014,1685.410096
1449.466084,6809.894666,-7105.977043,1455.581446
1449.466413,6513.812290,-6957.935855,612.876398
1449.466742,6365.771101,-7476.080014,766.095498
1449.467072,7105.977043,-6365.771101,1762.019645
1449.467401,8808.450710,-4589.276840,1608.800546
1449.467730,8290.306550,-5181.441594,459.657299
1449.468059,6957.935855,-5477.523971,842.705048
1449.468388,6809.894666,-6143.709319,459.657299
1449.468718,7624.121203,-6069.688724,-383.047749
1449.469047,7031.956449,-6883.915261,842.705048
1449.469376,5773.606348,-7994.224174,1302.362347
1449.469705,6513.812290,-7476.080014,842.705048
1449.470034,6217.729913,-7846.182985,459.657299
1449.470363,7328.038826,-6735.874072,2068.457845
1449.470693,8364.327145,-5847.626942,1532.190996
1449.471022,7994.224174,-6291.750507,1225.752797
1449.471351,7105.977043,-6291.750507,1838.629195
1449.471680,7254.018232,-5403.503377,1225.752797
1449.472009,8142.265362,-4367.215058,1072.533697
1449.472339,7254.018232,-5699.585753,1225.752797
1449.472668,7550.100608,-5625.565159,919.314598
1449.472997,8216.285956,-5847.626942,995.924147
1449.473326,7105.977043,-6883.915261,1302.362347
1449.473655,6439.791695,-7698.141797,919.314598
1449.473984,6365.771101,-7920.203579,842.705048
1449.474314,5699.585753,-8586.388927,-229.828649
1449.474643,5255.462188,-8882.471304,306.438199
1449.474972,6291.750507,-7402.059420,306.438199
1449.475301,7402.059420,-7698.141797,1532.190996
1449.475630,7920.203579,-7105.977043,2068.457845
1449.475960,7328.038826,-5921.647536,1685.410096
1449.476289,7328.038826,-4219.173869,1149.143247
1449.476618,7328.038826,-4959.379811,919.314598
1449.476947,7328.038826,-4959.379811,1762.019645
1449.477276,7846.182985,-5921.647536,1685.410096
1449.477605,8142.265362,-4959.379811,1072.533697
1449.477935,7254.018232,-5921.647536,1685.410096
1449.478264,6069.688724,-7105.977043,842.705048
1449.478593,5551.544565,-8068.244768,1149.143247
1449.478922,5107.421000,-9400.615463,383.047749
1449.479251,4663.297435,-8512.368333,-459.657299
1449.479581,4663.297435,-7550.100608,1225.752797
1449.479910,6291.750507,-8956.491898,1225.752797
1449.480239,6291.750507,-7772.162391,1302.362347
1449.480568,5773.606348,-5403.503377,919.314598
1449.480897,7031.956449,-4367.215058,1378.971896
1449.481226,8364.327145,-2886.803174,1608.800546
1449.481556,7846.182985,-5107.421000,1455.581446
1449.481885,7476.080014,-5107.421000,1455.581446
1449.482214,7698.141797,-5329.482782,1608.800546
1449.482543,8364.327145,-4959.379811,1225.752797
1449.482872,7550.100608,-6217.729913,1225.752797
1449.483202,7105.977043,-7328.038826,1838.629195
1449.483531,7105.977043,-8290.306550,842.705048
1449.483860,5625.565159,-8364.327145,1149.143247
1449.484189,5329.482782,-8956.491898,383.047749
1449.484518,5995.668130,-7476.080014,306.438199
1449.484848,6069.688724,-8438.347739,766.095498
1449.485177,5255.462188,-8512.368333,919.314598
1449.485506,5921.647536,-5699.585753,1072.533697
1449.485835,8142.265362,-4441.235652,1302.362347
1449.486164,9326.594869,-3849.070898,1302.362347
1449.486493,9326.594869,-4515.256246,1685.410096
1449.486823,8808.450710,-4515.256246,1762.019645
1449.487152,8216.285956,-5033.400406,689.485948
1449.487481,7402.059420,-6513.812290,612.876398
1449.487810,7179.997637,-8216.285956,1225.752797
1449.488139,8142.265362,-9252.574275,919.314598
1449.488469,7994.224174,-8290.306550,1455.581446
1449.488798,6069.688724,-9474.636058,0.000000
1449.489127,5847.626942,-8290.306550,536.266849
1449.489456,5995.668130,-7179.997637,0.000000
1449.489785,5921.647536,-7105.977043,229.828649
1449.490114,5699.585753,-4515.256246,842.705048
1449.490444,6735.874072,-4959.379811,383.047749
1449.490773,7105.977043,-4959.379811,1455.581446
1449.491102,7402.059420,-5329.482782,1762.019645
1449.491431,8956.491898,-3923.091493,1762.019645
1449.491760,9696.697840,-3997.112087,1225.752797
1449.492090,8290.306550,-6291.750507,1378.971896
1449.492419,7550.100608,-6883.915261,1991.848295
1449.492748,7476.080014,-7772.162391,1225.752797
1449.493077,7105.977043,-6809.894666,1532.190996
1449.493406,6069.688724,-6735.874072,612.876398
1449.493735,5551.544565,-9696.697840,919.314598
1449.494065,5107.421000,-8068.244768,229.828649
1449.494394,4589.276840,-7624.121203,306.438199
1449.494723,5921.647536,-6217.729913,612.876398
1449.495052,7550.100608,-3256.906145,766.095498
1449.495381,8142.265362,-4959.379811,1072.533697
1449.495711,8438.347739,-4145.153275,995.924147
1449.496040,8808.450710,-4737.318029,1762.019645
1449.496369,8438.347739,-5921.647536,612.876398
1449.496698,6217.729913,-7698.141797,689.485948
1449.497027,5773.606348,-9474.636058,1302.362347
1449.497356,6587.832884,-10510.924376,383.047749
1449.497686,6513.812290,-10881.027347,842.705048
1449.498015,5625.565159,-10881.027347,1455.581446
1449.498344,5625.565159,-9474.636058,459.657299
1449.498673,4071.132681,-9326.594869,0.000000
1449.499002,1998.556043,-9030.512492,-459.657299
1449.499332,2368.659014,-7698.141797,-1225.752797
1449.499661,4589.276840,-7328.038826,-459.657299
1449.499990,5699.585753,-5773.606348,-536.266849
1449.500319,8142.265362,-5699.585753,4596.572988
1449.500648,12065.356855,-4663.297435,4673.182538
1449.500978,12509.480420,-3923.091493,5745.716235
1449.501307,9104.533087,-2368.659014,4136.915689
1449.501636,6143.709319,-5033.400406,1225.752797
1449.501965,4145.153275,-7772.162391,689.485948
1449.502294,2368.659014,-10214.842000,-766.095498
1449.502623,3701.029710,-10881.027347,0.000000
1449.502953,4737.318029,-13175.665768,229.828649
1449.503282,5107.421000,-13841.851115,2911.162892
1449.503611,3478.967927,-10214.842000,-1225.752797
1449.503940,1480.411884,-9474.636058,-995.924147
1449.504269,1628.453072,-8512.368333,-1532.190996
1449.504599,1628.453072,-8290.306550,-919.314598
1449.504928,1998.556043,-7476.080014,-919.314598
1449.505257,4885.359217,-7846.182985,1991.848295
1449.505586,9548.656652,-7920.203579,3830.477490
1449.505915,9992.780217,-7550.100608,4749.792088
1449.506244,7402.059420,-6365.771101,5669.106685
1449.506574,6587.832884,-5329.482782,2451.505594
1449.506903,5477.523971,-3997.112087,383.047749
1449.507232,3330.926739,-6513.812290,612.876398
1449.507561,4589.276840,-10510.924376,3064.381992
1449.507890,6661.853478,-8586.388927,842.705048
1449.508220,4589.276840,-8586.388927,536.266849
1449.508549,3108.864956,-10362.883188,229.828649
1449.508878,3182.885551,-9992.780217,0.000000
1449.509207,3701.029710,-10066.800811,229.828649
1449.509536,2886.803174,-9992.780217,-383.047749
1449.509865,4219.173869,-7994.224174,0.000000
1449.510195,6365.771101,-7328.038826,536.266849
1449.510524,6439.791695,-7550.100608,1302.362347
1449.510853,6513.812290,-8586.388927,1685.410096
1449.511182,6439.791695,-9992.780217,1838.629195
1449.511511,5181.441594,-9918.759623,612.876398
1449.511840,3182.885551,-11251.130318,536.266849
1449.512169,4219.173869,-12065.356855,2068.457845
1449.512498,5551.544565,-11843.295072,2451.505594
1449.512827,6365.771101,-8512.368333,2298.286494
1449.513157,6957.935855,-3997.112087,1991.848295
1449.513486,7476.080014,-2590.720797,1532.190996
1449.513815,7698.141797,-3775.050304,1455.581446
1449.514144,6291.750507,-5995.668130,2834.553343
1449.514473,4293.194464,-5107.421000,0.000000
1449.514802,2220.617826,-7328.038826,-1532.190996
1449.515131,1924.535449,-10288.862594,0.000000
1449.515460,2886.803174,-12361.439231,1378.971896
1449.515789,4071.132681,-10362.883188,229.828649
1449.516118,5551.544565,-8660.409521,689.485948
1449.516448,7476.080014,-9992.780217,1838.629195
1449.516777,7550.100608,-11325.150913,2298.286494
1449.517106,5181.441594,-10140.821405,766.095498
1449.517435,2516.700203,-10140.821405,-1302.362347
1449.517764,2072.576638,-10214.842000,-1378.971896
1449.518093,2368.659014,-11917.315666,-689.485948
1449.518422,2960.823768,-13175.665768,1225.752797
1449.518751,4145.153275,-9918.759623,1838.629195
1449.519080,4959.379811,-5255.462188,0.000000
1449.519409,5329.482782,-3923.091493,229.828649
1449.519739,7031.956449,-3552.988522,3217.601092
1449.520068,7550.100608,-4959.379811,2451.505594
1449.520397,6143.709319,-4441.235652,2145.067394
1449.520726,4737.318029,-5773.606348,612.876398
1449.521055,5699.585753,-7994.224174,842.705048
1449.521384,6069.688724,-12583.501014,2911.162892
1449.521713,5995.668130,-13693.809927,4290.134789
1449.522042,4885.359217,-9992.780217,229.828649
1449.522371,3849.070898,-8068.244768,-536.266849
1449.522700,4737.318029,-8956.491898,536.266849
1449.523029,5699.585753,-9474.636058,1149.143247
1449.523359,4811.338623,-8216.285956,919.314598
1449.523688,2442.679609,-8364.327145,-536.266849
1449.524017,1628.453072,-9622.677246,-1149.143247
1449.524346,2294.638420,-10658.965565,766.095498
1449.524675,3478.967927,-11325.150913,919.314598
1449.525004,4811.338623,-9252.574275,1455.581446
1449.525333,5181.441594,-7772.162391,1225.752797
1449.525662,6217.729913,-7179.997637,1762.019645
1449.525991,8364.327145,-5847.626942,2374.896044
1449.526320,9474.636058,-4811.338623,1838.629195
1449.526650,8216.285956,-6217.729913,2068.457845
1449.526979,6365.771101,-8438.347739,2374.896044
1449.527308,5255.462188,-9474.636058,2528.115143
1449.527637,4885.359217,-8290.306550,1455.581446
1449.527966,3997.112087,-8216.285956,766.095498
1449.528295,2590.720797,-9474.636058,0.000000
1449.528624,2072.576638,-11251.130318,306.438199
1449.528953,2368.659014,-11473.192101,919.314598
1449.529282,2886.803174,-9400.615463,536.266849
1449.529611,3330.926739,-8808.450710,0.000000
1449.529940,3627.009116,-9326.594869,689.485948
1449.530270,4811.338623,-10140.821405,1302.362347
1449.530599,6439.791695,-9178.553681,2145.067394
1449.530928,7920.203579,-7698.141797,2911.162892
1449.531257,8216.285956,-6143.709319,2298.286494
1449.531586,7550.100608,-6957.935855,2834.553343
1449.531915,6365.771101,-7846.182985,2221.676944
1449.532244,5181.441594,-8586.388927,689.485948
1449.532573,2886.803174,-8734.430116,-306.438199
1449.532902,2220.617826,-9474.636058,-306.438199
1449.533231,2886.803174,-10658.965565,0.000000
1449.533561,3330.926739,-11251.130318,306.438199
1449.533890,3330.926739,-9918.759623,1072.533697
1449.534219,3404.947333,-9474.636058,459.657299
1449.534548,4145.153275,-8216.285956,536.266849
1449.534877,5255.462188,-7772.162391,689.485948
1449.535206,6217.729913,-7328.038826,1072.533697
1449.535535,6735.874072,-6809.894666,1915.238745
1449.535864,7105.977043,-7920.203579,2374.896044
1449.536193,6809.894666,-8512.368333,2681.334243
1449.536522,6143.709319,-7920.203579,2451.505594
1449.536851,5181.441594,-8364.327145,1532.190996
1449.537181,3330.926739,-8808.450710,919.314598
1449.537510,2516.700203,-9918.759623,-306.438199
1449.537839,2960.823768,-10955.047942,-459.657299
1449.538168,3923.091493,-9548.656652,-383.047749
1449.538497,4811.338623,-9992.780217,689.485948
1449.538826,5403.503377,-9400.615463,995.924147
1449.539155,5107.421000,-8142.265362,689.485948
1449.539484,4811.338623,-7476.080014,306.438199
1449.539813,4515.256246,-7328.038826,689.485948
1449.540142,5329.482782,-7105.977043,1455.581446
1449.540472,6291.750507,-7105.977043,1455.581446
1449.540801,6809.894666,-6217.729913,1302.362347
1449.541130,6809.894666,-7328.038826,1072.533697
1449.541459,6217.729913,-7994.224174,2298.286494
1449.541788,5847.626942,-9770.718434,1225.752797
1449.542117,5329.482782,-10510.924376,1149.143247
1449.542446,4737.318029,-9474.636058,689.485948
1449.542775,4293.194464,-9770.718434,1225.752797
1449.543104,5033.400406,-9104.533087,2068.457845
1449.543433,5107.421000,-8956.491898,1455.581446
1449.543762,5181.441594,-7698.141797,1532.190996
1449.544092,5181.441594,-6735.874072,1149.143247
1449.544421,4811.338623,-7698.141797,1455.581446
1449.544750,4737.318029,-7772.162391,1149.143247
1449.545079,3775.050304,-8364.327145,-383.047749
1449.545408,2960.823768,-8586.388927,-612.876398
1449.545737,2960.823768,-8290.306550,-229.828649
1449.546066,4145.153275,-9474.636058,76.609550
1449.546395,4663.297435,-10066.800811,1608.800546
1449.546724,5403.503377,-11029.068536,1915.238745
1449.547053,5921.647536,-11029.068536,2145.067394
1449.547383,6069.688724,-9844.739029,2757.943793
1449.547712,6439.791695,-8882.471304,2451.505594
1449.548041,6513.812290,-7550.100608,2298.286494
1449.548370,5995.668130,-6365.771101,2374.896044
1449.548699,4959.379811,-6143.709319,842.705048
1449.549028,4515.256246,-6439.791695,1225.752797
1449.549357,3404.947333,-6957.935855,459.657299
1449.549686,2738.761985,-7550.100608,-612.876398
1449.550015,2664.741391,-8512.368333,-919.314598
1449.550344,3404.947333,-9622.677246,0.000000
1449.550674,4737.318029,-11103.089130,536.266849
1449.551003,5477.523971,-11029.068536,1072.533697
1449.551332,4811.338623,-10288.862594,1072.533697
1449.551661,5033.400406,-10732.986159,1455.581446
1449.551990,5699.585753,-10288.862594,2604.724693
1449.552319,6439.791695,-9474.636058,3524.039291
1449.552648,6365.771101,-8290.306550,3064.381992
1449.552977,5773.606348,-6291.750507,2834.553343
1449.553306,6365.771101,-5921.647536,2374.896044
1449.553635,6217.729913,-5847.626942,2298.286494
1449.553964,5921.647536,-5921.647536,2528.115143
1449.554294,5255.462188,-6735.874072,1685.410096
1449.554623,4293.194464,-7031.956449,842.705048
1449.554952,4071.132681,-8956.491898,689.485948
1449.555281,4589.276840,-10584.944971,689.485948
1449.555610,4367.215058,-10510.924376,1149.143247
1449.555939,4663.297435,-11843.295072,1762.019645
1449.556268,4737.318029,-10955.047942,2528.115143
1449.556597,5995.668130,-9474.636058,3830.477490
1449.556926,6809.894666,-8364.327145,3677.258390
1449.557255,7105.977043,-6587.832884,4519.963438
1449.557585,7105.977043,-5477.523971,4366.744339
1449.557914,7105.977043,-3849.070898,3753.867940
1449.558243,7105.977043,-3478.967927,4060.306139
1449.558572,6883.915261,-3701.029710,2681.334243
1449.558901,5921.647536,-5625.565159,2145.067394
1449.559230,5477.523971,-7772.162391,2834.553343
1449.559559,5995.668130,-8290.306550,2374.896044
1449.559888,5625.565159,-9252.574275,2298.286494
1449.560217,5403.503377,-8734.430116,3524.039291
1449.560546,5995.668130,-9400.615463,3064.381992
1449.560875,5995.668130,-8290.306550,2987.772442
1449.561205,5403.503377,-7179.997637,3677.258390
1449.561534,6513.812290,-6513.812290,3677.258390
1449.561863,7105.977043,-5773.606348,4443.353888
1449.562192,7179.997637,-5699.585753,4903.011187
1449.562521,7624.121203,-4515.256246,4826.401637
1449.562850,8290.306550,-3627.009116,4673.182538
1449.563179,8512.368333,-4145.153275,4596.572988
1449.563508,8142.265362,-4515.256246,4519.963438
1449.563837,8142.265362,-5403.503377,4749.792088
1449.564166,8216.285956,-7031.956449,3753.867940
1449.564496,6587.832884,-8216.285956,3524.039291
1449.564825,5181.441594,-9918.759623,3600.648841
1449.565154,4737.318029,-10362.883188,3447.429741
1449.565483,4441.235652,-11251.130318,3447.429741
1449.565812,4589.276840,-9992.780217,3294.210641
1449.566141,3997.112087,-9252.574275,3907.087040
1449.566470,4737.318029,-8438.347739,4366.744339
1449.566799,5107.421000,-6883.915261,4366.744339
1449.567128,5477.523971,-5403.503377,4903.011187
1449.567457,7328.038826,-5255.462188,5439.278036
1449.567786,7994.224174,-4885.359217,5898.935335
1449.568116,8882.471304,-4885.359217,6052.154434
1449.568445,9918.759623,-3849.070898,5515.887586
1449.568774,10066.800811,-3330.926739,5056.230287
1449.569103,9770.718434,-4071.132681,5056.230287
1449.569432,9104.533087,-5477.523971,5209.449386
1449.569761,8216.285956,-5995.668130,4290.134789
1449.570090,7254.018232,-6513.812290,4366.744339
1449.570419,6143.709319,-7698.141797,3753.867940
1449.570748,5477.523971,-8290.306550,4213.525239
1449.571077,4959.379811,-9326.594869,4290.134789
1449.571407,4071.132681,-9548.656652,3983.696590
1449.571736,3404.947333,-9104.533087,3294.210641
1449.572065,2812.782580,-8660.409521,3370.820191
1449.572394,4441.235652,-8438.347739,3753.867940
1449.572723,5995.668130,-6883.915261,4443.353888
1449.573052,7550.100608,-5699.585753,4903.011187
1449.573381,9400.615463,-4293.194464,5822.325785
1449.573710,10066.800811,-4145.153275,6358.592633
1449.574039,10510.924376,-2516.700203,5822.325785
1449.574368,9622.677246,-3108.864956,4749.792088
1449.574697,8364.327145,-3923.091493,4596.572988
1449.575027,6291.750507,-6587.832884,3907.087040
1449.575356,6143.709319,-7624.121203,2834.553343
1449.575685,5477.523971,-8216.285956,2451.505594
1449.576014,4811.338623,-8808.450710,2451.505594
1449.576343,5181.441594,-8956.491898,3217.601092
1449.576672,5477.523971,-8882.471304,3600.648841
1449.577001,5921.647536,-7994.224174,3677.258390
1449.577330,7254.018232,-6069.688724,3907.087040
1449.577659,8808.450710,-4885.359217,4136.915689
1449.577988,9400.615463,-4515.256246,4596.572988
1449.578318,9696.697840,-4959.379811,4749.792088
1449.578647,8882.471304,-5255.462188,3447.429741
1449.578976,7105.977043,-5625.565159,2451.505594
1449.579305,6143.709319,-6365.771101,2681.334243
1449.579634,5551.544565,-7105.977043,2451.505594
1449.579963,5625.565159,-7550.100608,2987.772442
1449.580292,5403.503377,-7994.224174,3677.258390
1449.580621,6587.832884,-7994.224174,4749.792088
1449.580950,7772.162391,-6587.832884,4596.572988
1449.581279,7772.162391,-6661.853478,4749.792088
1449.581608,7328.038826,-5773.606348,4060.306139
1449.581938,7254.018232,-5329.482782,3294.210641
1449.582267,7179.997637,-4441.235652,3370.820191
1449.582596,8216.285956,-3701.029710,3524.039291
1449.582925,9178.553681,-3775.050304,3907.087040
1449.583254,9178.553681,-4219.173869,4136.915689
1449.583583,7846.182985,-5477.523971,3524.039291
1449.583912,6735.874072,-7402.059420,3753.867940
1449.584241,5921.647536,-9548.656652,3370.820191
1449.584570,5181.441594,-11473.192101,3524.039291
1449.584899,4293.194464,-10510.924376,3600.648841
1449.585229,3849.070898,-9474.636058,3140.991542
1449.585558,4589.276840,-7772.162391,2451.505594
1449.585887,5255.462188,-5773.606348,3294.210641
1449.586216,6735.874072,-4885.359217,3447.429741
1449.586545,7994.224174,-4293.194464,4366.744339
1449.586874,8586.388927,-3478.967927,5439.278036
1449.587203,9548.656652,-3923.091493,5822.325785
1449.587532,10436.903782,-3775.050304,6281.983084
1449.587861,10436.903782,-3627.009116,6281.983084
1449.588190,8956.491898,-3627.009116,4060.306139
1449.588520,6957.935855,-4441.235652,4136.915689
1449.588849,5477.523971,-7254.018232,2374.896044
1449.589178,4367.215058,-9992.780217,1991.848295
1449.589507,3330.926739,-11399.171507,2604.724693
1449.589836,3256.906145,-11843.295072,3064.381992
1449.590165,4071.132681,-10955.047942,3677.258390
1449.590494,4811.338623,-8882.471304,3753.867940
1449.590823,6217.729913,-7476.080014,4290.134789
1449.591152,8142.265362,-4885.359217,5132.839837
1449.591481,9548.656652,-3330.926739,5745.716235
1449.591810,10140.821405,-1702.473667,4903.011187
1449.592140,9770.718434,-888.247130,4903.011187
1449.592469,9696.697840,-2146.597232,4749.792088
1449.592798,8290.306550,-3997.112087,5056.230287
1449.593127,7698.141797,-7105.977043,4596.572988
1449.593456,7698.141797,-8438.347739,4749.792088
1449.593785,8290.306550,-9252.574275,4826.401637
1449.594114,6809.894666,-9918.759623,4519.963438
1449.594443,4811.338623,-9326.594869,2834.553343
1449.594772,4071.132681,-8364.327145,2681.334243
1449.595101,4145.153275,-6957.935855,2681.334243
1449.595431,4737.318029,-6883.915261,3294.210641
1449.595760,6661.853478,-5477.523971,5132.839837
1449.596089,7624.121203,-4293.194464,5056.230287
1449.596418,7698.141797,-5625.565159,4749.792088
1449.596747,7105.977043,-5255.462188,5439.278036
1449.597076,7328.038826,-5625.565159,5132.839837
1449.597405,8364.327145,-5033.400406,5056.230287
1449.597734,8216.285956,-4219.173869,4826.401637
1449.598063,7179.997637,-5255.462188,3370.820191
1449.598392,7105.977043,-7624.121203,3753.867940
1449.598721,7179.997637,-9474.636058,5439.278036
1449.599051,6809.894666,-8956.491898,5362.668486
1449.599380,5995.668130,-8142.265362,3830.477490
1449.599709,4663.297435,-6883.915261,2987.772442
1449.600038,4737.318029,-8734.430116,3524.039291
1449.600367,5847.626942,-7476.080014,5056.230287
1449.600696,7179.997637,-4959.379811,4979.620737
1449.601025,7550.100608,-2738.761985,4290.134789
1449.601354,7254.018232,-2072.576638,3370.820191
1449.601683,6957.935855,-4959.379811,4213.525239
1449.602012,7772.162391,-6439.791695,3753.867940
1449.602342,8216.285956,-6661.853478,4826.401637
1449.602671,8512.368333,-7772.162391,4673.182538
1449.603000,7920.203579,-8808.450710,4826.401637
1449.603329,6661.853478,-10140.821405,4903.011187
1449.603658,6439.791695,-9104.533087,4749.792088
1449.603987,6217.729913,-6883.915261,3524.039291
1449.604316,6291.750507,-5551.544565,3140.991542
1449.604645,6957.935855,-5625.565159,3140.991542
1449.604974,6513.812290,-4663.297435,3677.258390
1449.605303,7254.018232,-4441.235652,4136.915689
1449.605632,7105.977043,-6217.729913,3524.039291
1449.605962,6883.915261,-7179.997637,3677.258390
1449.606291,7328.038826,-6291.750507,3294.210641
1449.606620,8438.347739,-6291.750507,3140.991542
1449.606949,7994.224174,-6217.729913,3600.648841
1449.607278,7476.080014,-8586.388927,2911.162892
1449.607607,6883.915261,-8142.265362,3217.601092
1449.607936,6291.750507,-6883.915261,3064.381992
1449.608265,6587.832884,-7476.080014,3217.601092
1449.608594,6291.750507,-8882.471304,4213.525239
1449.608923,5403.503377,-7994.224174,4290.134789
1449.609253,5921.647536,-5625.565159,4213.525239
1449.609582,8142.265362,-4071.132681,5439.278036
1449.609911,9104.533087,-2812.782580,4596.572988
1449.610240,7550.100608,-3404.947333,3677.258390
1449.610569,6069.688724,-3775.050304,2681.334243
1449.610898,6513.812290,-2960.823768,1378.971896
1449.611227,6661.853478,-3775.050304,76.609550
1449.611556,7402.059420,-6217.729913,1685.410096
1449.611885,9030.512492,-9030.512492,3753.867940
1449.612214,9474.636058,-9770.718434,3294.210641
1449.612543,7476.080014,-9104.533087,2834.553343
1449.612873,5181.441594,-9104.533087,2145.067394
1449.613202,4737.318029,-10214.842000,1838.629195
1449.613531,3478.967927,-10214.842000,1532.190996
1449.613860,2664.741391,-8364.327145,842.705048
1449.614189,5107.421000,-5107.421000,1915.238745
1449.614518,8290.306550,-4885.359217,2757.943793
1449.614847,9400.615463,-5477.523971,4749.792088
1449.615176,8956.491898,-4367.215058,4443.353888
1449.615505,9474.636058,-2220.617826,2911.162892
1449.615834,8734.430116,-2146.597232,1608.800546
1449.616163,8512.368333,-4515.256246,2604.724693
1449.616492,9992.780217,-4959.379811,2987.772442
1449.616821,10288.862594,-5773.606348,1762.019645
1449.617150,8216.285956,-6291.750507,842.705048
1449.617479,5699.585753,-8956.491898,76.609550
1449.617808,5329.482782,-10732.986159,153.219100
1449.618137,4663.297435,-11769.274478,689.485948
1449.618466,2960.823768,-12509.480420,689.485948
1449.618795,3182.885551,-9844.739029,919.314598
1449.619124,3849.070898,-8512.368333,536.266849
1449.619453,5847.626942,-7550.100608,2068.457845
1449.619783,8364.327145,-4737.318029,2911.162892
1449.620112,9696.697840,-3404.947333,2681.334243
1449.620441,9326.594869,-2442.679609,1915.238745
1449.620770,8808.450710,-2516.700203,1532.190996
1449.621099,9400.615463,-2664.741391,1149.143247
1449.621428,9326.594869,-3404.947333,612.876398
1449.621757,8882.471304,-4293.194464,1149.143247
1449.622086,7698.141797,-7105.977043,766.095498
1449.622415,7105.977043,-8586.388927,919.314598
1449.622744,5181.441594,-10066.800811,459.657299
1449.623073,4219.173869,-11177.109724,612.876398
1449.623402,3256.906145,-11177.109724,-459.657299
1449.623731,3701.029710,-9474.636058,153.219100
1449.624060,5107.421000,-8586.388927,1149.143247
1449.624389,6513.812290,-6661.853478,1685.410096
1449.624718,7624.121203,-3552.988522,2681.334243
1449.625047,7994.224174,-3552.988522,1685.410096
1449.625376,8216.285956,-3108.864956,2528.115143
1449.625705,8290.306550,-2738.761985,1532.190996
1449.626034,9178.553681,-3552.988522,1915.238745
1449.626363,9622.677246,-2220.617826,919.314598
1449.626692,8882.471304,-5625.565159,229.828649
1449.627022,8068.244768,-6513.812290,0.000000
1449.627351,6439.791695,-8290.306550,153.219100
1449.627680,4959.379811,-11843.295072,-229.828649
1449.628009,3478.967927,-11177.109724,0.000000
1449.628338,4071.132681,-11547.212695,766.095498
1449.628667,5625.565159,-11399.171507,1225.752797
1449.628996,6661.853478,-8956.491898,2604.724693
1449.629325,6957.935855,-5921.647536,1378.971896
1449.629654,7698.141797,-3923.091493,1685.410096
1449.629983,9252.574275,-1554.432478,1991.848295
1449.630312,9474.636058,-1776.494261,1838.629195
1449.630641,8956.491898,-2220.617826,2987.772442
1449.630970,8512.368333,-2590.720797,1378.971896
1449.631299,6365.771101,-4071.132681,0.000000
1449.631628,4959.379811,-4885.359217,-919.314598
1449.631957,5551.544565,-8956.491898,0.000000
1449.632286,6365.771101,-11991.336260,612.876398
1449.632615,6291.750507,-12509.480420,1608.800546
1449.632944,5329.482782,-10881.027347,766.095498
1449.633273,5773.606348,-9844.739029,995.924147
1449.633602,6143.709319,-7698.141797,1225.752797
1449.633932,5773.606348,-6365.771101,1302.362347
1449.634261,6735.874072,-4737.318029,1608.800546
1449.634590,7772.162391,-2146.597232,1838.629195
1449.634919,9252.574275,-2516.700203,1455.581446
1449.635248,9918.759623,-1924.535449,2451.505594
1449.635577,9622.677246,-3478.967927,1915.238745
1449.635906,9030.512492,-4737.318029,306.438199
1449.636235,6587.832884,-4959.379811,-459.657299
1449.636564,5625.565159,-7920.203579,0.000000
1449.636893,5847.626942,-10288.862594,76.609550
1449.637222,5033.400406,-12213.398043,76.609550
1449.637551,4663.297435,-10732.986159,842.705048
1449.637880,6069.688724,-10584.944971,1072.533697
1449.638209,6883.915261,-9326.594869,1838.629195
1449.638538,6957.935855,-6143.709319,1608.800546
1449.638867,7105.977043,-4959.379811,2221.676944
1449.639196,8586.388927,-2664.741391,1991.848295
1449.639525,8438.347739,-1998.556043,1915.238745
1449.639854,8290.306550,-1554.432478,1608.800546
1449.640183,8364.327145,-1554.432478,1149.143247
1449.640512,7994.224174,-3923.091493,0.000000
1449.640842,7105.977043,-5033.400406,-612.876398
1449.641171,7105.977043,-8438.347739,76.609550
1449.641500,7254.018232,-11769.274478,306.438199
1449.641829,5773.606348,-11547.212695,383.047749
1449.642158,4663.297435,-11251.130318,-229.828649
1449.642487,5107.421000,-11843.295072,612.876398
1449.642816,6291.750507,-9770.718434,995.924147
1449.643145,4959.379811,-7772.162391,766.095498
1449.643474,5033.400406,-5329.482782,689.485948
1449.643803,7328.038826,-3701.029710,1838.629195
1449.644132,9548.656652,-2368.659014,2145.067394
1449.644461,9400.615463,-1258.350101,2298.286494
1449.644790,9104.533087,-1924.535449,2528.115143
1449.645119,9474.636058,-1924.535449,842.705048
1449.645448,7550.100608,-3849.070898,-459.657299
1449.645777,5921.647536,-6069.688724,536.266849
1449.646106,6735.874072,-9548.656652,766.095498
1449.646435,5847.626942,-10732.986159,229.828649
1449.646764,4367.215058,-10658.965565,0.000000
1449.647093,4811.338623,-11769.274478,766.095498
1449.647422,6513.812290,-10066.800811,2145.067394
1449.647751,5921.647536,-9104.533087,1378.971896
1449.648081,4885.359217,-5995.668130,1225.752797
1449.648410,6143.709319,-4293.194464,1532.190996
1449.648739,9030.512492,-4145.153275,1991.848295
1449.649068,8882.471304,-1628.453072,2298.286494
1449.649397,8438.347739,-1776.494261,1608.800546
1449.649726,9474.636058,-1554.432478,-383.047749
1449.650055,8512.368333,-2368.659014,-229.828649
1449.650384,7550.100608,-6883.915261,1608.800546
1449.650713,8142.265362,-8882.471304,1302.362347
1449.651042,6439.791695,-10436.903782,766.095498
1449.651371,5181.441594,-11103.089130,536.266849
1449.651700,5403.503377,-11695.253884,1225.752797
1449.652029,6217.729913,-11177.109724,2068.457845
1449.652358,5995.668130,-8808.450710,1608.800546
1449.652687,5329.482782,-5921.647536,919.314598
1449.653016,5921.647536,-3923.091493,229.828649
1449.653345,7105.977043,-2960.823768,1378.971896
1449.653674,8290.306550,-2664.741391,2145.067394
1449.654003,9030.512492,-2886.803174,2374.896044
1449.654332,9178.553681,-3330.926739,1302.362347
1449.654661,8216.285956,-4071.132681,1072.533697
1449.654991,8142.265362,-6069.688724,1225.752797
1449.655320,7476.080014,-9400.615463,1455.581446
1449.655649,5625.565159,-9252.574275,0.000000
1449.655978,4441.235652,-9770.718434,-1072.533697
1449.656307,5181.441594,-10658.965565,459.657299
1449.656636,6513.812290,-11547.212695,2068.457845
1449.656965,6069.688724,-9252.574275,1455.581446
1449.657294,4589.276840,-7105.977043,1149.143247
1449.657623,5995.668130,-5551.544565,919.314598
1449.657952,7846.182985,-3997.112087,1532.190996
1449.658281,8216.285956,-3256.906145,2221.676944
1449.658610,8882.471304,-2886.803174,2298.286494
1449.658939,9548.656652,-666.185348,842.705048
1449.659268,8882.471304,-2146.597232,153.219100
1449.659597,8512.368333,-4737.318029,1225.752797
1449.659926,8586.388927,-7179.997637,2068.457845
1449.660255,7105.977043,-8956.491898,689.485948
1449.660584,5403.503377,-9178.553681,153.219100
1449.660913,5033.400406,-10658.965565,1302.362347
1449.661242,5995.668130,-11029.068536,1302.362347
1449.661571,5255.462188,-10288.862594,1302.362347
1449.661900,4663.297435,-7920.203579,995.924147
1449.662230,5477.523971,-5921.647536,383.047749
1449.662559,6143.709319,-4515.256246,612.876398
1449.662888,6809.894666,-2294.638420,919.314598
1449.663217,8364.327145,-4515.256246,1378.971896
1449.663546,9474.636058,-2368.659014,689.485948
1449.663875,8956.491898,-3552.988522,995.924147
1449.664204,8660.409521,-5773.606348,2298.286494
1449.664533,8512.368333,-7031.956449,919.314598
1449.664862,6513.812290,-9178.553681,383.047749
1449.665191,5255.462188,-8882.471304,383.047749
1449.665520,5847.626942,-9696.697840,-459.657299
1449.665849,6365.771101,-10881.027347,1225.752797
1449.666178,5847.626942,-9696.697840,1149.143247
1449.666507,5847.626942,-7994.224174,1072.533697
1449.666836,6143.709319,-5699.585753,2068.457845
1449.667165,7179.997637,-5847.626942,995.924147
1449.667494,7105.977043,-2960.823768,1302.362347
1449.667823,7105.977043,-3108.864956,1149.143247
1449.668152,8142.265362,-2294.638420,383.047749
1449.668481,7772.162391,-1554.432478,536.266849
1449.668810,7550.100608,-4885.359217,1072.533697
1449.669140,8142.265362,-7772.162391,1762.019645
1449.669469,7179.997637,-9326.594869,1838.629195
1449.669798,6513.812290,-9918.759623,1762.019645
1449.670127,6439.791695,-11029.068536,1838.629195
1449.670456,6957.935855,-10066.800811,1532.190996
1449.670785,5847.626942,-9326.594869,76.609550
1449.671114,4959.379811,-7105.977043,0.000000
1449.671443,5847.626942,-6069.688724,459.657299
1449.671772,7031.956449,-4663.297435,383.047749
1449.672101,8438.347739,-3182.885551,1302.362347
1449.672430,9326.594869,-5181.441594,3140.991542
1449.672759,10214.842000,-3478.967927,2374.896044
1449.673088,8364.327145,-2886.803174,842.705048
1449.673417,7031.956449,-3923.091493,1225.752797
1449.673746,6809.894666,-4959.379811,-229.828649
1449.674075,5847.626942,-7105.977043,-153.219100
1449.674404,5699.585753,-7105.977043,0.000000
1449.674733,6809.894666,-10362.883188,1225.752797
1449.675062,8068.244768,-10436.903782,2451.505594
1449.675391,7105.977043,-9326.594869,1915.238745
1449.675720,5699.585753,-8734.430116,1685.410096
1449.676049,6217.729913,-6661.853478,1608.800546
1449.676379,6291.750507,-5551.544565,229.828649
1449.676708,7402.059420,-4293.194464,1072.533697
1449.677037,8586.388927,-3701.029710,1225.752797
1449.677366,8882.471304,-2664.741391,0.000000
1449.677695,7179.997637,-3108.864956,-766.095498
1449.678024,6069.688724,-6217.729913,459.657299
1449.678353,6143.709319,-7105.977043,459.657299
1449.678682,6143.709319,-8068.244768,76.609550
1449.679011,6439.791695,-8956.491898,459.657299
1449.679340,7105.977043,-10436.903782,1685.410096
1449.679669,7476.080014,-9696.697840,1378.971896
1449.679998,6809.894666,-6883.915261,1378.971896
1449.680327,6735.874072,-6365.771101,1225.752797
1449.680656,7402.059420,-4737.318029,612.876398
1449.680985,7476.080014,-3775.050304,536.266849
1449.681314,7624.121203,-4441.235652,1532.190996
1449.681643,8734.430116,-3775.050304,995.924147
1449.681972,8068.244768,-4219.173869,306.438199
1449.682301,6291.750507,-3775.050304,0.000000
1449.682630,5995.668130,-6069.688724,76.609550
1449.682959,6439.791695,-8438.347739,153.219100
1449.683289,5699.585753,-7328.038826,153.219100
1449.683618,5847.626942,-8142.265362,842.705048
1449.683947,7550.100608,-10140.821405,1608.800546
1449.684276,7402.059420,-8290.306550,1915.238745
1449.684605,6365.771101,-7402.059420,919.314598
1449.684934,6513.812290,-6587.832884,1149.143247
1449.685263,7624.121203,-6291.750507,1149.143247
1449.685592,7920.203579,-5921.647536,1149.143247
1449.685921,7994.224174,-4811.338623,1532.190996
1449.686250,8512.368333,-4737.318029,1302.362347
1449.686579,7772.162391,-3330.926739,-612.876398
1449.686908,5477.523971,-4663.297435,-766.095498
1449.687237,6291.750507,-7105.977043,229.828649
1449.687566,7402.059420,-8364.327145,1225.752797
1449.687895,6661.853478,-8142.265362,536.266849
1449.688224,5625.565159,-8586.388927,1532.190996
1449.688553,6957.935855,-9696.697840,1378.971896
1449.688882,7772.162391,-9178.553681,2145.067394
1449.689211,7105.977043,-8142.265362,2374.896044
1449.689540,7105.977043,-5847.626942,2145.067394
1449.689869,7179.997637,-4737.318029,766.095498
1449.690198,6513.812290,-4885.359217,459.657299
1449.690528,7031.956449,-3627.009116,1072.533697
1449.690857,7772.162391,-3997.112087,766.095498
1449.691186,7105.977043,-4959.379811,459.657299
1449.691515,5921.647536,-5847.626942,689.485948
1449.691844,6069.688724,-7994.224174,1608.800546
1449.692173,6069.688724,-7698.141797,536.266849
1449.692502,5107.421000,-8882.471304,689.485948
1449.692831,5477.523971,-8734.430116,919.314598
1449.693160,6735.874072,-8438.347739,1072.533697
1449.693489,7179.997637,-6809.894666,1378.971896
1449.693818,7328.038826,-5773.606348,2221.676944
1449.694147,8216.285956,-6513.812290,2681.334243
1449.694476,7994.224174,-5773.606348,1915.238745
1449.694805,7328.038826,-5551.544565,1762.019645
1449.695134,7920.203579,-4071.132681,1915.238745
1449.695463,9030.512492,-4515.256246,842.705048
1449.695792,7476.080014,-4589.276840,1225.752797
1449.696121,6291.750507,-5699.585753,0.000000
1449.696450,6735.874072,-7179.997637,536.266849
1449.696779,5921.647536,-7846.182985,766.095498
1449.697108,4737.318029,-7994.224174,766.095498
1449.697438,6291.750507,-8734.430116,1225.752797
1449.697767,7402.059420,-9474.636058,2145.067394
1449.698096,7846.182985,-7698.141797,2451.505594
1449.698425,7772.162391,-5995.668130,2298.286494
1449.698754,7994.224174,-5403.503377,2298.286494
1449.699083,7920.203579,-5033.400406,536.266849
1449.699412,6291.750507,-4737.318029,536.266849
1449.699741,6439.791695,-4885.359217,383.047749
1449.700070,7328.038826,-5477.523971,229.828649
1449.700399,7105.977043,-5995.668130,536.266849
1449.700728,6735.874072,-7105.977043,689.485948
1449.701057,7328.038826,-7994.224174,919.314598
1449.701386,6809.894666,-9474.636058,1225.752797
1449.701715,5181.441594,-8660.409521,383.047749
1449.702044,5773.606348,-7031.956449,76.609550
1449.702373,6809.894666,-7476.080014,1072.533697
1449.702702,7402.059420,-5773.606348,1685.410096
1449.703031,7328.038826,-5181.441594,1915.238745
1449.703360,7550.100608,-5403.503377,2911.162892
1449.703689,7105.977043,-5329.482782,2145.067394
1449.704018,7994.224174,-5551.544565,1685.410096
1449.704348,7846.182985,-4811.338623,1455.581446
1449.704677,7105.977043,-5921.647536,919.314598
1449.705006,5699.585753,-6143.709319,-1225.752797
1449.705335,4959.379811,-5847.626942,-612.876398
1449.705664,5403.503377,-8290.306550,0.000000
1449.705993,5699.585753,-9474.636058,995.924147
1449.706322,5181.441594,-9918.759623,1149.143247
1449.706651,6217.729913,-9178.553681,1532.190996
1449.706980,7031.956449,-7698.141797,1608.800546
1449.707309,7105.977043,-6217.729913,2145.067394
1449.707638,8364.327145,-5699.585753,2451.505594
1449.707967,8586.388927,-4811.338623,2145.067394
1449.708296,7550.100608,-3182.885551,995.924147
1449.708625,6439.791695,-4145.153275,-229.828649
1449.708954,7254.018232,-5255.462188,0.000000
1449.709283,7994.224174,-6069.688724,383.047749
1449.709612,7105.977043,-7994.224174,-76.609550
1449.709941,6587.832884,-7772.162391,1149.143247
1449.710270,6365.771101,-10510.924376,1455.581446
1449.710599,5403.503377,-9992.780217,306.438199
1449.710928,4293.194464,-7920.203579,766.095498
1449.711257,5551.544565,-8068.244768,536.266849
1449.711587,7698.141797,-6439.791695,1149.143247
1449.711916,7994.224174,-4811.338623,2298.286494
1449.712245,8512.368333,-4219.173869,3294.210641
1449.712574,8438.347739,-2812.782580,2068.457845
1449.712903,7402.059420,-3552.988522,1378.971896
1449.713232,6883.915261,-4737.318029,1455.581446
1449.713561,7994.224174,-6069.688724,1378.971896
1449.713890,8586.388927,-6883.915261,306.438199
1449.714219,5995.668130,-6587.832884,-1225.752797
1449.714548,5255.462188,-8660.409521,-689.485948
1449.714877,6069.688724,-10807.006753,229.828649
1449.715206,4663.297435,-10955.047942,-229.828649
1449.715535,3775.050304,-9400.615463,689.485948
1449.715864,5921.647536,-7920.203579,919.314598
1449.716193,7994.224174,-7031.956449,1225.752797
1449.716522,8142.265362,-5255.462188,3217.601092
1449.716851,8734.430116,-4071.132681,3447.429741
1449.717180,9030.512492,-1850.514855,2451.505594
1449.717509,8734.430116,-1184.329507,2068.457845
1449.717838,7698.141797,-2442.679609,1455.581446
1449.718167,8586.388927,-2960.823768,612.876398
1449.718496,8438.347739,-5773.606348,919.314598
1449.718825,6587.832884,-7031.956449,-383.047749
1449.719154,5773.606348,-7402.059420,-689.485948
1449.719483,5921.647536,-10955.047942,229.828649
1449.719812,5255.462188,-12139.377449,536.266849
1449.720141,4515.256246,-10658.965565,383.047749
1449.720470,5033.400406,-9844.739029,612.876398
1449.720799,6735.874072,-8364.327145,1455.581446
1449.721128,7550.100608,-4589.276840,1532.190996
1449.721457,7698.141797,-3849.070898,2604.724693
1449.721786,8586.388927,-2146.597232,2068.457845
1449.722115,8364.327145,-2368.659014,689.485948
1449.722444,8364.327145,-3034.844362,1762.019645
1449.722773,9178.553681,-4811.338623,1838.629195
1449.723102,9326.594869,-6365.771101,689.485948
1449.723431,7031.956449,-7179.997637,-689.485948
1449.723760,4959.379811,-9178.553681,-536.266849
1449.724089,4737.318029,-12065.356855,0.000000
1449.724418,4219.173869,-11621.233289,-536.266849
1449.724747,3108.864956,-10436.903782,-383.047749
1449.725076,4959.379811,-9178.553681,459.657299
1449.725405,7254.018232,-7624.121203,2145.067394
1449.725734,7550.100608,-6143.709319,4060.306139
1449.726063,8734.430116,-4071.132681,3064.381992
1449.726392,8808.450710,-666.185348,2068.457845
1449.726721,8216.285956,-1628.453072,1302.362347
1449.727050,8956.491898,-2886.803174,1762.019645
1449.727379,8808.450710,-2812.782580,995.924147
1449.727708,7476.080014,-6735.874072,0.000000
1449.728037,6069.688724,-5625.565159,-1608.800546
1449.728366,5255.462188,-9104.533087,-383.047749
1449.728695,5847.626942,-14063.912898,612.876398
1449.729024,4293.194464,-12583.501014,842.705048
1449.729353,3182.885551,-11621.233289,-306.438199
1449.729683,4515.256246,-10140.821405,0.000000
1449.730012,5847.626942,-6513.812290,612.876398
1449.730341,7179.997637,-5551.544565,1915.238745
1449.730670,9104.533087,-3182.885551,3064.381992
1449.730999,9622.677246,-592.164754,1608.800546
1449.731328,9400.615463,-1406.391290,2757.943793
1449.731657,10140.821405,-1924.535449,2681.334243
1449.731986,10362.883188,-2664.741391,2221.676944
1449.732315,8882.471304,-4811.338623,229.828649
1449.732644,7031.956449,-6217.729913,-612.876398
1449.732973,6661.853478,-8068.244768,-612.876398
1449.733302,6661.853478,-11325.150913,-76.609550
1449.733631,4885.359217,-12583.501014,76.609550
1449.733960,3034.844362,-11547.212695,-766.095498
1449.734289,3923.091493,-11029.068536,76.609550
1449.734618,4959.379811,-9696.697840,1149.143247
1449.734947,6069.688724,-5181.441594,1455.581446
1449.735276,7698.141797,-3478.967927,2451.505594
1449.735605,9178.553681,-1998.556043,2757.943793
1449.735934,9326.594869,-2146.597232,2451.505594
1449.736263,8956.491898,-740.205942,2145.067394
1449.736592,10140.821405,-1776.494261,1762.019645
1449.736921,9252.574275,-3849.070898,459.657299
1449.737250,7179.997637,-5107.421000,229.828649
1449.737579,6291.750507,-8660.409521,-612.876398
1449.737908,6365.771101,-11621.233289,383.047749
1449.738237,5033.400406,-12879.583391,306.438199
1449.738566,4515.256246,-11473.192101,0.000000
1449.738895,4959.379811,-10955.047942,229.828649
1449.739224,5773.606348,-9178.553681,1149.143247
1449.739553,5625.565159,-5921.647536,1149.143247
1449.739882,6587.832884,-4367.215058,1991.848295
1449.740211,8142.265362,-2220.617826,2451.505594
1449.740540,9030.512492,-1850.514855,2221.676944
1449.740869,9178.553681,-1480.411884,2757.943793
1449.741198,10288.862594,-2146.597232,2757.943793
1449.741527,9474.636058,-4441.235652,2068.457845
1449.741856,7105.977043,-4367.215058,306.438199
1449.742185,6365.771101,-5921.647536,-689.485948
1449.742514,5921.647536,-9844.739029,-229.828649
1449.742843,4441.235652,-12879.583391,459.657299
1449.743172,3627.009116,-12287.418637,153.219100
1449.743501,4071.132681,-11399.171507,459.657299
1449.743830,4959.379811,-10436.903782,919.314598
1449.744159,5847.626942,-7698.141797,1685.410096
1449.744488,7031.956449,-5773.606348,2374.896044
1449.744817,7698.141797,-2368.659014,919.314598
1449.745146,8142.265362,-2368.659014,1072.533697
1449.745475,8882.471304,-1776.494261,2374.896044
1449.745804,9622.677246,-2220.617826,919.314598
1449.746133,8808.450710,-4737.318029,1225.752797
1449.746462,8290.306550,-5921.647536,1072.533697
1449.746791,7920.203579,-8290.306550,1149.143247
1449.747120,6809.894666,-10658.965565,1838.629195
1449.747449,4959.379811,-11029.068536,689.485948
1449.747778,4441.235652,-10436.903782,-383.047749
1449.748107,4515.256246,-10658.965565,459.657299
1449.748436,4663.297435,-8068.244768,459.657299
1449.748765,4959.379811,-6735.874072,459.657299
1449.749094,6883.915261,-5033.400406,2451.505594
1449.749423,8068.244768,-2516.700203,1302.362347
1449.749752,8216.285956,-3627.009116,2298.286494
1449.750081,9104.533087,-2072.576638,3140.991542
1449.750410,9844.739029,-2590.720797,1608.800546
1449.750739,9178.553681,-3627.009116,612.876398
1449.751068,7328.038826,-3404.947333,0.000000
1449.751397,7105.977043,-7402.059420,-306.438199
1449.751726,7105.977043,-10658.965565,153.219100
1449.752055,4885.359217,-11917.315666,919.314598
1449.752384,4885.359217,-11843.295072,229.828649
1449.752713,6291.750507,-11029.068536,1302.362347
1449.753042,5477.523971,-10140.821405,1991.848295
1449.753371,5181.441594,-6735.874072,919.314598
1449.753700,6365.771101,-4515.256246,1302.362347
1449.754029,7624.121203,-3923.091493,1532.190996
1449.754358,8364.327145,-2664.741391,1762.019645
1449.754687,8512.368333,-1332.370696,2221.676944
1449.755016,9474.636058,-1628.453072,1149.143247
1449.755345,9400.615463,-3552.988522,306.438199
1449.755674,8216.285956,-5107.421000,842.705048
1449.756003,7994.224174,-7179.997637,1072.533697
1449.756332,7402.059420,-9622.677246,536.266849
1449.756662,4589.276840,-11695.253884,459.657299
1449.756991,3478.967927,-11325.150913,-383.047749
1449.757320,4959.379811,-11621.233289,459.657299
1449.757649,6069.688724,-10288.862594,1378.971896
1449.757978,5773.606348,-8512.368333,1685.410096
1449.758307,6069.688724,-5477.523971,1991.848295
1449.758636,7179.997637,-3849.070898,1838.629195
1449.758965,7550.100608,-2738.761985,1149.143247
1449.759294,7920.203579,-1332.370696,1608.800546
1449.759623,8660.409521,-3034.844362,995.924147
1449.759952,8882.471304,-3108.864956,229.828649
1449.760281,7031.956449,-4145.153275,0.000000
1449.760610,7105.977043,-6809.894666,1072.533697
1449.760939,6957.935855,-9844.739029,689.485948
1449.761268,5403.503377,-11843.295072,1608.800546
1449.761597,5403.503377,-12139.377449,1762.019645
1449.761926,6439.791695,-9844.739029,1455.581446
1449.762255,5921.647536,-7624.121203,1302.362347
1449.762584,5625.565159,-6809.894666,1072.533697
1449.762913,6735.874072,-5181.441594,2374.896044
1449.763242,8142.265362,-3256.906145,1915.238745
1449.763571,7402.059420,-2368.659014,1685.410096
1449.763900,7328.038826,-1554.432478,2298.286494
1449.764229,9030.512492,-3849.070898,2068.457845
1449.764558,9178.553681,-3701.029710,1302.362347
1449.764887,7105.977043,-3849.070898,536.266849
1449.765216,7105.977043,-7105.977043,459.657299
1449.765545,6439.791695,-9548.656652,383.047749
1449.765874,5181.441594,-11399.171507,0.000000
1449.766203,5107.421000,-10955.047942,76.609550
1449.766532,6217.729913,-10584.944971,919.314598
1449.766861,7179.997637,-9622.677246,1225.752797
1449.767190,6809.894666,-7772.162391,2221.676944
1449.767519,7624.121203,-5477.523971,2451.505594
1449.767848,9252.574275,-2960.823768,1685.410096
1449.768177,8364.327145,-2368.659014,1915.238745
1449.768506,7920.203579,-2368.659014,612.876398
1449.768835,8586.388927,-3923.091493,0.000000
1449.769164,8216.285956,-3849.070898,459.657299
1449.769493,7105.977043,-4071.132681,0.000000
1449.769822,7031.956449,-7550.100608,76.609550
1449.770151,7179.997637,-9844.739029,1455.581446
1449.770480,4885.359217,-11843.295072,766.095498
1449.770809,4293.194464,-10510.924376,306.438199
1449.771138,5255.462188,-9474.636058,612.876398
1449.771467,6143.709319,-8660.409521,1455.581446
1449.771796,6587.832884,-6439.791695,2068.457845
1449.772125,7402.059420,-4959.379811,2451.505594
1449.772454,8290.306550,-3034.844362,1685.410096
1449.772783,7550.100608,-2516.700203,689.485948
1449.773112,7624.121203,-2886.803174,1608.800546
1449.773441,8586.388927,-3775.050304,459.657299
1449.773770,7994.224174,-4885.359217,153.219100
1449.774099,6365.771101,-4367.215058,-459.657299
1449.774428,6513.812290,-7920.203579,-612.876398
1449.774757,7402.059420,-10140.821405,383.047749
1449.775086,6365.771101,-10584.944971,536.266849
1449.775415,5255.462188,-11029.068536,919.314598
1449.775744,5995.668130,-10584.944971,1225.752797
1449.776073,5847.626942,-8586.388927,612.876398
1449.776402,5403.503377,-5699.585753,919.314598
1449.776731,6439.791695,-4293.194464,1532.190996
1449.777060,8364.327145,-3330.926739,2681.334243
1449.777389,8808.450710,-3404.947333,2528.115143
1449.777718,8290.306550,-1850.514855,1915.238745
1449.778047,8364.327145,-2886.803174,842.705048
1449.778376,8142.265362,-4367.215058,383.047749
1449.778705,6513.812290,-5329.482782,383.047749
1449.779034,6291.750507,-8068.244768,0.000000
1449.779363,6587.832884,-9696.697840,153.219100
1449.779692,5625.565159,-10881.027347,306.438199
1449.780021,4515.256246,-11843.295072,229.828649
1449.780350,5847.626942,-11769.274478,689.485948
1449.780679,5995.668130,-11029.068536,1915.238745
1449.781008,6143.709319,-7328.038826,1838.629195
1449.781337,6439.791695,-4145.153275,1302.362347
1449.781666,7698.141797,-3552.988522,1915.238745
1449.781995,8660.409521,-3182.885551,2221.676944
1449.782324,8290.306550,-1184.329507,1455.581446
1449.782653,9104.533087,-2294.638420,1072.533697
1449.782982,8808.450710,-2368.659014,995.924147
1449.783311,7254.018232,-4589.276840,766.095498
1449.783641,7402.059420,-7920.203579,1532.190996
1449.783970,6143.709319,-9400.615463,689.485948
1449.784299,5255.462188,-11251.130318,229.828649
1449.784628,4737.318029,-11251.130318,383.047749
1449.784957,5033.400406,-10658.965565,1302.362347
1449.785286,6587.832884,-9326.594869,1378.971896
1449.785615,6365.771101,-6735.874072,1685.410096
1449.785944,6513.812290,-4811.338623,1991.848295
1449.786273,7254.018232,-3627.009116,2528.115143
1449.786602,8142.265362,-3256.906145,2145.067394
1449.786931,8734.430116,-2442.679609,2528.115143
1449.787260,9474.636058,-3627.009116,2298.286494
1449.787589,8512.368333,-3923.091493,766.095498
1449.787918,6957.935855,-3478.967927,-1378.971896
1449.788247,5551.544565,-6957.935855,-459.657299
1449.788576,6365.771101,-9622.677246,76.609550
1449.788905,5699.585753,-10362.883188,306.438199
1449.789234,5107.421000,-11769.274478,919.314598
1449.789563,6513.812290,-10807.006753,1149.143247
1449.789892,7698.141797,-9474.636058,1455.581446
1449.790221,7179.997637,-7254.018232,2298.286494
1449.790550,7476.080014,-4885.359217,2145.067394
1449.790879,8216.285956,-3182.885551,1762.019645
1449.791208,8068.244768,-1554.432478,995.924147
1449.791537,7994.224174,-1628.453072,1149.143247
1449.791866,8956.491898,-3923.091493,1225.752797
1449.792195,8216.285956,-3849.070898,306.438199
1449.792524,6291.750507,-5181.441594,0.000000
1449.792853,6069.688724,-8068.244768,459.657299
1449.793182,6587.832884,-10066.800811,995.924147
1449.793511,5699.585753,-10807.006753,536.266849
1449.793840,4737.318029,-10214.842000,612.876398
1449.794169,5329.482782,-9992.780217,689.485948
1449.794498,5403.503377,-7698.141797,612.876398
1449.794827,5625.565159,-6069.688724,459.657299
1449.795156,6957.935855,-5255.462188,1991.848295
1449.795485,9030.512492,-5181.441594,2221.676944
1449.795814,9030.512492,-5181.441594,2681.334243
1449.796143,8290.306550,-4145.153275,2221.676944
1449.796472,8512.368333,-4441.235652,1072.533697
1449.796801,7179.997637,-3849.070898,-1072.533697
1449.797130,5033.400406,-4737.318029,-1915.238745
1449.797459,5107.421000,-8068.244768,-536.266849
1449.797788,7179.997637,-9030.512492,536.266849
1449.798117,6735.874072,-9770.718434,1378.971896
1449.798446,6365.771101,-9474.636058,995.924147
1449.798775,6587.832884,-9770.718434,1762.019645
1449.799104,7031.956449,-8068.244768,1685.410096
1449.799433,6513.812290,-6735.874072,2068.457845
1449.799762,6587.832884,-4515.256246,1838.629195
1449.800091,8290.306550,-3775.050304,1838.629195
1449.800420,7994.224174,-4441.235652,1608.800546
1449.800749,7624.121203,-4663.297435,2451.505594
1449.801078,8586.388927,-6217.729913,1685.410096
1449.801407,7550.100608,-5403.503377,919.314598
1449.801736,5329.482782,-4441.235652,-995.924147
1449.802065,4737.318029,-7624.121203,-766.095498
1449.802394,6735.874072,-7772.162391,0.000000
1449.802723,6365.771101,-9548.656652,229.828649
1449.803052,5255.462188,-8808.450710,919.314598
1449.803381,6735.874072,-8068.244768,1532.190996
1449.803710,7179.997637,-8734.430116,1302.362347
1449.804039,6735.874072,-6291.750507,2145.067394
1449.804368,7328.038826,-6291.750507,2681.334243
1449.804697,8660.409521,-5773.606348,2145.067394
1449.805026,7476.080014,-4071.132681,1455.581446
1449.805355,7254.018232,-3997.112087,306.438199
1449.805684,8512.368333,-3997.112087,689.485948
1449.806013,7772.162391,-4515.256246,536.266849
1449.806342,6217.729913,-6143.709319,153.219100
1449.806671,5773.606348,-7476.080014,1149.143247
1449.807000,6587.832884,-8882.471304,766.095498
1449.807329,5847.626942,-8142.265362,459.657299
1449.807658,5329.482782,-8734.430116,1378.971896
1449.807987,6513.812290,-8216.285956,1302.362347
1449.808316,7179.997637,-7179.997637,1225.752797
1449.808645,6439.791695,-6291.750507,1838.629195
1449.808974,7476.080014,-4145.153275,2068.457845
1449.809303,8438.347739,-5403.503377,1991.848295
1449.809632,8216.285956,-4737.318029,1838.629195
1449.809961,7179.997637,-4959.379811,1455.581446
1449.810290,7994.224174,-6439.791695,842.705048
1449.810620,7994.224174,-4885.359217,383.047749
1449.810949,6735.874072,-6217.729913,76.609550
1449.811278,7254.018232,-6809.894666,536.266849
1449.811607,6587.832884,-8364.327145,459.657299
1449.811936,4959.379811,-9474.636058,689.485948
1449.812265,5181.441594,-8364.327145,306.438199
1449.812594,6365.771101,-7476.080014,1225.752797
1449.812923,7254.018232,-6587.832884,1378.971896
1449.813252,7105.977043,-6661.853478,2681.334243
1449.813581,7698.141797,-5403.503377,3677.258390
1449.813910,8438.347739,-5477.523971,2145.067394
1449.814239,7920.203579,-4441.235652,1532.190996
1449.814568,7328.038826,-3627.009116,919.314598
1449.814897,7402.059420,-5773.606348,153.219100
1449.815226,5921.647536,-5181.441594,0.000000
1449.815555,5329.482782,-7254.018232,306.438199
1449.815884,6661.853478,-8438.347739,383.047749
1449.816213,7031.956449,-9474.636058,1302.362347
1449.816542,5403.503377,-10214.842000,536.266849
1449.816871,5107.421000,-9030.512492,689.485948
1449.817200,6439.791695,-8586.388927,1302.362347
1449.817529,7328.038826,-5699.585753,1532.190996
1449.817858,6883.915261,-3997.112087,1455.581446
1449.818187,7550.100608,-4145.153275,2068.457845
1449.818516,8956.491898,-4959.379811,1685.410096
1449.818845,8808.450710,-5477.523971,1762.019645
1449.819174,7698.141797,-5699.585753,2374.896044
1449.819503,8660.409521,-6513.812290,919.314598
1449.819832,7402.059420,-5033.400406,-76.609550
1449.820161,5403.503377,-6735.874072,-536.266849
1449.820490,5995.668130,-7402.059420,153.219100
1449.820819,6365.771101,-8290.306550,0.000000
1449.821148,5551.544565,-8808.450710,689.485948
1449.821477,5625.565159,-7550.100608,1225.752797
1449.821806,7254.018232,-7328.038826,2298.286494
1449.822135,7550.100608,-5773.606348,2221.676944
1449.822464,7105.977043,-4737.318029,1838.629195
1449.822793,8808.450710,-3997.112087,1991.848295
1449.823122,9252.574275,-4293.194464,1072.533697
1449.823451,7476.080014,-4441.235652,842.705048
1449.823780,7031.956449,-4885.359217,536.266849
1449.824109,7698.141797,-7105.977043,-306.438199
1449.824438,6439.791695,-7105.977043,-536.266849
1449.824767,5329.482782,-8142.265362,0.000000
1449.825096,6513.812290,-9696.697840,766.095498
1449.825425,6957.935855,-9622.677246,536.266849
1449.825754,5255.462188,-9104.533087,536.266849
1449.826083,5033.400406,-8068.244768,766.095498
1449.826412,6661.853478,-7105.977043,1149.143247
1449.826741,7105.977043,-5033.400406,1455.581446
1449.827070,7920.203579,-3552.988522,2298.286494
1449.827399,8808.450710,-2886.803174,2451.505594
1449.827728,8882.471304,-3404.947333,1991.848295
1449.828057,8068.244768,-4811.338623,1838.629195
1449.828386,8734.430116,-4959.379811,1378.971896
1449.828715,9252.574275,-7105.977043,1302.362347
1449.829044,7031.956449,-6883.915261,306.438199
1449.829373,5107.421000,-7698.141797,-536.266849
1449.829702,4885.359217,-9178.553681,-383.047749
1449.830031,4441.235652,-9252.574275,-766.095498
1449.830360,4219.173869,-9178.553681,76.609550
1449.830689,5329.482782,-8142.265362,1378.971896
1449.831018,6587.832884,-7920.203579,1838.629195
1449.831347,7328.038826,-5995.668130,2451.505594
1449.831676,7994.224174,-4071.132681,2681.334243
1449.832005,9326.594869,-3849.070898,2834.553343
1449.832334,8882.471304,-1998.556043,1762.019645
1449.832663,8142.265362,-2368.659014,612.876398
1449.832992,9030.512492,-4367.215058,612.876398
1449.833321,9030.512492,-6513.812290,1302.362347
1449.833650,6365.771101,-7476.080014,-383.047749
1449.833979,5625.565159,-9178.553681,-766.095498
1449.834308,6291.750507,-10658.965565,76.609550
1449.834637,5551.544565,-11547.212695,76.609550
1449.834966,4663.297435,-10881.027347,536.266849
1449.835295,5403.503377,-8660.409521,1072.533697
1449.835624,6217.729913,-6439.791695,689.485948
1449.835953,7105.977043,-4959.379811,2298.286494
1449.836282,7994.224174,-3182.885551,2834.553343
1449.836611,9400.615463,-2368.659014,2451.505594
1449.836940,8512.368333,-1924.535449,612.876398
1449.837269,7179.997637,-3182.885551,842.705048
1449.837598,8364.327145,-4737.318029,919.314598
1449.837927,8586.388927,-6365.771101,459.657299
1449.838256,6809.894666,-7179.997637,76.609550
1449.838585,5551.544565,-9030.512492,-766.095498
1449.838914,5847.626942,-11843.295072,0.000000
1449.839243,4737.318029,-11843.295072,0.000000
1449.839572,3478.967927,-10214.842000,-612.876398
1449.839901,4441.235652,-8734.430116,-383.047749
1449.840230,6513.812290,-7105.977043,612.876398
1449.840559,7550.100608,-4959.379811,1302.362347
1449.840888,8290.306550,-3330.926739,3140.991542
1449.841217,9474.636058,-2220.617826,2451.505594
1449.841546,9548.656652,-1332.370696,1455.581446
1449.841875,9104.533087,-2368.659014,1915.238745
1449.842204,9252.574275,-3552.988522,1991.848295
1449.842533,8808.450710,-6217.729913,1072.533697
1449.842862,6513.812290,-6661.853478,-689.485948
1449.843191,4885.359217,-8142.265362,-1991.848295
1449.843520,4737.318029,-11399.171507,-689.485948
1449.843849,4737.318029,-13027.624579,-383.047749
1449.844178,4367.215058,-11621.233289,306.438199
1449.844507,5847.626942,-8956.491898,1225.752797
1449.844836,6809.894666,-7031.956449,1608.800546
1449.845165,7179.997637,-5551.544565,2528.115143
1449.845494,8364.327145,-2886.803174,3370.820191
1449.845823,9252.574275,-1998.556043,2374.896044
1449.846152,8882.471304,-1702.473667,1072.533697
1449.846481,8216.285956,-1776.494261,1532.190996
1449.846810,8882.471304,-3627.009116,1532.190996
1449.847139,9252.574275,-5995.668130,919.314598
1449.847468,6809.894666,-7920.203579,459.657299
1449.847797,5403.503377,-10288.862594,0.000000
1449.848126,5403.503377,-11843.295072,612.876398
1449.848455,4293.194464,-13397.727550,229.828649
