#time,accel_x,accel_y,accel_z
1280.881789,7254.018232,-6439.791695,842.705048
1280.882119,7624.121203,-6365.771101,1225.752797
1280.882449,7402.059420,-6439.791695,689.485948
1280.882779,7254.018232,-6513.812290,919.314598
1280.883109,7105.977043,-6513.812290,1225.752797
1280.883439,7254.018232,-6291.750507,1225.752797
1280.883769,7179.997637,-6291.750507,1149.143247
1280.884099,6883.915261,-6439.791695,919.314598
1280.884429,6661.853478,-6809.894666,1149.143247
1280.884759,6661.853478,-6513.812290,919.314598
1280.885089,6439.791695,-6217.729913,1455.581446
1280.885419,6735.874072,-6513.812290,1072.533697
1280.885749,6735.874072,-6883.915261,1225.752797
1280.886079,6809.894666,-6957.935855,766.095498
1280.886409,6587.832884,-7031.956449,766.095498
1280.886739,6439.791695,-6513.812290,995.924147
1280.887069,6883.915261,-7105.977043,1072.533697
1280.887399,7179.997637,-6883.915261,995.924147
1280.887729,7031.956449,-6439.791695,1302.362347
1280.888059,7772.162391,-6883.915261,842.705048
1280.888388,7179.997637,-6439.791695,1149.143247
1280.888718,6883.915261,-6365.771101,1072.533697
1280.889048,6661.853478,-6513.812290,766.095498
1280.889378,6883.915261,-5995.668130,1072.533697
1280.889708,7254.018232,-6143.709319,153.219100
1280.890038,7031.956449,-6365.771101,919.314598
1280.890368,7105.977043,-6217.729913,1302.362347
1280.890698,7105.977043,-6809.894666,766.095498
1280.891028,6883.915261,-5921.647536,612.876398
1280.891358,6735.874072,-6661.853478,1225.752797
1280.891688,7031.956449,-6957.935855,919.314598
1280.892018,6735.874072,-6957.935855,842.705048
1280.892348,6883.915261,-6513.812290,1149.143247
1280.892678,7105.977043,-6957.935855,1302.362347
1280.893008,6735.874072,-6291.750507,1302.362347
1280.893338,6809.894666,-7031.956449,766.095498
1280.893668,6735.874072,-7031.956449,612.876398
1280.893998,6957.935855,-6957.935855,1149.143247
1280.894328,7105.977043,-6809.894666,612.876398
1280.894658,7254.018232,-6809.894666,919.314598
1280.894988,7031.956449,-6439.791695,1378.971896
1280.895318,7254.018232,-6883.915261,1072.533697
1280.895647,7179.997637,-6291.750507,1685.410096
1280.895977,7328.038826,-6513.812290,766.095498
1280.896307,7179.997637,-7031.956449,1072.533697
1280.896637,7328.038826,-6069.688724,1378.971896
1280.896967,7624.121203,-6291.750507,766.095498
1280.897297,6809.894666,-6217.729913,1302.362347
1280.897627,7031.956449,-6217.729913,1072.533697
1280.897957,7105.977043,-6143.709319,1225.752797
1280.898287,7031.956449,-6439.791695,1225.752797
1280.898617,6809.894666,-6291.750507,842.705048
1280.898947,5847.626942,-6217.729913,459.657299
1280.899277,6883.915261,-6513.812290,1149.143247
1280.899607,6735.874072,-6809.894666,1378.971896
1280.899937,7031.956449,-6883.915261,766.095498
1280.900267,7402.059420,-7105.977043,459.657299
1280.900597,6661.853478,-6883.915261,995.924147
1280.900927,6587.832884,-7550.100608,1378.971896
1280.901257,6661.853478,-6587.832884,1225.752797
1280.901587,6735.874072,-6513.812290,1302.362347
1280.901917,7105.977043,-6809.894666,766.095498
1280.902247,6809.894666,-6365.771101,1149.143247
1280.902577,7031.956449,-6587.832884,842.705048
1280.902906,6957.935855,-6587.832884,306.438199
1280.903236,6735.874072,-5995.668130,1378.971896
1280.903566,6883.915261,-6587.832884,995.924147
1280.903896,7105.977043,-6365.771101,1225.752797
1280.904226,7254.018232,-6291.750507,1072.533697
1280.904556,7105.977043,-6587.832884,1149.143247
1280.904886,7105.977043,-6365.771101,1608.800546
1280.905216,7031.956449,-6513.812290,842.705048
1280.905546,7031.956449,-6735.874072,919.314598
1280.905876,6143.709319,-6587.832884,766.095498
1280.906206,6365.771101,-6809.894666,689.485948
1280.906536,7179.997637,-6735.874072,1149.143247
1280.906866,6883.915261,-6735.874072,1455.581446
1280.907196,6809.894666,-6735.874072,766.095498
1280.907526,6809.894666,-6883.915261,1149.143247
1280.907856,6735.874072,-6883.915261,1915.238745
1280.908186,6883.915261,-6883.915261,689.485948
1280.908516,6587.832884,-6587.832884,995.924147
1280.908846,6957.935855,-6957.935855,995.924147
1280.909176,7031.956449,-7105.977043,995.924147
1280.909506,7328.038826,-6439.791695,1072.533697
1280.909836,7105.977043,-6661.853478,842.705048
1280.910165,7179.997637,-6513.812290,995.924147
1280.910495,7254.018232,-6587.832884,842.705048
1280.910825,7105.977043,-6735.874072,1149.143247
1280.911155,7328.038826,-6069.688724,1149.143247
1280.911485,7624.121203,-5995.668130,1072.533697
1280.911815,7328.038826,-6365.771101,1149.143247
1280.912145,7550.100608,-6587.832884,919.314598
1280.912475,7105.977043,-5995.668130,1225.752797
1280.912805,7328.038826,-6513.812290,1072.533697
1280.913135,7105.977043,-6143.709319,1072.533697
1280.913465,6587.832884,-6661.853478,766.095498
1280.913795,7031.956449,-6735.874072,459.657299
1280.914125,6957.935855,-6365.771101,842.705048
1280.914455,6735.874072,-7105.977043,1072.533697
1280.914785,6587.832884,-6661.853478,995.924147
1280.915115,6735.874072,-6661.853478,1072.533697
1280.915445,7031.956449,-6661.853478,306.438199
1280.915775,6513.812290,-7105.977043,612.876398
1280.916105,6513.812290,-6957.935855,1149.143247
1280.916435,7179.997637,-7179.997637,1225.752797
1280.916765,7179.997637,-6365.771101,1378.971896
1280.917095,7179.997637,-6439.791695,1072.533697
1280.917424,7031.956449,-6291.750507,1149.143247
1280.917754,6957.935855,-6661.853478,842.705048
1280.918084,6883.915261,-6291.750507,919.314598
1280.918414,7031.956449,-6365.771101,1149.143247
1280.918744,7105.977043,-6069.688724,1072.533697
1280.919074,7105.977043,-6365.771101,689.485948
1280.919404,6661.853478,-6439.791695,1072.533697
1280.919734,6883.915261,-6439.791695,1072.533697
1280.920064,7254.018232,-6365.771101,919.314598
1280.920394,6735.874072,-6291.750507,919.314598
1280.920724,6587.832884,-6883.915261,1072.533697
1280.921054,6957.935855,-6809.894666,1072.533697
1280.921384,6883.915261,-7031.956449,1685.410096
1280.921714,6809.894666,-6587.832884,612.876398
1280.922044,6661.853478,-6587.832884,766.095498
1280.922374,6587.832884,-7105.977043,1149.143247
1280.922704,6957.935855,-7105.977043,1072.533697
1280.923034,6883.915261,-6809.894666,919.314598
1280.923364,7031.956449,-6883.915261,842.705048
1280.923694,7105.977043,-6883.915261,689.485948
1280.924024,7254.018232,-6809.894666,1149.143247
1280.924354,7328.038826,-6661.853478,919.314598
1280.924683,7254.018232,-6513.812290,1072.533697
1280.925013,7624.121203,-6735.874072,459.657299
1280.925343,7105.977043,-6587.832884,842.705048
1280.925673,7254.018232,-6217.729913,919.314598
1280.926003,7846.182985,-5921.647536,842.705048
1280.926333,7179.997637,-6291.750507,919.314598
1280.926663,7105.977043,-5995.668130,1072.533697
1280.926993,7105.977043,-5995.668130,536.266849
1280.927323,7105.977043,-6291.750507,995.924147
1280.927653,7031.956449,-6143.709319,995.924147
1280.927983,6809.894666,-6661.853478,995.924147
1280.928313,6883.915261,-6587.832884,919.314598
1280.928643,6957.935855,-6513.812290,1225.752797
1280.928973,7105.977043,-6809.894666,1225.752797
1280.929303,6957.935855,-6587.832884,1072.533697
1280.929633,7105.977043,-6587.832884,1149.143247
1280.929963,7031.956449,-6661.853478,766.095498
1280.930293,6513.812290,-6587.832884,919.314598
1280.930623,6883.915261,-6143.709319,766.095498
1280.930953,7031.956449,-6883.915261,766.095498
1280.931283,6883.915261,-6513.812290,1378.971896
1280.931613,7105.977043,-6439.791695,919.314598
1280.931942,7105.977043,-6365.771101,766.095498
1280.932272,6809.894666,-6365.771101,842.705048
1280.932602,7105.977043,-6735.874072,612.876398
1280.932932,7105.977043,-7105.977043,1302.362347
1280.933262,7105.977043,-6291.750507,1149.143247
1280.933592,6957.935855,-6217.729913,1762.019645
1280.933922,6957.935855,-6439.791695,1455.581446
1280.934252,6957.935855,-6587.832884,1149.143247
1280.934582,7105.977043,-6587.832884,1072.533697
1280.934912,6513.812290,-6217.729913,1149.143247
1280.935242,6439.791695,-6513.812290,1225.752797
1280.935572,6291.750507,-6661.853478,919.314598
1280.935902,6735.874072,-6883.915261,1225.752797
1280.936232,6883.915261,-6809.894666,689.485948
1280.936562,6661.853478,-7031.956449,1225.752797
1280.936892,6661.853478,-7031.956449,1072.533697
1280.937222,6661.853478,-7105.977043,612.876398
1280.937552,6587.832884,-7105.977043,766.095498
1280.937882,6661.853478,-7031.956449,1149.143247
1280.938212,7031.956449,-6661.853478,689.485948
1280.938542,7105.977043,-6587.832884,1455.581446
1280.938872,7550.100608,-6365.771101,1302.362347
1280.939201,7105.977043,-6217.729913,766.095498
1280.939531,7105.977043,-6069.688724,689.485948
1280.939861,6883.915261,-6291.750507,919.314598
1280.940191,7105.977043,-6513.812290,1149.143247
1280.940521,7328.038826,-6217.729913,1149.143247
1280.940851,7550.100608,-6439.791695,995.924147
1280.941181,7179.997637,-5699.585753,919.314598
1280.941511,7179.997637,-6661.853478,1302.362347
1280.941841,7179.997637,-6365.771101,842.705048
1280.942171,7402.059420,-6069.688724,919.314598
1280.942501,6661.853478,-6587.832884,842.705048
1280.942831,6661.853478,-6883.915261,1378.971896
1280.943161,7105.977043,-6735.874072,1072.533697
1280.943491,7031.956449,-6513.812290,1072.533697
1280.943821,6957.935855,-6513.812290,842.705048
1280.944151,6957.935855,-6735.874072,1072.533697
1280.944481,6513.812290,-6883.915261,919.314598
1280.944811,6735.874072,-7105.977043,842.705048
1280.945141,6957.935855,-6587.832884,536.266849
1280.945471,7105.977043,-7179.997637,842.705048
1280.945801,7254.018232,-6661.853478,1455.581446
1280.946131,7105.977043,-6291.750507,1455.581446
1280.946460,7179.997637,-6439.791695,995.924147
1280.946790,7105.977043,-6439.791695,1149.143247
1280.947120,6957.935855,-6069.688724,1302.362347
1280.947449,7105.977043,-6809.894666,1378.971896
1280.947779,7105.977043,-5921.647536,1072.533697
1280.948108,6809.894666,-5625.565159,919.314598
1280.948438,6883.915261,-6217.729913,1225.752797
1280.948767,7031.956449,-6291.750507,536.266849
1280.949097,7105.977043,-6883.915261,1149.143247
1280.949426,6661.853478,-6439.791695,842.705048
1280.949756,6513.812290,-6587.832884,995.924147
1280.950086,6513.812290,-6661.853478,689.485948
1280.950415,6143.709319,-6661.853478,919.314598
1280.950745,6735.874072,-6735.874072,1225.752797
1280.951074,7031.956449,-7031.956449,1149.143247
1280.951404,6661.853478,-6735.874072,1225.752797
1280.951733,6735.874072,-6661.853478,612.876398
1280.952063,6439.791695,-6291.750507,1455.581446
1280.952392,6513.812290,-6587.832884,842.705048
1280.952722,6513.812290,-6809.894666,995.924147
1280.953051,6883.915261,-6291.750507,1532.190996
1280.953381,7328.038826,-6735.874072,1378.971896
1280.953711,7105.977043,-6587.832884,766.095498
1280.954040,7031.956449,-6809.894666,1072.533697
1280.954370,7031.956449,-6661.853478,842.705048
1280.954699,7328.038826,-6143.709319,995.924147
1280.955029,7920.203579,-6217.729913,919.314598
1280.955358,7402.059420,-6439.791695,689.485948
1280.955688,7105.977043,-6069.688724,995.924147
1280.956017,7328.038826,-6291.750507,1225.752797
1280.956347,6957.935855,-6217.729913,1378.971896
1280.956677,7105.977043,-5847.626942,995.924147
1280.957006,6735.874072,-6513.812290,766.095498
1280.957336,6809.894666,-6735.874072,1149.143247
1280.957665,7105.977043,-6735.874072,1225.752797
1280.957995,7031.956449,-5921.647536,612.876398
1280.958324,7105.977043,-6587.832884,1072.533697
1280.958654,6587.832884,-6513.812290,842.705048
1280.958983,6883.915261,-6957.935855,842.705048
1280.959313,6809.894666,-7031.956449,995.924147
1280.959642,6513.812290,-6439.791695,1225.752797
1280.959972,6957.935855,-6735.874072,842.705048
1280.960302,7179.997637,-6735.874072,1072.533697
1280.960631,7402.059420,-6365.771101,1302.362347
1280.960961,7772.162391,-6883.915261,766.095498
1280.961290,7328.038826,-6365.771101,1378.971896
1280.961620,7105.977043,-6365.771101,919.314598
1280.961949,7179.997637,-7179.997637,1225.752797
1280.962279,7624.121203,-6069.688724,1072.533697
1280.962608,7402.059420,-6365.771101,1378.971896
1280.962938,7105.977043,-6365.771101,919.314598
1280.963267,7105.977043,-6587.832884,1455.581446
1280.963597,7105.977043,-6809.894666,1072.533697
1280.963927,7031.956449,-6291.750507,1685.410096
1280.964256,6365.771101,-6365.771101,842.705048
1280.964586,6513.812290,-6957.935855,1149.143247
1280.964915,6735.874072,-6883.915261,1149.143247
1280.965245,6809.894666,-6809.894666,919.314598
1280.965574,6809.894666,-6587.832884,842.705048
1280.965904,6809.894666,-7105.977043,1225.752797
1280.966233,6735.874072,-7105.977043,995.924147
1280.966563,6735.874072,-6809.894666,689.485948
1280.966893,6513.812290,-6883.915261,1378.971896
1280.967222,7105.977043,-7031.956449,536.266849
1280.967552,7179.997637,-7179.997637,1455.581446
1280.967881,7105.977043,-6439.791695,1608.800546
1280.968211,7328.038826,-6587.832884,919.314598
1280.968540,7624.121203,-6365.771101,1608.800546
1280.968870,7031.956449,-6809.894666,1302.362347
1280.969199,7105.977043,-6587.832884,1149.143247
1280.969529,7254.018232,-6069.688724,1302.362347
1280.969858,7179.997637,-5773.606348,766.095498
1280.970188,7031.956449,-6513.812290,919.314598
1280.970518,7031.956449,-6513.812290,1302.362347
1280.970847,6957.935855,-6661.853478,919.314598
1280.971177,6735.874072,-6291.750507,766.095498
1280.971506,6735.874072,-6365.771101,842.705048
1280.971836,6957.935855,-6883.915261,1225.752797
1280.972165,7105.977043,-6957.935855,995.924147
1280.972495,7105.977043,-6439.791695,1378.971896
1280.972824,6957.935855,-6587.832884,995.924147
1280.973154,6735.874072,-5699.585753,1149.143247
1280.973483,6809.894666,-6883.915261,1072.533697
1280.973813,6957.935855,-6957.935855,919.314598
1280.974143,6513.812290,-6661.853478,766.095498
1280.974472,6883.915261,-7031.956449,842.705048
1280.974802,7105.977043,-7031.956449,842.705048
1280.975131,7105.977043,-6069.688724,1149.143247
1280.975461,7105.977043,-6587.832884,1072.533697
1280.975790,7105.977043,-6587.832884,842.705048
1280.976120,7328.038826,-6069.688724,842.705048
1280.976449,6957.935855,-6735.874072,842.705048
1280.976779,7031.956449,-6217.729913,1225.752797
1280.977109,7402.059420,-5995.668130,1302.362347
1280.977438,6661.853478,-5995.668130,1378.971896
1280.977768,6735.874072,-6439.791695,1072.533697
1280.978097,7031.956449,-6439.791695,766.095498
1280.978427,6957.935855,-6809.894666,842.705048
1280.978756,6587.832884,-6439.791695,536.266849
1280.979086,6735.874072,-6513.812290,919.314598
1280.979415,6883.915261,-6587.832884,919.314598
1280.979745,6883.915261,-6661.853478,1302.362347
1280.980074,6809.894666,-6809.894666,1072.533697
1280.980404,6513.812290,-6661.853478,1302.362347
1280.980734,6587.832884,-6883.915261,1302.362347
1280.981063,6735.874072,-6883.915261,459.657299
1280.981393,6365.771101,-7105.977043,1149.143247
1280.981722,6957.935855,-7031.956449,842.705048
1280.982052,6957.935855,-6883.915261,1608.800546
1280.982381,7105.977043,-6439.791695,1225.752797
1280.982711,7031.956449,-6661.853478,689.485948
1280.983040,7105.977043,-6587.832884,995.924147
1280.983370,7105.977043,-6661.853478,1149.143247
1280.983699,7031.956449,-5995.668130,919.314598
1280.984029,7105.977043,-5847.626942,1225.752797
1280.984359,7550.100608,-6143.709319,1072.533697
1280.984688,7105.977043,-6217.729913,766.095498
1280.985018,7105.977043,-6365.771101,1378.971896
1280.985347,7105.977043,-6291.750507,1225.752797
1280.985677,7105.977043,-6291.750507,919.314598
1280.986006,6513.812290,-6291.750507,919.314598
1280.986336,6513.812290,-6587.832884,919.314598
1280.986665,6883.915261,-6883.915261,612.876398
1280.986995,6957.935855,-6587.832884,919.314598
1280.987325,6735.874072,-6587.832884,1072.533697
1280.987654,6735.874072,-6365.771101,995.924147
1280.987984,6809.894666,-6809.894666,1302.362347
1280.988313,7105.977043,-7031.956449,383.047749
1280.988643,6661.853478,-6587.832884,919.314598
1280.988972,6883.915261,-6661.853478,766.095498
1280.989302,6883.915261,-6735.874072,689.485948
1280.989631,6735.874072,-5995.668130,1685.410096
1280.989961,6883.915261,-6365.771101,919.314598
1280.990290,7031.956449,-6069.688724,1072.533697
1280.990620,7105.977043,-6439.791695,919.314598
1280.990950,7105.977043,-6587.832884,766.095498
1280.991279,7402.059420,-5699.585753,459.657299
1280.991609,7179.997637,-6365.771101,1225.752797
1280.991938,7328.038826,-6439.791695,1225.752797
1280.992268,7105.977043,-6291.750507,1072.533697
1280.992597,7105.977043,-6069.688724,995.924147
1280.992927,7031.956449,-6587.832884,1302.362347
1280.993256,7105.977043,-6513.812290,919.314598
1280.993586,6735.874072,-6809.894666,766.095498
1280.993915,6661.853478,-6661.853478,919.314598
1280.994245,7031.956449,-6883.915261,1915.238745
1280.994575,6291.750507,-6809.894666,1149.143247
1280.994904,6883.915261,-7105.977043,1149.143247
1280.995234,7105.977043,-6735.874072,1302.362347
1280.995563,6661.853478,-7031.956449,1149.143247
1280.995893,6217.729913,-6957.935855,1149.143247
1280.996222,6957.935855,-6809.894666,995.924147
1280.996552,7402.059420,-7105.977043,1072.533697
1280.996881,7328.038826,-6365.771101,1149.143247
1280.997211,7105.977043,-6365.771101,1838.629195
1280.997541,7031.956449,-6143.709319,1302.362347
1280.997870,6883.915261,-6291.750507,842.705048
1280.998200,7105.977043,-6587.832884,689.485948
1280.998529,7031.956449,-6809.894666,919.314598
1280.998859,7476.080014,-5699.585753,919.314598
1280.999188,7105.977043,-6365.771101,1072.533697
1280.999518,7254.018232,-5329.482782,1225.752797
1280.999847,7624.121203,-5255.462188,919.314598
1281.000177,8290.306550,-4959.379811,1149.143247
1281.000506,8364.327145,-5329.482782,1302.362347
1281.000836,7772.162391,-6143.709319,1378.971896
1281.001166,7031.956449,-6365.771101,459.657299
1281.001495,5995.668130,-7328.038826,383.047749
1281.001825,6217.729913,-7105.977043,689.485948
1281.002154,6661.853478,-7105.977043,689.485948
1281.002484,7402.059420,-6809.894666,1455.581446
1281.002813,7772.162391,-6513.812290,1302.362347
1281.003143,7994.224174,-5033.400406,1455.581446
1281.003472,8216.285956,-4515.256246,612.876398
1281.003802,8068.244768,-4885.359217,1072.533697
1281.004131,8364.327145,-4293.194464,1378.971896
1281.004461,8808.450710,-4367.215058,995.924147
1281.004791,9400.615463,-4367.215058,919.314598
1281.005120,8808.450710,-4515.256246,1378.971896
1281.005450,7994.224174,-5477.523971,689.485948
1281.005779,8290.306550,-4737.318029,919.314598
1281.006109,9178.553681,-5625.565159,919.314598
1281.006438,8512.368333,-6217.729913,1302.362347
1281.006768,8438.347739,-5329.482782,919.314598
1281.007097,7772.162391,-5551.544565,919.314598
1281.007427,7994.224174,-5107.421000,919.314598
1281.007757,7698.141797,-5625.565159,995.924147
1281.008086,8364.327145,-4737.318029,1302.362347
1281.008416,8512.368333,-4811.338623,1149.143247
1281.008745,8956.491898,-4145.153275,1455.581446
1281.009075,8956.491898,-3034.844362,1762.019645
1281.009404,9696.697840,-3034.844362,1685.410096
1281.009734,10214.842000,-2738.761985,1915.238745
1281.010063,9696.697840,-3404.947333,1455.581446
1281.010393,9400.615463,-3478.967927,1532.190996
1281.010722,9104.533087,-3256.906145,1072.533697
1281.011052,9326.594869,-5181.441594,1302.362347
1281.011382,9474.636058,-4737.318029,1072.533697
1281.011711,8808.450710,-5995.668130,1685.410096
1281.012041,8512.368333,-5773.606348,995.924147
1281.012370,7994.224174,-5403.503377,919.314598
1281.012700,7328.038826,-6365.771101,1149.143247
1281.013029,7624.121203,-6365.771101,1225.752797
1281.013359,7994.224174,-5625.565159,612.876398
1281.013688,7994.224174,-4737.318029,689.485948
1281.014018,7994.224174,-4811.338623,766.095498
1281.014347,8290.306550,-5551.544565,383.047749
1281.014677,9400.615463,-4219.173869,306.438199
1281.015007,9844.739029,-4145.153275,383.047749
1281.015336,10436.903782,-3849.070898,689.485948
1281.015666,10584.944971,-4737.318029,1378.971896
1281.015995,10066.800811,-4071.132681,1149.143247
1281.016325,9696.697840,-3701.029710,842.705048
1281.016654,9326.594869,-4071.132681,919.314598
1281.016984,8956.491898,-3775.050304,1225.752797
1281.017313,8956.491898,-5107.421000,1455.581446
1281.017643,9104.533087,-3923.091493,1225.752797
1281.017973,9104.533087,-4219.173869,1455.581446
1281.018302,9400.615463,-3701.029710,2068.457845
1281.018632,9918.759623,-3478.967927,2221.676944
1281.018961,9474.636058,-3330.926739,1685.410096
1281.019291,9696.697840,-2442.679609,1072.533697
1281.019620,9400.615463,-3330.926739,612.876398
1281.019950,9474.636058,-3775.050304,612.876398
1281.020279,9178.553681,-4811.338623,153.219100
1281.020609,9178.553681,-4663.297435,0.000000
1281.020938,8586.388927,-5181.441594,-383.047749
1281.021268,8586.388927,-6291.750507,0.000000
1281.021598,7920.203579,-6217.729913,229.828649
1281.021927,7846.182985,-6957.935855,612.876398
1281.022257,7772.162391,-6439.791695,842.705048
1281.022586,7920.203579,-5255.462188,1072.533697
1281.022916,8216.285956,-5773.606348,2451.505594
1281.023245,8734.430116,-4811.338623,2681.334243
1281.023575,9326.594869,-4885.359217,2681.334243
1281.023904,9178.553681,-3256.906145,2068.457845
1281.024234,8808.450710,-2368.659014,1302.362347
1281.024564,8956.491898,-2072.576638,1072.533697
1281.024893,9104.533087,-2368.659014,0.000000
1281.025223,8956.491898,-2738.761985,306.438199
1281.025552,10066.800811,-3108.864956,76.609550
1281.025882,10362.883188,-4219.173869,0.000000
1281.026211,9400.615463,-5921.647536,536.266849
1281.026541,8290.306550,-7772.162391,383.047749
1281.026870,7105.977043,-9252.574275,766.095498
1281.027200,6143.709319,-9918.759623,76.609550
1281.027529,5329.482782,-10658.965565,766.095498
1281.027859,4737.318029,-9548.656652,306.438199
1281.028189,4737.318029,-7920.203579,0.000000
1281.028518,4663.297435,-7402.059420,0.000000
1281.028848,5625.565159,-6217.729913,536.266849
1281.029177,7698.141797,-4811.338623,766.095498
1281.029507,8068.244768,-4737.318029,1149.143247
1281.029836,7994.224174,-3627.009116,842.705048
1281.030166,8068.244768,-3627.009116,612.876398
1281.030495,9474.636058,-3404.947333,1072.533697
1281.030825,10658.965565,-3478.967927,1225.752797
1281.031154,11547.212695,-4441.235652,2145.067394
1281.031484,10436.903782,-4441.235652,2298.286494
1281.031814,8882.471304,-4737.318029,919.314598
1281.032143,7846.182985,-5625.565159,612.876398
1281.032473,7105.977043,-6513.812290,1685.410096
1281.032802,6883.915261,-6661.853478,1762.019645
1281.033132,6735.874072,-6143.709319,2145.067394
1281.033461,6217.729913,-5847.626942,2298.286494
1281.033791,6587.832884,-6291.750507,1608.800546
1281.034120,6661.853478,-6439.791695,612.876398
1281.034450,6513.812290,-6143.709319,0.000000
1281.034780,6291.750507,-6439.791695,-536.266849
1281.035109,6883.915261,-6883.915261,153.219100
1281.035439,7550.100608,-7920.203579,459.657299
1281.035768,7550.100608,-7920.203579,1149.143247
1281.036098,7328.038826,-7179.997637,1149.143247
1281.036427,7254.018232,-7031.956449,766.095498
1281.036757,7402.059420,-6291.750507,1608.800546
1281.037086,7402.059420,-6365.771101,1302.362347
1281.037416,7254.018232,-6883.915261,1072.533697
1281.037745,6957.935855,-5625.565159,1302.362347
1281.038075,6513.812290,-5329.482782,1838.629195
1281.038405,6365.771101,-6587.832884,1455.581446
1281.038734,5995.668130,-7105.977043,1838.629195
1281.039064,5477.523971,-7698.141797,1685.410096
1281.039393,5033.400406,-7402.059420,306.438199
1281.039723,5329.482782,-5107.421000,766.095498
1281.040052,6069.688724,-6587.832884,689.485948
1281.040382,7846.182985,-6217.729913,919.314598
1281.040711,8364.327145,-5033.400406,1378.971896
1281.041041,8808.450710,-6809.894666,2528.115143
1281.041370,8290.306550,-3330.926739,1455.581446
1281.041700,7105.977043,-5329.482782,1302.362347
1281.042030,7105.977043,-6365.771101,1225.752797
1281.042359,7254.018232,-4959.379811,1225.752797
1281.042689,8364.327145,-6513.812290,995.924147
1281.043018,7772.162391,-5921.647536,1455.581446
1281.043348,8068.244768,-5625.565159,1455.581446
1281.043677,7920.203579,-7402.059420,1149.143247
1281.044007,6513.812290,-6809.894666,1915.238745
1281.044336,5625.565159,-8808.450710,766.095498
1281.044666,5551.544565,-8290.306550,689.485948
1281.044996,4589.276840,-8808.450710,612.876398
1281.045325,4367.215058,-9474.636058,-612.876398
1281.045655,4367.215058,-7920.203579,-229.828649
1281.045984,4589.276840,-9844.739029,76.609550
1281.046314,5699.585753,-8512.368333,1225.752797
1281.046643,6661.853478,-7179.997637,1532.190996
1281.046973,7328.038826,-4959.379811,2298.286494
1281.047302,8142.265362,-3478.967927,2145.067394
1281.047632,8586.388927,-3108.864956,1838.629195
1281.047961,9474.636058,-2368.659014,2068.457845
1281.048291,10066.800811,-2664.741391,1685.410096
1281.048621,10362.883188,-3256.906145,1455.581446
1281.048950,9178.553681,-5551.544565,1302.362347
1281.049279,7772.162391,-7550.100608,1455.581446
1281.049609,6143.709319,-8808.450710,689.485948
1281.049938,5477.523971,-7920.203579,229.828649
1281.050267,4959.379811,-8882.471304,612.876398
1281.050597,4737.318029,-9548.656652,1149.143247
1281.050926,4663.297435,-8956.491898,-306.438199
1281.051256,3849.070898,-8586.388927,-919.314598
1281.051585,4219.173869,-7476.080014,-1149.143247
1281.051914,5033.400406,-7920.203579,-76.609550
1281.052244,6957.935855,-6957.935855,1225.752797
1281.052573,8142.265362,-5181.441594,1762.019645
1281.052902,9252.574275,-4589.276840,2145.067394
1281.053232,9918.759623,-2812.782580,2374.896044
1281.053561,9474.636058,-3923.091493,2221.676944
1281.053890,9474.636058,-4071.132681,919.314598
1281.054220,8586.388927,-4663.297435,842.705048
1281.054549,7698.141797,-6809.894666,306.438199
1281.054879,7550.100608,-7772.162391,1455.581446
1281.055208,6661.853478,-8438.347739,1302.362347
1281.055537,6217.729913,-8586.388927,1072.533697
1281.055867,5403.503377,-8142.265362,919.314598
1281.056196,4367.215058,-8586.388927,0.000000
1281.056525,3849.070898,-8586.388927,-536.266849
1281.056855,4071.132681,-7698.141797,-383.047749
1281.057184,5033.400406,-7476.080014,-536.266849
1281.057514,7105.977043,-6587.832884,229.828649
1281.057843,7994.224174,-6143.709319,2681.334243
1281.058172,9030.512492,-5329.482782,2068.457845
1281.058502,9400.615463,-4737.318029,2451.505594
1281.058831,8734.430116,-3849.070898,2451.505594
1281.059160,8660.409521,-4737.318029,1762.019645
1281.059490,9474.636058,-3627.009116,1302.362347
1281.059819,9622.677246,-4219.173869,1455.581446
1281.060149,8586.388927,-5625.565159,1072.533697
1281.060478,7772.162391,-6735.874072,1991.848295
1281.060807,6365.771101,-7846.182985,1838.629195
1281.061137,4885.359217,-8438.347739,0.000000
1281.061466,3627.009116,-9474.636058,153.219100
1281.061795,3478.967927,-9030.512492,0.000000
1281.062125,4737.318029,-8290.306550,-306.438199
1281.062454,6143.709319,-6439.791695,306.438199
1281.062784,7105.977043,-5847.626942,306.438199
1281.063113,8438.347739,-5699.585753,1225.752797
1281.063442,8142.265362,-5995.668130,1685.410096
1281.063772,7476.080014,-5699.585753,1149.143247
1281.064101,7476.080014,-5625.565159,1532.190996
1281.064430,7994.224174,-4885.359217,842.705048
1281.064760,8438.347739,-5329.482782,1762.019645
1281.065089,8808.450710,-5255.462188,1762.019645
1281.065419,9030.512492,-5403.503377,1455.581446
1281.065748,8068.244768,-6587.832884,1608.800546
1281.066077,7031.956449,-6883.915261,1225.752797
1281.066407,5921.647536,-7846.182985,1225.752797
1281.066736,5255.462188,-8438.347739,1532.190996
1281.067065,4737.318029,-8216.285956,536.266849
1281.067395,4367.215058,-7550.100608,153.219100
1281.067724,4737.318029,-7328.038826,306.438199
1281.068053,5995.668130,-6883.915261,612.876398
1281.068383,6883.915261,-7105.977043,689.485948
1281.068712,6069.688724,-7031.956449,383.047749
1281.069042,6217.729913,-6735.874072,1072.533697
1281.069371,7179.997637,-6513.812290,1378.971896
1281.069700,8216.285956,-5255.462188,1838.629195
1281.070030,8956.491898,-4737.318029,1838.629195
1281.070359,9400.615463,-4663.297435,1838.629195
1281.070688,8808.450710,-4145.153275,1225.752797
1281.071018,8438.347739,-5403.503377,842.705048
1281.071347,7476.080014,-5847.626942,689.485948
1281.071677,7105.977043,-7105.977043,919.314598
1281.072006,6291.750507,-7994.224174,919.314598
1281.072335,5181.441594,-8290.306550,1225.752797
1281.072665,4737.318029,-8438.347739,689.485948
1281.072994,4885.359217,-8364.327145,0.000000
1281.073323,4515.256246,-8068.244768,-306.438199
1281.073653,5181.441594,-7105.977043,0.000000
1281.073982,6661.853478,-6735.874072,153.219100
1281.074312,7476.080014,-5995.668130,1532.190996
1281.074641,8512.368333,-5699.585753,1991.848295
1281.074970,8512.368333,-4885.359217,1991.848295
1281.075300,8808.450710,-3997.112087,1991.848295
1281.075629,8290.306550,-4811.338623,1225.752797
1281.075958,7920.203579,-4737.318029,1149.143247
1281.076288,8142.265362,-5181.441594,536.266849
1281.076617,8068.244768,-6069.688724,459.657299
1281.076947,7624.121203,-6735.874072,1225.752797
1281.077276,7402.059420,-7550.100608,1532.190996
1281.077605,7105.977043,-7254.018232,1532.190996
1281.077935,6143.709319,-8068.244768,1302.362347
1281.078264,4441.235652,-8586.388927,0.000000
1281.078593,3775.050304,-8364.327145,0.000000
1281.078923,5033.400406,-7624.121203,-995.924147
1281.079252,5773.606348,-7920.203579,0.000000
1281.079582,6439.791695,-7402.059420,919.314598
1281.079911,7402.059420,-7179.997637,995.924147
1281.080240,7920.203579,-6661.853478,1378.971896
1281.080570,7846.182985,-5847.626942,2528.115143
1281.080899,7846.182985,-4959.379811,2145.067394
1281.081228,8068.244768,-3701.029710,1685.410096
1281.081558,8586.388927,-3108.864956,1302.362347
1281.081887,8808.450710,-4145.153275,1685.410096
1281.082216,9030.512492,-4737.318029,1072.533697
1281.082546,8512.368333,-6439.791695,1532.190996
1281.082875,7328.038826,-7402.059420,1149.143247
1281.083205,5699.585753,-8660.409521,842.705048
1281.083534,4367.215058,-8586.388927,536.266849
1281.083863,4071.132681,-9474.636058,0.000000
1281.084193,4441.235652,-9030.512492,229.828649
1281.084522,4959.379811,-8364.327145,-229.828649
1281.084851,6217.729913,-7772.162391,0.000000
1281.085181,7254.018232,-6957.935855,689.485948
1281.085510,7105.977043,-6587.832884,1225.752797
1281.085840,7476.080014,-5551.544565,1991.848295
1281.086169,7698.141797,-4663.297435,1608.800546
1281.086498,8068.244768,-4367.215058,1838.629195
1281.086828,8142.265362,-3552.988522,1302.362347
1281.087157,8734.430116,-4367.215058,1915.238745
1281.087486,8956.491898,-4959.379811,1225.752797
1281.087816,8290.306550,-5033.400406,995.924147
1281.088145,7402.059420,-6217.729913,1685.410096
1281.088475,6883.915261,-8068.244768,1608.800546
1281.088804,5995.668130,-9104.533087,1838.629195
1281.089133,4959.379811,-9030.512492,1302.362347
1281.089463,4737.318029,-8808.450710,536.266849
1281.089792,4737.318029,-7920.203579,229.828649
1281.090121,5181.441594,-7846.182985,0.000000
1281.090451,5477.523971,-7698.141797,0.000000
1281.090780,5847.626942,-7254.018232,459.657299
1281.091110,6587.832884,-7031.956449,842.705048
1281.091439,7179.997637,-6217.729913,1762.019645
1281.091768,7994.224174,-5107.421000,1991.848295
1281.092098,8956.491898,-4737.318029,1762.019645
1281.092427,9474.636058,-3701.029710,1532.190996
1281.092756,9178.553681,-3552.988522,1072.533697
1281.093086,8882.471304,-4589.276840,995.924147
1281.093415,8956.491898,-5329.482782,766.095498
1281.093745,8216.285956,-6365.771101,1149.143247
1281.094074,7105.977043,-7476.080014,1532.190996
1281.094403,6365.771101,-8142.265362,1762.019645
1281.094733,5921.647536,-8512.368333,1302.362347
1281.095062,4737.318029,-8290.306550,306.438199
1281.095391,3849.070898,-8068.244768,-459.657299
1281.095721,4589.276840,-7402.059420,-383.047749
1281.096050,5403.503377,-7550.100608,-612.876398
1281.096379,6587.832884,-7328.038826,842.705048
1281.096709,7624.121203,-6809.894666,1149.143247
1281.097038,8438.347739,-5255.462188,1915.238745
1281.097368,8734.430116,-5477.523971,1225.752797
1281.097697,7698.141797,-5551.544565,1149.143247
1281.098026,7846.182985,-4885.359217,1072.533697
1281.098356,8364.327145,-5477.523971,612.876398
1281.098685,8290.306550,-4959.379811,1532.190996
1281.099014,8290.306550,-5921.647536,1532.190996
1281.099344,8068.244768,-6735.874072,1378.971896
1281.099673,7105.977043,-7254.018232,1455.581446
1281.100003,5995.668130,-7698.141797,1608.800546
1281.100332,5033.400406,-8438.347739,1072.533697
1281.100661,4515.256246,-7994.224174,76.609550
1281.100991,4367.215058,-7772.162391,-306.438199
1281.101320,4737.318029,-7624.121203,-229.828649
1281.101649,6217.729913,-7550.100608,536.266849
1281.101979,7550.100608,-7402.059420,919.314598
1281.102308,7624.121203,-6661.853478,1838.629195
1281.102638,7254.018232,-5847.626942,1762.019645
1281.102967,7328.038826,-5329.482782,1915.238745
1281.103296,7994.224174,-4219.173869,2374.896044
1281.103626,9104.533087,-3330.926739,1838.629195
1281.103955,9622.677246,-3182.885551,2068.457845
1281.104284,9326.594869,-3849.070898,1762.019645
1281.104614,8586.388927,-5255.462188,1072.533697
1281.104943,7105.977043,-7105.977043,995.924147
1281.105273,6143.709319,-8734.430116,1302.362347
1281.105602,5181.441594,-10214.842000,919.314598
1281.105931,4441.235652,-9474.636058,689.485948
1281.106261,3849.070898,-8512.368333,-612.876398
1281.106590,4367.215058,-8512.368333,-536.266849
1281.106919,5699.585753,-7328.038826,0.000000
1281.107249,6587.832884,-6957.935855,76.609550
1281.107578,6957.935855,-6957.935855,766.095498
1281.107908,6883.915261,-5847.626942,1608.800546
1281.108237,7550.100608,-5329.482782,1608.800546
1281.108566,8216.285956,-4959.379811,2528.115143
1281.108896,8808.450710,-4367.215058,2451.505594
1281.109225,9326.594869,-3404.947333,1838.629195
1281.109554,9474.636058,-3923.091493,1225.752797
1281.109884,8660.409521,-4885.359217,1302.362347
1281.110213,8512.368333,-6661.853478,1532.190996
1281.110542,7328.038826,-8068.244768,1685.410096
1281.110872,6809.894666,-8068.244768,1455.581446
1281.111201,4885.359217,-8364.327145,1225.752797
1281.111531,4663.297435,-8586.388927,919.314598
1281.111860,4515.256246,-8290.306550,229.828649
1281.112189,4589.276840,-7550.100608,-229.828649
1281.112519,4737.318029,-7624.121203,-612.876398
1281.112848,5403.503377,-8068.244768,-306.438199
1281.113177,5995.668130,-7772.162391,383.047749
1281.113507,6587.832884,-7328.038826,1225.752797
1281.113836,7846.182985,-6661.853478,2068.457845
1281.114166,8808.450710,-5033.400406,2298.286494
1281.114495,9548.656652,-4737.318029,1991.848295
1281.114824,9696.697840,-3849.070898,2221.676944
1281.115154,10066.800811,-3330.926739,1685.410096
1281.115483,9696.697840,-3330.926739,612.876398
1281.115812,8438.347739,-5107.421000,1378.971896
1281.116142,7105.977043,-6513.812290,1302.362347
1281.116471,5921.647536,-7772.162391,1149.143247
1281.116801,5255.462188,-7920.203579,0.000000
1281.117130,3923.091493,-8068.244768,536.266849
1281.117459,3775.050304,-8586.388927,153.219100
1281.117789,4663.297435,-8216.285956,0.000000
1281.118118,5181.441594,-7328.038826,-153.219100
1281.118447,6735.874072,-7328.038826,76.609550
1281.118777,7698.141797,-6587.832884,1378.971896
1281.119106,7994.224174,-6439.791695,1838.629195
1281.119436,7772.162391,-5477.523971,1838.629195
1281.119765,7254.018232,-5255.462188,1302.362347
1281.120094,7846.182985,-4885.359217,995.924147
1281.120424,8364.327145,-4959.379811,1072.533697
1281.120753,9030.512492,-4737.318029,1762.019645
1281.121082,9252.574275,-4811.338623,1302.362347
1281.121412,9326.594869,-5255.462188,1532.190996
1281.121741,7772.162391,-6291.750507,1532.190996
1281.122071,6587.832884,-7994.224174,1149.143247
1281.122400,5477.523971,-8364.327145,1149.143247
1281.122729,4663.297435,-9326.594869,-229.828649
1281.123059,4145.153275,-8512.368333,0.000000
1281.123388,4737.318029,-8290.306550,0.000000
1281.123717,5995.668130,-8586.388927,153.219100
1281.124047,6809.894666,-7698.141797,536.266849
1281.124376,6809.894666,-7105.977043,766.095498
1281.124705,6883.915261,-6439.791695,1302.362347
1281.125035,7698.141797,-6069.688724,1378.971896
1281.125364,8142.265362,-5329.482782,2145.067394
1281.125694,8438.347739,-4441.235652,1838.629195
1281.126023,8882.471304,-3330.926739,2145.067394
1281.126352,9474.636058,-3627.009116,1455.581446
1281.126682,9030.512492,-4737.318029,1302.362347
1281.127011,8068.244768,-6069.688724,1302.362347
1281.127340,6809.894666,-7698.141797,1915.238745
1281.127670,6143.709319,-8956.491898,995.924147
1281.127999,4737.318029,-8660.409521,766.095498
1281.128329,4589.276840,-9178.553681,76.609550
1281.128658,4515.256246,-8660.409521,153.219100
1281.128987,4663.297435,-7254.018232,-153.219100
1281.129317,5181.441594,-7994.224174,0.000000
1281.129646,6735.874072,-6513.812290,1149.143247
1281.129975,7846.182985,-5403.503377,1302.362347
1281.130305,7920.203579,-5033.400406,2298.286494
1281.130634,7846.182985,-4293.194464,2298.286494
1281.130964,7994.224174,-4663.297435,1915.238745
1281.131293,8438.347739,-4293.194464,1455.581446
1281.131622,7994.224174,-4145.153275,1302.362347
1281.131952,8512.368333,-5329.482782,995.924147
1281.132281,7994.224174,-5921.647536,1149.143247
1281.132610,7772.162391,-7624.121203,1532.190996
1281.132940,7105.977043,-8438.347739,1915.238745
1281.133269,6513.812290,-7846.182985,1378.971896
1281.133599,5329.482782,-8956.491898,689.485948
1281.133928,4589.276840,-9178.553681,536.266849
1281.134257,3849.070898,-8512.368333,-459.657299
1281.134587,4071.132681,-8216.285956,-842.705048
1281.134916,5033.400406,-8216.285956,-383.047749
1281.135245,5921.647536,-7254.018232,612.876398
1281.135575,6587.832884,-6883.915261,612.876398
1281.135904,6957.935855,-6291.750507,1685.410096
1281.136233,7772.162391,-5033.400406,1685.410096
1281.136563,8512.368333,-4811.338623,2451.505594
1281.136892,9474.636058,-3627.009116,2298.286494
1281.137222,10288.862594,-3256.906145,2145.067394
1281.137551,9992.780217,-4293.194464,1838.629195
1281.137880,9104.533087,-4885.359217,1072.533697
1281.138210,7994.224174,-6217.729913,1378.971896
1281.138539,7105.977043,-7402.059420,1302.362347
1281.138868,5625.565159,-8290.306550,766.095498
1281.139198,4441.235652,-8808.450710,612.876398
1281.139527,3775.050304,-8512.368333,0.000000
1281.139857,3701.029710,-8438.347739,0.000000
1281.140186,4515.256246,-7476.080014,-612.876398
1281.140515,5477.523971,-7698.141797,0.000000
1281.140845,6809.894666,-6957.935855,842.705048
1281.141174,7920.203579,-6661.853478,1762.019645
1281.141503,7846.182985,-5699.585753,1762.019645
1281.141833,8142.265362,-4737.318029,1455.581446
1281.142162,8882.471304,-4293.194464,1455.581446
1281.142492,9252.574275,-4219.173869,2451.505594
1281.142821,9030.512492,-4737.318029,1149.143247
1281.143150,8808.450710,-4515.256246,842.705048
1281.143480,8438.347739,-4737.318029,612.876398
1281.143809,8290.306550,-6809.894666,1225.752797
1281.144138,7402.059420,-6883.915261,2451.505594
1281.144468,6587.832884,-7846.182985,1532.190996
1281.144797,4885.359217,-8290.306550,612.876398
1281.145127,3775.050304,-8438.347739,0.000000
1281.145456,3923.091493,-8882.471304,0.000000
1281.145785,4959.379811,-8882.471304,-306.438199
1281.146115,5921.647536,-7846.182985,0.000000
1281.146444,5847.626942,-8068.244768,612.876398
1281.146773,6735.874072,-6883.915261,1762.019645
1281.147103,7402.059420,-5921.647536,2298.286494
1281.147432,8068.244768,-4737.318029,1838.629195
1281.147762,9104.533087,-3849.070898,2451.505594
1281.148091,9770.718434,-3256.906145,2298.286494
1281.148420,9918.759623,-2886.803174,1532.190996
1281.148750,9104.533087,-3256.906145,1838.629195
1281.149079,8364.327145,-5107.421000,919.314598
1281.149408,7476.080014,-6661.853478,536.266849
1281.149738,5995.668130,-8438.347739,842.705048
1281.150067,5551.544565,-8956.491898,1225.752797
1281.150396,4737.318029,-9770.718434,383.047749
1281.150726,3849.070898,-9178.553681,0.000000
1281.151058,3701.029710,-8956.491898,-689.485948
1281.151387,4663.297435,-8068.244768,-536.266849
1281.151716,5403.503377,-6957.935855,0.000000
1281.152045,7031.956449,-6735.874072,612.876398
1281.152374,8142.265362,-5921.647536,1532.190996
1281.152704,8586.388927,-5255.462188,2451.505594
1281.153033,9030.512492,-4737.318029,2681.334243
1281.153362,9474.636058,-3404.947333,2145.067394
1281.153691,9178.553681,-3627.009116,1685.410096
1281.154020,8956.491898,-4293.194464,1225.752797
1281.154349,8586.388927,-5107.421000,1378.971896
1281.154678,8734.430116,-6513.812290,919.314598
1281.155007,7476.080014,-7624.121203,1302.362347
1281.155336,6365.771101,-9252.574275,1838.629195
1281.155665,5033.400406,-9474.636058,919.314598
1281.155995,3849.070898,-9104.533087,536.266849
1281.156324,3849.070898,-8512.368333,-612.876398
1281.156653,3997.112087,-8290.306550,-919.314598
1281.156982,4811.338623,-7772.162391,0.000000
1281.157311,5625.565159,-8068.244768,459.657299
1281.157640,6809.894666,-6513.812290,689.485948
1281.157969,7550.100608,-5625.565159,1302.362347
1281.158298,7920.203579,-5403.503377,1378.971896
1281.158627,8734.430116,-4959.379811,1991.848295
1281.158956,9548.656652,-4219.173869,2068.457845
1281.159286,10066.800811,-3849.070898,2221.676944
1281.159615,9770.718434,-3404.947333,1455.581446
1281.159944,9474.636058,-3923.091493,1455.581446
1281.160273,8512.368333,-5329.482782,1149.143247
1281.160602,7476.080014,-7254.018232,1225.752797
1281.160931,6069.688724,-8660.409521,1378.971896
1281.161260,4441.235652,-8734.430116,383.047749
1281.161589,3552.988522,-8734.430116,229.828649
1281.161918,3404.947333,-8586.388927,-306.438199
1281.162247,3923.091493,-8808.450710,0.000000
1281.162577,5255.462188,-7772.162391,306.438199
1281.162906,6217.729913,-6883.915261,459.657299
1281.163235,7105.977043,-6513.812290,842.705048
1281.163564,7624.121203,-5255.462188,1378.971896
1281.163893,8438.347739,-5477.523971,1302.362347
1281.164222,8808.450710,-5033.400406,1915.238745
1281.164551,8882.471304,-4663.297435,1838.629195
1281.164880,9104.533087,-4959.379811,1378.971896
1281.165209,8364.327145,-5107.421000,1915.238745
1281.165538,7994.224174,-5847.626942,1225.752797
1281.165868,7402.059420,-6809.894666,995.924147
1281.166197,6883.915261,-7476.080014,1225.752797
1281.166526,5625.565159,-8216.285956,1072.533697
1281.166855,4959.379811,-8438.347739,1302.362347
1281.167184,4441.235652,-8808.450710,612.876398
1281.167513,4293.194464,-8438.347739,0.000000
1281.167842,4441.235652,-8216.285956,-229.828649
1281.168171,5181.441594,-7772.162391,536.266849
1281.168500,6661.853478,-6735.874072,919.314598
1281.168829,7179.997637,-6587.832884,1762.019645
1281.169158,7179.997637,-5107.421000,1302.362347
1281.169488,7698.141797,-4811.338623,2068.457845
1281.169817,8586.388927,-3997.112087,1838.629195
1281.170146,9474.636058,-3997.112087,2068.457845
1281.170475,9844.739029,-3775.050304,1915.238745
1281.170804,9030.512492,-4219.173869,1991.848295
1281.171133,7698.141797,-5477.523971,842.705048
1281.171462,7179.997637,-6513.812290,1149.143247
1281.171791,6143.709319,-7624.121203,995.924147
1281.172120,5551.544565,-8512.368333,842.705048
1281.172449,4441.235652,-8956.491898,842.705048
1281.172779,3997.112087,-8586.388927,689.485948
1281.173108,4515.256246,-8512.368333,0.000000
1281.173437,4811.338623,-7772.162391,-229.828649
1281.173766,6069.688724,-7105.977043,0.000000
1281.174095,6957.935855,-6809.894666,306.438199
1281.174424,7550.100608,-5773.606348,1378.971896
1281.174753,8290.306550,-5773.606348,1915.238745
1281.175082,8586.388927,-5329.482782,2298.286494
1281.175411,8512.368333,-4367.215058,1838.629195
1281.175740,8216.285956,-4811.338623,1225.752797
1281.176070,8364.327145,-4515.256246,1532.190996
1281.176399,8512.368333,-4885.359217,1072.533697
1281.176728,8290.306550,-5921.647536,995.924147
1281.177057,7846.182985,-6291.750507,1838.629195
1281.177386,7920.203579,-7624.121203,1762.019645
1281.177715,6143.709319,-7476.080014,1072.533697
1281.178044,4811.338623,-8068.244768,766.095498
1281.178373,4737.318029,-8586.388927,0.000000
1281.178702,4737.318029,-8142.265362,0.000000
1281.179031,5329.482782,-8438.347739,0.000000
1281.179361,6439.791695,-7698.141797,-229.828649
1281.179690,6883.915261,-7105.977043,229.828649
1281.180019,7328.038826,-6291.750507,766.095498
1281.180348,7772.162391,-6143.709319,1608.800546
1281.180677,8438.347739,-5329.482782,1455.581446
1281.181006,8586.388927,-5033.400406,1762.019645
1281.181335,9030.512492,-4219.173869,1532.190996
1281.181664,8808.450710,-3923.091493,1685.410096
1281.181993,9326.594869,-4367.215058,842.705048
1281.182322,8438.347739,-4589.276840,1149.143247
1281.182652,7402.059420,-5847.626942,1302.362347
1281.182981,7179.997637,-7698.141797,1838.629195
1281.183310,5477.523971,-8142.265362,1762.019645
1281.183639,4293.194464,-8216.285956,229.828649
1281.183968,3775.050304,-8290.306550,-306.438199
1281.184297,4293.194464,-8660.409521,0.000000
1281.184626,5551.544565,-8142.265362,76.609550
1281.184955,6661.853478,-7476.080014,306.438199
1281.185284,6513.812290,-6809.894666,842.705048
1281.185613,7624.121203,-6439.791695,1072.533697
1281.185943,7994.224174,-6217.729913,1302.362347
1281.186272,7550.100608,-4885.359217,1762.019645
1281.186601,8216.285956,-5107.421000,1302.362347
1281.186930,8512.368333,-4737.318029,1378.971896
1281.187259,8808.450710,-4737.318029,1225.752797
1281.187588,8882.471304,-5403.503377,1378.971896
1281.187917,8956.491898,-5773.606348,1838.629195
1281.188246,8142.265362,-7031.956449,1149.143247
1281.188575,7105.977043,-7920.203579,1532.190996
1281.188904,5625.565159,-8290.306550,1532.190996
1281.189234,5107.421000,-8364.327145,229.828649
1281.189563,4811.338623,-7772.162391,76.609550
1281.189892,4367.215058,-8216.285956,0.000000
1281.190221,4885.359217,-8364.327145,0.000000
1281.190550,5773.606348,-8068.244768,383.047749
1281.190879,6735.874072,-6957.935855,995.924147
1281.191208,6587.832884,-7402.059420,1455.581446
1281.191537,7179.997637,-5477.523971,1532.190996
1281.191866,8216.285956,-5033.400406,1685.410096
1281.192195,8512.368333,-5107.421000,2145.067394
1281.192525,9104.533087,-4145.153275,1685.410096
1281.192854,8586.388927,-4737.318029,1149.143247
1281.193183,8808.450710,-4589.276840,383.047749
1281.193512,8216.285956,-5477.523971,919.314598
1281.193841,7772.162391,-7254.018232,1762.019645
1281.194170,6883.915261,-8068.244768,1302.362347
1281.194499,5625.565159,-8438.347739,995.924147
1281.194828,4737.318029,-8512.368333,689.485948
1281.195157,4663.297435,-8290.306550,459.657299
1281.195486,4885.359217,-7698.141797,-383.047749
1281.195816,4959.379811,-7550.100608,0.000000
1281.196145,5995.668130,-6809.894666,995.924147
1281.196474,7476.080014,-5699.585753,919.314598
1281.196803,8068.244768,-5033.400406,2221.676944
1281.197132,7550.100608,-4219.173869,2451.505594
1281.197461,7846.182985,-4737.318029,1532.190996
1281.197790,8142.265362,-4293.194464,1455.581446
1281.198119,8438.347739,-4219.173869,1225.752797
1281.198448,9030.512492,-5181.441594,1685.410096
1281.198777,8660.409521,-5625.565159,1762.019645
1281.199107,7698.141797,-7105.977043,1149.143247
1281.199436,6661.853478,-8438.347739,1072.533697
1281.199765,5625.565159,-8142.265362,1378.971896
1281.200094,5033.400406,-9918.759623,995.924147
1281.200423,4219.173869,-9548.656652,536.266849
1281.200752,3923.091493,-8956.491898,0.000000
1281.201081,4515.256246,-8068.244768,-919.314598
1281.201410,5329.482782,-7254.018232,76.609550
1281.201739,5995.668130,-7402.059420,0.000000
1281.202068,7179.997637,-6291.750507,459.657299
1281.202398,7179.997637,-5625.565159,995.924147
1281.202727,7846.182985,-5329.482782,1378.971896
1281.203056,8956.491898,-4589.276840,1762.019645
1281.203385,9104.533087,-4441.235652,1915.238745
1281.203714,9474.636058,-4293.194464,1915.238745
1281.204043,9326.594869,-4071.132681,1608.800546
1281.204372,8956.491898,-4737.318029,1302.362347
1281.204701,8586.388927,-6365.771101,2221.676944
1281.205030,7476.080014,-7105.977043,1378.971896
1281.205359,6291.750507,-7402.059420,919.314598
1281.205688,5107.421000,-7994.224174,766.095498
1281.206018,4737.318029,-7476.080014,1302.362347
1281.206347,4959.379811,-7772.162391,306.438199
1281.206676,4959.379811,-7476.080014,0.000000
1281.207005,5255.462188,-6661.853478,-229.828649
1281.207334,6513.812290,-7105.977043,0.000000
1281.207663,7846.182985,-6587.832884,1991.848295
1281.207992,7994.224174,-5107.421000,1225.752797
1281.208321,8290.306550,-5181.441594,1762.019645
1281.208650,8438.347739,-4737.318029,1608.800546
1281.208979,8438.347739,-4811.338623,1455.581446
1281.209309,8512.368333,-5329.482782,1302.362347
1281.209638,8142.265362,-5033.400406,1225.752797
1281.209967,8290.306550,-5625.565159,919.314598
1281.210296,7624.121203,-6883.915261,1532.190996
1281.210625,7624.121203,-7698.141797,1762.019645
1281.210954,6735.874072,-7994.224174,1378.971896
1281.211283,5847.626942,-8734.430116,1378.971896
1281.211612,4293.194464,-8142.265362,306.438199
1281.211941,3701.029710,-8438.347739,0.000000
1281.212270,4885.359217,-8660.409521,-76.609550
1281.212600,5699.585753,-7772.162391,153.219100
1281.212929,5921.647536,-7846.182985,229.828649
1281.213258,6661.853478,-6957.935855,995.924147
1281.213587,7105.977043,-7031.956449,2145.067394
1281.213916,7772.162391,-6217.729913,1149.143247
1281.214245,7179.997637,-5107.421000,1608.800546
1281.214574,7624.121203,-5329.482782,919.314598
1281.214903,8438.347739,-4737.318029,995.924147
1281.215232,9400.615463,-4219.173869,1455.581446
1281.215561,9326.594869,-4663.297435,1225.752797
1281.215891,8956.491898,-5625.565159,1762.019645
1281.216220,7550.100608,-6809.894666,1532.190996
1281.216549,6513.812290,-7402.059420,1685.410096
1281.216878,5921.647536,-7698.141797,1072.533697
1281.217207,5773.606348,-7920.203579,306.438199
1281.217536,4959.379811,-7994.224174,76.609550
1281.217865,4811.338623,-7624.121203,0.000000
1281.218194,5699.585753,-7105.977043,76.609550
1281.218523,7105.977043,-7402.059420,919.314598
1281.218852,7772.162391,-6365.771101,1455.581446
1281.219182,6883.915261,-5625.565159,2374.896044
1281.219511,7550.100608,-4737.318029,1608.800546
1281.219840,7402.059420,-3923.091493,1838.629195
1281.220169,8216.285956,-4589.276840,1378.971896
1281.220498,8438.347739,-4515.256246,1455.581446
1281.220827,8660.409521,-5033.400406,1532.190996
1281.221156,8438.347739,-5625.565159,1149.143247
1281.221485,7105.977043,-6661.853478,1608.800546
1281.221814,6735.874072,-8216.285956,1532.190996
1281.222143,6365.771101,-9178.553681,1378.971896
1281.222473,5107.421000,-9326.594869,1149.143247
1281.222802,4811.338623,-9326.594869,536.266849
1281.223131,4737.318029,-8660.409521,0.000000
1281.223460,4811.338623,-8290.306550,-306.438199
1281.223789,4885.359217,-8364.327145,0.000000
1281.224118,5995.668130,-7550.100608,229.828649
1281.224447,6513.812290,-6217.729913,229.828649
1281.224776,6957.935855,-6217.729913,842.705048
1281.225105,7772.162391,-5847.626942,1838.629195
1281.225434,8660.409521,-4959.379811,1608.800546
1281.225764,9178.553681,-4737.318029,2374.896044
1281.226093,9104.533087,-4145.153275,1838.629195
1281.226422,9400.615463,-4071.132681,1532.190996
1281.226751,8882.471304,-4811.338623,1532.190996
1281.227080,7920.203579,-6365.771101,1838.629195
1281.227409,7105.977043,-7254.018232,1991.848295
1281.227738,6513.812290,-7994.224174,1762.019645
1281.228067,5773.606348,-7846.182985,1532.190996
1281.228396,4959.379811,-8586.388927,612.876398
1281.228725,4515.256246,-6809.894666,-536.266849
1281.229055,4145.153275,-7254.018232,-306.438199
1281.229384,5477.523971,-6957.935855,0.000000
1281.229713,6883.915261,-5847.626942,689.485948
1281.230042,7772.162391,-5921.647536,1225.752797
1281.230371,8216.285956,-5477.523971,1608.800546
1281.230700,7772.162391,-5255.462188,1302.362347
1281.231029,8068.244768,-5403.503377,1455.581446
1281.231358,8364.327145,-5329.482782,1915.238745
1281.231687,9400.615463,-4293.194464,1378.971896
1281.232016,8734.430116,-4737.318029,1225.752797
1281.232346,8512.368333,-5477.523971,1532.190996
1281.232675,8438.347739,-6809.894666,1915.238745
1281.233004,7550.100608,-7994.224174,2221.676944
1281.233333,6513.812290,-7105.977043,2298.286494
1281.233662,4885.359217,-7476.080014,536.266849
1281.233991,3997.112087,-8142.265362,0.000000
1281.234320,4145.153275,-8142.265362,0.000000
1281.234649,4811.338623,-8216.285956,0.000000
1281.234978,6365.771101,-7698.141797,229.828649
1281.235307,6661.853478,-6957.935855,229.828649
1281.235637,6661.853478,-7254.018232,612.876398
1281.235966,6365.771101,-7031.956449,919.314598
1281.236295,7031.956449,-7105.977043,1149.143247
1281.236624,7550.100608,-6069.688724,1762.019645
1281.236953,8808.450710,-4589.276840,1762.019645
1281.237282,9696.697840,-3701.029710,1915.238745
1281.237611,9474.636058,-4293.194464,1991.848295
1281.237940,9178.553681,-5403.503377,2068.457845
1281.238269,8068.244768,-6143.709319,1608.800546
1281.238598,7105.977043,-7105.977043,1685.410096
1281.238927,6217.729913,-7105.977043,1072.533697
1281.239257,5033.400406,-7772.162391,229.828649
1281.239586,4219.173869,-8512.368333,-153.219100
1281.239915,4441.235652,-8142.265362,0.000000
1281.240244,5551.544565,-7920.203579,0.000000
1281.240573,6513.812290,-7179.997637,383.047749
1281.240902,6735.874072,-6661.853478,1149.143247
1281.241231,7105.977043,-7105.977043,1455.581446
1281.241560,7476.080014,-6143.709319,1455.581446
1281.241889,7328.038826,-4885.359217,1762.019645
1281.242218,8364.327145,-4737.318029,1532.190996
1281.242548,8512.368333,-3849.070898,1838.629195
1281.242877,8734.430116,-4441.235652,1455.581446
1281.243206,7846.182985,-4811.338623,919.314598
1281.243535,8142.265362,-5847.626942,1378.971896
1281.243864,8142.265362,-7179.997637,1608.800546
1281.244193,7624.121203,-7698.141797,1838.629195
1281.244522,5995.668130,-8512.368333,1149.143247
1281.244851,4885.359217,-8734.430116,229.828649
1281.245180,4145.153275,-8882.471304,-76.609550
1281.245509,4515.256246,-8660.409521,-306.438199
1281.245839,5033.400406,-8512.368333,-153.219100
1281.246168,6069.688724,-7402.059420,229.828649
1281.246497,6661.853478,-6735.874072,612.876398
1281.246826,6735.874072,-6217.729913,919.314598
1281.247155,7328.038826,-5551.544565,1455.581446
1281.247484,8290.306550,-5477.523971,1378.971896
1281.247813,8438.347739,-4367.215058,1991.848295
1281.248142,8660.409521,-3775.050304,1455.581446
1281.248471,8808.450710,-3849.070898,1225.752797
1281.248800,9326.594869,-4441.235652,1378.971896
1281.249130,8512.368333,-5847.626942,1302.362347
1281.249459,7920.203579,-6661.853478,1378.971896
1281.249788,6809.894666,-7994.224174,1762.019645
1281.250117,5329.482782,-8660.409521,1225.752797
1281.250446,4145.153275,-8808.450710,306.438199
1281.250775,3849.070898,-8216.285956,-459.657299
1281.251104,4515.256246,-7846.182985,-612.876398
1281.251433,5255.462188,-7698.141797,383.047749
1281.251762,6513.812290,-6957.935855,229.828649
1281.252091,7105.977043,-6439.791695,383.047749
1281.252420,7698.141797,-5995.668130,1532.190996
1281.252749,7698.141797,-5551.544565,1608.800546
1281.253078,8290.306550,-6069.688724,1149.143247
1281.253407,8734.430116,-4737.318029,995.924147
1281.253736,8512.368333,-4515.256246,995.924147
1281.254065,8956.491898,-5329.482782,1225.752797
1281.254395,9326.594869,-5403.503377,1838.629195
1281.254724,8882.471304,-6587.832884,1532.190996
1281.255053,8290.306550,-6957.935855,1915.238745
1281.255382,6587.832884,-7179.997637,1378.971896
1281.255711,5625.565159,-8068.244768,995.924147
1281.256040,4071.132681,-8068.244768,1072.533697
1281.256369,3775.050304,-8216.285956,-306.438199
1281.256698,4145.153275,-7624.121203,-306.438199
1281.257027,4885.359217,-7920.203579,229.828649
1281.257356,6069.688724,-8290.306550,1225.752797
1281.257685,6661.853478,-7105.977043,842.705048
1281.258014,7105.977043,-6809.894666,1608.800546
1281.258343,7920.203579,-5995.668130,1608.800546
1281.258672,8438.347739,-5255.462188,2145.067394
1281.259001,8734.430116,-4441.235652,2451.505594
1281.259330,9178.553681,-3256.906145,1455.581446
1281.259659,9548.656652,-3552.988522,1378.971896
1281.259989,9178.553681,-4071.132681,1378.971896
1281.260318,8586.388927,-5255.462188,1378.971896
1281.260647,8068.244768,-6069.688724,1991.848295
1281.260976,6883.915261,-6957.935855,1302.362347
1281.261305,5255.462188,-8438.347739,995.924147
1281.261634,4145.153275,-8438.347739,689.485948
1281.261963,4663.297435,-8586.388927,76.609550
1281.262292,4589.276840,-7772.162391,-842.705048
1281.262621,4663.297435,-7846.182985,-306.438199
1281.262950,5551.544565,-8660.409521,612.876398
1281.263279,7328.038826,-7624.121203,1378.971896
1281.263608,7698.141797,-7105.977043,2528.115143
1281.263937,7920.203579,-6069.688724,1455.581446
1281.264266,7698.141797,-4737.318029,1762.019645
1281.264595,8216.285956,-4589.276840,1072.533697
1281.264924,8438.347739,-4219.173869,919.314598
1281.265253,8364.327145,-4293.194464,1455.581446
1281.265583,8734.430116,-5033.400406,1225.752797
1281.265912,8512.368333,-6439.791695,2145.067394
1281.266241,7772.162391,-7624.121203,1991.848295
1281.266570,6883.915261,-8068.244768,1838.629195
1281.266899,5181.441594,-8586.388927,995.924147
1281.267228,4441.235652,-8882.471304,229.828649
1281.267557,4515.256246,-8808.450710,-383.047749
1281.267886,4959.379811,-8142.265362,0.000000
1281.268215,5995.668130,-8142.265362,0.000000
1281.268544,6143.709319,-7846.182985,383.047749
1281.268873,7031.956449,-6735.874072,1378.971896
1281.269202,7698.141797,-6143.709319,1838.629195
1281.269531,8364.327145,-4219.173869,1838.629195
1281.269860,8438.347739,-4293.194464,1608.800546
1281.270189,8956.491898,-3997.112087,2068.457845
1281.270518,9400.615463,-3256.906145,1532.190996
1281.270847,9252.574275,-3256.906145,1378.971896
1281.271177,8290.306550,-4441.235652,1378.971896
1281.271506,7772.162391,-6365.771101,2068.457845
1281.271835,6513.812290,-7994.224174,1532.190996
1281.272164,5773.606348,-8808.450710,1072.533697
1281.272493,4441.235652,-8882.471304,612.876398
1281.272822,3552.988522,-9622.677246,383.047749
1281.273151,4145.153275,-9178.553681,-153.219100
1281.273480,4737.318029,-7994.224174,0.000000
1281.273809,5921.647536,-7698.141797,0.000000
1281.274138,7328.038826,-6587.832884,919.314598
1281.274467,7772.162391,-5847.626942,1378.971896
1281.274796,8364.327145,-5255.462188,1532.190996
1281.275125,7920.203579,-5033.400406,1532.190996
1281.275454,8734.430116,-4515.256246,1302.362347
1281.275783,9030.512492,-3923.091493,1532.190996
1281.276112,9030.512492,-4219.173869,1608.800546
1281.276441,9030.512492,-4663.297435,1532.190996
1281.276770,8290.306550,-5699.585753,1302.362347
1281.277100,7550.100608,-6809.894666,2145.067394
1281.277429,6957.935855,-7994.224174,1762.019645
1281.277758,5773.606348,-8808.450710,842.705048
1281.278087,4293.194464,-9104.533087,842.705048
1281.278416,3552.988522,-9548.656652,-153.219100
1281.278745,3552.988522,-8512.368333,536.266849
1281.279074,4811.338623,-8290.306550,0.000000
1281.279403,5773.606348,-8216.285956,229.828649
1281.279732,6217.729913,-6587.832884,459.657299
1281.280061,7105.977043,-7031.956449,995.924147
1281.280390,7328.038826,-6069.688724,1302.362347
1281.280719,8364.327145,-5107.421000,2068.457845
1281.281048,9474.636058,-4589.276840,1991.848295
1281.281377,9622.677246,-3478.967927,1685.410096
1281.281706,9326.594869,-3404.947333,1455.581446
1281.282035,8586.388927,-4219.173869,612.876398
1281.282364,8068.244768,-5033.400406,1072.533697
1281.282694,7846.182985,-6735.874072,1532.190996
1281.283023,7105.977043,-7624.121203,1302.362347
1281.283352,5847.626942,-7920.203579,1455.581446
1281.283681,4959.379811,-8364.327145,689.485948
1281.284010,4145.153275,-8660.409521,229.828649
1281.284339,4293.194464,-7698.141797,229.828649
1281.284668,4885.359217,-7179.997637,153.219100
1281.284997,6439.791695,-6587.832884,536.266849
1281.285326,7179.997637,-6365.771101,1225.752797
1281.285655,7698.141797,-6291.750507,1991.848295
1281.285984,8216.285956,-5181.441594,2068.457845
1281.286313,8290.306550,-3997.112087,1991.848295
1281.286642,8068.244768,-4293.194464,1225.752797
1281.286971,7994.224174,-4367.215058,1225.752797
1281.287300,8438.347739,-5699.585753,1455.581446
1281.287629,8512.368333,-5921.647536,1225.752797
1281.287958,8438.347739,-6291.750507,1532.190996
1281.288288,7846.182985,-7254.018232,1532.190996
1281.288617,7031.956449,-8512.368333,1532.190996
1281.288946,5181.441594,-9030.512492,995.924147
1281.289275,4293.194464,-8216.285956,153.219100
1281.289604,3997.112087,-8586.388927,0.000000
1281.289933,4737.318029,-7624.121203,-306.438199
1281.290262,5403.503377,-7550.100608,0.000000
1281.290591,6217.729913,-7328.038826,536.266849
1281.290920,7402.059420,-6809.894666,1149.143247
1281.291249,7476.080014,-6735.874072,919.314598
1281.291578,7476.080014,-5329.482782,1455.581446
1281.291907,8290.306550,-4885.359217,1225.752797
1281.292236,9252.574275,-5033.400406,1685.410096
1281.292565,9326.594869,-4663.297435,2221.676944
1281.292894,8808.450710,-4219.173869,1302.362347
1281.293223,8734.430116,-4145.153275,1455.581446
1281.293552,8438.347739,-5107.421000,1072.533697
1281.293882,7105.977043,-7920.203579,1225.752797
1281.294211,5995.668130,-7772.162391,1302.362347
1281.294540,5033.400406,-8142.265362,76.609550
1281.294869,3923.091493,-8586.388927,0.000000
1281.295198,3775.050304,-8660.409521,153.219100
1281.295527,4367.215058,-8290.306550,-459.657299
1281.295856,5625.565159,-8068.244768,-229.828649
1281.296185,5995.668130,-7328.038826,229.828649
1281.296514,7179.997637,-6883.915261,995.924147
1281.296843,8290.306550,-6513.812290,1838.629195
1281.297172,9104.533087,-4811.338623,2221.676944
1281.297501,8734.430116,-4663.297435,1762.019645
1281.297830,8660.409521,-3923.091493,1149.143247
1281.298159,9178.553681,-3478.967927,1608.800546
1281.298488,8586.388927,-4589.276840,1838.629195
1281.298817,8512.368333,-4737.318029,1838.629195
1281.299146,7994.224174,-5699.585753,1762.019645
1281.299476,7328.038826,-7476.080014,1685.410096
1281.299805,6513.812290,-7920.203579,1378.971896
1281.300134,5181.441594,-9030.512492,1225.752797
1281.300463,4737.318029,-7920.203579,536.266849
1281.300792,4219.173869,-8142.265362,-383.047749
1281.301121,4293.194464,-8660.409521,-76.609550
1281.301450,4959.379811,-8364.327145,-306.438199
1281.301779,5773.606348,-8586.388927,459.657299
1281.302108,6809.894666,-7476.080014,995.924147
1281.302437,7105.977043,-6513.812290,1762.019645
1281.302766,8216.285956,-5033.400406,1762.019645
1281.303095,9252.574275,-4515.256246,1991.848295
1281.303424,9770.718434,-3627.009116,2145.067394
1281.303753,9548.656652,-3552.988522,1532.190996
1281.304082,8882.471304,-3256.906145,1302.362347
1281.304411,9104.533087,-4219.173869,536.266849
1281.304740,7994.224174,-5921.647536,1072.533697
1281.305069,7105.977043,-7994.224174,1532.190996
1281.305399,5921.647536,-8882.471304,1532.190996
1281.305728,4811.338623,-9178.553681,689.485948
1281.306057,3775.050304,-8808.450710,0.000000
1281.306386,3182.885551,-8808.450710,-536.266849
1281.306715,4293.194464,-8586.388927,-383.047749
1281.307044,5329.482782,-7920.203579,76.609550
1281.307373,6661.853478,-7402.059420,766.095498
1281.307702,8290.306550,-6291.750507,919.314598
1281.308031,8586.388927,-5255.462188,1378.971896
1281.308360,8586.388927,-4959.379811,1838.629195
1281.308689,8290.306550,-4885.359217,1532.190996
1281.309018,8660.409521,-4515.256246,1225.752797
1281.309347,8734.430116,-4441.235652,766.095498
1281.309676,8068.244768,-4293.194464,919.314598
1281.310005,8068.244768,-6069.688724,1302.362347
1281.310334,8290.306550,-6513.812290,1608.800546
1281.310663,7254.018232,-8290.306550,1532.190996
1281.310993,6069.688724,-8290.306550,1072.533697
1281.311322,5181.441594,-8364.327145,842.705048
1281.311651,4293.194464,-8068.244768,0.000000
1281.311980,4219.173869,-7402.059420,229.828649
1281.312309,5255.462188,-7402.059420,153.219100
1281.312638,6661.853478,-7031.956449,536.266849
1281.312967,7402.059420,-6809.894666,919.314598
1281.313296,7402.059420,-5995.668130,919.314598
1281.313625,7328.038826,-5107.421000,1378.971896
1281.313954,7920.203579,-5107.421000,1915.238745
1281.314283,8068.244768,-4885.359217,2221.676944
1281.314612,8586.388927,-4515.256246,1762.019645
1281.314941,9326.594869,-3701.029710,1378.971896
1281.315270,8586.388927,-4219.173869,1149.143247
1281.315599,8512.368333,-5255.462188,1225.752797
1281.315928,7550.100608,-6809.894666,1378.971896
1281.316257,6291.750507,-8364.327145,1149.143247
1281.316587,5255.462188,-8808.450710,766.095498
1281.316916,4293.194464,-8586.388927,612.876398
1281.317245,4367.215058,-9326.594869,0.000000
1281.317574,4663.297435,-8438.347739,-229.828649
1281.317903,4885.359217,-7550.100608,766.095498
1281.318232,6513.812290,-7031.956449,-459.657299
1281.318561,7550.100608,-6513.812290,842.705048
1281.318890,8290.306550,-5625.565159,1378.971896
1281.319219,7994.224174,-4885.359217,1302.362347
1281.319548,8142.265362,-4441.235652,1149.143247
1281.319877,8438.347739,-4441.235652,1225.752797
1281.320206,8882.471304,-4663.297435,1532.190996
1281.320535,8734.430116,-4515.256246,1378.971896
1281.320864,8216.285956,-4811.338623,1149.143247
1281.321193,8438.347739,-6513.812290,1149.143247
1281.321522,7402.059420,-7402.059420,1838.629195
1281.321851,6957.935855,-7994.224174,1838.629195
1281.322181,5995.668130,-8142.265362,1455.581446
1281.322510,5033.400406,-7772.162391,919.314598
1281.322839,4737.318029,-8068.244768,459.657299
1281.323168,4737.318029,-8142.265362,229.828649
1281.323497,5107.421000,-7698.141797,459.657299
1281.323826,6069.688724,-7550.100608,0.000000
1281.324155,6661.853478,-5995.668130,0.000000
1281.324484,6883.915261,-6439.791695,612.876398
1281.324813,7772.162391,-6587.832884,1302.362347
1281.325142,8068.244768,-5847.626942,2298.286494
1281.325471,8068.244768,-5107.421000,1225.752797
1281.325800,8216.285956,-4737.318029,1608.800546
1281.326129,9104.533087,-4071.132681,1455.581446
1281.326458,8882.471304,-5181.441594,1455.581446
1281.326787,8142.265362,-5329.482782,1455.581446
1281.327116,7846.182985,-6365.771101,1455.581446
1281.327445,6809.894666,-7624.121203,919.314598
1281.327774,5403.503377,-8068.244768,1302.362347
1281.328104,4219.173869,-8956.491898,689.485948
1281.328433,3775.050304,-8660.409521,0.000000
1281.328762,3552.988522,-8734.430116,-536.266849
1281.329091,4663.297435,-8216.285956,229.828649
1281.329420,6365.771101,-6735.874072,383.047749
1281.329749,7328.038826,-6217.729913,1149.143247
1281.330078,7550.100608,-5551.544565,1608.800546
1281.330407,7772.162391,-5403.503377,1455.581446
1281.330736,8364.327145,-4441.235652,1762.019645
1281.331065,8808.450710,-4737.318029,1532.190996
1281.331394,8290.306550,-4367.215058,1225.752797
1281.331723,8290.306550,-4737.318029,1302.362347
1281.332052,8364.327145,-5847.626942,1302.362347
1281.332381,7994.224174,-6439.791695,1149.143247
1281.332710,7402.059420,-7254.018232,1302.362347
1281.333039,6957.935855,-7624.121203,1225.752797
1281.333368,5773.606348,-8068.244768,919.314598
1281.333698,5181.441594,-8216.285956,536.266849
1281.334027,4737.318029,-8142.265362,306.438199
1281.334356,4663.297435,-7846.182985,0.000000
1281.334685,5995.668130,-7254.018232,306.438199
1281.335014,6513.812290,-7328.038826,689.485948
1281.335343,6809.894666,-6735.874072,459.657299
1281.335672,7031.956449,-6735.874072,1225.752797
1281.336001,7402.059420,-6439.791695,1838.629195
1281.336330,7994.224174,-4885.359217,2068.457845
1281.336659,8660.409521,-4959.379811,1685.410096
1281.336988,9326.594869,-4367.215058,2068.457845
1281.337317,9030.512492,-4515.256246,1378.971896
1281.337646,8660.409521,-4885.359217,919.314598
1281.337975,7920.203579,-5477.523971,1302.362347
1281.338304,7031.956449,-6809.894666,842.705048
1281.338633,5847.626942,-7994.224174,919.314598
1281.338962,5107.421000,-8142.265362,842.705048
1281.339292,5255.462188,-9178.553681,459.657299
1281.339621,4959.379811,-9030.512492,612.876398
1281.339950,5107.421000,-7105.977043,0.000000
1281.340279,5255.462188,-7105.977043,-306.438199
1281.340608,6661.853478,-5995.668130,1685.410096
1281.340937,7550.100608,-6069.688724,995.924147
1281.341266,7994.224174,-5181.441594,2145.067394
1281.341595,8068.244768,-4219.173869,1685.410096
1281.341924,7994.224174,-4589.276840,1225.752797
1281.342253,8512.368333,-4145.153275,1378.971896
1281.342582,8290.306550,-4737.318029,1225.752797
1281.342911,8438.347739,-5773.606348,1455.581446
1281.343240,8068.244768,-5699.585753,1455.581446
1281.343569,7920.203579,-5995.668130,1225.752797
1281.343898,7550.100608,-7328.038826,1838.629195
1281.344227,6809.894666,-7846.182985,1915.238745
1281.344556,5847.626942,-8882.471304,1225.752797
1281.344886,4589.276840,-9030.512492,536.266849
1281.345215,4589.276840,-8438.347739,229.828649
1281.345544,4441.235652,-9178.553681,-383.047749
1281.345873,5181.441594,-8290.306550,0.000000
1281.346202,5995.668130,-7624.121203,229.828649
1281.346531,7179.997637,-7402.059420,919.314598
1281.346860,7698.141797,-6217.729913,1149.143247
1281.347189,7105.977043,-5625.565159,689.485948
1281.347518,7476.080014,-5329.482782,842.705048
1281.347847,8216.285956,-5033.400406,1149.143247
1281.348176,9474.636058,-4293.194464,2068.457845
1281.348505,9696.697840,-4441.235652,1685.410096
1281.348834,9252.574275,-4219.173869,1455.581446
1281.349163,8586.388927,-5921.647536,1838.629195
1281.349492,7624.121203,-7254.018232,2068.457845
1281.349821,6735.874072,-7698.141797,1991.848295
1281.350150,5033.400406,-7846.182985,689.485948
1281.350480,3849.070898,-7846.182985,306.438199
1281.350809,4293.194464,-7772.162391,0.000000
1281.351138,4737.318029,-8586.388927,0.000000
1281.351467,6143.709319,-7402.059420,766.095498
1281.351796,6957.935855,-6661.853478,766.095498
1281.352125,7105.977043,-6217.729913,612.876398
1281.352454,6661.853478,-5921.647536,919.314598
1281.352783,7402.059420,-6587.832884,1149.143247
1281.353112,7846.182985,-5033.400406,1072.533697
1281.353442,7402.059420,-4663.297435,1072.533697
1281.353771,8586.388927,-4515.256246,1302.362347
1281.354100,8734.430116,-5403.503377,1608.800546
1281.354429,8142.265362,-5477.523971,1838.629195
1281.354758,8290.306550,-6735.874072,1838.629195
1281.355087,8364.327145,-6661.853478,2374.896044
1281.355416,7624.121203,-6883.915261,1838.629195
1281.355746,6143.709319,-7476.080014,1149.143247
1281.356075,4589.276840,-7476.080014,536.266849
1281.356404,4663.297435,-8216.285956,-306.438199
1281.356733,5033.400406,-8216.285956,0.000000
1281.357062,5403.503377,-8364.327145,306.438199
1281.357391,6513.812290,-8068.244768,689.485948
1281.357720,6365.771101,-7550.100608,459.657299
1281.358050,5847.626942,-6883.915261,1072.533697
1281.358379,6291.750507,-6365.771101,1225.752797
1281.358708,7476.080014,-5033.400406,1532.190996
1281.359037,8512.368333,-4441.235652,1455.581446
1281.359366,8808.450710,-4071.132681,1455.581446
1281.359695,9030.512492,-4441.235652,1378.971896
1281.360024,9104.533087,-5033.400406,1455.581446
1281.360354,8808.450710,-5551.544565,2068.457845
1281.360683,7994.224174,-6143.709319,1915.238745
1281.361012,6883.915261,-7772.162391,1149.143247
1281.361341,5551.544565,-8808.450710,842.705048
1281.361670,4367.215058,-8808.450710,229.828649
1281.361999,4293.194464,-8956.491898,-766.095498
1281.362328,4737.318029,-7698.141797,-612.876398
1281.362657,5551.544565,-7402.059420,-306.438199
1281.362987,6069.688724,-7402.059420,612.876398
1281.363316,7031.956449,-6661.853478,1685.410096
1281.363645,7920.203579,-5699.585753,1608.800546
1281.363974,7846.182985,-4737.318029,1762.019645
1281.364303,7994.224174,-4219.173869,1532.190996
1281.364632,8438.347739,-4663.297435,1532.190996
1281.364961,9400.615463,-3775.050304,1915.238745
1281.365291,9252.574275,-4441.235652,1915.238745
1281.365620,9104.533087,-5403.503377,2068.457845
1281.365949,9030.512492,-6513.812290,2068.457845
1281.366278,7254.018232,-7698.141797,2374.896044
1281.366607,6069.688724,-9178.553681,1378.971896
1281.366936,4145.153275,-8142.265362,383.047749
1281.367265,3701.029710,-8586.388927,-229.828649
1281.367595,3775.050304,-8808.450710,-842.705048
1281.367924,4589.276840,-7402.059420,76.609550
1281.368253,5329.482782,-8290.306550,229.828649
1281.368582,6365.771101,-8290.306550,306.438199
1281.368911,6513.812290,-6513.812290,919.314598
1281.369240,6957.935855,-6513.812290,1072.533697
1281.369569,7846.182985,-5181.441594,1302.362347
1281.369899,9326.594869,-4071.132681,1915.238745
1281.370228,10214.842000,-4441.235652,1991.848295
1281.370557,10214.842000,-3182.885551,2451.505594
1281.370886,9770.718434,-4293.194464,919.314598
1281.371215,8512.368333,-5625.565159,1455.581446
1281.371544,7254.018232,-6291.750507,1378.971896
1281.371873,6661.853478,-8068.244768,1149.143247
1281.372203,5255.462188,-8660.409521,1302.362347
1281.372532,4589.276840,-8364.327145,383.047749
1281.372861,4145.153275,-8586.388927,-306.438199
1281.373190,4367.215058,-7772.162391,-306.438199
1281.373519,5033.400406,-8882.471304,0.000000
1281.373848,5699.585753,-7772.162391,689.485948
1281.374177,6513.812290,-6883.915261,1072.533697
1281.374507,7179.997637,-6661.853478,919.314598
1281.374836,8142.265362,-5625.565159,1302.362347
1281.375165,7994.224174,-6143.709319,1762.019645
1281.375494,8808.450710,-4293.194464,1455.581446
1281.375823,8956.491898,-4589.276840,1225.752797
1281.376152,8734.430116,-4589.276840,1378.971896
1281.376481,8290.306550,-5773.606348,842.705048
1281.376811,7624.121203,-6439.791695,1532.190996
1281.377140,7846.182985,-7105.977043,842.705048
1281.377469,6513.812290,-8364.327145,1762.019645
1281.377798,6069.688724,-7698.141797,1455.581446
1281.378127,5329.482782,-7846.182985,612.876398
1281.378456,4663.297435,-7402.059420,-612.876398
1281.378785,4441.235652,-7846.182985,-383.047749
1281.379115,5255.462188,-7772.162391,0.000000
1281.379444,6735.874072,-7179.997637,689.485948
1281.379773,7105.977043,-7031.956449,1225.752797
1281.380102,7624.121203,-6069.688724,1225.752797
1281.380431,7105.977043,-6217.729913,1455.581446
1281.380760,7920.203579,-5403.503377,1991.848295
1281.381089,8364.327145,-4737.318029,1762.019645
1281.381419,9252.574275,-3627.009116,1149.143247
1281.381748,9030.512492,-3849.070898,1225.752797
1281.382077,9104.533087,-4959.379811,1378.971896
1281.382406,8512.368333,-5477.523971,1915.238745
1281.382735,7624.121203,-7031.956449,1608.800546
1281.383064,6957.935855,-7846.182985,1838.629195
1281.383393,5329.482782,-8068.244768,919.314598
1281.383723,4589.276840,-8660.409521,76.609550
1281.384052,4071.132681,-8512.368333,306.438199
1281.384381,4663.297435,-8364.327145,-306.438199
1281.384710,5551.544565,-7920.203579,-383.047749
1281.385039,5995.668130,-7254.018232,229.828649
1281.385368,7031.956449,-7105.977043,1225.752797
1281.385697,7772.162391,-6587.832884,1608.800546
1281.386027,7698.141797,-5847.626942,1685.410096
1281.386356,7402.059420,-4811.338623,1225.752797
1281.386685,7476.080014,-4959.379811,1072.533697
1281.387014,8660.409521,-4737.318029,1532.190996
1281.387343,8290.306550,-4737.318029,1532.190996
1281.387672,8586.388927,-5329.482782,2145.067394
1281.388001,8586.388927,-6291.750507,2068.457845
1281.388331,7476.080014,-7254.018232,1455.581446
1281.388660,6217.729913,-8068.244768,1149.143247
1281.388989,5477.523971,-8216.285956,306.438199
1281.389318,4959.379811,-8586.388927,383.047749
1281.389647,4367.215058,-8364.327145,229.828649
1281.389976,4589.276840,-8808.450710,-306.438199
1281.390305,4885.359217,-8512.368333,-306.438199
1281.390635,6217.729913,-7920.203579,459.657299
1281.390964,6883.915261,-7254.018232,919.314598
1281.391293,7254.018232,-6661.853478,1225.752797
1281.391622,7550.100608,-5033.400406,1608.800546
1281.391951,7772.162391,-4293.194464,1685.410096
1281.392280,9104.533087,-3627.009116,1915.238745
1281.392609,9474.636058,-2812.782580,1991.848295
1281.392939,9696.697840,-2886.803174,1455.581446
1281.393268,9844.739029,-3849.070898,2068.457845
1281.393597,9178.553681,-5255.462188,1991.848295
1281.393926,7772.162391,-7179.997637,1762.019645
1281.394255,6291.750507,-8290.306550,1532.190996
1281.394584,4885.359217,-8882.471304,536.266849
1281.394913,3849.070898,-9622.677246,76.609550
1281.395243,3256.906145,-9178.553681,-459.657299
1281.395572,3775.050304,-8882.471304,-919.314598
1281.395901,4219.173869,-8364.327145,-536.266849
1281.396230,6143.709319,-7550.100608,229.828649
1281.396559,7105.977043,-7105.977043,1072.533697
1281.396888,8142.265362,-5773.606348,2145.067394
1281.397217,8068.244768,-4737.318029,1838.629195
1281.397546,8660.409521,-4441.235652,1302.362347
1281.397876,8882.471304,-3552.988522,1685.410096
1281.398205,9252.574275,-3404.947333,1762.019645
1281.398534,9178.553681,-4219.173869,1685.410096
1281.398863,9178.553681,-4959.379811,1302.362347
1281.399192,9030.512492,-6513.812290,1685.410096
1281.399521,7846.182985,-7254.018232,1915.238745
1281.399850,6513.812290,-8068.244768,1608.800546
1281.400180,5699.585753,-8586.388927,995.924147
1281.400509,4663.297435,-8290.306550,0.000000
1281.400838,3627.009116,-8290.306550,-612.876398
1281.401167,4293.194464,-8142.265362,-766.095498
1281.401496,4959.379811,-8586.388927,0.000000
1281.401825,5921.647536,-7624.121203,459.657299
1281.402154,7031.956449,-7105.977043,1149.143247
1281.402484,7846.182985,-6439.791695,1915.238745
1281.402813,8438.347739,-5921.647536,1915.238745
1281.403142,8068.244768,-4293.194464,2221.676944
1281.403471,8808.450710,-3552.988522,1685.410096
1281.403800,9622.677246,-3256.906145,766.095498
1281.404129,9992.780217,-3552.988522,1302.362347
1281.404458,9770.718434,-4663.297435,1991.848295
1281.404788,9030.512492,-6069.688724,1685.410096
1281.405117,7476.080014,-7254.018232,1608.800546
1281.405446,5403.503377,-8586.388927,689.485948
1281.405775,3997.112087,-9030.512492,383.047749
1281.406104,2886.803174,-9474.636058,-383.047749
1281.406433,2960.823768,-9104.533087,-995.924147
1281.406762,4145.153275,-8660.409521,-842.705048
1281.407092,5625.565159,-8216.285956,76.609550
1281.407421,7328.038826,-7698.141797,842.705048
1281.407750,8216.285956,-6291.750507,1762.019645
1281.408079,8142.265362,-5181.441594,1685.410096
1281.408408,8364.327145,-4737.318029,1838.629195
1281.408737,8586.388927,-3775.050304,2374.896044
1281.409066,8808.450710,-3849.070898,1532.190996
1281.409396,9178.553681,-3404.947333,1302.362347
1281.409725,9104.533087,-4367.215058,1149.143247
1281.410054,8586.388927,-4811.338623,1455.581446
1281.410383,7179.997637,-6513.812290,1608.800546
1281.410712,6439.791695,-8068.244768,1762.019645
1281.411041,5329.482782,-8734.430116,689.485948
1281.411370,4293.194464,-9252.574275,383.047749
1281.411700,3552.988522,-9252.574275,-306.438199
1281.412029,4219.173869,-9252.574275,-306.438199
1281.412358,4811.338623,-8290.306550,0.000000
1281.412687,5625.565159,-8142.265362,153.219100
1281.413016,6809.894666,-7920.203579,612.876398
1281.413345,8438.347739,-6883.915261,1991.848295
1281.413674,7994.224174,-5551.544565,1685.410096
1281.414004,7994.224174,-4589.276840,1915.238745
1281.414333,8586.388927,-3627.009116,2145.067394
1281.414662,9252.574275,-3108.864956,1455.581446
1281.414991,9326.594869,-3108.864956,1302.362347
1281.415320,9104.533087,-3108.864956,1685.410096
1281.415649,8882.471304,-5107.421000,1608.800546
1281.415978,7550.100608,-6957.935855,1762.019645
1281.416308,6365.771101,-7846.182985,1685.410096
1281.416637,4885.359217,-8882.471304,612.876398
1281.416966,3923.091493,-9104.533087,383.047749
1281.417295,3552.988522,-9622.677246,0.000000
1281.417624,3923.091493,-8808.450710,-536.266849
1281.417953,4737.318029,-7698.141797,0.000000
1281.418282,6439.791695,-7920.203579,153.219100
1281.418612,7624.121203,-6957.935855,1302.362347
1281.418941,7920.203579,-6217.729913,1762.019645
1281.419270,8290.306550,-5033.400406,1762.019645
1281.419599,8142.265362,-4589.276840,1532.190996
1281.419928,8290.306550,-4441.235652,842.705048
1281.420257,8734.430116,-4293.194464,1302.362347
1281.420586,9104.533087,-4293.194464,1685.410096
1281.420916,9252.574275,-4441.235652,995.924147
1281.421245,8660.409521,-5403.503377,1302.362347
1281.421574,7698.141797,-7254.018232,1608.800546
1281.421903,6883.915261,-8734.430116,1225.752797
1281.422232,5921.647536,-8882.471304,1455.581446
1281.422561,4441.235652,-8142.265362,76.609550
1281.422890,3849.070898,-8660.409521,-306.438199
1281.423220,3997.112087,-8216.285956,-306.438199
1281.423549,4811.338623,-7994.224174,-383.047749
1281.423878,5847.626942,-7105.977043,995.924147
1281.424207,6661.853478,-6661.853478,1532.190996
1281.424536,7624.121203,-6217.729913,1378.971896
1281.424865,8290.306550,-5699.585753,1838.629195
1281.425194,8660.409521,-5181.441594,2911.162892
1281.425524,9400.615463,-4145.153275,1838.629195
1281.425853,9326.594869,-3404.947333,995.924147
1281.426182,9104.533087,-3478.967927,1072.533697
1281.426511,8882.471304,-4515.256246,1072.533697
1281.426840,8882.471304,-6069.688724,1532.190996
1281.427169,7698.141797,-7179.997637,1532.190996
1281.427498,6069.688724,-8586.388927,1302.362347
1281.427828,4811.338623,-8438.347739,766.095498
1281.428157,3775.050304,-8438.347739,-306.438199
1281.428486,4145.153275,-8808.450710,153.219100
1281.428815,4441.235652,-7920.203579,0.000000
1281.429144,5921.647536,-7920.203579,536.266849
1281.429473,6809.894666,-6735.874072,766.095498
1281.429802,8142.265362,-5921.647536,1455.581446
1281.430132,8290.306550,-5921.647536,1838.629195
1281.430461,8290.306550,-5477.523971,1991.848295
1281.430790,7920.203579,-4959.379811,1838.629195
1281.431119,8290.306550,-4589.276840,1302.362347
1281.431448,8660.409521,-4071.132681,1838.629195
1281.431777,8290.306550,-4515.256246,1762.019645
1281.432106,8216.285956,-5625.565159,995.924147
1281.432436,7624.121203,-6217.729913,1302.362347
1281.432765,7105.977043,-7328.038826,383.047749
1281.433094,6069.688724,-7994.224174,1532.190996
1281.433423,5403.503377,-8586.388927,1225.752797
1281.433752,4515.256246,-8364.327145,306.438199
1281.434081,4145.153275,-8586.388927,0.000000
1281.434410,4737.318029,-7994.224174,-306.438199
1281.434739,5551.544565,-8438.347739,0.000000
1281.435069,6513.812290,-7772.162391,995.924147
1281.435398,7179.997637,-7328.038826,689.485948
1281.435727,7254.018232,-6883.915261,1455.581446
1281.436056,7698.141797,-6365.771101,2068.457845
1281.436385,8290.306550,-4885.359217,1685.410096
1281.436714,8956.491898,-3478.967927,1608.800546
1281.437043,9104.533087,-2886.803174,1608.800546
1281.437373,9252.574275,-3404.947333,1608.800546
1281.437702,9104.533087,-4293.194464,2221.676944
1281.438031,8438.347739,-5773.606348,2068.457845
1281.438360,6883.915261,-7105.977043,1455.581446
1281.438689,5329.482782,-8142.265362,842.705048
1281.439018,3923.091493,-8956.491898,459.657299
1281.439347,3775.050304,-9622.677246,229.828649
1281.439677,3701.029710,-8808.450710,-383.047749
1281.440006,4589.276840,-9104.533087,-229.828649
1281.440335,5625.565159,-8142.265362,612.876398
1281.440664,6735.874072,-7031.956449,1072.533697
1281.440993,7550.100608,-6883.915261,1149.143247
1281.441322,8512.368333,-6217.729913,2145.067394
1281.441651,8438.347739,-5107.421000,2145.067394
1281.441981,8586.388927,-4145.153275,1302.362347
1281.442310,8290.306550,-3256.906145,1455.581446
1281.442639,8882.471304,-3552.988522,1225.752797
1281.442968,9178.553681,-4515.256246,1762.019645
1281.443297,8586.388927,-5255.462188,1455.581446
1281.443626,8068.244768,-6365.771101,1608.800546
1281.443955,6883.915261,-7550.100608,1225.752797
1281.444285,5773.606348,-8734.430116,766.095498
1281.444614,4515.256246,-9030.512492,612.876398
1281.444943,4441.235652,-9770.718434,1915.238745
1281.445272,3923.091493,-9252.574275,0.000000
1281.445601,3997.112087,-8586.388927,-689.485948
1281.445930,4811.338623,-8734.430116,0.000000
1281.446259,5477.523971,-7920.203579,536.266849
1281.446589,7328.038826,-7031.956449,1915.238745
1281.446918,7920.203579,-5477.523971,1532.190996
1281.447247,8364.327145,-4219.173869,1225.752797
1281.447576,8956.491898,-3552.988522,1455.581446
1281.447905,9104.533087,-2812.782580,2068.457845
1281.448234,9992.780217,-3330.926739,1608.800546
1281.448563,9844.739029,-3849.070898,1608.800546
1281.448893,9400.615463,-5181.441594,1378.971896
1281.449222,8068.244768,-6587.832884,1608.800546
1281.449551,7031.956449,-8142.265362,1608.800546
1281.449880,6217.729913,-8882.471304,536.266849
1281.450209,4737.318029,-9326.594869,383.047749
1281.450538,4145.153275,-9178.553681,459.657299
1281.450867,4885.359217,-7994.224174,-229.828649
1281.451196,5181.441594,-7105.977043,-153.219100
1281.451526,5921.647536,-6809.894666,306.438199
1281.451855,6957.935855,-6143.709319,995.924147
1281.452184,7772.162391,-5625.565159,1532.190996
1281.452513,8512.368333,-4885.359217,2451.505594
1281.452842,8290.306550,-5033.400406,1532.190996
1281.453171,8512.368333,-4515.256246,1608.800546
1281.453500,8586.388927,-4441.235652,995.924147
1281.453829,8438.347739,-5329.482782,842.705048
1281.454158,8586.388927,-5255.462188,1532.190996
1281.454487,7994.224174,-6661.853478,995.924147
1281.454817,7328.038826,-7994.224174,919.314598
1281.455146,6513.812290,-8290.306550,1149.143247
1281.455475,6143.709319,-9030.512492,612.876398
1281.455804,5403.503377,-8364.327145,612.876398
1281.456133,4367.215058,-8216.285956,306.438199
1281.456462,4367.215058,-7698.141797,0.000000
1281.456791,5181.441594,-6809.894666,-76.609550
1281.457120,6365.771101,-6439.791695,153.219100
1281.457449,7031.956449,-6439.791695,766.095498
1281.457778,7994.224174,-6365.771101,1225.752797
1281.458108,8512.368333,-5995.668130,1532.190996
1281.458437,8512.368333,-5181.441594,1991.848295
1281.458766,8956.491898,-4515.256246,1915.238745
1281.459095,8512.368333,-3775.050304,1378.971896
1281.459424,8512.368333,-4071.132681,1378.971896
1281.459753,8364.327145,-4515.256246,1532.190996
1281.460082,8512.368333,-5181.441594,1915.238745
1281.460411,7772.162391,-7254.018232,1991.848295
1281.460740,6217.729913,-8142.265362,1608.800546
1281.461069,4737.318029,-8438.347739,612.876398
1281.461399,3997.112087,-8068.244768,229.828649
1281.461728,3997.112087,-8142.265362,76.609550
1281.462057,4219.173869,-8586.388927,0.000000
1281.462386,5551.544565,-7698.141797,306.438199
1281.462715,6883.915261,-7179.997637,306.438199
1281.463044,7550.100608,-6735.874072,995.924147
1281.463373,8142.265362,-6365.771101,1302.362347
1281.463702,8290.306550,-6217.729913,1302.362347
1281.464031,7772.162391,-5699.585753,1302.362347
1281.464360,7476.080014,-5033.400406,995.924147
1281.464690,7772.162391,-4219.173869,536.266849
1281.465019,7476.080014,-5033.400406,919.314598
1281.465348,7772.162391,-6143.709319,1149.143247
1281.465677,7698.141797,-6587.832884,995.924147
1281.466006,7328.038826,-6883.915261,1685.410096
1281.466335,6661.853478,-7254.018232,1915.238745
1281.466664,6069.688724,-8216.285956,1762.019645
1281.466993,5477.523971,-8068.244768,1225.752797
1281.467322,5033.400406,-8142.265362,689.485948
1281.467651,5181.441594,-7179.997637,306.438199
1281.467980,6069.688724,-6439.791695,229.828649
1281.468310,6883.915261,-7179.997637,0.000000
1281.468639,6883.915261,-6661.853478,612.876398
1281.468968,7105.977043,-6587.832884,1149.143247
1281.469297,7994.224174,-6143.709319,1455.581446
1281.469626,7772.162391,-5033.400406,1762.019645
1281.469955,8142.265362,-4663.297435,1378.971896
1281.470284,8956.491898,-4293.194464,1149.143247
1281.470613,8956.491898,-4367.215058,1378.971896
1281.470942,8216.285956,-5181.441594,919.314598
1281.471271,8216.285956,-6143.709319,1685.410096
1281.471601,7920.203579,-6957.935855,1378.971896
1281.471930,7031.956449,-7846.182985,1532.190996
1281.472259,5847.626942,-8068.244768,1532.190996
1281.472588,5403.503377,-8438.347739,536.266849
1281.472917,4885.359217,-8660.409521,229.828649
1281.473246,4959.379811,-7624.121203,-306.438199
1281.473575,5403.503377,-6883.915261,-306.438199
1281.473904,6661.853478,-6883.915261,383.047749
1281.474233,7179.997637,-6957.935855,1072.533697
1281.474562,7550.100608,-6069.688724,1532.190996
1281.474892,7846.182985,-5255.462188,1455.581446
1281.475221,7772.162391,-5033.400406,1532.190996
1281.475550,7698.141797,-5625.565159,1225.752797
1281.475879,7698.141797,-5403.503377,1455.581446
1281.476208,7624.121203,-5033.400406,842.705048
1281.476537,7994.224174,-6513.812290,842.705048
1281.476866,8142.265362,-6439.791695,1149.143247
1281.477195,8290.306550,-7476.080014,2145.067394
1281.477524,7698.141797,-7920.203579,2068.457845
1281.477853,5995.668130,-7920.203579,1302.362347
1281.478183,5107.421000,-7624.121203,229.828649
1281.478512,4589.276840,-7846.182985,383.047749
1281.478841,4959.379811,-7550.100608,-306.438199
1281.479170,5551.544565,-7105.977043,306.438199
1281.479499,6291.750507,-7179.997637,383.047749
1281.479828,6809.894666,-6661.853478,1378.971896
1281.480157,7254.018232,-6069.688724,1455.581446
1281.480486,7624.121203,-5625.565159,1762.019645
1281.480815,8142.265362,-4293.194464,1532.190996
1281.481144,8438.347739,-4071.132681,1608.800546
1281.481474,9104.533087,-3627.009116,1532.190996
1281.481803,9030.512492,-4145.153275,1225.752797
1281.482132,9030.512492,-5107.421000,1608.800546
1281.482461,8512.368333,-5625.565159,1762.019645
1281.482790,7624.121203,-7254.018232,1532.190996
1281.483119,5995.668130,-8068.244768,1455.581446
1281.483448,4885.359217,-8438.347739,459.657299
1281.483777,4293.194464,-8660.409521,0.000000
1281.484106,3849.070898,-8364.327145,-306.438199
1281.484435,4737.318029,-8364.327145,-153.219100
1281.484765,5921.647536,-7550.100608,76.609550
1281.485094,6957.935855,-7031.956449,689.485948
1281.485423,7550.100608,-6661.853478,995.924147
1281.485752,8142.265362,-5699.585753,1149.143247
1281.486081,8142.265362,-5625.565159,1532.190996
1281.486410,7994.224174,-4219.173869,1225.752797
1281.486739,8364.327145,-4071.132681,1532.190996
1281.487068,8808.450710,-4367.215058,1532.190996
1281.487397,9178.553681,-4811.338623,1762.019645
1281.487726,8734.430116,-5699.585753,1072.533697
1281.488056,7994.224174,-6735.874072,1685.410096
1281.488385,7328.038826,-7846.182985,1455.581446
1281.488714,6439.791695,-8364.327145,1608.800546
1281.489043,5551.544565,-8216.285956,1302.362347
1281.489372,4811.338623,-8734.430116,459.657299
1281.489701,4589.276840,-8438.347739,306.438199
1281.490030,4441.235652,-8290.306550,0.000000
1281.490359,4737.318029,-8142.265362,-153.219100
1281.490688,5181.441594,-7254.018232,-306.438199
1281.491017,6069.688724,-7105.977043,0.000000
1281.491347,6809.894666,-6809.894666,1225.752797
1281.491676,7624.121203,-5551.544565,1762.019645
1281.492005,8882.471304,-4737.318029,2451.505594
1281.492334,9400.615463,-4293.194464,2145.067394
1281.492663,9474.636058,-3478.967927,1608.800546
1281.492992,8882.471304,-4441.235652,1915.238745
1281.493321,9474.636058,-5033.400406,1762.019645
1281.493650,8808.450710,-5773.606348,1378.971896
1281.493979,7550.100608,-6587.832884,1838.629195
1281.494308,6439.791695,-7772.162391,1991.848295
1281.494638,5403.503377,-8364.327145,1225.752797
1281.494967,4663.297435,-7920.203579,536.266849
1281.495296,3701.029710,-7698.141797,0.000000
1281.495625,4071.132681,-7550.100608,-536.266849
1281.495954,5329.482782,-7328.038826,76.609550
1281.496283,6809.894666,-7402.059420,995.924147
1281.496612,7772.162391,-7105.977043,766.095498
1281.496941,7920.203579,-5773.606348,1838.629195
1281.497270,8142.265362,-5477.523971,1685.410096
1281.497599,7920.203579,-5403.503377,1455.581446
1281.497928,7920.203579,-4663.297435,1149.143247
1281.498258,8142.265362,-5699.585753,1072.533697
1281.498587,8364.327145,-5329.482782,1225.752797
1281.498916,7698.141797,-6439.791695,1302.362347
1281.499245,8142.265362,-7254.018232,1608.800546
1281.499574,7698.141797,-7179.997637,1455.581446
1281.499903,6291.750507,-7698.141797,919.314598
1281.500232,5033.400406,-7920.203579,842.705048
1281.500561,4663.297435,-8290.306550,306.438199
1281.500890,4737.318029,-7402.059420,-153.219100
1281.501219,4811.338623,-7328.038826,-1225.752797
1281.501549,5403.503377,-8068.244768,306.438199
1281.501878,6809.894666,-7476.080014,766.095498
1281.502207,7105.977043,-7402.059420,1532.190996
1281.502536,7550.100608,-6143.709319,2374.896044
1281.502865,8068.244768,-4885.359217,1685.410096
1281.503194,7994.224174,-4663.297435,1608.800546
1281.503523,8290.306550,-3997.112087,1532.190996
1281.503852,8882.471304,-4737.318029,1685.410096
1281.504181,8956.491898,-3775.050304,1685.410096
1281.504510,8882.471304,-4737.318029,1378.971896
1281.504840,8216.285956,-6069.688724,1838.629195
1281.505169,7105.977043,-7031.956449,1455.581446
1281.505498,5847.626942,-8808.450710,383.047749
1281.505827,4441.235652,-8734.430116,536.266849
1281.506156,4367.215058,-8290.306550,0.000000
1281.506485,4737.318029,-8216.285956,-459.657299
1281.506814,5255.462188,-8216.285956,76.609550
1281.507143,6513.812290,-7846.182985,229.828649
1281.507472,7254.018232,-7254.018232,766.095498
1281.507801,7846.182985,-6661.853478,1455.581446
1281.508131,7920.203579,-5847.626942,1149.143247
1281.508460,7624.121203,-4737.318029,1608.800546
1281.508789,7179.997637,-4293.194464,995.924147
1281.509118,8216.285956,-5107.421000,1685.410096
1281.509447,8956.491898,-4219.173869,1608.800546
1281.509776,8956.491898,-4737.318029,1149.143247
1281.510105,9178.553681,-5403.503377,1685.410096
1281.510434,8142.265362,-6957.935855,1915.238745
1281.510763,7179.997637,-7994.224174,1838.629195
1281.511092,5847.626942,-8290.306550,919.314598
1281.511422,4959.379811,-8586.388927,1149.143247
1281.511751,5625.565159,-8216.285956,76.609550
1281.512080,4737.318029,-8956.491898,0.000000
1281.512409,5033.400406,-8438.347739,76.609550
1281.512738,5181.441594,-8364.327145,-229.828649
1281.513067,6217.729913,-7179.997637,0.000000
1281.513396,7105.977043,-6439.791695,689.485948
1281.513725,7402.059420,-6291.750507,1532.190996
1281.514054,8068.244768,-5033.400406,1608.800546
1281.514383,8512.368333,-4589.276840,1532.190996
1281.514713,9696.697840,-4219.173869,1378.971896
1281.515042,10288.862594,-3330.926739,1915.238745
1281.515371,10214.842000,-3923.091493,1838.629195
1281.515700,9326.594869,-4811.338623,1915.238745
1281.516029,8142.265362,-5995.668130,2451.505594
1281.516358,6957.935855,-7254.018232,1762.019645
1281.516687,5995.668130,-7994.224174,1072.533697
1281.517016,4737.318029,-8216.285956,536.266849
1281.517345,3849.070898,-8438.347739,0.000000
1281.517674,3997.112087,-8512.368333,-229.828649
1281.518004,4737.318029,-8216.285956,383.047749
1281.518333,5847.626942,-7105.977043,536.266849
1281.518662,7105.977043,-7031.956449,1455.581446
1281.518991,7402.059420,-6809.894666,2068.457845
1281.519320,7402.059420,-5477.523971,1072.533697
1281.519649,7328.038826,-4737.318029,1378.971896
1281.519978,8216.285956,-4737.318029,1225.752797
1281.520307,9104.533087,-4219.173869,1072.533697
1281.520636,9030.512492,-4145.153275,2068.457845
1281.520965,9104.533087,-5329.482782,1532.190996
1281.521295,9030.512492,-6439.791695,1838.629195
1281.521624,7846.182985,-7254.018232,1762.019645
1281.521953,6143.709319,-8142.265362,1378.971896
1281.522282,5699.585753,-8216.285956,995.924147
1281.522611,5033.400406,-8660.409521,612.876398
1281.522940,4219.173869,-8882.471304,0.000000
1281.523269,4145.153275,-8364.327145,0.000000
1281.523598,4663.297435,-7698.141797,-459.657299
1281.523927,5773.606348,-7846.182985,0.000000
1281.524256,6069.688724,-7624.121203,766.095498
1281.524586,6513.812290,-7179.997637,995.924147
1281.524915,7624.121203,-6217.729913,1608.800546
1281.525244,8438.347739,-4811.338623,2298.286494
1281.525573,8808.450710,-3701.029710,1991.848295
1281.525902,9474.636058,-3182.885551,1915.238745
1281.526231,9622.677246,-3552.988522,1762.019645
1281.526560,8956.491898,-4811.338623,2145.067394
1281.526889,8364.327145,-5403.503377,2145.067394
1281.527218,7254.018232,-7254.018232,1762.019645
1281.527547,6439.791695,-7994.224174,766.095498
1281.527877,4959.379811,-7846.182985,1072.533697
1281.528206,4293.194464,-8882.471304,153.219100
1281.528535,3849.070898,-8882.471304,-306.438199
1281.528864,4145.153275,-7624.121203,-536.266849
1281.529193,5255.462188,-7920.203579,-766.095498
1281.529522,6439.791695,-7402.059420,612.876398
1281.529851,7920.203579,-7031.956449,1455.581446
1281.530180,7994.224174,-6513.812290,1608.800546
1281.530509,8068.244768,-4885.359217,2068.457845
1281.530838,8512.368333,-4367.215058,1532.190996
1281.531167,8734.430116,-3552.988522,1072.533697
1281.531497,8956.491898,-3775.050304,612.876398
1281.531826,9178.553681,-4811.338623,1302.362347
1281.532155,9178.553681,-4959.379811,1762.019645
1281.532484,8438.347739,-6365.771101,2221.676944
1281.532813,7254.018232,-6957.935855,1225.752797
1281.533142,5921.647536,-8290.306550,1302.362347
1281.533471,4959.379811,-9104.533087,689.485948
1281.533800,4293.194464,-9104.533087,-229.828649
1281.534129,3775.050304,-9104.533087,0.000000
1281.534458,4367.215058,-8364.327145,-1149.143247
1281.534788,5329.482782,-8364.327145,-536.266849
1281.535117,5847.626942,-7550.100608,0.000000
1281.535446,6439.791695,-7179.997637,459.657299
1281.535775,7846.182985,-6143.709319,1302.362347
1281.536104,7994.224174,-5477.523971,1685.410096
1281.536433,8660.409521,-4737.318029,1762.019645
1281.536762,9548.656652,-3627.009116,1762.019645
1281.537091,9696.697840,-2664.741391,1302.362347
1281.537420,9178.553681,-3552.988522,2145.067394
1281.537749,9252.574275,-4737.318029,2298.286494
1281.538079,8660.409521,-6291.750507,1685.410096
1281.538408,7179.997637,-6809.894666,1685.410096
1281.538737,5625.565159,-8216.285956,1685.410096
1281.539066,4589.276840,-9326.594869,0.000000
1281.539395,3627.009116,-8660.409521,-229.828649
1281.539724,4145.153275,-8734.430116,0.000000
1281.540053,4737.318029,-7550.100608,-306.438199
1281.540382,5699.585753,-7328.038826,0.000000
1281.540711,6661.853478,-7698.141797,919.314598
1281.541040,7624.121203,-6883.915261,1455.581446
1281.541370,8512.368333,-6069.688724,2145.067394
1281.541699,8068.244768,-5551.544565,2145.067394
1281.542028,8808.450710,-4145.153275,1149.143247
1281.542357,8882.471304,-3775.050304,1608.800546
1281.542686,9104.533087,-3627.009116,1378.971896
1281.543015,9178.553681,-4293.194464,1378.971896
1281.543344,8364.327145,-4811.338623,1685.410096
1281.543673,7328.038826,-6809.894666,689.485948
1281.544002,6291.750507,-8438.347739,1149.143247
1281.544331,5403.503377,-8438.347739,536.266849
1281.544661,4589.276840,-9252.574275,766.095498
1281.544990,4071.132681,-9104.533087,-306.438199
1281.545319,4441.235652,-8956.491898,229.828649
1281.545648,4959.379811,-8068.244768,0.000000
1281.545977,5625.565159,-7402.059420,-229.828649
1281.546306,5995.668130,-6809.894666,76.609550
1281.546635,6809.894666,-7624.121203,919.314598
1281.546964,7994.224174,-5773.606348,2145.067394
1281.547293,8290.306550,-5329.482782,2145.067394
1281.547622,8586.388927,-4737.318029,1685.410096
1281.547952,8956.491898,-2664.741391,2681.334243
1281.548281,8956.491898,-4071.132681,1608.800546
1281.548610,8956.491898,-3404.947333,1532.190996
1281.548939,8808.450710,-4145.153275,1608.800546
1281.549268,8808.450710,-6439.791695,1302.362347
1281.549597,7031.956449,-6809.894666,1608.800546
1281.549926,5625.565159,-9326.594869,1532.190996
1281.550255,5255.462188,-8290.306550,612.876398
1281.550584,4219.173869,-7994.224174,0.000000
1281.550913,4219.173869,-8142.265362,-536.266849
1281.551243,5255.462188,-7624.121203,0.000000
1281.551572,6809.894666,-7698.141797,306.438199
1281.551901,7476.080014,-6513.812290,1149.143247
1281.552230,8216.285956,-6217.729913,1302.362347
1281.552559,8290.306550,-5773.606348,1685.410096
1281.552888,7994.224174,-5477.523971,1225.752797
1281.553217,6735.874072,-4959.379811,1149.143247
1281.553547,7994.224174,-4515.256246,995.924147
1281.553876,8216.285956,-4737.318029,1685.410096
1281.554205,8512.368333,-5551.544565,1455.581446
1281.554534,8068.244768,-6365.771101,1455.581446
1281.554863,7105.977043,-7328.038826,1685.410096
1281.555193,6291.750507,-8068.244768,2298.286494
1281.555522,4737.318029,-8586.388927,612.876398
1281.555851,4293.194464,-8586.388927,76.609550
1281.556180,4071.132681,-8660.409521,-153.219100
1281.556509,4219.173869,-8586.388927,-689.485948
1281.556839,4885.359217,-7920.203579,995.924147
1281.557168,6069.688724,-7698.141797,76.609550
1281.557497,7179.997637,-7105.977043,153.219100
1281.557826,7402.059420,-6587.832884,1149.143247
1281.558155,7994.224174,-6365.771101,1455.581446
1281.558485,8586.388927,-4959.379811,1838.629195
1281.558814,8956.491898,-3997.112087,2298.286494
1281.559143,8956.491898,-4145.153275,1991.848295
1281.559472,9252.574275,-2590.720797,1455.581446
1281.559801,8956.491898,-3627.009116,1762.019645
1281.560131,8512.368333,-5107.421000,1762.019645
1281.560460,7994.224174,-6069.688724,2068.457845
1281.560789,6661.853478,-7179.997637,1149.143247
1281.561118,5181.441594,-8216.285956,76.609550
1281.561447,4737.318029,-7846.182985,536.266849
1281.561777,4071.132681,-8364.327145,0.000000
1281.562106,4663.297435,-8734.430116,0.000000
1281.562435,5551.544565,-7772.162391,229.828649
1281.562764,6587.832884,-7402.059420,689.485948
1281.563093,7031.956449,-6587.832884,1302.362347
1281.563423,7698.141797,-6587.832884,1838.629195
1281.563752,7920.203579,-5995.668130,1532.190996
1281.564081,7846.182985,-4737.318029,1225.752797
1281.564410,8438.347739,-4515.256246,1685.410096
1281.564739,8808.450710,-3923.091493,1225.752797
1281.565069,9104.533087,-4441.235652,1532.190996
1281.565398,8882.471304,-4959.379811,1149.143247
1281.565727,8364.327145,-6217.729913,1455.581446
1281.566056,7402.059420,-7105.977043,1685.410096
1281.566385,6809.894666,-8068.244768,1302.362347
1281.566715,5403.503377,-9030.512492,766.095498
1281.567044,4441.235652,-9030.512492,612.876398
1281.567373,4589.276840,-8660.409521,-612.876398
1281.567702,4441.235652,-7624.121203,76.609550
1281.568031,4959.379811,-7624.121203,0.000000
1281.568361,5699.585753,-7920.203579,306.438199
1281.568690,7179.997637,-7031.956449,919.314598
1281.569019,7328.038826,-7179.997637,1915.238745
1281.569348,7624.121203,-5995.668130,1685.410096
1281.569677,8290.306550,-5329.482782,1991.848295
1281.570007,8882.471304,-4441.235652,1532.190996
1281.570336,9030.512492,-3330.926739,1302.362347
1281.570665,9178.553681,-4293.194464,2145.067394
1281.570994,9326.594869,-4663.297435,1455.581446
1281.571323,8808.450710,-6069.688724,1532.190996
1281.571653,7920.203579,-6883.915261,1532.190996
1281.571982,7105.977043,-7994.224174,1302.362347
1281.572311,5181.441594,-8734.430116,612.876398
1281.572640,3849.070898,-8586.388927,229.828649
1281.572969,3923.091493,-8290.306550,-459.657299
1281.573299,4737.318029,-7550.100608,-229.828649
1281.573628,5847.626942,-7179.997637,459.657299
1281.573957,6587.832884,-7402.059420,919.314598
1281.574286,7328.038826,-6661.853478,1302.362347
1281.574615,7698.141797,-6217.729913,1762.019645
1281.574945,7994.224174,-5033.400406,1762.019645
1281.575274,7920.203579,-4441.235652,2068.457845
1281.575603,8290.306550,-4145.153275,1532.190996
1281.575932,8882.471304,-4293.194464,1455.581446
1281.576261,8956.491898,-4219.173869,1608.800546
1281.576591,9030.512492,-5477.523971,1762.019645
1281.576920,7920.203579,-6291.750507,1915.238745
1281.577249,7179.997637,-7031.956449,1378.971896
1281.577578,5773.606348,-8068.244768,995.924147
1281.577907,4737.318029,-8734.430116,1225.752797
1281.578237,4663.297435,-9326.594869,229.828649
1281.578566,3997.112087,-8438.347739,0.000000
1281.578895,4589.276840,-7920.203579,-536.266849
1281.579224,5921.647536,-7846.182985,0.000000
1281.579553,6587.832884,-8216.285956,919.314598
1281.579883,7031.956449,-7254.018232,1072.533697
1281.580212,6883.915261,-6809.894666,766.095498
1281.580541,7105.977043,-6069.688724,1532.190996
1281.580870,7920.203579,-5477.523971,1455.581446
1281.581199,8364.327145,-4811.338623,1685.410096
1281.581529,9104.533087,-4145.153275,1915.238745
1281.581858,9548.656652,-3997.112087,1685.410096
1281.582187,9178.553681,-4071.132681,1915.238745
1281.582516,8438.347739,-4959.379811,1915.238745
1281.582845,7624.121203,-6661.853478,1685.410096
1281.583174,6883.915261,-7994.224174,1072.533697
1281.583504,4811.338623,-8660.409521,612.876398
1281.583833,3701.029710,-8734.430116,153.219100
1281.584162,3849.070898,-8142.265362,383.047749
1281.584491,4441.235652,-8586.388927,-612.876398
1281.584820,5033.400406,-7920.203579,0.000000
1281.585150,6217.729913,-7179.997637,383.047749
1281.585479,7254.018232,-7031.956449,919.314598
1281.585808,7698.141797,-4885.359217,1225.752797
1281.586137,7994.224174,-4959.379811,1762.019645
1281.586466,8882.471304,-4589.276840,1608.800546
1281.586796,9104.533087,-3923.091493,1915.238745
1281.587125,9548.656652,-3552.988522,1149.143247
1281.587454,9104.533087,-4515.256246,1685.410096
1281.587783,9178.553681,-5181.441594,1915.238745
1281.588112,8290.306550,-6513.812290,1608.800546
1281.588442,7105.977043,-7254.018232,1455.581446
1281.588771,5995.668130,-7550.100608,1302.362347
1281.589100,4811.338623,-8660.409521,689.485948
1281.589429,4219.173869,-8882.471304,153.219100
1281.589758,3923.091493,-8364.327145,-306.438199
1281.590088,4663.297435,-8438.347739,-229.828649
1281.590417,5847.626942,-7772.162391,0.000000
1281.590746,5995.668130,-7772.162391,612.876398
1281.591075,6809.894666,-7254.018232,1225.752797
1281.591404,7328.038826,-5995.668130,1149.143247
1281.591734,7772.162391,-4959.379811,1302.362347
1281.592063,8142.265362,-4663.297435,1455.581446
1281.592392,8586.388927,-4367.215058,1608.800546
1281.592721,9104.533087,-4441.235652,1532.190996
1281.593050,9252.574275,-4219.173869,1532.190996
1281.593380,9326.594869,-5033.400406,1762.019645
1281.593709,8438.347739,-6513.812290,1455.581446
1281.594038,7624.121203,-7328.038826,1302.362347
1281.594367,5847.626942,-8438.347739,536.266849
1281.594696,5033.400406,-8882.471304,689.485948
1281.595026,4145.153275,-8586.388927,0.000000
1281.595355,3775.050304,-8142.265362,-689.485948
1281.595684,4441.235652,-7698.141797,-383.047749
1281.596013,5921.647536,-7402.059420,459.657299
1281.596342,7254.018232,-6735.874072,1455.581446
1281.596672,8290.306550,-6291.750507,2068.457845
1281.597001,7994.224174,-5107.421000,1685.410096
1281.597330,7994.224174,-4441.235652,1532.190996
1281.597659,8068.244768,-4589.276840,1072.533697
1281.597988,8364.327145,-4145.153275,1608.800546
1281.598318,9326.594869,-4515.256246,1685.410096
1281.598647,9326.594869,-5033.400406,1838.629195
1281.598976,8660.409521,-6143.709319,1838.629195
1281.599305,7550.100608,-6883.915261,842.705048
1281.599634,6217.729913,-8068.244768,1302.362347
1281.599964,5033.400406,-8808.450710,766.095498
1281.600293,4515.256246,-9030.512492,383.047749
1281.600622,4071.132681,-8216.285956,76.609550
1281.600951,4885.359217,-8216.285956,-1302.362347
1281.601280,5033.400406,-8364.327145,-229.828649
1281.601610,5699.585753,-7476.080014,383.047749
1281.601939,7105.977043,-7476.080014,766.095498
1281.602268,7698.141797,-6439.791695,1838.629195
1281.602597,8438.347739,-6069.688724,1455.581446
1281.602926,8438.347739,-5255.462188,2068.457845
1281.603256,8882.471304,-4515.256246,1378.971896
1281.603585,9326.594869,-3923.091493,1532.190996
1281.603914,9474.636058,-2886.803174,1838.629195
1281.604243,8808.450710,-3552.988522,1838.629195
1281.604572,8586.388927,-5107.421000,1685.410096
1281.604902,7624.121203,-6661.853478,1608.800546
1281.605231,6291.750507,-7624.121203,1608.800546
1281.605560,4737.318029,-8956.491898,1072.533697
1281.605889,3552.988522,-8808.450710,229.828649
1281.606218,2960.823768,-9030.512492,0.000000
1281.606548,3775.050304,-8586.388927,-383.047749
1281.606877,5107.421000,-7624.121203,-229.828649
1281.607206,6883.915261,-7328.038826,1149.143247
1281.607535,7994.224174,-6735.874072,1225.752797
1281.607864,8586.388927,-5847.626942,1915.238745
1281.608194,8882.471304,-5033.400406,1532.190996
1281.608523,8512.368333,-4737.318029,1302.362347
1281.608852,8290.306550,-4293.194464,995.924147
1281.609181,8512.368333,-4515.256246,1149.143247
1281.609510,8512.368333,-4441.235652,1072.533697
1281.609840,8734.430116,-5181.441594,1991.848295
1281.610169,8290.306550,-5995.668130,1072.533697
1281.610498,6957.935855,-7179.997637,1302.362347
1281.610827,6291.750507,-8586.388927,1532.190996
1281.611156,5477.523971,-8364.327145,1532.190996
1281.611486,4737.318029,-8364.327145,919.314598
1281.611815,3923.091493,-8512.368333,0.000000
1281.612144,4589.276840,-8068.244768,0.000000
1281.612473,5329.482782,-7994.224174,229.828649
1281.612802,6735.874072,-8660.409521,689.485948
1281.613132,7105.977043,-7402.059420,1762.019645
1281.613461,7402.059420,-6217.729913,1455.581446
1281.613790,7328.038826,-5773.606348,919.314598
1281.614119,7624.121203,-5107.421000,1455.581446
1281.614448,8586.388927,-4589.276840,1072.533697
1281.614778,8808.450710,-3701.029710,919.314598
1281.615107,9326.594869,-3552.988522,1455.581446
1281.615436,9622.677246,-4737.318029,1608.800546
1281.615765,9178.553681,-5773.606348,1532.190996
1281.616094,7624.121203,-6291.750507,1685.410096
1281.616424,5847.626942,-8364.327145,919.314598
1281.616753,5033.400406,-8142.265362,1072.533697
1281.617082,4811.338623,-8438.347739,229.828649
1281.617411,4663.297435,-8882.471304,612.876398
1281.617740,4959.379811,-7698.141797,229.828649
1281.618070,5995.668130,-7476.080014,0.000000
1281.618399,6735.874072,-7105.977043,689.485948
1281.618728,7402.059420,-6513.812290,995.924147
1281.619057,7772.162391,-6069.688724,1455.581446
1281.619386,7476.080014,-5255.462188,1072.533697
1281.619716,7624.121203,-5255.462188,1225.752797
1281.620045,8142.265362,-4589.276840,995.924147
1281.620374,8438.347739,-4737.318029,1225.752797
1281.620703,8882.471304,-4367.215058,1685.410096
1281.621032,8734.430116,-5625.565159,1149.143247
1281.621362,8068.244768,-6661.853478,1838.629195
1281.621691,7254.018232,-7994.224174,1762.019645
1281.622020,6513.812290,-7920.203579,1225.752797
1281.622349,5847.626942,-7772.162391,842.705048
1281.622678,5181.441594,-8142.265362,459.657299
1281.623008,5181.441594,-7846.182985,153.219100
1281.623337,5625.565159,-7105.977043,76.609550
1281.623666,5625.565159,-7179.997637,0.000000
1281.623995,5921.647536,-7624.121203,383.047749
1281.624324,6587.832884,-7105.977043,459.657299
1281.624654,6809.894666,-7402.059420,995.924147
1281.624983,7031.956449,-6143.709319,1072.533697
1281.625312,7624.121203,-5181.441594,1608.800546
1281.625641,8364.327145,-4589.276840,1762.019645
1281.625970,8808.450710,-3701.029710,1455.581446
1281.626300,8808.450710,-3997.112087,1532.190996
1281.626629,9104.533087,-4885.359217,1762.019645
1281.626958,8216.285956,-5921.647536,2451.505594
1281.627287,7105.977043,-7402.059420,2068.457845
1281.627616,6143.709319,-8068.244768,1378.971896
1281.627946,4885.359217,-8068.244768,1608.800546
1281.628275,4441.235652,-9030.512492,153.219100
1281.628604,3923.091493,-8290.306550,-383.047749
1281.628933,4071.132681,-7550.100608,-612.876398
1281.629262,5255.462188,-7920.203579,-383.047749
1281.629592,6291.750507,-6883.915261,842.705048
1281.629921,7550.100608,-7031.956449,995.924147
1281.630250,7846.182985,-5921.647536,1608.800546
1281.630579,7550.100608,-5329.482782,1225.752797
1281.630908,7846.182985,-4885.359217,995.924147
1281.631238,7994.224174,-3997.112087,1455.581446
1281.631567,9104.533087,-4367.215058,1455.581446
1281.631896,9474.636058,-4663.297435,1455.581446
1281.632225,9326.594869,-5181.441594,1915.238745
1281.632554,9548.656652,-6143.709319,2068.457845
1281.632883,8586.388927,-7031.956449,1762.019645
1281.633213,6809.894666,-7550.100608,1991.848295
1281.633542,5255.462188,-7920.203579,689.485948
1281.633871,4515.256246,-8290.306550,612.876398
1281.634200,4441.235652,-8068.244768,-689.485948
1281.634529,4589.276840,-8068.244768,-306.438199
1281.634859,5255.462188,-7698.141797,0.000000
1281.635188,6217.729913,-7254.018232,689.485948
1281.635517,6513.812290,-7031.956449,689.485948
1281.635846,6809.894666,-6291.750507,1302.362347
1281.636175,7624.121203,-5921.647536,1532.190996
1281.636505,8438.347739,-5403.503377,1685.410096
1281.636834,8660.409521,-4811.338623,2145.067394
1281.637163,9326.594869,-4367.215058,1762.019645
1281.637492,9252.574275,-4663.297435,1532.190996
1281.637821,8586.388927,-5033.400406,1455.581446
1281.638151,7846.182985,-6513.812290,1378.971896
1281.638480,7105.977043,-7328.038826,1455.581446
1281.638809,5847.626942,-7624.121203,1225.752797
1281.639138,4589.276840,-8734.430116,383.047749
1281.639467,3997.112087,-8512.368333,0.000000
1281.639797,4219.173869,-8882.471304,-306.438199
1281.640126,4811.338623,-7994.224174,-306.438199
1281.640455,5625.565159,-7476.080014,76.609550
1281.640784,6735.874072,-7031.956449,689.485948
1281.641113,7476.080014,-6587.832884,1225.752797
1281.641443,7920.203579,-5847.626942,1991.848295
1281.641772,8068.244768,-4811.338623,2145.067394
1281.642101,8438.347739,-4589.276840,1915.238745
1281.642430,8512.368333,-4367.215058,2145.067394
1281.642759,8290.306550,-4737.318029,1378.971896
1281.643089,8512.368333,-5033.400406,1302.362347
1281.643418,8364.327145,-5625.565159,1532.190996
1281.643747,8142.265362,-6661.853478,1302.362347
1281.644076,7105.977043,-7624.121203,1838.629195
1281.644405,6143.709319,-8216.285956,1302.362347
1281.644735,5773.606348,-7698.141797,919.314598
1281.645064,4959.379811,-8364.327145,306.438199
1281.645393,4663.297435,-8512.368333,0.000000
1281.645722,5181.441594,-7994.224174,-153.219100
1281.646051,6143.709319,-7476.080014,612.876398
1281.646381,6439.791695,-6809.894666,536.266849
1281.646710,7179.997637,-6809.894666,1378.971896
1281.647039,7328.038826,-6143.709319,1762.019645
1281.647368,7772.162391,-5329.482782,1532.190996
1281.647697,8364.327145,-4663.297435,1915.238745
1281.648027,8808.450710,-4145.153275,1991.848295
1281.648356,9400.615463,-3923.091493,1915.238745
1281.648685,8734.430116,-4441.235652,1762.019645
1281.649014,8216.285956,-5329.482782,1225.752797
1281.649343,7698.141797,-6957.935855,1762.019645
1281.649673,6957.935855,-7402.059420,1608.800546
1281.650002,6217.729913,-7846.182985,919.314598
1281.650331,4663.297435,-8438.347739,306.438199
1281.650660,3849.070898,-8808.450710,612.876398
1281.650989,4589.276840,-8956.491898,-459.657299
1281.651319,4811.338623,-7772.162391,76.609550
1281.651648,5847.626942,-7179.997637,229.828649
1281.651977,7179.997637,-6587.832884,536.266849
1281.652306,7920.203579,-6217.729913,1685.410096
1281.652635,7698.141797,-5403.503377,1072.533697
1281.652965,7698.141797,-5033.400406,766.095498
1281.653294,7920.203579,-4219.173869,995.924147
1281.653623,8438.347739,-4367.215058,842.705048
1281.653952,9104.533087,-4737.318029,2145.067394
1281.654281,9030.512492,-5329.482782,1915.238745
1281.654611,8956.491898,-6365.771101,1685.410096
1281.654940,7846.182985,-6291.750507,1378.971896
1281.655269,6883.915261,-7476.080014,1991.848295
1281.655598,6069.688724,-8364.327145,1225.752797
1281.655927,5477.523971,-8438.347739,1225.752797
1281.656256,4737.318029,-8660.409521,153.219100
1281.656585,4663.297435,-8734.430116,0.000000
1281.656914,4737.318029,-8068.244768,766.095498
1281.657243,5847.626942,-8216.285956,0.000000
1281.657573,5995.668130,-7179.997637,229.828649
1281.657902,6217.729913,-7105.977043,842.705048
1281.658231,7031.956449,-6291.750507,536.266849
1281.658560,7624.121203,-5477.523971,1149.143247
1281.658889,8142.265362,-4441.235652,1455.581446
1281.659218,9474.636058,-4219.173869,1225.752797
1281.659547,9696.697840,-4219.173869,1608.800546
1281.659876,9474.636058,-4367.215058,2068.457845
1281.660206,8586.388927,-5921.647536,1532.190996
1281.660535,8068.244768,-6291.750507,1608.800546
1281.660864,6809.894666,-7328.038826,919.314598
1281.661193,5625.565159,-7994.224174,1378.971896
1281.661522,4959.379811,-8512.368333,842.705048
1281.661851,4811.338623,-8586.388927,459.657299
1281.662180,4737.318029,-7698.141797,76.609550
1281.662509,4885.359217,-7772.162391,0.000000
1281.662838,6069.688724,-6735.874072,612.876398
1281.663168,6735.874072,-6957.935855,919.314598
1281.663497,6661.853478,-6143.709319,1149.143247
1281.663826,7254.018232,-5551.544565,1149.143247
1281.664155,7476.080014,-4737.318029,1302.362347
1281.664484,8290.306550,-4589.276840,1072.533697
1281.664813,8438.347739,-4959.379811,1378.971896
1281.665142,9326.594869,-4811.338623,1532.190996
1281.665471,8956.491898,-5551.544565,1532.190996
1281.665800,8660.409521,-5773.606348,1532.190996
1281.666130,8068.244768,-7179.997637,2145.067394
1281.666459,7476.080014,-7328.038826,1838.629195
1281.666788,6143.709319,-7254.018232,1762.019645
1281.667117,5329.482782,-8216.285956,229.828649
1281.667446,4737.318029,-8734.430116,306.438199
1281.667775,4293.194464,-8734.430116,0.000000
1281.668104,4589.276840,-8586.388927,0.000000
1281.668433,4737.318029,-8142.265362,0.000000
1281.668763,5329.482782,-7772.162391,76.609550
1281.669092,6291.750507,-7105.977043,1149.143247
1281.669421,7476.080014,-5773.606348,1455.581446
1281.669750,8364.327145,-4811.338623,1991.848295
1281.670079,9252.574275,-4145.153275,2145.067394
1281.670408,9918.759623,-3997.112087,2604.724693
1281.670737,9918.759623,-3775.050304,1685.410096
1281.671066,9178.553681,-4737.318029,1991.848295
1281.671395,8808.450710,-5847.626942,2145.067394
1281.671725,7846.182985,-7105.977043,1532.190996
1281.672054,6069.688724,-7624.121203,1149.143247
1281.672383,5107.421000,-8142.265362,689.485948
1281.672712,4219.173869,-9030.512492,0.000000
1281.673041,3923.091493,-8808.450710,0.000000
1281.673370,3330.926739,-8364.327145,0.000000
1281.673699,4737.318029,-7920.203579,-536.266849
1281.674028,5773.606348,-7402.059420,0.000000
1281.674358,6809.894666,-6883.915261,612.876398
1281.674687,8142.265362,-6365.771101,1991.848295
1281.675016,9178.553681,-4885.359217,2298.286494
1281.675345,9326.594869,-3478.967927,2068.457845
1281.675674,9326.594869,-3330.926739,1915.238745
1281.676003,9474.636058,-3478.967927,1762.019645
1281.676332,9400.615463,-4441.235652,1915.238745
1281.676661,8882.471304,-6217.729913,1225.752797
1281.676990,7920.203579,-5477.523971,1302.362347
1281.677320,7179.997637,-7550.100608,1072.533697
1281.677649,6143.709319,-8808.450710,919.314598
1281.677978,4663.297435,-7402.059420,995.924147
1281.678307,4145.153275,-9622.677246,0.000000
1281.678636,4071.132681,-8290.306550,0.000000
1281.678965,3849.070898,-8438.347739,-766.095498
1281.679294,4515.256246,-8734.430116,-842.705048
1281.679623,5477.523971,-7328.038826,459.657299
1281.679952,7031.956449,-8142.265362,766.095498
1281.680282,8438.347739,-5995.668130,1762.019645
1281.680611,9548.656652,-4441.235652,2221.676944
1281.680940,9844.739029,-3034.844362,1685.410096
1281.681269,9696.697840,-2294.638420,1991.848295
1281.681598,9992.780217,-3256.906145,1378.971896
1281.681927,10066.800811,-3330.926739,1455.581446
1281.682256,9474.636058,-4589.276840,1685.410096
1281.682585,9030.512492,-6587.832884,1608.800546
1281.682915,6883.915261,-7328.038826,612.876398
1281.683244,4885.359217,-9844.739029,689.485948
1281.683573,4441.235652,-9104.533087,0.000000
1281.683902,4219.173869,-9696.697840,-153.219100
1281.684231,3849.070898,-8512.368333,-612.876398
1281.684560,4219.173869,-8660.409521,-229.828649
1281.684889,5551.544565,-7402.059420,229.828649
1281.685218,6883.915261,-6587.832884,459.657299
1281.685547,7624.121203,-6365.771101,1455.581446
1281.685877,8364.327145,-5403.503377,1991.848295
1281.686206,8364.327145,-5107.421000,1838.629195
1281.686535,8142.265362,-4367.215058,1532.190996
1281.686864,8364.327145,-4219.173869,1685.410096
1281.687193,8882.471304,-4441.235652,1225.752797
1281.687522,8364.327145,-5033.400406,1608.800546
1281.687851,7698.141797,-5551.544565,1149.143247
1281.688180,7254.018232,-7105.977043,1302.362347
1281.688510,6587.832884,-8290.306550,2451.505594
1281.688839,5995.668130,-8438.347739,1225.752797
1281.689168,5255.462188,-8808.450710,612.876398
1281.689497,3923.091493,-8216.285956,76.609550
1281.689826,4145.153275,-8142.265362,-536.266849
1281.690155,4367.215058,-7402.059420,-459.657299
1281.690484,5847.626942,-7772.162391,689.485948
1281.690813,7402.059420,-7476.080014,1302.362347
1281.691142,8216.285956,-6291.750507,1838.629195
1281.691472,8142.265362,-5773.606348,2068.457845
1281.691801,8216.285956,-5329.482782,2145.067394
1281.692130,8512.368333,-4293.194464,2068.457845
1281.692459,8660.409521,-3775.050304,1608.800546
1281.692788,9030.512492,-3256.906145,1378.971896
1281.693117,8586.388927,-4367.215058,2068.457845
1281.693446,8068.244768,-5699.585753,1225.752797
1281.693775,6957.935855,-7031.956449,1302.362347
1281.694104,5847.626942,-7994.224174,1225.752797
1281.694434,4959.379811,-8660.409521,306.438199
1281.694763,4737.318029,-9104.533087,153.219100
1281.695092,3775.050304,-8660.409521,-383.047749
1281.695421,4663.297435,-8438.347739,-459.657299
