#time,accel_x,accel_y,accel_z
1256.982069,6957.935855,-6883.915261,1072.533697
1256.982399,7179.997637,-5921.647536,1072.533697
1256.982729,7328.038826,-6513.812290,1149.143247
1256.983059,7476.080014,-5847.626942,1378.971896
1256.983390,7031.956449,-6143.709319,1225.752797
1256.983720,6957.935855,-6439.791695,995.924147
1256.984050,6587.832884,-6365.771101,1072.533697
1256.984380,6439.791695,-6957.935855,1072.533697
1256.984710,6513.812290,-6809.894666,1072.533697
1256.985040,6809.894666,-6735.874072,1072.533697
1256.985371,6735.874072,-6883.915261,1072.533697
1256.985701,6735.874072,-6883.915261,919.314598
1256.986031,6587.832884,-7105.977043,1302.362347
1256.986361,6735.874072,-7031.956449,766.095498
1256.986691,6365.771101,-7031.956449,1072.533697
1256.987021,6513.812290,-6735.874072,383.047749
1256.987352,7105.977043,-6661.853478,459.657299
1256.987682,7105.977043,-6143.709319,842.705048
1256.988012,7105.977043,-6365.771101,766.095498
1256.988342,7476.080014,-6661.853478,995.924147
1256.988672,7179.997637,-6291.750507,766.095498
1256.989003,7105.977043,-6587.832884,995.924147
1256.989333,7105.977043,-6809.894666,1072.533697
1256.989663,7105.977043,-6069.688724,919.314598
1256.989993,7254.018232,-6365.771101,1072.533697
1256.990323,7179.997637,-5995.668130,1302.362347
1256.990653,7772.162391,-6143.709319,1532.190996
1256.990984,7105.977043,-5995.668130,842.705048
1256.991314,6809.894666,-6365.771101,919.314598
1256.991644,6069.688724,-6587.832884,536.266849
1256.991974,6809.894666,-6735.874072,919.314598
1256.992304,7105.977043,-6735.874072,1762.019645
1256.992634,6957.935855,-6735.874072,1302.362347
1256.992965,7105.977043,-6291.750507,1072.533697
1256.993295,6735.874072,-6957.935855,995.924147
1256.993625,6809.894666,-6661.853478,919.314598
1256.993955,6143.709319,-6661.853478,995.924147
1256.994285,6735.874072,-6883.915261,842.705048
1256.994615,7328.038826,-6809.894666,1072.533697
1256.994946,7402.059420,-6291.750507,1608.800546
1256.995276,7328.038826,-6291.750507,1532.190996
1256.995606,7328.038826,-6217.729913,1455.581446
1256.995936,7105.977043,-6587.832884,842.705048
1256.996266,6957.935855,-7105.977043,842.705048
1256.996597,6957.935855,-6513.812290,1149.143247
1256.996927,7550.100608,-5995.668130,1072.533697
1256.997257,6957.935855,-6439.791695,1072.533697
1256.997587,6957.935855,-6291.750507,1225.752797
1256.997917,7105.977043,-6439.791695,1072.533697
1256.998247,7105.977043,-6513.812290,1225.752797
1256.998578,6587.832884,-6365.771101,842.705048
1256.998908,6439.791695,-6957.935855,842.705048
1256.999238,6513.812290,-6735.874072,1225.752797
1256.999568,6883.915261,-6217.729913,995.924147
1256.999898,6957.935855,-6513.812290,919.314598
1257.000228,6883.915261,-6661.853478,1072.533697
1257.000559,6365.771101,-7105.977043,1378.971896
1257.000889,6513.812290,-6957.935855,612.876398
1257.001219,6661.853478,-6957.935855,842.705048
1257.001549,6439.791695,-7105.977043,689.485948
1257.001879,6735.874072,-7031.956449,995.924147
1257.002210,7328.038826,-6513.812290,1149.143247
1257.002540,7105.977043,-6809.894666,919.314598
1257.002870,7476.080014,-5995.668130,1838.629195
1257.003200,7328.038826,-6365.771101,995.924147
1257.003530,7031.956449,-6513.812290,766.095498
1257.003860,6735.874072,-6587.832884,1149.143247
1257.004191,7179.997637,-6365.771101,919.314598
1257.004521,7105.977043,-6069.688724,1072.533697
1257.004851,7031.956449,-6217.729913,1378.971896
1257.005181,7328.038826,-6809.894666,1149.143247
1257.005511,7105.977043,-6143.709319,1072.533697
1257.005841,6809.894666,-6365.771101,1149.143247
1257.006172,6513.812290,-6735.874072,842.705048
1257.006502,6957.935855,-6587.832884,919.314598
1257.006832,7105.977043,-6513.812290,995.924147
1257.007162,7105.977043,-6587.832884,1149.143247
1257.007492,7105.977043,-5847.626942,1072.533697
1257.007823,7105.977043,-6883.915261,1072.533697
1257.008153,6735.874072,-6809.894666,766.095498
1257.008483,6809.894666,-6735.874072,1149.143247
1257.008813,6661.853478,-6587.832884,1532.190996
1257.009143,7476.080014,-6439.791695,1072.533697
1257.009473,7402.059420,-6439.791695,1225.752797
1257.009804,7624.121203,-6587.832884,1149.143247
1257.010134,7328.038826,-6439.791695,1225.752797
1257.010464,7179.997637,-5847.626942,1302.362347
1257.010794,6883.915261,-6513.812290,995.924147
1257.011124,7105.977043,-6513.812290,995.924147
1257.011454,7179.997637,-6143.709319,842.705048
1257.011785,7105.977043,-6069.688724,1532.190996
1257.012115,7328.038826,-5995.668130,919.314598
1257.012445,7254.018232,-6365.771101,1532.190996
1257.012775,6957.935855,-6513.812290,1149.143247
1257.013105,6661.853478,-6365.771101,1225.752797
1257.013436,6883.915261,-6735.874072,766.095498
1257.013766,6957.935855,-6883.915261,1072.533697
1257.014096,6957.935855,-6513.812290,1149.143247
1257.014426,6809.894666,-6883.915261,1149.143247
1257.014756,6735.874072,-6883.915261,1455.581446
1257.015086,6439.791695,-7105.977043,1762.019645
1257.015417,6439.791695,-7254.018232,689.485948
1257.015747,5995.668130,-6957.935855,995.924147
1257.016077,6365.771101,-6661.853478,766.095498
1257.016407,7105.977043,-6809.894666,1149.143247
1257.016737,6957.935855,-6439.791695,1378.971896
1257.017067,7328.038826,-6587.832884,995.924147
1257.017398,7402.059420,-6439.791695,1225.752797
1257.017728,7179.997637,-6291.750507,1149.143247
1257.018058,7105.977043,-6587.832884,995.924147
1257.018388,6957.935855,-6365.771101,919.314598
1257.018718,7179.997637,-6143.709319,612.876398
1257.019049,6957.935855,-6439.791695,842.705048
1257.019379,7179.997637,-6365.771101,1225.752797
1257.019709,7179.997637,-6217.729913,612.876398
1257.020039,7105.977043,-6217.729913,1149.143247
1257.020369,6661.853478,-6365.771101,766.095498
1257.020699,6439.791695,-6809.894666,1072.533697
1257.021030,7105.977043,-6291.750507,919.314598
1257.021360,7031.956449,-7031.956449,1378.971896
1257.021690,6957.935855,-6587.832884,995.924147
1257.022020,7031.956449,-6661.853478,1149.143247
1257.022350,7031.956449,-7031.956449,919.314598
1257.022680,6883.915261,-5995.668130,842.705048
1257.023011,6587.832884,-6809.894666,842.705048
1257.023341,7031.956449,-7031.956449,766.095498
1257.023671,7328.038826,-6587.832884,1302.362347
1257.024001,7254.018232,-6513.812290,1378.971896
1257.024331,7550.100608,-6883.915261,1072.533697
1257.024661,7402.059420,-5995.668130,689.485948
1257.024992,7105.977043,-6587.832884,919.314598
1257.025322,7105.977043,-6587.832884,1149.143247
1257.025652,7254.018232,-6069.688724,842.705048
1257.025982,7179.997637,-5995.668130,842.705048
1257.026312,6957.935855,-6291.750507,1072.533697
1257.026643,7105.977043,-6291.750507,1302.362347
1257.026973,7179.997637,-6883.915261,1532.190996
1257.027303,7179.997637,-6513.812290,1149.143247
1257.027633,6735.874072,-6587.832884,1225.752797
1257.027963,6661.853478,-6735.874072,612.876398
1257.028293,7031.956449,-6661.853478,919.314598
1257.028624,6661.853478,-6883.915261,842.705048
1257.028954,6735.874072,-6809.894666,842.705048
1257.029284,6809.894666,-7105.977043,1225.752797
1257.029614,6809.894666,-6957.935855,919.314598
1257.029944,6587.832884,-7031.956449,689.485948
1257.030274,6069.688724,-6587.832884,689.485948
1257.030605,6513.812290,-7105.977043,766.095498
1257.030935,7105.977043,-6587.832884,1072.533697
1257.031265,7105.977043,-6513.812290,1225.752797
1257.031595,7105.977043,-6365.771101,842.705048
1257.031925,7402.059420,-6513.812290,1378.971896
1257.032256,6957.935855,-6513.812290,1072.533697
1257.032586,7328.038826,-6883.915261,1225.752797
1257.032916,6809.894666,-6661.853478,766.095498
1257.033246,7328.038826,-6439.791695,1225.752797
1257.033576,6809.894666,-6217.729913,842.705048
1257.033906,6809.894666,-6291.750507,1149.143247
1257.034237,7179.997637,-6587.832884,1225.752797
1257.034567,7254.018232,-5847.626942,1225.752797
1257.034897,7179.997637,-6513.812290,1608.800546
1257.035227,6809.894666,-6587.832884,1072.533697
1257.035557,6957.935855,-6735.874072,1149.143247
1257.035887,7105.977043,-6661.853478,1455.581446
1257.036218,7105.977043,-6735.874072,1455.581446
1257.036548,6809.894666,-7105.977043,1149.143247
1257.036878,6809.894666,-7105.977043,689.485948
1257.037208,6217.729913,-6809.894666,842.705048
1257.037538,6735.874072,-6883.915261,995.924147
1257.037869,6883.915261,-6957.935855,1455.581446
1257.038199,7328.038826,-6365.771101,1225.752797
1257.038529,7328.038826,-6291.750507,612.876398
1257.038859,7476.080014,-6069.688724,842.705048
1257.039189,7698.141797,-6513.812290,995.924147
1257.039519,7105.977043,-6217.729913,689.485948
1257.039850,6957.935855,-6439.791695,1072.533697
1257.040180,7254.018232,-6069.688724,842.705048
1257.040510,7254.018232,-6291.750507,995.924147
1257.040840,7254.018232,-6439.791695,1072.533697
1257.041170,7105.977043,-6365.771101,919.314598
1257.041500,7105.977043,-6365.771101,1072.533697
1257.041831,7328.038826,-6661.853478,1302.362347
1257.042161,6809.894666,-6661.853478,612.876398
1257.042491,7031.956449,-6439.791695,689.485948
1257.042821,7105.977043,-6661.853478,1225.752797
1257.043151,6809.894666,-6957.935855,842.705048
1257.043482,6957.935855,-6809.894666,995.924147
1257.043812,6809.894666,-6069.688724,1149.143247
1257.044142,6291.750507,-7105.977043,766.095498
1257.044472,6735.874072,-7031.956449,1072.533697
1257.044802,6587.832884,-6883.915261,1149.143247
1257.045132,6809.894666,-6809.894666,842.705048
1257.045463,7031.956449,-7105.977043,1915.238745
1257.045793,7105.977043,-6513.812290,1149.143247
1257.046123,7179.997637,-6439.791695,1149.143247
1257.046452,7031.956449,-6587.832884,995.924147
1257.046782,6809.894666,-7031.956449,229.828649
1257.047112,6957.935855,-6587.832884,919.314598
1257.047442,6883.915261,-5995.668130,919.314598
1257.047772,7031.956449,-6291.750507,1072.533697
1257.048102,6735.874072,-6291.750507,1149.143247
1257.048432,6809.894666,-5995.668130,1532.190996
1257.048762,6809.894666,-6513.812290,1302.362347
1257.049092,6587.832884,-6365.771101,919.314598
1257.049421,6661.853478,-6735.874072,1149.143247
1257.049751,7031.956449,-6883.915261,1225.752797
1257.050081,6883.915261,-6661.853478,1455.581446
1257.050411,6809.894666,-6883.915261,919.314598
1257.050741,7031.956449,-6439.791695,766.095498
1257.051071,6735.874072,-6809.894666,842.705048
1257.051401,6513.812290,-6809.894666,1072.533697
1257.051731,6439.791695,-6883.915261,919.314598
1257.052061,6957.935855,-6957.935855,766.095498
1257.052391,7105.977043,-6883.915261,689.485948
1257.052721,7328.038826,-6513.812290,1225.752797
1257.053051,7772.162391,-6513.812290,1072.533697
1257.053381,7550.100608,-6365.771101,1149.143247
1257.053711,7328.038826,-6291.750507,1072.533697
1257.054041,7105.977043,-6513.812290,459.657299
1257.054370,7476.080014,-6587.832884,1455.581446
1257.054700,7254.018232,-6069.688724,995.924147
1257.055030,7254.018232,-6587.832884,842.705048
1257.055360,7105.977043,-6143.709319,766.095498
1257.055690,6957.935855,-6439.791695,1225.752797
1257.056020,7105.977043,-6439.791695,1608.800546
1257.056350,7105.977043,-6291.750507,1072.533697
1257.056680,6439.791695,-6661.853478,1225.752797
1257.057010,6957.935855,-6291.750507,1072.533697
1257.057340,7179.997637,-7179.997637,1685.410096
1257.057670,6809.894666,-6439.791695,919.314598
1257.058000,6735.874072,-6587.832884,1225.752797
1257.058330,6957.935855,-6957.935855,1225.752797
1257.058660,6809.894666,-6661.853478,612.876398
1257.058990,6735.874072,-6809.894666,919.314598
1257.059320,6735.874072,-7105.977043,995.924147
1257.059649,7105.977043,-6883.915261,919.314598
1257.059979,6957.935855,-6513.812290,1455.581446
1257.060309,7105.977043,-6513.812290,1225.752797
1257.060639,7550.100608,-6069.688724,995.924147
1257.060969,7105.977043,-6217.729913,1302.362347
1257.061299,6513.812290,-6217.729913,1072.533697
1257.061629,6661.853478,-6439.791695,1225.752797
1257.061959,7254.018232,-6069.688724,536.266849
1257.062289,6957.935855,-6513.812290,919.314598
1257.062619,6735.874072,-6809.894666,1455.581446
1257.062949,6957.935855,-6735.874072,1455.581446
1257.063279,7105.977043,-6661.853478,1149.143247
1257.063609,7105.977043,-6883.915261,1302.362347
1257.063939,6587.832884,-6883.915261,766.095498
1257.064269,6439.791695,-6809.894666,1225.752797
1257.064598,6809.894666,-6365.771101,766.095498
1257.064928,6439.791695,-6291.750507,842.705048
1257.065258,6735.874072,-6069.688724,1072.533697
1257.065588,6809.894666,-6883.915261,919.314598
1257.065918,6439.791695,-7031.956449,995.924147
1257.066248,6291.750507,-6809.894666,689.485948
1257.066578,6809.894666,-6883.915261,766.095498
1257.066908,7105.977043,-6735.874072,1072.533697
1257.067238,7328.038826,-6365.771101,1302.362347
1257.067568,7402.059420,-6439.791695,689.485948
1257.067898,7328.038826,-6217.729913,766.095498
1257.068228,7550.100608,-6439.791695,766.095498
1257.068558,7179.997637,-6587.832884,1072.533697
1257.068888,6957.935855,-6069.688724,689.485948
1257.069218,7328.038826,-6217.729913,689.485948
1257.069548,7105.977043,-5921.647536,1072.533697
1257.069877,7179.997637,-5921.647536,1302.362347
1257.070207,7254.018232,-6365.771101,919.314598
1257.070537,7328.038826,-6513.812290,1072.533697
1257.070867,6883.915261,-6661.853478,1072.533697
1257.071197,6809.894666,-6291.750507,766.095498
1257.071527,7179.997637,-7031.956449,1225.752797
1257.071857,7105.977043,-6809.894666,919.314598
1257.072187,7105.977043,-7031.956449,1149.143247
1257.072517,7105.977043,-6439.791695,536.266849
1257.072847,6809.894666,-6735.874072,995.924147
1257.073177,6661.853478,-6587.832884,919.314598
1257.073507,6513.812290,-6661.853478,766.095498
1257.073837,6661.853478,-6587.832884,612.876398
1257.074167,7031.956449,-6217.729913,842.705048
1257.074497,7328.038826,-6439.791695,1225.752797
1257.074826,7179.997637,-6735.874072,842.705048
1257.075156,7402.059420,-6587.832884,995.924147
1257.075486,6957.935855,-6587.832884,995.924147
1257.075816,6587.832884,-7105.977043,1225.752797
1257.076146,6957.935855,-6365.771101,1149.143247
1257.076476,7031.956449,-6291.750507,1072.533697
1257.076806,7105.977043,-6365.771101,1072.533697
1257.077136,7105.977043,-6069.688724,1149.143247
1257.077466,6809.894666,-6217.729913,1225.752797
1257.077796,6661.853478,-6217.729913,1149.143247
1257.078126,6365.771101,-6291.750507,919.314598
1257.078456,6439.791695,-6809.894666,842.705048
1257.078786,7105.977043,-7031.956449,1072.533697
1257.079116,6883.915261,-6957.935855,995.924147
1257.079446,6957.935855,-7031.956449,1149.143247
1257.079776,6957.935855,-6883.915261,1225.752797
1257.080105,6661.853478,-6735.874072,1455.581446
1257.080435,6513.812290,-6957.935855,536.266849
1257.080765,6661.853478,-7031.956449,1149.143247
1257.081095,6957.935855,-6883.915261,919.314598
1257.081425,7179.997637,-6809.894666,919.314598
1257.081755,7105.977043,-5551.544565,1608.800546
1257.082085,7328.038826,-6291.750507,995.924147
1257.082415,7328.038826,-6291.750507,1072.533697
1257.082745,7031.956449,-6291.750507,1072.533697
1257.083075,7105.977043,-6957.935855,1378.971896
1257.083405,7254.018232,-6365.771101,919.314598
1257.083735,7402.059420,-6143.709319,842.705048
1257.084065,7031.956449,-6439.791695,919.314598
1257.084395,7402.059420,-6291.750507,995.924147
1257.084725,7105.977043,-6291.750507,2374.896044
1257.085055,7105.977043,-6291.750507,1225.752797
1257.085384,6735.874072,-6365.771101,995.924147
1257.085714,6809.894666,-6513.812290,919.314598
1257.086044,6809.894666,-6661.853478,1149.143247
1257.086374,7105.977043,-6513.812290,1149.143247
1257.086704,6735.874072,-6217.729913,459.657299
1257.087034,7031.956449,-6439.791695,1149.143247
1257.087364,6883.915261,-7031.956449,919.314598
1257.087694,6735.874072,-6809.894666,919.314598
1257.088024,6957.935855,-6587.832884,689.485948
1257.088354,6957.935855,-7031.956449,766.095498
1257.088684,7476.080014,-7105.977043,1378.971896
1257.089014,7179.997637,-6587.832884,1072.533697
1257.089344,7328.038826,-5995.668130,842.705048
1257.089674,7402.059420,-6217.729913,995.924147
1257.090004,7254.018232,-6143.709319,612.876398
1257.090333,6809.894666,-6661.853478,1072.533697
1257.090663,6809.894666,-6217.729913,1225.752797
1257.090993,7550.100608,-6217.729913,1149.143247
1257.091323,7105.977043,-6069.688724,995.924147
1257.091653,6809.894666,-6291.750507,1378.971896
1257.091983,7402.059420,-6661.853478,1532.190996
1257.092313,6957.935855,-6513.812290,1149.143247
1257.092643,6217.729913,-6587.832884,1072.533697
1257.092973,6217.729913,-7105.977043,842.705048
1257.093303,6883.915261,-7105.977043,1378.971896
1257.093633,6957.935855,-7031.956449,995.924147
1257.093963,7105.977043,-6883.915261,536.266849
1257.094293,6957.935855,-6735.874072,1302.362347
1257.094623,6513.812290,-6661.853478,766.095498
1257.094953,6217.729913,-6883.915261,842.705048
1257.095283,6587.832884,-6513.812290,689.485948
1257.095612,6513.812290,-6809.894666,995.924147
1257.095942,7402.059420,-5699.585753,1149.143247
1257.096272,7624.121203,-5403.503377,1225.752797
1257.096602,8586.388927,-5329.482782,1225.752797
1257.096932,8512.368333,-5847.626942,1762.019645
1257.097262,8068.244768,-5995.668130,612.876398
1257.097592,6883.915261,-6883.915261,0.000000
1257.097922,6143.709319,-7105.977043,76.609550
1257.098252,6661.853478,-6513.812290,0.000000
1257.098582,7105.977043,-6439.791695,1455.581446
1257.098912,7994.224174,-6291.750507,1685.410096
1257.099242,8512.368333,-5699.585753,1685.410096
1257.099572,8438.347739,-3849.070898,1225.752797
1257.099902,7846.182985,-3775.050304,612.876398
1257.100232,7772.162391,-5033.400406,689.485948
1257.100561,8438.347739,-4145.153275,1302.362347
1257.100891,8882.471304,-4515.256246,1302.362347
1257.101221,8882.471304,-3997.112087,1225.752797
1257.101551,8882.471304,-4959.379811,995.924147
1257.101881,8512.368333,-5403.503377,842.705048
1257.102211,8512.368333,-4885.359217,612.876398
1257.102541,8142.265362,-6217.729913,842.705048
1257.102871,8068.244768,-5625.565159,1685.410096
1257.103201,7920.203579,-5033.400406,-383.047749
1257.103531,7402.059420,-5699.585753,689.485948
1257.103861,8290.306550,-5107.421000,919.314598
1257.104191,8438.347739,-5329.482782,995.924147
1257.104521,8586.388927,-4441.235652,1149.143247
1257.104851,8512.368333,-4959.379811,536.266849
1257.105181,9326.594869,-3997.112087,1072.533697
1257.105511,9548.656652,-3404.947333,1072.533697
1257.105840,9696.697840,-3478.967927,1991.848295
1257.106170,10066.800811,-2664.741391,1685.410096
1257.106500,9770.718434,-3256.906145,1532.190996
1257.106830,10066.800811,-3108.864956,1455.581446
1257.107160,9104.533087,-4441.235652,1378.971896
1257.107490,8882.471304,-4885.359217,1455.581446
1257.107820,8512.368333,-5181.441594,1149.143247
1257.108150,7846.182985,-6069.688724,1455.581446
1257.108480,8142.265362,-5403.503377,842.705048
1257.108810,7254.018232,-6957.935855,1378.971896
1257.109140,7328.038826,-6587.832884,612.876398
1257.109470,6883.915261,-6069.688724,383.047749
1257.109800,6957.935855,-5847.626942,0.000000
1257.110130,7624.121203,-6217.729913,153.219100
1257.110460,8586.388927,-4515.256246,153.219100
1257.110789,9474.636058,-3552.988522,536.266849
1257.111119,10510.924376,-3849.070898,766.095498
1257.111449,11399.171507,-3330.926739,1762.019645
1257.111779,10881.027347,-3330.926739,1225.752797
1257.112109,10362.883188,-3478.967927,842.705048
1257.112439,9474.636058,-2738.761985,459.657299
1257.112769,10288.862594,-4071.132681,612.876398
1257.113099,9622.677246,-4145.153275,1532.190996
1257.113429,9696.697840,-4811.338623,1991.848295
1257.113759,8882.471304,-4515.256246,1838.629195
1257.114089,7846.182985,-3849.070898,1225.752797
1257.114419,7698.141797,-5181.441594,1302.362347
1257.114749,8142.265362,-4515.256246,1455.581446
1257.115079,8882.471304,-3775.050304,1838.629195
1257.115409,9178.553681,-3404.947333,1455.581446
1257.115739,9326.594869,-3182.885551,1302.362347
1257.116068,9474.636058,-4071.132681,1302.362347
1257.116398,9474.636058,-4293.194464,612.876398
1257.116728,9104.533087,-4589.276840,766.095498
1257.117058,8290.306550,-4737.318029,-229.828649
1257.117388,7698.141797,-5403.503377,-306.438199
1257.117718,8068.244768,-6439.791695,76.609550
1257.118048,8364.327145,-6217.729913,153.219100
1257.118378,8290.306550,-6883.915261,612.876398
1257.118708,7846.182985,-6513.812290,1149.143247
1257.119038,7624.121203,-7105.977043,1608.800546
1257.119368,7994.224174,-6957.935855,1685.410096
1257.119698,8142.265362,-5107.421000,2528.115143
1257.120028,7994.224174,-5477.523971,2221.676944
1257.120358,8142.265362,-3849.070898,2068.457845
1257.120688,8808.450710,-3256.906145,1762.019645
1257.121018,8808.450710,-2368.659014,766.095498
1257.121347,8956.491898,-2442.679609,76.609550
1257.121677,8586.388927,-3923.091493,0.000000
1257.122007,8512.368333,-4589.276840,0.000000
1257.122337,8290.306550,-5699.585753,-459.657299
1257.122667,6883.915261,-7254.018232,383.047749
1257.122997,6883.915261,-8290.306550,306.438199
1257.123327,6809.894666,-9844.739029,919.314598
1257.123657,6587.832884,-9918.759623,1532.190996
1257.123987,5995.668130,-9992.780217,1225.752797
1257.124317,4959.379811,-9474.636058,919.314598
1257.124647,4589.276840,-8808.450710,306.438199
1257.124977,4589.276840,-8142.265362,0.000000
1257.125307,4959.379811,-6883.915261,383.047749
1257.125637,6143.709319,-5033.400406,76.609550
1257.125967,7179.997637,-4737.318029,383.047749
1257.126296,8216.285956,-3997.112087,153.219100
1257.126626,8882.471304,-3923.091493,842.705048
1257.126956,9696.697840,-3701.029710,1225.752797
1257.127286,10066.800811,-3627.009116,1225.752797
1257.127616,9548.656652,-4737.318029,1608.800546
1257.127946,9400.615463,-5033.400406,1915.238745
1257.128276,8808.450710,-6143.709319,1838.629195
1257.128606,8216.285956,-5921.647536,1915.238745
1257.128936,6439.791695,-6069.688724,766.095498
1257.129266,5847.626942,-6809.894666,919.314598
1257.129596,5995.668130,-6883.915261,1991.848295
1257.129926,6217.729913,-6809.894666,2145.067394
1257.130256,6957.935855,-5699.585753,2604.724693
1257.130586,7328.038826,-4737.318029,2145.067394
1257.130916,7328.038826,-5107.421000,1455.581446
1257.131246,7105.977043,-5847.626942,842.705048
1257.131575,6661.853478,-6735.874072,0.000000
1257.131905,6883.915261,-7105.977043,-459.657299
1257.132235,6957.935855,-7624.121203,153.219100
1257.132565,7328.038826,-8364.327145,689.485948
1257.132895,7550.100608,-9326.594869,995.924147
1257.133225,6661.853478,-9252.574275,2298.286494
1257.133555,5329.482782,-7772.162391,1455.581446
1257.133885,5181.441594,-6439.791695,1608.800546
1257.134215,5921.647536,-5181.441594,1608.800546
1257.134545,7254.018232,-4663.297435,2068.457845
1257.134875,7624.121203,-3552.988522,2681.334243
1257.135205,8068.244768,-3034.844362,1762.019645
1257.135535,7920.203579,-3923.091493,1378.971896
1257.135865,7772.162391,-4515.256246,536.266849
1257.136195,7328.038826,-6217.729913,383.047749
1257.136524,7031.956449,-7698.141797,919.314598
1257.136854,7105.977043,-8660.409521,1302.362347
1257.137184,6735.874072,-9030.512492,842.705048
1257.137514,6143.709319,-9474.636058,919.314598
1257.137844,6809.894666,-9918.759623,229.828649
1257.138174,5403.503377,-9474.636058,0.000000
1257.138504,4071.132681,-8956.491898,0.000000
1257.138834,3701.029710,-8290.306550,76.609550
1257.139164,4737.318029,-7179.997637,1072.533697
1257.139494,6513.812290,-5551.544565,1762.019645
1257.139824,7772.162391,-4663.297435,2145.067394
1257.140154,8734.430116,-3182.885551,1991.848295
1257.140484,9622.677246,-3034.844362,1762.019645
1257.140814,10288.862594,-3552.988522,1532.190996
1257.141144,9474.636058,-4071.132681,1225.752797
1257.141474,8956.491898,-5699.585753,76.609550
1257.141803,8142.265362,-7105.977043,612.876398
1257.142133,6957.935855,-7920.203579,459.657299
1257.142463,6587.832884,-8216.285956,536.266849
1257.142793,6661.853478,-7920.203579,1378.971896
1257.143123,6809.894666,-8068.244768,1455.581446
1257.143453,6439.791695,-7402.059420,1608.800546
1257.143783,5477.523971,-7031.956449,1072.533697
1257.144113,4959.379811,-6661.853478,153.219100
1257.144443,4441.235652,-7105.977043,-306.438199
1257.144773,5181.441594,-7031.956449,0.000000
1257.145103,5921.647536,-7031.956449,612.876398
1257.145433,7402.059420,-7179.997637,1072.533697
1257.145763,7994.224174,-6291.750507,1072.533697
1257.146093,7624.121203,-5847.626942,995.924147
1257.146423,8290.306550,-6291.750507,1455.581446
1257.146752,8586.388927,-6143.709319,1915.238745
1257.147082,8290.306550,-5625.565159,1532.190996
1257.147412,8438.347739,-5773.606348,1532.190996
1257.147742,7994.224174,-5329.482782,1225.752797
1257.148072,7624.121203,-5773.606348,1072.533697
1257.148402,7179.997637,-5181.441594,612.876398
1257.148732,6735.874072,-4811.338623,612.876398
1257.149061,6217.729913,-5995.668130,919.314598
1257.149390,5773.606348,-6291.750507,919.314598
1257.149720,5699.585753,-7328.038826,1225.752797
1257.150049,6217.729913,-6735.874072,1455.581446
1257.150378,6587.832884,-7846.182985,1378.971896
1257.150708,6883.915261,-8512.368333,1302.362347
1257.151037,6661.853478,-7920.203579,766.095498
1257.151366,6217.729913,-7698.141797,459.657299
1257.151696,5625.565159,-7254.018232,383.047749
1257.152025,6069.688724,-6809.894666,536.266849
1257.152354,6883.915261,-6143.709319,1225.752797
1257.152684,7254.018232,-5921.647536,1991.848295
1257.153013,8290.306550,-5551.544565,2451.505594
1257.153342,7624.121203,-5329.482782,1608.800546
1257.153672,7105.977043,-5477.523971,1225.752797
1257.154001,6365.771101,-5255.462188,229.828649
1257.154330,7179.997637,-6291.750507,383.047749
1257.154660,7624.121203,-7105.977043,1378.971896
1257.154989,7624.121203,-6883.915261,1225.752797
1257.155318,7254.018232,-7105.977043,766.095498
1257.155648,6883.915261,-6661.853478,995.924147
1257.155977,7179.997637,-7031.956449,842.705048
1257.156306,6735.874072,-7328.038826,1225.752797
1257.156636,6439.791695,-7920.203579,1532.190996
1257.156965,6439.791695,-7328.038826,1608.800546
1257.157294,7031.956449,-6587.832884,842.705048
1257.157624,6439.791695,-6809.894666,383.047749
1257.157953,6291.750507,-6809.894666,536.266849
1257.158282,6143.709319,-7105.977043,306.438199
1257.158612,5921.647536,-6883.915261,1149.143247
1257.158941,6217.729913,-6291.750507,1225.752797
1257.159270,7031.956449,-6365.771101,1838.629195
1257.159600,7328.038826,-6143.709319,1838.629195
1257.159929,7772.162391,-5551.544565,1302.362347
1257.160258,8142.265362,-5403.503377,1532.190996
1257.160588,8216.285956,-4737.318029,1378.971896
1257.160917,8882.471304,-5255.462188,689.485948
1257.161246,8438.347739,-5107.421000,1149.143247
1257.161576,8068.244768,-5329.482782,842.705048
1257.161905,7698.141797,-5255.462188,995.924147
1257.162234,7254.018232,-6217.729913,536.266849
1257.162564,6957.935855,-7476.080014,1302.362347
1257.162893,6365.771101,-7698.141797,1149.143247
1257.163222,5625.565159,-8364.327145,229.828649
1257.163552,4811.338623,-8734.430116,0.000000
1257.163881,4293.194464,-8512.368333,-306.438199
1257.164210,4959.379811,-9252.574275,-229.828649
1257.164540,5625.565159,-7920.203579,76.609550
1257.164869,6291.750507,-7105.977043,766.095498
1257.165198,7031.956449,-5921.647536,1072.533697
1257.165528,8586.388927,-5255.462188,1455.581446
1257.165857,9030.512492,-4441.235652,1915.238745
1257.166186,8882.471304,-4367.215058,1838.629195
1257.166516,9326.594869,-4515.256246,2068.457845
1257.166845,9104.533087,-3849.070898,1455.581446
1257.167174,8512.368333,-5107.421000,995.924147
1257.167504,7698.141797,-5995.668130,1455.581446
1257.167833,7105.977043,-6661.853478,612.876398
1257.168162,6513.812290,-6439.791695,919.314598
1257.168492,6291.750507,-6957.935855,842.705048
1257.168821,6587.832884,-7105.977043,919.314598
1257.169150,6513.812290,-7920.203579,1532.190996
1257.169480,6291.750507,-7031.956449,1378.971896
1257.169809,6291.750507,-6735.874072,536.266849
1257.170138,6661.853478,-7105.977043,1302.362347
1257.170468,6809.894666,-6587.832884,612.876398
1257.170797,6587.832884,-6883.915261,229.828649
1257.171126,5847.626942,-6439.791695,153.219100
1257.171456,6069.688724,-7105.977043,153.219100
1257.171785,7105.977043,-7179.997637,995.924147
1257.172114,7031.956449,-7328.038826,1302.362347
1257.172444,6883.915261,-8216.285956,1455.581446
1257.172773,7179.997637,-7105.977043,1762.019645
1257.173102,7550.100608,-6809.894666,1455.581446
1257.173432,7624.121203,-6365.771101,1455.581446
1257.173761,7994.224174,-5181.441594,1532.190996
1257.174091,7698.141797,-4367.215058,1225.752797
1257.174420,7624.121203,-3997.112087,766.095498
1257.174749,6661.853478,-5107.421000,1149.143247
1257.175079,6587.832884,-5921.647536,1072.533697
1257.175408,6365.771101,-6587.832884,995.924147
1257.175737,5477.523971,-6439.791695,995.924147
1257.176067,5403.503377,-8068.244768,842.705048
1257.176396,5625.565159,-8882.471304,919.314598
1257.176725,5847.626942,-8586.388927,76.609550
1257.177055,6143.709319,-8660.409521,306.438199
1257.177384,6217.729913,-7550.100608,612.876398
1257.177713,7105.977043,-7402.059420,536.266849
1257.178043,7402.059420,-6883.915261,1455.581446
1257.178372,7772.162391,-5477.523971,1838.629195
1257.178701,8438.347739,-5107.421000,2451.505594
1257.179031,8586.388927,-4219.173869,2145.067394
1257.179360,8290.306550,-4515.256246,1915.238745
1257.179689,7698.141797,-4885.359217,1378.971896
1257.180019,7402.059420,-4811.338623,229.828649
1257.180348,6735.874072,-5699.585753,0.000000
1257.180677,7031.956449,-6365.771101,536.266849
1257.181007,6957.935855,-7698.141797,1149.143247
1257.181336,6809.894666,-7994.224174,1378.971896
1257.181665,6069.688724,-7772.162391,1532.190996
1257.181995,6069.688724,-8438.347739,1685.410096
1257.182324,6365.771101,-8290.306550,1302.362347
1257.182653,6291.750507,-8142.265362,1225.752797
1257.182983,5921.647536,-7105.977043,766.095498
1257.183312,5847.626942,-6365.771101,536.266849
1257.183641,6439.791695,-5699.585753,536.266849
1257.183971,6661.853478,-6217.729913,229.828649
1257.184300,7031.956449,-6809.894666,842.705048
1257.184629,7328.038826,-6217.729913,536.266849
1257.184959,6883.915261,-6291.750507,1072.533697
1257.185288,7105.977043,-6513.812290,1378.971896
1257.185617,7624.121203,-6957.935855,1532.190996
1257.185947,8364.327145,-6883.915261,1685.410096
1257.186276,8660.409521,-5699.585753,2221.676944
1257.186605,8216.285956,-5921.647536,1149.143247
1257.186935,7920.203579,-5477.523971,919.314598
1257.187264,7624.121203,-5033.400406,1302.362347
1257.187593,6957.935855,-5551.544565,1072.533697
1257.187923,6217.729913,-5033.400406,1378.971896
1257.188252,6069.688724,-5699.585753,1072.533697
1257.188581,6143.709319,-6513.812290,1072.533697
1257.188911,5773.606348,-6957.935855,689.485948
1257.189240,5625.565159,-8068.244768,766.095498
1257.189569,5773.606348,-7624.121203,0.000000
1257.189899,6439.791695,-7846.182985,76.609550
1257.190228,7031.956449,-8290.306550,459.657299
1257.190557,6957.935855,-8290.306550,229.828649
1257.190887,7254.018232,-7476.080014,612.876398
1257.191216,7328.038826,-7031.956449,459.657299
1257.191545,7698.141797,-7105.977043,1455.581446
1257.191875,8142.265362,-6513.812290,1608.800546
1257.192204,8290.306550,-5773.606348,1149.143247
1257.192533,6957.935855,-5403.503377,1225.752797
1257.192863,7031.956449,-4737.318029,1225.752797
1257.193192,7179.997637,-4959.379811,842.705048
1257.193521,7476.080014,-5551.544565,766.095498
1257.193851,7328.038826,-5921.647536,1608.800546
1257.194180,7179.997637,-6439.791695,1225.752797
1257.194509,7328.038826,-6513.812290,1532.190996
1257.194839,7179.997637,-7179.997637,1608.800546
1257.195168,6883.915261,-7476.080014,1608.800546
1257.195497,6513.812290,-7698.141797,1685.410096
1257.195827,5995.668130,-7550.100608,306.438199
1257.196156,5625.565159,-7254.018232,306.438199
1257.196485,5255.462188,-7105.977043,153.219100
1257.196815,6439.791695,-7179.997637,153.219100
1257.197144,6291.750507,-7031.956449,842.705048
1257.197473,6291.750507,-6883.915261,689.485948
1257.197803,6513.812290,-6735.874072,689.485948
1257.198132,7031.956449,-6809.894666,1225.752797
1257.198461,7105.977043,-6439.791695,1378.971896
1257.198791,7624.121203,-5921.647536,1378.971896
1257.199120,8586.388927,-4737.318029,1455.581446
1257.199449,9326.594869,-5033.400406,1378.971896
1257.199779,9104.533087,-4367.215058,2298.286494
1257.200108,8364.327145,-4367.215058,1149.143247
1257.200438,7920.203579,-5181.441594,1532.190996
1257.200767,6809.894666,-5255.462188,1225.752797
1257.201096,5773.606348,-7031.956449,1302.362347
1257.201426,6069.688724,-7105.977043,919.314598
1257.201755,5551.544565,-7772.162391,1072.533697
1257.202084,5033.400406,-8364.327145,612.876398
1257.202414,5107.421000,-8734.430116,536.266849
1257.202743,5107.421000,-8216.285956,612.876398
1257.203072,6069.688724,-7994.224174,0.000000
1257.203402,6513.812290,-8142.265362,229.828649
1257.203731,6883.915261,-7105.977043,612.876398
1257.204060,7328.038826,-7105.977043,842.705048
1257.204390,7698.141797,-5403.503377,2298.286494
1257.204719,8512.368333,-5625.565159,1762.019645
1257.205048,8882.471304,-5773.606348,1915.238745
1257.205378,8438.347739,-4885.359217,1608.800546
1257.205707,7920.203579,-5033.400406,995.924147
1257.206036,7476.080014,-5033.400406,995.924147
1257.206366,7254.018232,-5699.585753,612.876398
1257.206695,7031.956449,-6439.791695,919.314598
1257.207024,6587.832884,-6513.812290,1149.143247
1257.207354,6513.812290,-6661.853478,1072.533697
1257.207683,7105.977043,-6661.853478,1762.019645
1257.208012,7105.977043,-6735.874072,1838.629195
1257.208342,6661.853478,-7105.977043,1378.971896
1257.208671,6587.832884,-6587.832884,1072.533697
1257.209000,7179.997637,-6365.771101,383.047749
1257.209330,6217.729913,-6735.874072,0.000000
1257.209659,6143.709319,-7254.018232,459.657299
1257.209988,6365.771101,-8438.347739,459.657299
1257.210318,5995.668130,-7920.203579,459.657299
1257.210647,6291.750507,-7179.997637,1378.971896
1257.210976,6809.894666,-7402.059420,1532.190996
1257.211306,7254.018232,-6883.915261,1532.190996
1257.211635,7698.141797,-6217.729913,1685.410096
1257.211964,7920.203579,-5403.503377,995.924147
1257.212294,8364.327145,-5181.441594,1378.971896
1257.212623,8364.327145,-5033.400406,995.924147
1257.212952,7328.038826,-5329.482782,919.314598
1257.213282,7624.121203,-5181.441594,689.485948
1257.213611,7624.121203,-5551.544565,995.924147
1257.213940,6291.750507,-7328.038826,1302.362347
1257.214270,5847.626942,-7624.121203,1532.190996
1257.214599,5921.647536,-7476.080014,1072.533697
1257.214928,5921.647536,-8142.265362,842.705048
1257.215258,6143.709319,-8660.409521,536.266849
1257.215587,5477.523971,-9178.553681,229.828649
1257.215916,5773.606348,-8068.244768,0.000000
1257.216246,5921.647536,-7624.121203,229.828649
1257.216575,6661.853478,-7254.018232,1685.410096
1257.216904,7254.018232,-5921.647536,1532.190996
1257.217234,7920.203579,-5477.523971,2145.067394
1257.217563,8290.306550,-4589.276840,1838.629195
1257.217892,7994.224174,-4293.194464,1455.581446
1257.218222,8512.368333,-4071.132681,1149.143247
1257.218551,8364.327145,-4515.256246,1072.533697
1257.218880,7994.224174,-5921.647536,1072.533697
1257.219210,7179.997637,-6365.771101,459.657299
1257.219539,6957.935855,-6809.894666,459.657299
1257.219868,7105.977043,-7254.018232,919.314598
1257.220198,6957.935855,-7698.141797,1149.143247
1257.220527,6513.812290,-7550.100608,1302.362347
1257.220856,6661.853478,-6957.935855,612.876398
1257.221186,6365.771101,-8068.244768,842.705048
1257.221515,5847.626942,-7550.100608,842.705048
1257.221844,6069.688724,-7254.018232,229.828649
1257.222174,6143.709319,-7254.018232,459.657299
1257.222503,6513.812290,-7179.997637,612.876398
1257.222832,6365.771101,-7550.100608,612.876398
1257.223162,6661.853478,-7105.977043,383.047749
1257.223491,7105.977043,-6735.874072,1149.143247
1257.223820,7254.018232,-6587.832884,1532.190996
1257.224150,7476.080014,-5625.565159,2451.505594
1257.224479,7772.162391,-5921.647536,1838.629195
1257.224808,8364.327145,-4811.338623,1378.971896
1257.225138,8290.306550,-4515.256246,1225.752797
1257.225467,8068.244768,-5255.462188,1532.190996
1257.225797,8216.285956,-4367.215058,842.705048
1257.226126,7550.100608,-4589.276840,612.876398
1257.226455,7105.977043,-5625.565159,459.657299
1257.226785,6513.812290,-6883.915261,1302.362347
1257.227114,6439.791695,-7179.997637,1072.533697
1257.227443,6143.709319,-7550.100608,766.095498
1257.227773,5773.606348,-8216.285956,689.485948
1257.228102,5921.647536,-8512.368333,612.876398
1257.228431,6069.688724,-8364.327145,306.438199
1257.228761,6143.709319,-8364.327145,383.047749
1257.229090,6291.750507,-7550.100608,306.438199
1257.229419,6661.853478,-7105.977043,459.657299
1257.229749,6661.853478,-6513.812290,919.314598
1257.230078,7031.956449,-5921.647536,2068.457845
1257.230407,7772.162391,-5181.441594,1685.410096
1257.230737,8216.285956,-4515.256246,2451.505594
1257.231066,8216.285956,-4663.297435,1608.800546
1257.231395,8142.265362,-4515.256246,1762.019645
1257.231725,7402.059420,-5403.503377,2298.286494
1257.232054,7179.997637,-5477.523971,612.876398
1257.232383,6291.750507,-6291.750507,383.047749
1257.232713,6143.709319,-7476.080014,383.047749
1257.233042,6143.709319,-7920.203579,306.438199
1257.233371,6587.832884,-7698.141797,1685.410096
1257.233701,6735.874072,-7476.080014,1378.971896
1257.234030,6809.894666,-7179.997637,1378.971896
1257.234359,6513.812290,-7105.977043,1072.533697
1257.234689,6365.771101,-7772.162391,1302.362347
1257.235018,6513.812290,-6883.915261,229.828649
1257.235347,6291.750507,-6735.874072,-229.828649
1257.235677,5699.585753,-7254.018232,153.219100
1257.236006,6513.812290,-7179.997637,689.485948
1257.236335,7105.977043,-6809.894666,1072.533697
1257.236665,7254.018232,-6661.853478,1838.629195
1257.236994,7920.203579,-5329.482782,1991.848295
1257.237323,8438.347739,-5181.441594,2374.896044
1257.237653,8882.471304,-4737.318029,1915.238745
1257.237982,8586.388927,-4441.235652,1915.238745
1257.238311,7920.203579,-4589.276840,1149.143247
1257.238641,7254.018232,-4811.338623,842.705048
1257.238970,6809.894666,-5255.462188,536.266849
1257.239299,6661.853478,-6661.853478,842.705048
1257.239629,6365.771101,-7179.997637,1225.752797
1257.239958,6439.791695,-7105.977043,1225.752797
1257.240287,6069.688724,-7550.100608,766.095498
1257.240617,6143.709319,-7328.038826,1608.800546
1257.240946,5699.585753,-8882.471304,306.438199
1257.241275,5773.606348,-8734.430116,0.000000
1257.241605,5921.647536,-7846.182985,-306.438199
1257.241934,6291.750507,-8512.368333,229.828649
1257.242263,6957.935855,-7698.141797,919.314598
1257.242593,7624.121203,-7105.977043,689.485948
1257.242922,7328.038826,-6069.688724,612.876398
1257.243251,7105.977043,-5255.462188,1302.362347
1257.243581,7920.203579,-4885.359217,1378.971896
1257.243910,8068.244768,-4589.276840,1762.019645
1257.244239,7846.182985,-4663.297435,1378.971896
1257.244569,7994.224174,-4811.338623,842.705048
1257.244898,7105.977043,-5477.523971,1149.143247
1257.245227,7994.224174,-5403.503377,612.876398
1257.245557,7550.100608,-6069.688724,842.705048
1257.245886,7402.059420,-6143.709319,1685.410096
1257.246215,6883.915261,-6957.935855,1149.143247
1257.246545,6735.874072,-7031.956449,1302.362347
1257.246874,6809.894666,-7698.141797,2145.067394
1257.247203,6439.791695,-7624.121203,766.095498
1257.247533,6143.709319,-7031.956449,842.705048
1257.247862,5773.606348,-7476.080014,612.876398
1257.248191,5625.565159,-7624.121203,459.657299
1257.248521,5847.626942,-7328.038826,76.609550
1257.248850,5995.668130,-7328.038826,0.000000
1257.249179,6439.791695,-7254.018232,229.828649
1257.249509,6587.832884,-7105.977043,842.705048
1257.249838,7105.977043,-7031.956449,1072.533697
1257.250167,7031.956449,-6883.915261,1838.629195
1257.250497,7772.162391,-5921.647536,2068.457845
1257.250826,8660.409521,-5403.503377,1838.629195
1257.251155,8586.388927,-4663.297435,1915.238745
1257.251485,8216.285956,-4663.297435,1532.190996
1257.251814,7550.100608,-4589.276840,1072.533697
1257.252143,6883.915261,-4737.318029,689.485948
1257.252473,6513.812290,-5699.585753,842.705048
1257.252802,7476.080014,-5995.668130,1072.533697
1257.253131,6735.874072,-7476.080014,1915.238745
1257.253461,6439.791695,-8364.327145,1608.800546
1257.253790,5773.606348,-8512.368333,766.095498
1257.254119,4885.359217,-8586.388927,-153.219100
1257.254449,5181.441594,-8512.368333,0.000000
1257.254778,6069.688724,-7624.121203,76.609550
1257.255107,6957.935855,-7846.182985,536.266849
1257.255437,7624.121203,-7476.080014,1072.533697
1257.255766,7920.203579,-6365.771101,842.705048
1257.256095,7846.182985,-5847.626942,919.314598
1257.256425,7179.997637,-5921.647536,1915.238745
1257.256754,7846.182985,-5403.503377,2068.457845
1257.257083,8438.347739,-4737.318029,1455.581446
1257.257413,8290.306550,-4145.153275,1838.629195
1257.257742,8290.306550,-4367.215058,1302.362347
1257.258071,7846.182985,-5329.482782,689.485948
1257.258401,6957.935855,-5921.647536,459.657299
1257.258730,6217.729913,-6587.832884,153.219100
1257.259059,5329.482782,-7328.038826,1225.752797
1257.259389,6365.771101,-8068.244768,1532.190996
1257.259718,6587.832884,-8068.244768,1915.238745
1257.260047,6439.791695,-7772.162391,1762.019645
1257.260377,5995.668130,-7402.059420,1608.800546
1257.260706,5699.585753,-7328.038826,612.876398
1257.261035,5033.400406,-7328.038826,-459.657299
1257.261365,4959.379811,-7179.997637,0.000000
1257.261694,5625.565159,-7550.100608,0.000000
1257.262023,6513.812290,-6735.874072,383.047749
1257.262353,7105.977043,-6365.771101,1149.143247
1257.262682,7624.121203,-6439.791695,1532.190996
1257.263011,8068.244768,-5773.606348,1149.143247
1257.263341,8290.306550,-5921.647536,1455.581446
1257.263670,8586.388927,-5625.565159,2068.457845
1257.263999,8808.450710,-4515.256246,1378.971896
1257.264329,9030.512492,-4663.297435,1302.362347
1257.264658,8438.347739,-4367.215058,1455.581446
1257.264987,7698.141797,-4145.153275,1378.971896
1257.265317,6809.894666,-5329.482782,1149.143247
1257.265646,6809.894666,-5995.668130,842.705048
1257.265975,6217.729913,-7031.956449,995.924147
1257.266305,6143.709319,-7179.997637,1302.362347
1257.266634,5773.606348,-8068.244768,1302.362347
1257.266963,5551.544565,-8216.285956,766.095498
1257.267293,5255.462188,-8364.327145,0.000000
1257.267622,5847.626942,-8364.327145,76.609550
1257.267951,6883.915261,-7772.162391,383.047749
1257.268281,6809.894666,-7698.141797,459.657299
1257.268610,7105.977043,-6439.791695,1149.143247
1257.268939,7846.182985,-5921.647536,919.314598
1257.269269,7994.224174,-5699.585753,1608.800546
1257.269598,7846.182985,-5625.565159,1991.848295
1257.269927,7994.224174,-5551.544565,1455.581446
1257.270257,7994.224174,-5033.400406,1072.533697
1257.270586,7994.224174,-5625.565159,842.705048
1257.270915,7920.203579,-6069.688724,689.485948
1257.271245,7698.141797,-6439.791695,995.924147
1257.271574,7105.977043,-6661.853478,229.828649
1257.271903,6365.771101,-7105.977043,1072.533697
1257.272233,6587.832884,-7328.038826,1302.362347
1257.272562,6365.771101,-8142.265362,2298.286494
1257.272891,6217.729913,-7846.182985,1302.362347
1257.273221,6069.688724,-7105.977043,919.314598
1257.273550,6291.750507,-7031.956449,383.047749
1257.273879,6365.771101,-6587.832884,536.266849
1257.274209,6661.853478,-5995.668130,229.828649
1257.274538,6513.812290,-6143.709319,383.047749
1257.274867,7105.977043,-5921.647536,842.705048
1257.275197,7476.080014,-6439.791695,1149.143247
1257.275526,7179.997637,-6957.935855,1455.581446
1257.275855,6661.853478,-7254.018232,1991.848295
1257.276184,7105.977043,-6661.853478,995.924147
1257.276514,7179.997637,-6735.874072,842.705048
1257.276843,7698.141797,-6217.729913,1225.752797
1257.277172,8438.347739,-6291.750507,1991.848295
1257.277502,7772.162391,-5699.585753,1225.752797
1257.277831,7105.977043,-4811.338623,766.095498
1257.278160,6661.853478,-4959.379811,842.705048
1257.278490,6661.853478,-5403.503377,612.876398
1257.278819,6513.812290,-6365.771101,1685.410096
1257.279148,6883.915261,-6957.935855,1991.848295
1257.279478,6587.832884,-7031.956449,1608.800546
1257.279807,6661.853478,-7402.059420,1532.190996
1257.280136,6291.750507,-7254.018232,689.485948
1257.280466,5921.647536,-7476.080014,153.219100
1257.280795,6217.729913,-7254.018232,459.657299
1257.281124,7031.956449,-7105.977043,919.314598
1257.281454,7402.059420,-6587.832884,1149.143247
1257.281783,7920.203579,-5625.565159,1685.410096
1257.282112,7550.100608,-5921.647536,1915.238745
1257.282442,7105.977043,-5995.668130,1532.190996
1257.282771,6809.894666,-5921.647536,1225.752797
1257.283100,6069.688724,-5773.606348,1302.362347
1257.283430,7105.977043,-5477.523971,383.047749
1257.283759,7105.977043,-5995.668130,612.876398
1257.284088,7031.956449,-6513.812290,919.314598
1257.284418,7179.997637,-7031.956449,689.485948
1257.284747,7624.121203,-6439.791695,766.095498
1257.285076,7105.977043,-7624.121203,995.924147
1257.285406,7105.977043,-8364.327145,1838.629195
1257.285735,7105.977043,-7476.080014,1685.410096
1257.286064,6439.791695,-8068.244768,1149.143247
1257.286394,6439.791695,-7328.038826,689.485948
1257.286723,5773.606348,-7179.997637,306.438199
1257.287052,5625.565159,-7402.059420,76.609550
1257.287382,5625.565159,-6439.791695,153.219100
1257.287711,5921.647536,-6439.791695,153.219100
1257.288040,6735.874072,-6587.832884,536.266849
1257.288370,7254.018232,-7105.977043,1302.362347
1257.288699,7179.997637,-7031.956449,1685.410096
1257.289028,7994.224174,-6069.688724,1455.581446
1257.289358,8216.285956,-5255.462188,2987.772442
1257.289687,8660.409521,-5773.606348,1685.410096
1257.290016,8438.347739,-5033.400406,1455.581446
1257.290346,8290.306550,-4737.318029,1225.752797
1257.290675,8438.347739,-4811.338623,1532.190996
1257.291004,7846.182985,-4959.379811,1225.752797
1257.291334,6365.771101,-5995.668130,995.924147
1257.291663,6217.729913,-6957.935855,1225.752797
1257.291992,6439.791695,-7254.018232,1072.533697
1257.292322,5995.668130,-7105.977043,689.485948
1257.292651,5551.544565,-7772.162391,995.924147
1257.292980,6291.750507,-7402.059420,306.438199
1257.293310,6439.791695,-7624.121203,153.219100
1257.293639,6587.832884,-7328.038826,459.657299
1257.293968,6513.812290,-7031.956449,536.266849
1257.294298,7105.977043,-7402.059420,842.705048
1257.294627,7476.080014,-5773.606348,1149.143247
1257.294956,7402.059420,-6143.709319,1685.410096
1257.295286,8290.306550,-5477.523971,1762.019645
1257.295615,7772.162391,-5551.544565,2068.457845
1257.295944,7698.141797,-5477.523971,1762.019645
1257.296274,7624.121203,-4737.318029,766.095498
1257.296603,7254.018232,-5625.565159,842.705048
1257.296932,7550.100608,-5995.668130,689.485948
1257.297262,6587.832884,-6587.832884,919.314598
1257.297591,6365.771101,-6439.791695,459.657299
1257.297920,6513.812290,-6217.729913,536.266849
1257.298250,7254.018232,-7624.121203,919.314598
1257.298579,7031.956449,-8808.450710,1838.629195
1257.298908,6809.894666,-8364.327145,995.924147
1257.299238,6069.688724,-7476.080014,229.828649
1257.299567,5551.544565,-7105.977043,0.000000
1257.299896,5995.668130,-7105.977043,766.095498
1257.300226,6883.915261,-6883.915261,536.266849
1257.300555,6883.915261,-6957.935855,689.485948
1257.300884,6809.894666,-6143.709319,1455.581446
1257.301214,6735.874072,-6365.771101,842.705048
1257.301543,6957.935855,-6143.709319,1685.410096
1257.301872,8142.265362,-6217.729913,1838.629195
1257.302202,8142.265362,-5773.606348,1608.800546
1257.302531,8142.265362,-4959.379811,1608.800546
1257.302860,8438.347739,-5033.400406,919.314598
1257.303190,8290.306550,-5255.462188,1149.143247
1257.303519,7772.162391,-5181.441594,1302.362347
1257.303848,6809.894666,-6217.729913,766.095498
1257.304178,6217.729913,-6217.729913,766.095498
1257.304507,5403.503377,-7105.977043,842.705048
1257.304836,5773.606348,-7550.100608,995.924147
1257.305166,5847.626942,-8142.265362,383.047749
1257.305495,5995.668130,-7846.182985,995.924147
1257.305824,5329.482782,-7402.059420,919.314598
1257.306154,6661.853478,-7846.182985,459.657299
1257.306483,7328.038826,-6587.832884,306.438199
1257.306812,7550.100608,-7031.956449,306.438199
1257.307142,7476.080014,-6513.812290,766.095498
1257.307471,8290.306550,-5921.647536,1302.362347
1257.307800,7550.100608,-6957.935855,1302.362347
1257.308130,7476.080014,-5699.585753,1302.362347
1257.308459,7550.100608,-6513.812290,1685.410096
1257.308788,7846.182985,-5921.647536,1991.848295
1257.309118,7550.100608,-5181.441594,995.924147
1257.309447,6957.935855,-5625.565159,766.095498
1257.309776,6957.935855,-5699.585753,842.705048
1257.310105,7105.977043,-6513.812290,1149.143247
1257.310435,6439.791695,-6587.832884,1225.752797
1257.310764,5921.647536,-7105.977043,1378.971896
1257.311093,6291.750507,-7179.997637,1762.019645
1257.311423,6661.853478,-7846.182985,1455.581446
1257.311752,6661.853478,-7698.141797,1838.629195
1257.312081,6809.894666,-7328.038826,919.314598
1257.312411,6513.812290,-7105.977043,306.438199
1257.312740,5921.647536,-6587.832884,0.000000
1257.313069,5699.585753,-7031.956449,76.609550
1257.313399,6069.688724,-6735.874072,919.314598
1257.313728,6809.894666,-6735.874072,612.876398
1257.314057,6587.832884,-6587.832884,919.314598
1257.314387,7031.956449,-6661.853478,1378.971896
1257.314716,8068.244768,-6513.812290,1762.019645
1257.315045,7994.224174,-5995.668130,2451.505594
1257.315375,7994.224174,-5477.523971,1991.848295
1257.315704,7772.162391,-5107.421000,1378.971896
1257.316033,7994.224174,-4737.318029,1072.533697
1257.316363,7402.059420,-4811.338623,689.485948
1257.316692,7105.977043,-5773.606348,1225.752797
1257.317021,7105.977043,-5773.606348,1072.533697
1257.317351,6365.771101,-6217.729913,1302.362347
1257.317680,6069.688724,-7402.059420,1072.533697
1257.318009,6217.729913,-7105.977043,1149.143247
1257.318339,6365.771101,-8290.306550,1149.143247
1257.318668,5403.503377,-8068.244768,306.438199
1257.318997,5625.565159,-7105.977043,0.000000
1257.319327,6439.791695,-7550.100608,229.828649
1257.319656,8142.265362,-7105.977043,1072.533697
1257.319985,7328.038826,-6883.915261,1149.143247
1257.320315,7179.997637,-6661.853478,1072.533697
1257.320644,7402.059420,-5921.647536,919.314598
1257.320973,7772.162391,-5995.668130,1149.143247
1257.321303,7550.100608,-5995.668130,1608.800546
1257.321632,7772.162391,-5847.626942,1762.019645
1257.321961,8068.244768,-4885.359217,766.095498
1257.322291,7698.141797,-4885.359217,1149.143247
1257.322620,8142.265362,-5847.626942,1149.143247
1257.322949,7476.080014,-5921.647536,1302.362347
1257.323279,7254.018232,-6735.874072,1302.362347
1257.323608,6513.812290,-6439.791695,1072.533697
1257.323937,6439.791695,-6957.935855,612.876398
1257.324267,7179.997637,-8216.285956,1991.848295
1257.324596,6661.853478,-7846.182985,1762.019645
1257.324925,5921.647536,-7772.162391,1149.143247
1257.325255,5699.585753,-7031.956449,842.705048
1257.325584,6069.688724,-7254.018232,383.047749
1257.325913,5847.626942,-7402.059420,0.000000
1257.326243,5625.565159,-7550.100608,383.047749
1257.326572,6143.709319,-7179.997637,153.219100
1257.326901,6809.894666,-6735.874072,536.266849
1257.327231,7031.956449,-6587.832884,1225.752797
1257.327560,7698.141797,-7105.977043,1608.800546
1257.327889,8512.368333,-6661.853478,2145.067394
1257.328219,8364.327145,-5477.523971,1685.410096
1257.328548,7994.224174,-4515.256246,1455.581446
1257.328877,7920.203579,-4737.318029,995.924147
1257.329207,8142.265362,-4515.256246,919.314598
1257.329536,7698.141797,-4959.379811,1149.143247
1257.329865,7179.997637,-4959.379811,1455.581446
1257.330195,7179.997637,-5477.523971,919.314598
1257.330524,7105.977043,-6439.791695,1455.581446
1257.330853,6809.894666,-7105.977043,1455.581446
1257.331183,6291.750507,-7772.162391,1072.533697
1257.331512,5773.606348,-7698.141797,536.266849
1257.331841,5699.585753,-8142.265362,0.000000
1257.332171,5773.606348,-8438.347739,459.657299
1257.332500,6883.915261,-7846.182985,612.876398
1257.332829,7105.977043,-7550.100608,1302.362347
1257.333159,6587.832884,-6143.709319,919.314598
1257.333488,6883.915261,-6439.791695,1378.971896
1257.333817,7402.059420,-6143.709319,1378.971896
1257.334147,7846.182985,-5773.606348,1762.019645
1257.334476,8068.244768,-4885.359217,766.095498
1257.334805,8068.244768,-4367.215058,1225.752797
1257.335135,8808.450710,-5329.482782,1149.143247
1257.335464,8364.327145,-5699.585753,689.485948
1257.335793,7698.141797,-6291.750507,1149.143247
1257.336123,7476.080014,-6291.750507,842.705048
1257.336452,6735.874072,-7105.977043,536.266849
1257.336781,6217.729913,-7846.182985,1225.752797
1257.337111,6291.750507,-8290.306550,1149.143247
1257.337440,6069.688724,-8438.347739,1608.800546
1257.337769,5921.647536,-7698.141797,1225.752797
1257.338099,5403.503377,-7402.059420,612.876398
1257.338428,5403.503377,-7254.018232,153.219100
1257.338757,5625.565159,-6957.935855,-229.828649
1257.339087,5995.668130,-6587.832884,766.095498
1257.339416,6957.935855,-7105.977043,306.438199
1257.339745,7031.956449,-6809.894666,1149.143247
1257.340075,6809.894666,-6809.894666,1149.143247
1257.340404,7105.977043,-7031.956449,1302.362347
1257.340733,7698.141797,-6661.853478,2068.457845
1257.341063,7772.162391,-6513.812290,1378.971896
1257.341392,8068.244768,-5773.606348,1532.190996
1257.341721,8290.306550,-5033.400406,1378.971896
1257.342051,7994.224174,-4811.338623,842.705048
1257.342380,7624.121203,-5033.400406,1225.752797
1257.342709,7254.018232,-5625.565159,1072.533697
1257.343039,6809.894666,-5995.668130,1302.362347
1257.343368,7105.977043,-6439.791695,1378.971896
1257.343697,7105.977043,-6291.750507,1762.019645
1257.344027,6587.832884,-7105.977043,1149.143247
1257.344356,5699.585753,-7698.141797,842.705048
1257.344685,6217.729913,-7402.059420,536.266849
1257.345014,7031.956449,-7698.141797,76.609550
1257.345344,6735.874072,-7105.977043,842.705048
1257.345673,6735.874072,-7550.100608,766.095498
1257.346002,7031.956449,-7031.956449,1225.752797
1257.346332,7254.018232,-6291.750507,1149.143247
1257.346661,7105.977043,-5551.544565,1838.629195
1257.346990,7550.100608,-6217.729913,1838.629195
1257.347320,7402.059420,-6069.688724,1302.362347
1257.347649,7254.018232,-5625.565159,459.657299
1257.347978,7105.977043,-5699.585753,842.705048
1257.348308,7328.038826,-5921.647536,1225.752797
1257.348637,7402.059420,-6291.750507,1532.190996
1257.348966,6883.915261,-6217.729913,919.314598
1257.349296,6217.729913,-7105.977043,459.657299
1257.349625,6587.832884,-7624.121203,1685.410096
1257.349954,7105.977043,-7846.182985,1149.143247
1257.350283,6957.935855,-7624.121203,1685.410096
1257.350613,6513.812290,-7476.080014,995.924147
1257.350942,6735.874072,-6587.832884,842.705048
1257.351271,6143.709319,-6365.771101,766.095498
1257.351600,6069.688724,-6735.874072,536.266849
1257.351929,6735.874072,-6883.915261,842.705048
1257.352258,6957.935855,-6809.894666,689.485948
1257.352588,6661.853478,-7031.956449,766.095498
1257.352917,6439.791695,-7105.977043,1225.752797
1257.353246,6661.853478,-7031.956449,1532.190996
1257.353575,7254.018232,-5921.647536,1608.800546
1257.353904,7994.224174,-5477.523971,1685.410096
1257.354234,8586.388927,-5181.441594,2145.067394
1257.354563,8364.327145,-5921.647536,1072.533697
1257.354892,7179.997637,-5551.544565,842.705048
1257.355221,6513.812290,-5551.544565,459.657299
1257.355550,6439.791695,-6587.832884,689.485948
1257.355879,6217.729913,-6143.709319,1838.629195
1257.356209,6513.812290,-6957.935855,1378.971896
1257.356538,6513.812290,-6735.874072,1072.533697
1257.356867,6143.709319,-6809.894666,536.266849
1257.357196,6365.771101,-7624.121203,0.000000
1257.357525,5921.647536,-7254.018232,536.266849
1257.357855,6365.771101,-7772.162391,0.000000
1257.358184,6587.832884,-7476.080014,0.000000
1257.358513,6365.771101,-7698.141797,306.438199
1257.358842,7254.018232,-7254.018232,1378.971896
1257.359171,7994.224174,-6439.791695,1991.848295
1257.359501,8364.327145,-5995.668130,2068.457845
1257.359830,7772.162391,-5477.523971,2068.457845
1257.360159,7698.141797,-5033.400406,1762.019645
1257.360488,8142.265362,-5255.462188,2145.067394
1257.360817,7772.162391,-4959.379811,1225.752797
1257.361146,7402.059420,-4959.379811,689.485948
1257.361476,7105.977043,-5625.565159,766.095498
1257.361805,7031.956449,-5921.647536,1149.143247
1257.362134,6883.915261,-6587.832884,919.314598
1257.362463,6809.894666,-6883.915261,1302.362347
1257.362792,6883.915261,-7254.018232,1225.752797
1257.363122,6809.894666,-7328.038826,1455.581446
1257.363451,6439.791695,-7105.977043,1302.362347
1257.363780,6217.729913,-7179.997637,995.924147
1257.364109,6143.709319,-7254.018232,306.438199
1257.364438,6291.750507,-7550.100608,153.219100
1257.364767,6439.791695,-7179.997637,0.000000
1257.365097,7031.956449,-7550.100608,919.314598
1257.365426,6661.853478,-6735.874072,612.876398
1257.365755,6513.812290,-7105.977043,995.924147
1257.366084,6587.832884,-6661.853478,1532.190996
1257.366413,7550.100608,-5477.523971,1838.629195
1257.366743,7772.162391,-5329.482782,1225.752797
1257.367072,7846.182985,-5033.400406,995.924147
1257.367401,7624.121203,-5329.482782,842.705048
1257.367730,7772.162391,-5107.421000,995.924147
1257.368059,7920.203579,-5625.565159,919.314598
1257.368388,7402.059420,-5995.668130,1149.143247
1257.368718,7105.977043,-5773.606348,1455.581446
1257.369047,6957.935855,-7105.977043,1532.190996
1257.369376,6661.853478,-7105.977043,2221.676944
1257.369705,6291.750507,-7846.182985,995.924147
1257.370034,5699.585753,-8290.306550,842.705048
1257.370364,5255.462188,-7994.224174,76.609550
1257.370693,5699.585753,-8364.327145,0.000000
1257.371022,6365.771101,-7105.977043,995.924147
1257.371351,7105.977043,-7105.977043,919.314598
1257.371680,7624.121203,-6809.894666,689.485948
1257.372010,7624.121203,-5403.503377,995.924147
1257.372339,7772.162391,-5107.421000,689.485948
1257.372668,7550.100608,-5995.668130,1455.581446
1257.372997,7846.182985,-6143.709319,1455.581446
1257.373326,7920.203579,-5403.503377,1225.752797
1257.373655,8142.265362,-5107.421000,995.924147
1257.373985,8290.306550,-5181.441594,1225.752797
1257.374314,7624.121203,-5847.626942,1149.143247
1257.374643,7105.977043,-6439.791695,1685.410096
1257.374972,6365.771101,-6587.832884,919.314598
1257.375301,5995.668130,-7328.038826,1072.533697
1257.375631,5995.668130,-7031.956449,1072.533697
1257.375960,5921.647536,-7772.162391,1532.190996
1257.376289,5921.647536,-7698.141797,995.924147
1257.376618,5477.523971,-7476.080014,689.485948
1257.376947,5625.565159,-6365.771101,0.000000
1257.377276,5995.668130,-7254.018232,76.609550
1257.377606,6513.812290,-7179.997637,306.438199
1257.377935,6439.791695,-7105.977043,76.609550
1257.378264,7031.956449,-7179.997637,995.924147
1257.378593,6513.812290,-6957.935855,766.095498
1257.378922,6957.935855,-7179.997637,1225.752797
1257.379252,7402.059420,-7031.956449,2145.067394
1257.379581,7698.141797,-5921.647536,1608.800546
1257.379910,7698.141797,-5255.462188,1991.848295
1257.380239,7624.121203,-4663.297435,1608.800546
1257.380568,8364.327145,-4737.318029,1608.800546
1257.380898,8290.306550,-4663.297435,1991.848295
1257.381227,7476.080014,-4737.318029,1302.362347
1257.381556,6587.832884,-5995.668130,0.000000
1257.381885,5773.606348,-6735.874072,995.924147
1257.382214,5921.647536,-7624.121203,1149.143247
1257.382543,5995.668130,-8068.244768,1225.752797
1257.382873,6143.709319,-7698.141797,842.705048
1257.383202,6587.832884,-8364.327145,383.047749
1257.383531,6735.874072,-7994.224174,153.219100
1257.383860,6291.750507,-8290.306550,153.219100
1257.384189,6957.935855,-7476.080014,306.438199
1257.384519,6661.853478,-7254.018232,842.705048
1257.384848,7179.997637,-6291.750507,919.314598
1257.385177,7698.141797,-6587.832884,1455.581446
1257.385506,8512.368333,-5921.647536,2145.067394
1257.385835,8734.430116,-4441.235652,1838.629195
1257.386164,8808.450710,-4589.276840,1072.533697
1257.386494,8438.347739,-3923.091493,1225.752797
1257.386823,8142.265362,-4515.256246,612.876398
1257.387152,7550.100608,-5847.626942,842.705048
1257.387481,7105.977043,-5699.585753,766.095498
1257.387810,6661.853478,-7179.997637,842.705048
1257.388140,6661.853478,-7402.059420,1762.019645
1257.388469,6809.894666,-7624.121203,1302.362347
1257.388798,6143.709319,-7920.203579,1455.581446
1257.389127,6143.709319,-7920.203579,1532.190996
1257.389456,6069.688724,-7624.121203,1072.533697
1257.389786,5699.585753,-7476.080014,536.266849
1257.390115,5625.565159,-6661.853478,0.000000
1257.390444,5995.668130,-6809.894666,459.657299
1257.390773,6513.812290,-7031.956449,383.047749
1257.391102,6513.812290,-7031.956449,612.876398
1257.391431,7105.977043,-6661.853478,1072.533697
1257.391761,7772.162391,-6143.709319,995.924147
1257.392090,7105.977043,-6439.791695,1838.629195
1257.392419,7105.977043,-6883.915261,1072.533697
1257.392748,7179.997637,-6809.894666,766.095498
1257.393077,7698.141797,-6069.688724,689.485948
1257.393407,8216.285956,-5847.626942,1225.752797
1257.393736,8290.306550,-5107.421000,1762.019645
1257.394065,8068.244768,-5551.544565,1072.533697
1257.394394,7105.977043,-5477.523971,1608.800546
1257.394723,6365.771101,-6069.688724,1072.533697
1257.395052,6735.874072,-6513.812290,1149.143247
1257.395382,6513.812290,-7105.977043,1685.410096
1257.395711,6291.750507,-6957.935855,919.314598
1257.396040,5995.668130,-7254.018232,689.485948
1257.396369,6069.688724,-7179.997637,306.438199
1257.396698,7105.977043,-7624.121203,153.219100
1257.397028,6661.853478,-7624.121203,766.095498
1257.397357,6587.832884,-7476.080014,689.485948
1257.397686,6587.832884,-7031.956449,536.266849
1257.398015,7254.018232,-6587.832884,1072.533697
1257.398344,7254.018232,-6439.791695,1685.410096
1257.398673,7698.141797,-5625.565159,1685.410096
1257.399003,7920.203579,-5921.647536,1608.800546
1257.399332,7920.203579,-4885.359217,1225.752797
1257.399661,8068.244768,-5181.441594,1915.238745
1257.399990,7994.224174,-4885.359217,1532.190996
1257.400319,8142.265362,-5329.482782,1072.533697
1257.400649,7476.080014,-5477.523971,766.095498
1257.400978,6809.894666,-5995.668130,536.266849
1257.401307,6883.915261,-7105.977043,689.485948
1257.401636,6365.771101,-7328.038826,1608.800546
1257.401965,6069.688724,-7550.100608,1072.533697
1257.402295,5995.668130,-8068.244768,689.485948
1257.402624,5847.626942,-7105.977043,842.705048
1257.402953,6069.688724,-7476.080014,766.095498
1257.403282,6291.750507,-7105.977043,306.438199
1257.403611,6217.729913,-7698.141797,689.485948
1257.403940,6661.853478,-7328.038826,842.705048
1257.404270,6439.791695,-6809.894666,1455.581446
1257.404599,6291.750507,-7402.059420,1608.800546
1257.404928,7031.956449,-7254.018232,1762.019645
1257.405257,7179.997637,-6439.791695,1378.971896
1257.405586,7254.018232,-6143.709319,1225.752797
1257.405916,7698.141797,-5699.585753,995.924147
1257.406245,7624.121203,-5625.565159,919.314598
1257.406574,7624.121203,-5255.462188,1072.533697
1257.406903,7624.121203,-5477.523971,1225.752797
1257.407232,7624.121203,-5625.565159,689.485948
1257.407561,7031.956449,-6069.688724,1149.143247
1257.407891,6439.791695,-7105.977043,612.876398
1257.408220,6365.771101,-7402.059420,919.314598
1257.408549,6291.750507,-7402.059420,766.095498
1257.408878,6661.853478,-8142.265362,919.314598
1257.409207,6217.729913,-7772.162391,536.266849
1257.409537,6439.791695,-8216.285956,306.438199
1257.409866,6513.812290,-7698.141797,1072.533697
1257.410195,7031.956449,-6809.894666,1455.581446
1257.410524,7179.997637,-6587.832884,1072.533697
1257.410853,7328.038826,-6143.709319,2068.457845
1257.411183,7772.162391,-6291.750507,1838.629195
1257.411512,7920.203579,-5329.482782,1532.190996
1257.411841,7772.162391,-4367.215058,2145.067394
1257.412170,7994.224174,-4737.318029,995.924147
1257.412499,7624.121203,-4811.338623,842.705048
1257.412828,7624.121203,-5403.503377,1225.752797
1257.413158,7550.100608,-5625.565159,1455.581446
1257.413487,7254.018232,-5773.606348,842.705048
1257.413816,6809.894666,-6513.812290,689.485948
1257.414145,6513.812290,-7105.977043,1302.362347
1257.414474,6069.688724,-7846.182985,1302.362347
1257.414804,6291.750507,-7550.100608,842.705048
1257.415133,6143.709319,-7105.977043,842.705048
1257.415462,6143.709319,-7328.038826,766.095498
1257.415791,6291.750507,-6883.915261,229.828649
1257.416120,6365.771101,-7031.956449,459.657299
1257.416449,6439.791695,-7105.977043,612.876398
1257.416779,6291.750507,-7402.059420,229.828649
1257.417108,6513.812290,-7254.018232,766.095498
1257.417437,6587.832884,-7624.121203,1225.752797
1257.417766,6513.812290,-7179.997637,1608.800546
1257.418095,7328.038826,-7031.956449,1302.362347
1257.418425,7550.100608,-6365.771101,1225.752797
1257.418754,7994.224174,-5477.523971,1378.971896
1257.419083,8142.265362,-5033.400406,1225.752797
1257.419412,7920.203579,-4441.235652,1072.533697
1257.419741,7846.182985,-4737.318029,1302.362347
1257.420070,7476.080014,-4811.338623,1149.143247
1257.420400,7328.038826,-5477.523971,1225.752797
1257.420729,7031.956449,-6513.812290,1532.190996
1257.421058,6217.729913,-6809.894666,1149.143247
1257.421387,5773.606348,-7772.162391,842.705048
1257.421716,6217.729913,-8142.265362,459.657299
1257.422046,6291.750507,-7920.203579,-153.219100
1257.422375,6143.709319,-7772.162391,0.000000
1257.422704,6513.812290,-7698.141797,536.266849
1257.423033,7179.997637,-7698.141797,919.314598
1257.423362,7550.100608,-6143.709319,842.705048
1257.423692,7328.038826,-5773.606348,1302.362347
1257.424021,8142.265362,-5995.668130,1302.362347
1257.424350,8586.388927,-5477.523971,1915.238745
1257.424679,8142.265362,-5329.482782,1762.019645
1257.425008,7624.121203,-4885.359217,1378.971896
1257.425337,7328.038826,-4737.318029,1991.848295
1257.425667,7254.018232,-5033.400406,995.924147
1257.425996,6957.935855,-5921.647536,1072.533697
1257.426325,6513.812290,-6365.771101,1225.752797
1257.426654,6587.832884,-7105.977043,842.705048
1257.426983,6291.750507,-7328.038826,1838.629195
1257.427313,5995.668130,-7846.182985,1072.533697
1257.427642,6291.750507,-7846.182985,919.314598
1257.427971,5921.647536,-7105.977043,919.314598
1257.428300,5773.606348,-7179.997637,0.000000
1257.428629,6365.771101,-6661.853478,766.095498
1257.428958,6217.729913,-6661.853478,306.438199
1257.429288,6587.832884,-6661.853478,76.609550
1257.429617,6661.853478,-7105.977043,612.876398
1257.429946,6883.915261,-6809.894666,995.924147
1257.430275,6957.935855,-7031.956449,1225.752797
1257.430604,6735.874072,-6735.874072,1455.581446
1257.430934,7624.121203,-6513.812290,1762.019645
1257.431263,7846.182985,-6513.812290,1685.410096
1257.431592,8808.450710,-5773.606348,2221.676944
1257.431921,8142.265362,-5477.523971,1455.581446
1257.432250,7772.162391,-4737.318029,1072.533697
1257.432580,7105.977043,-5033.400406,536.266849
1257.432909,6883.915261,-5625.565159,995.924147
1257.433238,6513.812290,-6217.729913,536.266849
1257.433567,6439.791695,-6883.915261,689.485948
1257.433896,6365.771101,-7105.977043,919.314598
1257.434225,6291.750507,-7402.059420,1072.533697
1257.434555,6365.771101,-8290.306550,1225.752797
1257.434884,6957.935855,-8142.265362,612.876398
1257.435213,6587.832884,-8216.285956,612.876398
1257.435542,6661.853478,-7254.018232,383.047749
1257.435871,7179.997637,-6957.935855,383.047749
1257.436201,7550.100608,-6735.874072,919.314598
1257.436530,7624.121203,-6291.750507,1072.533697
1257.436859,7105.977043,-5995.668130,1378.971896
1257.437188,7772.162391,-5255.462188,1302.362347
1257.437517,8290.306550,-5551.544565,1455.581446
1257.437846,8068.244768,-5033.400406,1225.752797
1257.438176,7994.224174,-4959.379811,1378.971896
1257.438505,7846.182985,-5329.482782,612.876398
1257.438834,7328.038826,-4959.379811,612.876398
1257.439163,7031.956449,-5995.668130,1302.362347
1257.439492,7105.977043,-6661.853478,1455.581446
1257.439822,6809.894666,-7254.018232,1762.019645
1257.440151,6069.688724,-8068.244768,1838.629195
1257.440480,6217.729913,-7476.080014,1378.971896
1257.440809,6143.709319,-7698.141797,1378.971896
1257.441138,5921.647536,-7476.080014,842.705048
1257.441468,5403.503377,-6883.915261,0.000000
1257.441797,5625.565159,-7031.956449,0.000000
1257.442126,5921.647536,-6661.853478,919.314598
1257.442455,6365.771101,-6513.812290,612.876398
1257.442784,6439.791695,-6661.853478,306.438199
1257.443113,6809.894666,-6883.915261,919.314598
1257.443443,7328.038826,-7550.100608,1225.752797
1257.443772,7254.018232,-7328.038826,842.705048
1257.444101,7476.080014,-6587.832884,1685.410096
1257.444430,8142.265362,-6439.791695,1302.362347
1257.444759,8142.265362,-5921.647536,1455.581446
1257.445089,7550.100608,-5181.441594,995.924147
1257.445418,7402.059420,-5329.482782,995.924147
1257.445747,7105.977043,-5403.503377,1149.143247
1257.446076,6809.894666,-5181.441594,1072.533697
1257.446405,5921.647536,-7105.977043,1149.143247
1257.446734,5921.647536,-6883.915261,1455.581446
1257.447064,6069.688724,-7698.141797,919.314598
1257.447393,5773.606348,-7772.162391,1149.143247
1257.447722,5773.606348,-7031.956449,536.266849
1257.448051,6809.894666,-7179.997637,229.828649
1257.448380,7402.059420,-7476.080014,536.266849
1257.448710,7476.080014,-7550.100608,919.314598
1257.449039,7698.141797,-6809.894666,995.924147
1257.449368,7772.162391,-5995.668130,1302.362347
1257.449697,7994.224174,-5477.523971,2145.067394
1257.450026,7994.224174,-5403.503377,1685.410096
1257.450355,8364.327145,-4811.338623,1991.848295
1257.450684,7920.203579,-4515.256246,1149.143247
1257.451014,7624.121203,-4441.235652,1149.143247
1257.451343,7550.100608,-4737.318029,842.705048
1257.451672,7550.100608,-5033.400406,536.266849
1257.452001,7105.977043,-6365.771101,536.266849
1257.452330,6513.812290,-7254.018232,766.095498
1257.452659,6735.874072,-7105.977043,1455.581446
1257.452989,7105.977043,-7920.203579,1991.848295
1257.453318,7105.977043,-7105.977043,1532.190996
1257.453647,6513.812290,-7402.059420,1455.581446
1257.453976,6439.791695,-7624.121203,842.705048
1257.454305,5921.647536,-7031.956449,1072.533697
1257.454634,5625.565159,-7105.977043,229.828649
1257.454964,5255.462188,-6069.688724,-306.438199
1257.455293,5699.585753,-7179.997637,306.438199
1257.455622,5995.668130,-7698.141797,229.828649
1257.455951,5551.544565,-7476.080014,1149.143247
1257.456280,5773.606348,-7328.038826,689.485948
1257.456609,6809.894666,-6957.935855,995.924147
1257.456939,7105.977043,-7105.977043,1991.848295
1257.457268,8142.265362,-5921.647536,1149.143247
1257.457597,8512.368333,-5625.565159,1378.971896
1257.457926,8882.471304,-4959.379811,1225.752797
1257.458255,8364.327145,-4737.318029,995.924147
1257.458584,8142.265362,-4589.276840,2221.676944
1257.458914,8364.327145,-5477.523971,766.095498
1257.459243,6957.935855,-5995.668130,1532.190996
1257.459572,6069.688724,-6291.750507,1072.533697
1257.459901,5995.668130,-7031.956449,919.314598
1257.460230,5699.585753,-7328.038826,995.924147
1257.460559,5329.482782,-7698.141797,306.438199
1257.460888,5255.462188,-7846.182985,0.000000
1257.461218,6217.729913,-7772.162391,459.657299
1257.461547,7179.997637,-8142.265362,766.095498
1257.461876,7846.182985,-7550.100608,1532.190996
1257.462205,7846.182985,-5921.647536,1225.752797
1257.462534,7698.141797,-5699.585753,1302.362347
1257.462863,7920.203579,-5403.503377,1302.362347
1257.463193,7920.203579,-5699.585753,1915.238745
1257.463522,7994.224174,-5551.544565,1455.581446
1257.463851,8068.244768,-5329.482782,995.924147
1257.464180,7402.059420,-5255.462188,842.705048
1257.464509,7254.018232,-6513.812290,995.924147
1257.464838,7476.080014,-6439.791695,1072.533697
1257.465168,6957.935855,-6513.812290,536.266849
1257.465497,6365.771101,-7105.977043,536.266849
1257.465826,6069.688724,-7105.977043,995.924147
1257.466155,6365.771101,-8364.327145,842.705048
1257.466484,6439.791695,-7772.162391,1608.800546
1257.466813,6365.771101,-7328.038826,1225.752797
1257.467143,6513.812290,-7105.977043,1072.533697
1257.467472,6587.832884,-6883.915261,1378.971896
1257.467801,6439.791695,-6587.832884,612.876398
1257.468130,6365.771101,-5921.647536,689.485948
1257.468459,6439.791695,-5921.647536,612.876398
1257.468788,6661.853478,-6439.791695,1072.533697
1257.469118,6809.894666,-7179.997637,2145.067394
1257.469447,7105.977043,-6883.915261,1838.629195
1257.469776,7105.977043,-6513.812290,1455.581446
1257.470105,6735.874072,-6069.688724,919.314598
1257.470434,7179.997637,-6069.688724,1072.533697
1257.470763,7846.182985,-5921.647536,842.705048
1257.471092,8438.347739,-5699.585753,1225.752797
1257.471422,7994.224174,-4515.256246,919.314598
1257.471751,7254.018232,-5107.421000,689.485948
1257.472080,6957.935855,-6217.729913,995.924147
1257.472409,6661.853478,-7179.997637,1838.629195
1257.472738,6587.832884,-7550.100608,1302.362347
1257.473067,6143.709319,-7846.182985,383.047749
1257.473397,5847.626942,-8142.265362,459.657299
1257.473726,5995.668130,-8216.285956,689.485948
1257.474055,6291.750507,-7476.080014,383.047749
1257.474384,7031.956449,-7846.182985,459.657299
1257.474713,7105.977043,-7254.018232,995.924147
1257.475042,7105.977043,-6291.750507,612.876398
1257.475372,6809.894666,-5551.544565,1378.971896
1257.475701,6883.915261,-6439.791695,1532.190996
1257.476030,7550.100608,-5995.668130,1762.019645
1257.476359,8216.285956,-5329.482782,1762.019645
1257.476688,8290.306550,-4737.318029,1302.362347
1257.477017,7994.224174,-4811.338623,1072.533697
1257.477347,7624.121203,-5329.482782,1072.533697
1257.477676,7105.977043,-5995.668130,842.705048
1257.478005,6809.894666,-6661.853478,689.485948
1257.478334,7105.977043,-6661.853478,1072.533697
1257.478663,6809.894666,-6735.874072,995.924147
1257.478992,6513.812290,-7179.997637,2068.457845
1257.479322,7031.956449,-7994.224174,2068.457845
1257.479651,7105.977043,-7624.121203,1302.362347
1257.479980,6365.771101,-6735.874072,1455.581446
1257.480309,6143.709319,-6883.915261,766.095498
1257.480638,6217.729913,-6587.832884,0.000000
1257.480967,6143.709319,-6957.935855,76.609550
1257.481296,5847.626942,-6661.853478,459.657299
1257.481626,6365.771101,-7031.956449,612.876398
1257.481955,6587.832884,-6883.915261,1149.143247
1257.482284,6661.853478,-7105.977043,1302.362347
1257.482613,7105.977043,-7105.977043,1532.190996
1257.482942,7698.141797,-6661.853478,2068.457845
1257.483271,8068.244768,-6809.894666,1532.190996
1257.483601,8290.306550,-5329.482782,1838.629195
1257.483930,8290.306550,-5107.421000,1455.581446
1257.484259,8142.265362,-5033.400406,1072.533697
1257.484588,7179.997637,-4663.297435,766.095498
1257.484917,6735.874072,-5995.668130,1455.581446
1257.485246,6661.853478,-6661.853478,1225.752797
1257.485576,6365.771101,-7550.100608,1532.190996
1257.485905,5699.585753,-7698.141797,1532.190996
1257.486234,5551.544565,-8142.265362,919.314598
1257.486563,5477.523971,-8734.430116,76.609550
1257.486892,6143.709319,-7846.182985,0.000000
1257.487221,6365.771101,-7476.080014,229.828649
1257.487551,7105.977043,-7698.141797,383.047749
1257.487880,7328.038826,-4959.379811,383.047749
1257.488209,7550.100608,-6291.750507,1149.143247
1257.488538,8512.368333,-5625.565159,1455.581446
1257.488867,8956.491898,-4811.338623,2221.676944
1257.489196,9030.512492,-5995.668130,2757.943793
1257.489525,8364.327145,-4441.235652,1608.800546
1257.489855,7105.977043,-4959.379811,995.924147
1257.490184,6661.853478,-5329.482782,842.705048
1257.490513,6957.935855,-5403.503377,842.705048
1257.490842,6883.915261,-6291.750507,1225.752797
1257.491171,6661.853478,-6513.812290,919.314598
1257.491500,6587.832884,-6439.791695,1072.533697
1257.491830,6587.832884,-8216.285956,1915.238745
1257.492159,6661.853478,-8142.265362,2221.676944
1257.492488,6439.791695,-7920.203579,1608.800546
1257.492817,5773.606348,-7476.080014,383.047749
1257.493146,5773.606348,-6957.935855,229.828649
1257.493475,5847.626942,-6809.894666,229.828649
1257.493805,6365.771101,-6513.812290,76.609550
1257.494134,6513.812290,-6883.915261,0.000000
1257.494463,6735.874072,-6809.894666,766.095498
1257.494792,6957.935855,-7105.977043,1149.143247
1257.495121,7550.100608,-6957.935855,1685.410096
1257.495450,7476.080014,-6735.874072,2221.676944
1257.495780,8142.265362,-6217.729913,1838.629195
1257.496109,8438.347739,-5625.565159,1608.800546
1257.496438,8734.430116,-4663.297435,1762.019645
1257.496767,8068.244768,-4737.318029,995.924147
1257.497096,7254.018232,-4885.359217,689.485948
1257.497425,6735.874072,-5551.544565,383.047749
1257.497755,6217.729913,-6069.688724,766.095498
1257.498084,6217.729913,-6661.853478,1072.533697
1257.498413,5995.668130,-7846.182985,1455.581446
1257.498742,6069.688724,-8586.388927,1455.581446
1257.499071,5551.544565,-8956.491898,689.485948
1257.499400,5403.503377,-8586.388927,459.657299
1257.499729,5847.626942,-7920.203579,536.266849
1257.500059,6883.915261,-7254.018232,383.047749
1257.500388,7402.059420,-7105.977043,689.485948
1257.500717,7994.224174,-5921.647536,919.314598
1257.501046,8586.388927,-5107.421000,919.314598
1257.501375,8142.265362,-5995.668130,1072.533697
1257.501704,7624.121203,-5699.585753,1608.800546
1257.502034,7624.121203,-6291.750507,1378.971896
1257.502363,7994.224174,-6143.709319,1532.190996
1257.502692,7772.162391,-5403.503377,919.314598
1257.503021,7476.080014,-5551.544565,919.314598
1257.503350,7624.121203,-5921.647536,1072.533697
1257.503679,7254.018232,-5995.668130,919.314598
1257.504009,6143.709319,-6513.812290,612.876398
1257.504338,6069.688724,-6883.915261,919.314598
1257.504667,6365.771101,-7772.162391,1915.238745
1257.504996,6809.894666,-7920.203579,2068.457845
1257.505325,6587.832884,-7105.977043,1762.019645
1257.505654,6513.812290,-7031.956449,1608.800546
1257.505984,6439.791695,-6809.894666,766.095498
1257.506313,6143.709319,-6809.894666,0.000000
1257.506642,5551.544565,-6291.750507,0.000000
1257.506971,6513.812290,-6661.853478,0.000000
1257.507300,6439.791695,-6735.874072,306.438199
1257.507629,6439.791695,-6883.915261,919.314598
1257.507959,6735.874072,-7254.018232,1455.581446
1257.508288,7550.100608,-6661.853478,1532.190996
1257.508617,8216.285956,-6661.853478,1302.362347
1257.508946,7994.224174,-5995.668130,1915.238745
1257.509275,8512.368333,-5329.482782,1762.019645
1257.509604,8364.327145,-4515.256246,842.705048
1257.509933,7550.100608,-4441.235652,383.047749
1257.510263,7624.121203,-4811.338623,766.095498
1257.510592,7328.038826,-5921.647536,1532.190996
1257.510921,6883.915261,-6513.812290,1455.581446
1257.511250,5847.626942,-7328.038826,995.924147
1257.511579,5995.668130,-7105.977043,842.705048
1257.511908,5921.647536,-7994.224174,612.876398
1257.512238,5625.565159,-8586.388927,383.047749
1257.512567,5477.523971,-7846.182985,0.000000
1257.512896,5847.626942,-7772.162391,-306.438199
1257.513225,6735.874072,-8068.244768,0.000000
1257.513554,6661.853478,-7402.059420,612.876398
1257.513883,7105.977043,-6957.935855,995.924147
1257.514213,7846.182985,-6217.729913,1302.362347
1257.514542,8438.347739,-5921.647536,2145.067394
1257.514871,8290.306550,-5181.441594,2298.286494
1257.515200,8290.306550,-5329.482782,1915.238745
1257.515529,8142.265362,-5403.503377,1532.190996
1257.515858,7624.121203,-4959.379811,306.438199
1257.516188,7105.977043,-5181.441594,612.876398
1257.516517,7254.018232,-6217.729913,919.314598
1257.516846,6661.853478,-6143.709319,689.485948
1257.517175,6143.709319,-6957.935855,1072.533697
1257.517504,6587.832884,-7105.977043,1455.581446
1257.517833,6661.853478,-7920.203579,2145.067394
1257.518163,6735.874072,-7772.162391,2068.457845
1257.518492,6069.688724,-7179.997637,1072.533697
1257.518821,5773.606348,-6587.832884,536.266849
1257.519150,6069.688724,-6439.791695,766.095498
1257.519479,6365.771101,-6957.935855,612.876398
1257.519808,6883.915261,-6587.832884,612.876398
1257.520137,7105.977043,-6661.853478,919.314598
1257.520467,6883.915261,-6661.853478,995.924147
1257.520796,6587.832884,-6883.915261,1455.581446
1257.521125,7105.977043,-6883.915261,1225.752797
1257.521454,7105.977043,-6735.874072,1302.362347
1257.521783,7550.100608,-5847.626942,1149.143247
1257.522112,7698.141797,-5403.503377,1685.410096
1257.522442,8512.368333,-5477.523971,1302.362347
1257.522771,8216.285956,-5921.647536,919.314598
1257.523100,7179.997637,-5181.441594,842.705048
1257.523429,6365.771101,-5699.585753,689.485948
1257.523758,6809.894666,-6291.750507,1149.143247
1257.524087,6513.812290,-6883.915261,1532.190996
1257.524417,6143.709319,-7402.059420,1685.410096
1257.524746,6143.709319,-7476.080014,995.924147
1257.525075,5625.565159,-7994.224174,1225.752797
1257.525404,6217.729913,-7920.203579,229.828649
1257.525733,6217.729913,-7179.997637,536.266849
1257.526062,6809.894666,-7031.956449,536.266849
1257.526392,7254.018232,-6957.935855,536.266849
1257.526721,7328.038826,-6217.729913,1532.190996
1257.527050,7328.038826,-6365.771101,1302.362347
1257.527379,7402.059420,-6439.791695,1378.971896
1257.527708,7624.121203,-6069.688724,1378.971896
1257.528037,7476.080014,-6143.709319,1225.752797
1257.528366,7550.100608,-5847.626942,1532.190996
1257.528696,7920.203579,-5699.585753,1225.752797
1257.529025,7920.203579,-5625.565159,612.876398
1257.529354,6957.935855,-6069.688724,536.266849
1257.529683,7254.018232,-6735.874072,995.924147
1257.530012,6883.915261,-6957.935855,842.705048
1257.530341,6513.812290,-7031.956449,1302.362347
1257.530671,6735.874072,-7698.141797,1378.971896
1257.531000,7105.977043,-6513.812290,1302.362347
1257.531329,7328.038826,-7105.977043,612.876398
1257.531658,6587.832884,-6587.832884,1149.143247
1257.531987,6513.812290,-6291.750507,459.657299
1257.532316,6143.709319,-6661.853478,459.657299
1257.532646,6809.894666,-6513.812290,536.266849
1257.532975,6883.915261,-7031.956449,1149.143247
1257.533304,7179.997637,-7179.997637,1455.581446
1257.533633,7179.997637,-7031.956449,1608.800546
1257.533962,6735.874072,-6883.915261,1302.362347
1257.534291,7105.977043,-5995.668130,1072.533697
1257.534621,7179.997637,-6217.729913,1532.190996
1257.534950,7920.203579,-5847.626942,1608.800546
1257.535279,8364.327145,-5403.503377,1455.581446
1257.535608,7994.224174,-4737.318029,1378.971896
1257.535937,7624.121203,-5107.421000,1378.971896
1257.536266,6809.894666,-5477.523971,766.095498
1257.536596,6069.688724,-6513.812290,842.705048
1257.536925,5921.647536,-7402.059420,1072.533697
1257.537254,6143.709319,-7402.059420,1455.581446
1257.537583,6217.729913,-8142.265362,1149.143247
1257.537912,5995.668130,-8216.285956,919.314598
1257.538241,5921.647536,-7698.141797,76.609550
1257.538570,5995.668130,-7846.182985,153.219100
1257.538900,7031.956449,-7476.080014,1072.533697
1257.539229,7105.977043,-7476.080014,1302.362347
1257.539558,7476.080014,-6439.791695,1378.971896
1257.539887,7328.038826,-6291.750507,1225.752797
1257.540216,7031.956449,-6069.688724,1378.971896
1257.540545,6809.894666,-5847.626942,1378.971896
1257.540875,7105.977043,-5773.606348,1455.581446
1257.541204,7254.018232,-5477.523971,1455.581446
1257.541533,7772.162391,-5107.421000,1455.581446
1257.541862,8068.244768,-5477.523971,1149.143247
1257.542191,7402.059420,-5773.606348,1225.752797
1257.542520,6661.853478,-6069.688724,842.705048
1257.542850,6439.791695,-6217.729913,919.314598
1257.543179,6661.853478,-7179.997637,1455.581446
1257.543508,6587.832884,-7550.100608,1991.848295
1257.543837,6439.791695,-7994.224174,1225.752797
1257.544166,6069.688724,-7624.121203,842.705048
1257.544495,5921.647536,-7254.018232,0.000000
1257.544825,5995.668130,-7624.121203,229.828649
1257.545154,5921.647536,-7328.038826,689.485948
1257.545483,6143.709319,-7105.977043,0.000000
1257.545812,6217.729913,-6735.874072,689.485948
1257.546141,6365.771101,-7179.997637,842.705048
1257.546470,7476.080014,-6883.915261,1915.238745
1257.546800,8142.265362,-6143.709319,2145.067394
1257.547129,8068.244768,-5477.523971,1455.581446
1257.547458,7772.162391,-5107.421000,1532.190996
1257.547787,8142.265362,-5033.400406,1838.629195
1257.548116,8512.368333,-5181.441594,1762.019645
1257.548445,8364.327145,-4515.256246,1762.019645
1257.548774,8290.306550,-4589.276840,1225.752797
1257.549104,7328.038826,-5255.462188,1225.752797
1257.549433,6661.853478,-6217.729913,1225.752797
1257.549762,5773.606348,-7254.018232,995.924147
1257.550091,5773.606348,-7772.162391,1149.143247
1257.550420,6069.688724,-7994.224174,995.924147
1257.550749,6291.750507,-7402.059420,919.314598
1257.551078,6143.709319,-7846.182985,306.438199
1257.551407,6513.812290,-7698.141797,383.047749
1257.551736,6809.894666,-7031.956449,76.609550
1257.552066,7105.977043,-7105.977043,76.609550
1257.552395,7105.977043,-6883.915261,1149.143247
1257.552724,7179.997637,-6365.771101,1072.533697
1257.553053,7179.997637,-6661.853478,1302.362347
1257.553382,7179.997637,-6439.791695,1455.581446
1257.553711,7772.162391,-6365.771101,1532.190996
1257.554040,7920.203579,-5255.462188,1225.752797
1257.554369,7179.997637,-5625.565159,919.314598
1257.554698,6809.894666,-5995.668130,612.876398
1257.555027,6069.688724,-6809.894666,612.876398
1257.555356,6439.791695,-6883.915261,842.705048
1257.555685,6735.874072,-6883.915261,1685.410096
1257.556014,6661.853478,-6217.729913,1762.019645
1257.556343,6883.915261,-6883.915261,1532.190996
1257.556673,6883.915261,-6661.853478,1455.581446
1257.557002,7031.956449,-6809.894666,1225.752797
1257.557331,6883.915261,-6513.812290,919.314598
1257.557660,6661.853478,-6439.791695,229.828649
1257.557989,6587.832884,-6883.915261,229.828649
1257.558318,6735.874072,-7624.121203,689.485948
1257.558647,7031.956449,-7402.059420,1149.143247
1257.558976,7105.977043,-6735.874072,995.924147
1257.559305,7105.977043,-7105.977043,1302.362347
1257.559634,7179.997637,-6957.935855,1838.629195
1257.559963,7328.038826,-6069.688724,1532.190996
1257.560292,7328.038826,-5477.523971,1378.971896
1257.560621,7624.121203,-4811.338623,1225.752797
1257.560950,8512.368333,-4737.318029,1302.362347
1257.561279,8586.388927,-4441.235652,1685.410096
1257.561609,8364.327145,-4663.297435,1685.410096
1257.561938,7772.162391,-5107.421000,1149.143247
1257.562267,6957.935855,-6439.791695,1149.143247
1257.562596,6365.771101,-7105.977043,1302.362347
1257.562925,6439.791695,-7179.997637,995.924147
1257.563254,6143.709319,-7994.224174,1378.971896
1257.563583,5847.626942,-9252.574275,536.266849
1257.563912,5255.462188,-8512.368333,76.609550
1257.564241,5551.544565,-8660.409521,306.438199
1257.564570,6735.874072,-8216.285956,612.876398
1257.564899,5995.668130,-7254.018232,1149.143247
1257.565228,6439.791695,-6809.894666,766.095498
1257.565557,6439.791695,-6217.729913,1072.533697
1257.565886,7476.080014,-5921.647536,1302.362347
1257.566216,7994.224174,-5329.482782,1915.238745
1257.566545,7846.182985,-5255.462188,1685.410096
1257.566874,7994.224174,-4959.379811,1455.581446
1257.567203,8290.306550,-5403.503377,995.924147
1257.567532,7920.203579,-6069.688724,1532.190996
1257.567861,7402.059420,-5551.544565,1225.752797
1257.568190,7328.038826,-6291.750507,842.705048
1257.568519,7328.038826,-6217.729913,1225.752797
1257.568848,6957.935855,-6513.812290,1302.362347
1257.569177,7031.956449,-6809.894666,995.924147
1257.569506,6143.709319,-7031.956449,1378.971896
1257.569835,5403.503377,-7698.141797,842.705048
1257.570164,5181.441594,-7179.997637,612.876398
1257.570493,5403.503377,-6439.791695,842.705048
1257.570823,6143.709319,-7550.100608,689.485948
1257.571152,6365.771101,-7254.018232,995.924147
1257.571481,6661.853478,-7476.080014,536.266849
1257.571810,6809.894666,-7105.977043,536.266849
1257.572139,6809.894666,-7402.059420,919.314598
1257.572468,6587.832884,-7772.162391,1378.971896
1257.572797,7254.018232,-7402.059420,1378.971896
1257.573126,7624.121203,-6143.709319,1149.143247
1257.573455,8438.347739,-5329.482782,1149.143247
1257.573784,9178.553681,-4959.379811,1915.238745
1257.574113,8660.409521,-4737.318029,1608.800546
1257.574442,7846.182985,-4367.215058,689.485948
1257.574771,6957.935855,-4515.256246,1072.533697
1257.575100,6883.915261,-5699.585753,995.924147
1257.575429,6809.894666,-7105.977043,1532.190996
1257.575759,6365.771101,-7031.956449,1149.143247
1257.576088,5625.565159,-7476.080014,612.876398
1257.576417,5403.503377,-7624.121203,536.266849
1257.576746,5625.565159,-8808.450710,229.828649
1257.577075,5847.626942,-8808.450710,229.828649
1257.577404,6143.709319,-8216.285956,76.609550
1257.577733,6735.874072,-7402.059420,536.266849
1257.578062,7179.997637,-7105.977043,1149.143247
1257.578391,7550.100608,-5625.565159,1608.800546
1257.578720,7846.182985,-5551.544565,1762.019645
1257.579049,8216.285956,-5033.400406,1762.019645
1257.579378,8734.430116,-4367.215058,1838.629195
1257.579707,8216.285956,-4515.256246,1838.629195
1257.580036,8068.244768,-4663.297435,1149.143247
1257.580366,7624.121203,-5107.421000,842.705048
1257.580695,7179.997637,-6291.750507,306.438199
1257.581024,6809.894666,-6735.874072,689.485948
1257.581353,7105.977043,-7254.018232,612.876398
1257.581682,6439.791695,-8216.285956,689.485948
1257.582011,6069.688724,-8290.306550,1225.752797
1257.582340,6217.729913,-8364.327145,919.314598
1257.582669,6439.791695,-7254.018232,459.657299
1257.582998,6365.771101,-7254.018232,1072.533697
1257.583327,7105.977043,-6661.853478,995.924147
1257.583656,6735.874072,-6069.688724,842.705048
1257.583985,6291.750507,-6069.688724,612.876398
1257.584314,6439.791695,-6513.812290,1072.533697
1257.584643,6735.874072,-6291.750507,919.314598
1257.584973,7328.038826,-6365.771101,1072.533697
1257.585302,7624.121203,-6957.935855,1455.581446
1257.585631,7031.956449,-6587.832884,1225.752797
1257.585960,7254.018232,-6291.750507,1072.533697
1257.586289,7698.141797,-6439.791695,1149.143247
1257.586618,7772.162391,-5921.647536,1532.190996
1257.586947,7698.141797,-5773.606348,1378.971896
1257.587276,7772.162391,-5107.421000,1608.800546
1257.587605,7254.018232,-5033.400406,689.485948
1257.587934,7254.018232,-5255.462188,919.314598
1257.588263,7105.977043,-5625.565159,1225.752797
1257.588592,6217.729913,-6513.812290,1149.143247
1257.588921,6365.771101,-7105.977043,766.095498
1257.589250,5329.482782,-7624.121203,459.657299
1257.589579,5847.626942,-7846.182985,536.266849
1257.589909,5995.668130,-8808.450710,459.657299
1257.590238,6587.832884,-7994.224174,766.095498
1257.590567,6587.832884,-7254.018232,76.609550
1257.590896,6661.853478,-7254.018232,689.485948
1257.591225,7031.956449,-6957.935855,919.314598
1257.591554,7328.038826,-6661.853478,1532.190996
1257.591883,7031.956449,-5403.503377,1915.238745
1257.592212,7328.038826,-5551.544565,1685.410096
1257.592541,7179.997637,-5699.585753,1149.143247
1257.592870,7105.977043,-4811.338623,1302.362347
1257.593199,7624.121203,-5477.523971,1455.581446
1257.593528,8290.306550,-5477.523971,1149.143247
1257.593857,7476.080014,-5403.503377,1072.533697
1257.594186,7179.997637,-6217.729913,1072.533697
1257.594516,7254.018232,-6809.894666,1225.752797
1257.594845,7105.977043,-7402.059420,842.705048
1257.595174,6513.812290,-7994.224174,919.314598
1257.595503,6513.812290,-7772.162391,1378.971896
1257.595832,6365.771101,-7550.100608,766.095498
1257.596161,6217.729913,-7846.182985,919.314598
1257.596490,5921.647536,-7476.080014,612.876398
1257.596819,6291.750507,-7105.977043,229.828649
1257.597148,6217.729913,-6587.832884,229.828649
1257.597477,6217.729913,-6291.750507,612.876398
1257.597806,6957.935855,-6217.729913,689.485948
1257.598135,7105.977043,-6513.812290,1225.752797
1257.598464,7328.038826,-6883.915261,1685.410096
1257.598793,7328.038826,-6439.791695,1608.800546
1257.599122,7994.224174,-5625.565159,1838.629195
1257.599452,8068.244768,-4811.338623,2068.457845
1257.599781,8216.285956,-5329.482782,1455.581446
1257.600110,7846.182985,-5033.400406,1378.971896
1257.600439,7550.100608,-5255.462188,842.705048
1257.600768,7105.977043,-6069.688724,842.705048
1257.601097,6735.874072,-6217.729913,612.876398
1257.601426,6217.729913,-8142.265362,1072.533697
1257.601755,5995.668130,-7550.100608,612.876398
1257.602084,5551.544565,-8068.244768,306.438199
1257.602413,6143.709319,-8586.388927,842.705048
1257.602742,6735.874072,-7698.141797,459.657299
1257.603071,7105.977043,-7920.203579,76.609550
1257.603400,6957.935855,-7179.997637,842.705048
1257.603729,7254.018232,-7402.059420,689.485948
1257.604059,7254.018232,-6439.791695,1302.362347
1257.604388,7402.059420,-6513.812290,1608.800546
1257.604717,8068.244768,-6143.709319,2221.676944
1257.605046,7698.141797,-5107.421000,1685.410096
1257.605375,7105.977043,-5255.462188,1302.362347
1257.605704,7254.018232,-4737.318029,1378.971896
1257.606033,7476.080014,-5107.421000,1149.143247
1257.606362,7550.100608,-5181.441594,1149.143247
1257.606691,6957.935855,-5551.544565,766.095498
1257.607020,6957.935855,-6217.729913,536.266849
1257.607349,6513.812290,-6883.915261,995.924147
1257.607678,6291.750507,-7402.059420,1149.143247
1257.608007,6217.729913,-7920.203579,1225.752797
1257.608336,6661.853478,-6883.915261,1378.971896
1257.608666,6217.729913,-7476.080014,995.924147
1257.608995,5773.606348,-7476.080014,842.705048
1257.609324,6365.771101,-7402.059420,536.266849
1257.609653,6513.812290,-7328.038826,306.438199
1257.609982,6365.771101,-6587.832884,536.266849
1257.610311,6217.729913,-7031.956449,229.828649
1257.610640,6513.812290,-6883.915261,1072.533697
1257.610969,7105.977043,-7031.956449,1302.362347
1257.611298,7624.121203,-5995.668130,1455.581446
1257.611627,7920.203579,-4959.379811,1762.019645
1257.611956,8142.265362,-4663.297435,1532.190996
1257.612285,8216.285956,-4737.318029,1302.362347
1257.612614,8512.368333,-5255.462188,1149.143247
1257.612943,8512.368333,-5403.503377,1685.410096
1257.613272,7920.203579,-5477.523971,1378.971896
1257.613602,7254.018232,-5329.482782,1149.143247
1257.613931,6809.894666,-6217.729913,1072.533697
1257.614260,6439.791695,-7328.038826,1072.533697
1257.614589,6439.791695,-8216.285956,842.705048
1257.614918,5921.647536,-8882.471304,995.924147
1257.615247,5921.647536,-8068.244768,306.438199
1257.615576,5551.544565,-7846.182985,0.000000
1257.615905,5847.626942,-7920.203579,229.828649
1257.616234,6513.812290,-7624.121203,459.657299
1257.616563,7254.018232,-7031.956449,383.047749
1257.616892,7772.162391,-6439.791695,229.828649
1257.617221,7698.141797,-5921.647536,1302.362347
1257.617550,7698.141797,-5699.585753,842.705048
1257.617879,7328.038826,-5773.606348,1302.362347
1257.618209,7328.038826,-6217.729913,1455.581446
1257.618538,7624.121203,-5699.585753,1532.190996
1257.618867,7624.121203,-5551.544565,1225.752797
1257.619196,7624.121203,-5773.606348,1225.752797
1257.619525,6957.935855,-5921.647536,1072.533697
1257.619854,6513.812290,-6217.729913,536.266849
1257.620183,6291.750507,-6661.853478,995.924147
1257.620512,6587.832884,-6439.791695,842.705048
1257.620841,6069.688724,-6957.935855,1455.581446
1257.621170,6217.729913,-7179.997637,1378.971896
1257.621499,6513.812290,-7179.997637,1149.143247
1257.621828,6439.791695,-7550.100608,1302.362347
1257.622157,7031.956449,-6883.915261,536.266849
1257.622486,6587.832884,-6661.853478,536.266849
1257.622816,6439.791695,-6735.874072,306.438199
1257.623145,6883.915261,-7328.038826,612.876398
1257.623474,7254.018232,-6957.935855,1149.143247
1257.623803,7698.141797,-6513.812290,1302.362347
1257.624132,7624.121203,-6957.935855,1608.800546
1257.624461,7105.977043,-5773.606348,1455.581446
1257.624790,7179.997637,-5995.668130,1072.533697
1257.625119,7254.018232,-5477.523971,2145.067394
1257.625448,7920.203579,-5107.421000,1608.800546
1257.625777,7994.224174,-5477.523971,1302.362347
1257.626106,7402.059420,-5477.523971,1302.362347
1257.626435,7105.977043,-5329.482782,1072.533697
1257.626764,6661.853478,-5921.647536,1072.533697
1257.627093,6735.874072,-6735.874072,1455.581446
1257.627422,6513.812290,-7476.080014,1455.581446
1257.627752,6439.791695,-7476.080014,1225.752797
1257.628081,5921.647536,-7698.141797,1072.533697
1257.628410,5847.626942,-8068.244768,536.266849
1257.628739,5995.668130,-7994.224174,76.609550
1257.629068,5921.647536,-7846.182985,153.219100
1257.629397,6809.894666,-7105.977043,459.657299
1257.629726,7550.100608,-6439.791695,842.705048
1257.630055,7476.080014,-5921.647536,1072.533697
1257.630384,7402.059420,-6439.791695,1225.752797
1257.630713,7550.100608,-5625.565159,1072.533697
1257.631042,7772.162391,-5625.565159,1455.581446
1257.631371,7698.141797,-5551.544565,1149.143247
1257.631700,7698.141797,-5181.441594,1302.362347
1257.632029,7994.224174,-5921.647536,1225.752797
1257.632359,7994.224174,-5921.647536,1072.533697
1257.632688,7550.100608,-5699.585753,842.705048
1257.633017,7254.018232,-6735.874072,919.314598
1257.633346,6735.874072,-6439.791695,1302.362347
1257.633675,6513.812290,-7402.059420,1608.800546
1257.634004,6513.812290,-7105.977043,1532.190996
1257.634333,6291.750507,-7402.059420,1378.971896
1257.634662,5995.668130,-8142.265362,1072.533697
1257.634991,5847.626942,-7698.141797,995.924147
1257.635320,5477.523971,-7105.977043,-153.219100
1257.635649,5551.544565,-7105.977043,-459.657299
1257.635978,5847.626942,-7254.018232,229.828649
1257.636307,6883.915261,-7624.121203,1072.533697
1257.636636,7105.977043,-7254.018232,1072.533697
1257.636965,6735.874072,-6513.812290,1838.629195
1257.637295,7254.018232,-6365.771101,842.705048
1257.637624,7846.182985,-5847.626942,842.705048
1257.637953,8290.306550,-6069.688724,1991.848295
1257.638282,8512.368333,-4959.379811,1302.362347
1257.638611,8142.265362,-4515.256246,2145.067394
1257.638940,8808.450710,-4663.297435,1455.581446
1257.639269,7698.141797,-4737.318029,1072.533697
1257.639598,6809.894666,-6069.688724,1225.752797
1257.639927,5995.668130,-6587.832884,919.314598
1257.640256,5255.462188,-7402.059420,1149.143247
1257.640585,5551.544565,-7476.080014,1149.143247
1257.640914,6069.688724,-7772.162391,536.266849
1257.641243,6513.812290,-7698.141797,459.657299
1257.641572,5847.626942,-7550.100608,76.609550
1257.641902,5699.585753,-7624.121203,153.219100
1257.642231,6291.750507,-7031.956449,229.828649
1257.642560,7179.997637,-6513.812290,919.314598
1257.642889,7920.203579,-6439.791695,1762.019645
1257.643218,8586.388927,-6365.771101,2221.676944
1257.643547,7994.224174,-5403.503377,1302.362347
1257.643876,7624.121203,-5477.523971,1149.143247
1257.644205,7476.080014,-5255.462188,1608.800546
1257.644534,7105.977043,-5699.585753,766.095498
1257.644863,7550.100608,-5773.606348,1149.143247
1257.645192,7328.038826,-6513.812290,995.924147
1257.645521,7105.977043,-6587.832884,766.095498
1257.645850,6661.853478,-6661.853478,1072.533697
1257.646179,6661.853478,-6883.915261,1072.533697
1257.646509,6365.771101,-7550.100608,842.705048
1257.646838,6587.832884,-7550.100608,1455.581446
1257.647167,6735.874072,-7402.059420,1302.362347
1257.647496,6587.832884,-7698.141797,995.924147
1257.647825,7031.956449,-6957.935855,995.924147
1257.648154,6735.874072,-6957.935855,459.657299
1257.648483,6439.791695,-6069.688724,459.657299
1257.648812,6217.729913,-6439.791695,306.438199
1257.649141,6217.729913,-6957.935855,766.095498
1257.649470,6217.729913,-7105.977043,842.705048
1257.649799,6661.853478,-7624.121203,1302.362347
1257.650128,7105.977043,-7254.018232,1455.581446
1257.650457,7402.059420,-6439.791695,1685.410096
1257.650786,7476.080014,-6143.709319,2145.067394
1257.651115,8142.265362,-5625.565159,1378.971896
1257.651445,8586.388927,-4737.318029,1685.410096
1257.651774,8586.388927,-4589.276840,1378.971896
1257.652103,8290.306550,-3923.091493,1608.800546
1257.652432,7328.038826,-4219.173869,1149.143247
1257.652761,7402.059420,-5329.482782,1302.362347
1257.653090,7105.977043,-6439.791695,1838.629195
1257.653419,6661.853478,-7402.059420,1225.752797
1257.653748,5995.668130,-7550.100608,459.657299
1257.654077,5477.523971,-8068.244768,766.095498
1257.654407,5995.668130,-8586.388927,229.828649
1257.654736,6217.729913,-8660.409521,153.219100
1257.655065,6291.750507,-7624.121203,612.876398
1257.655394,5995.668130,-7031.956449,536.266849
1257.655723,6217.729913,-7105.977043,766.095498
1257.656052,6883.915261,-6587.832884,1455.581446
1257.656381,7254.018232,-6587.832884,1915.238745
1257.656710,7846.182985,-5477.523971,2451.505594
1257.657040,8068.244768,-4959.379811,1685.410096
1257.657369,8290.306550,-4811.338623,1302.362347
1257.657698,8438.347739,-4441.235652,1378.971896
1257.658027,7920.203579,-5329.482782,1302.362347
1257.658356,7624.121203,-6291.750507,766.095498
1257.658685,6957.935855,-6513.812290,1072.533697
1257.659014,6957.935855,-7550.100608,612.876398
1257.659343,6883.915261,-7624.121203,1149.143247
1257.659673,6069.688724,-8216.285956,1302.362347
1257.660002,5847.626942,-8068.244768,1302.362347
1257.660331,5551.544565,-7920.203579,1302.362347
1257.660660,5847.626942,-7624.121203,229.828649
1257.660989,5847.626942,-7179.997637,229.828649
1257.661318,5847.626942,-6365.771101,842.705048
1257.661647,6439.791695,-6439.791695,459.657299
1257.661976,6809.894666,-6217.729913,842.705048
1257.662306,7994.224174,-5625.565159,1532.190996
1257.662635,8586.388927,-5477.523971,1685.410096
1257.662964,9104.533087,-5255.462188,1915.238745
1257.663293,8142.265362,-6439.791695,1838.629195
1257.663622,8290.306550,-6291.750507,1762.019645
1257.663951,7920.203579,-6217.729913,1302.362347
1257.664280,7179.997637,-5551.544565,1378.971896
1257.664609,6883.915261,-6217.729913,612.876398
1257.664939,6661.853478,-6513.812290,919.314598
1257.665268,5847.626942,-6217.729913,842.705048
1257.665597,5773.606348,-6587.832884,689.485948
1257.665926,5847.626942,-6143.709319,1838.629195
1257.666255,6365.771101,-7105.977043,1378.971896
1257.666584,6439.791695,-7624.121203,1225.752797
1257.666913,6439.791695,-7179.997637,995.924147
1257.667242,6513.812290,-7772.162391,383.047749
1257.667572,6809.894666,-7031.956449,153.219100
1257.667901,7179.997637,-6661.853478,0.000000
1257.668230,7698.141797,-7105.977043,536.266849
1257.668559,8068.244768,-6143.709319,1225.752797
1257.668888,8290.306550,-6217.729913,1762.019645
1257.669217,8216.285956,-5995.668130,2068.457845
1257.669546,7772.162391,-5107.421000,1685.410096
1257.669875,6883.915261,-5847.626942,1072.533697
1257.670205,6439.791695,-5773.606348,995.924147
1257.670534,6217.729913,-6069.688724,842.705048
1257.670863,6513.812290,-6365.771101,383.047749
1257.671192,6661.853478,-5255.462188,383.047749
1257.671521,6809.894666,-6513.812290,842.705048
1257.671850,7402.059420,-6735.874072,1149.143247
1257.672179,7105.977043,-7031.956449,1302.362347
1257.672508,6957.935855,-7698.141797,1455.581446
1257.672838,7031.956449,-7254.018232,1149.143247
1257.673167,6661.853478,-7624.121203,1072.533697
1257.673496,6809.894666,-7920.203579,612.876398
1257.673825,6291.750507,-7698.141797,536.266849
1257.674154,5847.626942,-7179.997637,229.828649
1257.674483,5773.606348,-6513.812290,-229.828649
1257.674812,6217.729913,-7179.997637,229.828649
1257.675141,6513.812290,-7476.080014,612.876398
1257.675471,6291.750507,-7105.977043,1149.143247
1257.675800,6587.832884,-6661.853478,995.924147
1257.676129,7105.977043,-5477.523971,1225.752797
1257.676458,7994.224174,-5921.647536,1608.800546
1257.676787,9104.533087,-5107.421000,1532.190996
1257.677116,8734.430116,-4811.338623,2068.457845
1257.677445,8660.409521,-4737.318029,1762.019645
1257.677774,7772.162391,-4441.235652,1302.362347
1257.678104,7402.059420,-5403.503377,1838.629195
1257.678433,6883.915261,-5773.606348,1378.971896
1257.678762,6365.771101,-7031.956449,1149.143247
1257.679091,6439.791695,-7105.977043,1072.533697
1257.679420,6587.832884,-7254.018232,1225.752797
1257.679749,6513.812290,-8216.285956,919.314598
1257.680078,6513.812290,-7402.059420,842.705048
1257.680407,5625.565159,-7846.182985,-306.438199
1257.680737,5625.565159,-7254.018232,0.000000
1257.681066,6957.935855,-7179.997637,536.266849
1257.681395,7772.162391,-6883.915261,919.314598
1257.681724,7994.224174,-6069.688724,1532.190996
1257.682053,7698.141797,-6439.791695,1915.238745
1257.682382,7994.224174,-5773.606348,1532.190996
1257.682711,7624.121203,-5625.565159,995.924147
1257.683041,7179.997637,-5403.503377,1302.362347
1257.683370,7402.059420,-5699.585753,1302.362347
1257.683699,7179.997637,-6661.853478,1149.143247
1257.684028,7772.162391,-6069.688724,1072.533697
1257.684357,6661.853478,-6291.750507,1225.752797
1257.684686,6365.771101,-6587.832884,919.314598
1257.685015,6143.709319,-7105.977043,995.924147
1257.685344,5995.668130,-7402.059420,1608.800546
1257.685674,6735.874072,-7920.203579,1378.971896
1257.686003,6217.729913,-7698.141797,1149.143247
1257.686332,6143.709319,-7105.977043,689.485948
1257.686661,5847.626942,-7476.080014,459.657299
1257.686990,5847.626942,-7920.203579,0.000000
1257.687319,6217.729913,-7698.141797,459.657299
1257.687648,6439.791695,-7624.121203,153.219100
1257.687977,7105.977043,-7031.956449,689.485948
1257.688307,7179.997637,-7254.018232,1072.533697
1257.688636,7624.121203,-6735.874072,536.266849
1257.688965,7550.100608,-6291.750507,1149.143247
1257.689294,7476.080014,-5921.647536,1072.533697
1257.689623,7846.182985,-5329.482782,1225.752797
1257.689952,8216.285956,-4811.338623,1532.190996
1257.690281,8660.409521,-4737.318029,1455.581446
1257.690610,8586.388927,-4145.153275,1532.190996
1257.690940,7698.141797,-3997.112087,1455.581446
1257.691269,7105.977043,-4589.276840,1225.752797
1257.691598,6735.874072,-5329.482782,1915.238745
1257.691927,5995.668130,-6439.791695,1072.533697
1257.692256,6217.729913,-7550.100608,1149.143247
1257.692585,6217.729913,-8438.347739,766.095498
1257.692914,6217.729913,-8586.388927,842.705048
1257.693243,5921.647536,-8290.306550,842.705048
1257.693573,5921.647536,-7846.182985,0.000000
1257.693902,6217.729913,-8290.306550,459.657299
1257.694231,7031.956449,-7254.018232,842.705048
1257.694560,7624.121203,-6143.709319,1455.581446
1257.694889,7772.162391,-5329.482782,1762.019645
1257.695218,8290.306550,-4737.318029,1608.800546
1257.695547,8364.327145,-4737.318029,1685.410096
1257.695876,8290.306550,-4515.256246,919.314598
1257.696206,8216.285956,-4811.338623,1072.533697
1257.696535,7698.141797,-5403.503377,459.657299
1257.696864,7105.977043,-5773.606348,383.047749
1257.697193,6883.915261,-7698.141797,1302.362347
1257.697522,7031.956449,-7994.224174,459.657299
1257.697851,6661.853478,-8142.265362,1378.971896
1257.698180,5921.647536,-8364.327145,1225.752797
1257.698509,6069.688724,-8068.244768,1455.581446
1257.698839,6217.729913,-7846.182985,1378.971896
1257.699168,6069.688724,-7698.141797,1455.581446
1257.699497,5773.606348,-7328.038826,919.314598
1257.699826,5773.606348,-6217.729913,153.219100
1257.700155,5995.668130,-5551.544565,383.047749
1257.700484,6439.791695,-6365.771101,153.219100
1257.700813,7031.956449,-6587.832884,689.485948
1257.701142,7031.956449,-7031.956449,1378.971896
1257.701472,7328.038826,-7031.956449,1302.362347
1257.701801,7624.121203,-6735.874072,1685.410096
1257.702130,7698.141797,-6735.874072,1838.629195
1257.702459,8068.244768,-6069.688724,1302.362347
1257.702788,8438.347739,-5699.585753,1455.581446
1257.703117,8882.471304,-4885.359217,1378.971896
1257.703446,8216.285956,-4811.338623,1455.581446
1257.703775,7772.162391,-4811.338623,1378.971896
1257.704105,6883.915261,-4885.359217,612.876398
1257.704434,6143.709319,-6217.729913,995.924147
1257.704763,6069.688724,-6365.771101,1149.143247
1257.705092,5847.626942,-6735.874072,536.266849
1257.705421,6069.688724,-7105.977043,689.485948
1257.705750,5921.647536,-7179.997637,306.438199
1257.706079,6587.832884,-7846.182985,612.876398
1257.706408,6957.935855,-7920.203579,689.485948
1257.706738,7031.956449,-8216.285956,1149.143247
1257.707067,7105.977043,-7624.121203,842.705048
1257.707396,6809.894666,-7105.977043,1225.752797
1257.707725,7031.956449,-7031.956449,1455.581446
1257.708054,7328.038826,-6291.750507,1302.362347
1257.708383,7402.059420,-5625.565159,1455.581446
1257.708712,7476.080014,-4959.379811,1072.533697
1257.709041,7550.100608,-4737.318029,1302.362347
1257.709371,7846.182985,-4663.297435,995.924147
1257.709700,7476.080014,-4515.256246,1072.533697
1257.710029,7550.100608,-5477.523971,306.438199
1257.710358,7105.977043,-6365.771101,689.485948
1257.710687,7031.956449,-6957.935855,995.924147
1257.711016,6809.894666,-7920.203579,1455.581446
1257.711345,7031.956449,-7476.080014,1072.533697
1257.711674,6365.771101,-8364.327145,1149.143247
1257.712004,5773.606348,-8068.244768,919.314598
1257.712333,5625.565159,-7920.203579,612.876398
1257.712662,5625.565159,-7179.997637,383.047749
1257.712991,6217.729913,-7031.956449,0.000000
1257.713320,6439.791695,-6809.894666,0.000000
1257.713649,6217.729913,-6809.894666,536.266849
1257.713978,6365.771101,-6957.935855,995.924147
1257.714307,6661.853478,-6735.874072,1455.581446
1257.714637,7254.018232,-6069.688724,1915.238745
1257.714966,8142.265362,-5847.626942,1685.410096
1257.715295,8438.347739,-5181.441594,1455.581446
1257.715624,7846.182985,-5403.503377,1378.971896
1257.715953,7920.203579,-5699.585753,1455.581446
1257.716282,7550.100608,-5329.482782,919.314598
1257.716611,7402.059420,-5773.606348,919.314598
1257.716940,7476.080014,-5921.647536,1455.581446
1257.717270,6957.935855,-6291.750507,1225.752797
1257.717599,6217.729913,-7031.956449,612.876398
1257.717928,6217.729913,-7328.038826,1072.533697
1257.718257,6587.832884,-7476.080014,919.314598
1257.718586,6735.874072,-7031.956449,689.485948
1257.718915,6217.729913,-7402.059420,919.314598
1257.719244,6291.750507,-7846.182985,459.657299
1257.719573,6809.894666,-7328.038826,459.657299
1257.719903,7254.018232,-6809.894666,842.705048
1257.720232,7328.038826,-6291.750507,459.657299
1257.720561,8290.306550,-5551.544565,1838.629195
1257.720890,7624.121203,-5773.606348,1532.190996
1257.721219,7254.018232,-5847.626942,1762.019645
1257.721548,7476.080014,-5255.462188,1225.752797
1257.721877,7698.141797,-4663.297435,1225.752797
1257.722206,7772.162391,-5477.523971,919.314598
1257.722536,7328.038826,-5921.647536,842.705048
1257.722865,6957.935855,-6143.709319,842.705048
1257.723194,6365.771101,-7031.956449,766.095498
1257.723523,5847.626942,-6143.709319,919.314598
1257.723852,6513.812290,-7254.018232,1378.971896
1257.724181,7031.956449,-7328.038826,1608.800546
1257.724510,6661.853478,-7328.038826,1378.971896
1257.724839,6143.709319,-7328.038826,229.828649
1257.725169,5921.647536,-7105.977043,459.657299
1257.725498,6217.729913,-7328.038826,0.000000
1257.725827,6291.750507,-7179.997637,383.047749
1257.726156,6291.750507,-7624.121203,689.485948
1257.726485,7105.977043,-8068.244768,536.266849
1257.726814,6957.935855,-7179.997637,842.705048
1257.727143,7105.977043,-6809.894666,1149.143247
1257.727472,7105.977043,-6661.853478,1455.581446
1257.727802,7105.977043,-5995.668130,1532.190996
1257.728131,7254.018232,-5921.647536,1225.752797
1257.728460,7179.997637,-5551.544565,1225.752797
1257.728789,7994.224174,-4811.338623,1302.362347
1257.729118,8364.327145,-4959.379811,2068.457845
1257.729447,8586.388927,-4811.338623,1915.238745
1257.729776,7772.162391,-5033.400406,1532.190996
1257.730105,6883.915261,-5847.626942,1225.752797
1257.730435,7031.956449,-6291.750507,1455.581446
1257.730764,6809.894666,-7031.956449,919.314598
1257.731093,6291.750507,-7772.162391,1225.752797
1257.731422,6365.771101,-7994.224174,536.266849
1257.731751,5995.668130,-7994.224174,0.000000
1257.732080,6143.709319,-8364.327145,0.000000
1257.732409,6809.894666,-7624.121203,306.438199
1257.732738,7179.997637,-6883.915261,919.314598
1257.733068,7254.018232,-6735.874072,995.924147
1257.733397,7105.977043,-5847.626942,1072.533697
1257.733726,7624.121203,-5773.606348,1532.190996
1257.734055,8142.265362,-5773.606348,1302.362347
1257.734384,7846.182985,-5107.421000,1762.019645
1257.734713,7846.182985,-5181.441594,1378.971896
1257.735042,7846.182985,-4885.359217,1302.362347
1257.735371,7105.977043,-5403.503377,1149.143247
1257.735701,6809.894666,-6291.750507,1149.143247
1257.736030,6587.832884,-6439.791695,1149.143247
1257.736359,6365.771101,-7105.977043,842.705048
1257.736688,6217.729913,-6883.915261,612.876398
1257.737017,5773.606348,-7920.203579,1608.800546
1257.737346,5847.626942,-8068.244768,1072.533697
1257.737675,6143.709319,-7994.224174,842.705048
1257.738004,6291.750507,-7179.997637,842.705048
1257.738334,5921.647536,-7031.956449,536.266849
1257.738663,5847.626942,-6809.894666,0.000000
1257.738992,6143.709319,-7031.956449,536.266849
1257.739321,6883.915261,-7328.038826,612.876398
1257.739650,7179.997637,-6291.750507,1149.143247
1257.739979,7698.141797,-6291.750507,919.314598
1257.740308,7772.162391,-6217.729913,1685.410096
1257.740637,7772.162391,-5921.647536,1532.190996
1257.740967,8142.265362,-5477.523971,1225.752797
1257.741296,8586.388927,-5255.462188,1685.410096
1257.741625,8808.450710,-4737.318029,919.314598
1257.741954,7920.203579,-5329.482782,995.924147
1257.742283,7105.977043,-5773.606348,842.705048
1257.742612,6735.874072,-6143.709319,842.705048
1257.742941,5847.626942,-6809.894666,689.485948
1257.743270,5625.565159,-7402.059420,1149.143247
1257.743600,5699.585753,-7698.141797,919.314598
1257.743929,5921.647536,-7772.162391,229.828649
1257.744258,5625.565159,-8512.368333,919.314598
1257.744587,5921.647536,-8364.327145,612.876398
1257.744916,7105.977043,-7624.121203,766.095498
1257.745245,7031.956449,-6957.935855,536.266849
1257.745574,7624.121203,-7105.977043,842.705048
1257.745903,7920.203579,-7031.956449,1991.848295
1257.746233,8734.430116,-4737.318029,1378.971896
1257.746562,8216.285956,-5477.523971,1685.410096
1257.746891,8142.265362,-4589.276840,995.924147
1257.747220,7994.224174,-4293.194464,1225.752797
1257.747549,7698.141797,-5477.523971,995.924147
1257.747878,7105.977043,-5477.523971,1149.143247
1257.748207,7105.977043,-6513.812290,919.314598
1257.748536,6957.935855,-5995.668130,1378.971896
1257.748866,6587.832884,-5921.647536,1072.533697
1257.749195,6661.853478,-7328.038826,1302.362347
1257.749524,6735.874072,-6809.894666,1532.190996
1257.749853,7105.977043,-6587.832884,1915.238745
1257.750182,6957.935855,-6883.915261,1685.410096
1257.750511,6439.791695,-6365.771101,1149.143247
1257.750840,5551.544565,-7402.059420,919.314598
1257.751169,5773.606348,-6957.935855,153.219100
1257.751499,5921.647536,-8216.285956,459.657299
1257.751828,6661.853478,-7550.100608,459.657299
1257.752157,6661.853478,-7698.141797,842.705048
1257.752486,6217.729913,-7179.997637,536.266849
1257.752815,6291.750507,-6883.915261,995.924147
1257.753144,6957.935855,-6883.915261,1225.752797
1257.753473,7624.121203,-5921.647536,1532.190996
1257.753802,8512.368333,-5625.565159,2145.067394
1257.754131,8290.306550,-5329.482782,1838.629195
1257.754460,7920.203579,-4959.379811,1072.533697
1257.754789,7328.038826,-5255.462188,1225.752797
1257.755119,7624.121203,-4737.318029,459.657299
1257.755448,7476.080014,-5255.462188,1149.143247
1257.755777,7179.997637,-5921.647536,1302.362347
1257.756106,6439.791695,-6957.935855,1225.752797
1257.756435,5699.585753,-7772.162391,1149.143247
1257.756764,5921.647536,-7846.182985,229.828649
1257.757093,5847.626942,-8882.471304,1072.533697
1257.757422,6439.791695,-8438.347739,766.095498
1257.757751,6439.791695,-8142.265362,689.485948
1257.758080,6809.894666,-7254.018232,689.485948
1257.758409,6883.915261,-7179.997637,383.047749
1257.758738,7402.059420,-6587.832884,1225.752797
1257.759068,7994.224174,-5699.585753,1225.752797
1257.759397,7402.059420,-5477.523971,1532.190996
1257.759726,7772.162391,-5255.462188,1991.848295
1257.760055,7698.141797,-5329.482782,1685.410096
1257.760384,7920.203579,-4885.359217,1608.800546
1257.760713,7994.224174,-4811.338623,995.924147
1257.761042,7698.141797,-5107.421000,229.828649
1257.761371,7328.038826,-6217.729913,689.485948
1257.761700,7031.956449,-6809.894666,612.876398
1257.762029,6513.812290,-7254.018232,1072.533697
1257.762358,6513.812290,-7105.977043,1302.362347
1257.762688,6587.832884,-7920.203579,1302.362347
1257.763017,6735.874072,-6883.915261,1762.019645
1257.763346,6217.729913,-7031.956449,995.924147
1257.763675,5995.668130,-7179.997637,306.438199
1257.764004,5773.606348,-6661.853478,0.000000
1257.764333,5551.544565,-6957.935855,306.438199
1257.764662,6217.729913,-7031.956449,536.266849
1257.764991,5995.668130,-7476.080014,536.266849
1257.765320,5995.668130,-8142.265362,919.314598
1257.765649,6513.812290,-7624.121203,842.705048
1257.765978,6439.791695,-8068.244768,919.314598
1257.766308,6809.894666,-7031.956449,842.705048
1257.766637,7105.977043,-7105.977043,1532.190996
1257.766966,7846.182985,-6069.688724,1225.752797
1257.767295,8882.471304,-4959.379811,1762.019645
1257.767624,8882.471304,-4441.235652,1455.581446
1257.767953,8734.430116,-3997.112087,1149.143247
1257.768282,7846.182985,-4663.297435,1225.752797
1257.768611,6957.935855,-4811.338623,689.485948
1257.768940,6365.771101,-5847.626942,995.924147
1257.769269,6661.853478,-7476.080014,1608.800546
1257.769598,6365.771101,-7179.997637,1072.533697
1257.769927,5847.626942,-8364.327145,1225.752797
1257.770257,5773.606348,-8216.285956,536.266849
1257.770586,5773.606348,-8660.409521,0.000000
1257.770915,5477.523971,-8290.306550,76.609550
1257.771244,6809.894666,-8364.327145,842.705048
1257.771573,7105.977043,-7476.080014,995.924147
1257.771902,7031.956449,-5699.585753,1302.362347
1257.772231,7105.977043,-5329.482782,1225.752797
1257.772560,7920.203579,-4885.359217,1302.362347
1257.772889,8290.306550,-4737.318029,1838.629195
1257.773218,8142.265362,-3923.091493,1915.238745
1257.773547,8512.368333,-4367.215058,1225.752797
1257.773877,8216.285956,-4885.359217,1225.752797
1257.774206,7846.182985,-5403.503377,919.314598
1257.774535,7402.059420,-6069.688724,842.705048
1257.774864,6957.935855,-6217.729913,766.095498
1257.775193,6587.832884,-7846.182985,689.485948
1257.775522,6439.791695,-8438.347739,1455.581446
1257.775851,6365.771101,-8586.388927,1378.971896
1257.776180,6883.915261,-7846.182985,1608.800546
1257.776509,6143.709319,-7402.059420,1302.362347
1257.776838,5329.482782,-7402.059420,536.266849
1257.777167,5477.523971,-6957.935855,536.266849
1257.777496,5773.606348,-6365.771101,229.828649
1257.777826,6439.791695,-5995.668130,306.438199
1257.778155,6809.894666,-5921.647536,459.657299
1257.778484,7476.080014,-6291.750507,1455.581446
1257.778813,7846.182985,-6661.853478,1532.190996
1257.779142,7698.141797,-6957.935855,1915.238745
1257.779471,7772.162391,-6809.894666,1608.800546
1257.779800,7920.203579,-6513.812290,1225.752797
1257.780129,7772.162391,-6217.729913,995.924147
1257.780458,7402.059420,-5921.647536,1302.362347
1257.780787,7476.080014,-5699.585753,1532.190996
1257.781116,7328.038826,-5773.606348,1149.143247
1257.781446,6661.853478,-5625.565159,842.705048
1257.781775,6365.771101,-6587.832884,1302.362347
1257.782104,6291.750507,-6883.915261,1149.143247
1257.782433,6291.750507,-7328.038826,919.314598
1257.782762,5995.668130,-7624.121203,1225.752797
1257.783091,6217.729913,-7179.997637,612.876398
1257.783420,6809.894666,-7105.977043,0.000000
1257.783749,7105.977043,-7920.203579,1378.971896
1257.784078,7698.141797,-7328.038826,1149.143247
1257.784407,7772.162391,-7105.977043,1149.143247
1257.784736,7698.141797,-6365.771101,1378.971896
1257.785066,7105.977043,-6513.812290,1455.581446
1257.785395,7105.977043,-5995.668130,1378.971896
1257.785724,6809.894666,-5773.606348,1225.752797
1257.786053,6513.812290,-6217.729913,1149.143247
1257.786382,7105.977043,-5255.462188,995.924147
1257.786711,7105.977043,-5477.523971,1455.581446
1257.787040,6883.915261,-5699.585753,1149.143247
1257.787369,6513.812290,-5921.647536,842.705048
1257.787698,6217.729913,-6513.812290,536.266849
1257.788027,6735.874072,-6735.874072,766.095498
1257.788356,7105.977043,-7328.038826,1532.190996
1257.788685,7402.059420,-7402.059420,2145.067394
1257.789015,7846.182985,-7031.956449,1532.190996
1257.789344,7179.997637,-7031.956449,1149.143247
1257.789673,6291.750507,-6513.812290,842.705048
1257.790002,6587.832884,-6735.874072,842.705048
1257.790331,6217.729913,-7105.977043,229.828649
1257.790660,5699.585753,-7179.997637,229.828649
1257.790989,6069.688724,-6957.935855,842.705048
1257.791318,6365.771101,-6661.853478,1302.362347
1257.791647,7031.956449,-7179.997637,1915.238745
1257.791976,6883.915261,-6291.750507,1455.581446
1257.792305,6957.935855,-6291.750507,1149.143247
1257.792635,7402.059420,-5699.585753,919.314598
1257.792964,8290.306550,-5329.482782,1685.410096
1257.793293,8660.409521,-5625.565159,1532.190996
1257.793622,8512.368333,-5033.400406,1455.581446
1257.793951,8290.306550,-5699.585753,1225.752797
1257.794280,7624.121203,-5403.503377,1378.971896
1257.794609,7328.038826,-6291.750507,842.705048
1257.794938,6587.832884,-7179.997637,1455.581446
1257.795267,6365.771101,-7624.121203,1378.971896
1257.795596,5921.647536,-7772.162391,919.314598
1257.795925,5255.462188,-7772.162391,536.266849
1257.796254,5329.482782,-8290.306550,153.219100
1257.796584,6143.709319,-8364.327145,306.438199
