#time,accel_x,accel_y,accel_z
1333.316066,6439.791695,-6587.832884,612.876398
1333.316396,6883.915261,-7031.956449,919.314598
1333.316726,6365.771101,-6809.894666,995.924147
1333.317056,6809.894666,-7179.997637,689.485948
1333.317386,7254.018232,-6439.791695,995.924147
1333.317716,7402.059420,-6957.935855,1532.190996
1333.318046,7105.977043,-6661.853478,689.485948
1333.318376,7105.977043,-6513.812290,1072.533697
1333.318706,6957.935855,-6735.874072,1225.752797
1333.319037,6957.935855,-6365.771101,766.095498
1333.319367,7328.038826,-5773.606348,612.876398
1333.319697,7476.080014,-6291.750507,919.314598
1333.320027,7550.100608,-6439.791695,1302.362347
1333.320357,7105.977043,-6513.812290,1225.752797
1333.320687,7105.977043,-6735.874072,1302.362347
1333.321017,6587.832884,-6957.935855,1302.362347
1333.321347,6883.915261,-6661.853478,1149.143247
1333.321677,6513.812290,-6661.853478,1072.533697
1333.322007,6883.915261,-6735.874072,1302.362347
1333.322337,7402.059420,-6513.812290,1378.971896
1333.322667,6883.915261,-6809.894666,689.485948
1333.322997,6661.853478,-6513.812290,1225.752797
1333.323327,6883.915261,-6735.874072,1072.533697
1333.323657,7031.956449,-6513.812290,689.485948
1333.323987,6883.915261,-6883.915261,919.314598
1333.324317,6957.935855,-7179.997637,1072.533697
1333.324647,7254.018232,-6735.874072,1072.533697
1333.324977,7179.997637,-6513.812290,1072.533697
1333.325308,7105.977043,-6439.791695,1685.410096
1333.325638,7105.977043,-6587.832884,612.876398
1333.325968,7105.977043,-6735.874072,1072.533697
1333.326298,7105.977043,-6439.791695,842.705048
1333.326628,7328.038826,-5551.544565,1225.752797
1333.326958,7550.100608,-5699.585753,919.314598
1333.327288,7402.059420,-5995.668130,842.705048
1333.327618,7179.997637,-6217.729913,919.314598
1333.327948,6883.915261,-6291.750507,1072.533697
1333.328278,6735.874072,-6291.750507,1685.410096
1333.328608,6809.894666,-6439.791695,766.095498
1333.328938,6439.791695,-6735.874072,842.705048
1333.329268,7031.956449,-7105.977043,1149.143247
1333.329598,7105.977043,-6883.915261,1072.533697
1333.329928,7105.977043,-6735.874072,1302.362347
1333.330258,6735.874072,-6587.832884,919.314598
1333.330588,6735.874072,-6661.853478,1149.143247
1333.330918,7031.956449,-7031.956449,689.485948
1333.331248,6217.729913,-6661.853478,1455.581446
1333.331579,6809.894666,-6883.915261,1072.533697
1333.331909,7105.977043,-7105.977043,1072.533697
1333.332239,7254.018232,-6809.894666,1072.533697
1333.332569,6957.935855,-6883.915261,842.705048
1333.332899,7328.038826,-6661.853478,1149.143247
1333.333229,6957.935855,-6883.915261,1225.752797
1333.333559,7031.956449,-7031.956449,919.314598
1333.333889,7328.038826,-6809.894666,1072.533697
1333.334219,7179.997637,-6143.709319,1072.533697
1333.334549,7031.956449,-6143.709319,1532.190996
1333.334879,7105.977043,-6291.750507,1302.362347
1333.335209,7105.977043,-5995.668130,919.314598
1333.335539,7624.121203,-6439.791695,1072.533697
1333.335869,7105.977043,-6587.832884,1225.752797
1333.336199,6513.812290,-6661.853478,766.095498
1333.336529,6587.832884,-6587.832884,995.924147
1333.336859,6809.894666,-7402.059420,919.314598
1333.337189,6809.894666,-6957.935855,689.485948
1333.337520,6809.894666,-6143.709319,1225.752797
1333.337850,6809.894666,-6809.894666,1149.143247
1333.338180,6587.832884,-6883.915261,689.485948
1333.338510,6661.853478,-6439.791695,689.485948
1333.338840,6661.853478,-6809.894666,1072.533697
1333.339170,7328.038826,-6587.832884,919.314598
1333.339500,7550.100608,-6365.771101,1915.238745
1333.339830,7254.018232,-6513.812290,1302.362347
1333.340160,7179.997637,-6143.709319,536.266849
1333.340490,6883.915261,-5921.647536,612.876398
1333.340820,6809.894666,-6587.832884,459.657299
1333.341150,7031.956449,-6439.791695,1072.533697
1333.341480,7476.080014,-6291.750507,1072.533697
1333.341810,7402.059420,-6291.750507,1072.533697
1333.342140,7402.059420,-5995.668130,1455.581446
1333.342470,7105.977043,-6291.750507,919.314598
1333.342800,6513.812290,-6291.750507,919.314598
1333.343130,6587.832884,-6291.750507,1072.533697
1333.343460,7031.956449,-6291.750507,1302.362347
1333.343791,6661.853478,-6809.894666,995.924147
1333.344121,6661.853478,-6735.874072,842.705048
1333.344451,6735.874072,-6809.894666,1225.752797
1333.344781,6883.915261,-6735.874072,1072.533697
1333.345111,7105.977043,-7031.956449,1149.143247
1333.345441,6291.750507,-6883.915261,689.485948
1333.345771,6439.791695,-7105.977043,919.314598
1333.346101,6513.812290,-6957.935855,536.266849
1333.346431,7328.038826,-6809.894666,689.485948
1333.346761,7105.977043,-6365.771101,1302.362347
1333.347091,7254.018232,-6513.812290,919.314598
1333.347421,7328.038826,-6735.874072,995.924147
1333.347751,7179.997637,-6661.853478,1302.362347
1333.348081,7476.080014,-6883.915261,766.095498
1333.348411,6957.935855,-6439.791695,919.314598
1333.348741,7105.977043,-6291.750507,919.314598
1333.349071,7179.997637,-6291.750507,919.314598
1333.349401,7476.080014,-6365.771101,1378.971896
1333.349732,7328.038826,-7031.956449,1149.143247
1333.350062,7105.977043,-6291.750507,1072.533697
1333.350392,6957.935855,-6439.791695,919.314598
1333.350722,6883.915261,-6217.729913,842.705048
1333.351052,7105.977043,-6365.771101,1532.190996
1333.351382,6883.915261,-6661.853478,1072.533697
1333.351712,6809.894666,-6587.832884,1149.143247
1333.352042,6957.935855,-6957.935855,1072.533697
1333.352372,6735.874072,-6809.894666,1149.143247
1333.352702,6365.771101,-6735.874072,1378.971896
1333.353032,6883.915261,-7105.977043,1072.533697
1333.353362,6513.812290,-6809.894666,1225.752797
1333.353692,6735.874072,-6957.935855,995.924147
1333.354022,7550.100608,-6735.874072,1532.190996
1333.354352,7105.977043,-6513.812290,1455.581446
1333.354682,7328.038826,-6439.791695,1072.533697
1333.355012,7105.977043,-6217.729913,919.314598
1333.355342,7031.956449,-6217.729913,995.924147
1333.355672,7105.977043,-6439.791695,1455.581446
1333.356003,7328.038826,-6069.688724,919.314598
1333.356333,7254.018232,-6513.812290,842.705048
1333.356663,7105.977043,-5995.668130,1149.143247
1333.356993,6883.915261,-6439.791695,1378.971896
1333.357323,6957.935855,-6069.688724,1378.971896
1333.357653,6957.935855,-6143.709319,919.314598
1333.357983,6809.894666,-6513.812290,1072.533697
1333.358313,6513.812290,-6439.791695,919.314598
1333.358643,7105.977043,-6513.812290,612.876398
1333.358973,6809.894666,-6365.771101,919.314598
1333.359303,6883.915261,-6661.853478,842.705048
1333.359633,6809.894666,-6661.853478,1455.581446
1333.359963,6809.894666,-7031.956449,919.314598
1333.360293,6365.771101,-7105.977043,459.657299
1333.360623,6439.791695,-7031.956449,995.924147
1333.360953,6957.935855,-7105.977043,1149.143247
1333.361283,7254.018232,-6957.935855,1302.362347
1333.361613,7476.080014,-5995.668130,995.924147
1333.361943,7254.018232,-6809.894666,919.314598
1333.362274,7105.977043,-6513.812290,536.266849
1333.362604,7031.956449,-6809.894666,766.095498
1333.362934,7031.956449,-6587.832884,689.485948
1333.363264,7105.977043,-5921.647536,1072.533697
1333.363594,7402.059420,-6143.709319,1072.533697
1333.363924,7254.018232,-6661.853478,1225.752797
1333.364254,7031.956449,-6661.853478,1072.533697
1333.364584,7031.956449,-6365.771101,842.705048
1333.364914,6809.894666,-6217.729913,995.924147
1333.365244,6439.791695,-6513.812290,842.705048
1333.365574,6587.832884,-6513.812290,995.924147
1333.365904,7031.956449,-6957.935855,1072.533697
1333.366234,7179.997637,-6291.750507,1302.362347
1333.366564,7254.018232,-6365.771101,766.095498
1333.366894,6735.874072,-6735.874072,1302.362347
1333.367224,6957.935855,-6809.894666,1072.533697
1333.367554,6587.832884,-7031.956449,689.485948
1333.367884,6513.812290,-6143.709319,1072.533697
1333.368215,6809.894666,-6883.915261,842.705048
1333.368545,7254.018232,-6587.832884,1072.533697
1333.368875,7179.997637,-6661.853478,1608.800546
1333.369205,7179.997637,-6291.750507,995.924147
1333.369535,7105.977043,-6217.729913,1302.362347
1333.369865,7105.977043,-6439.791695,1072.533697
1333.370195,7105.977043,-6735.874072,766.095498
1333.370525,7105.977043,-6365.771101,1532.190996
1333.370855,7994.224174,-6143.709319,995.924147
1333.371185,7105.977043,-6291.750507,1225.752797
1333.371515,7105.977043,-6143.709319,1072.533697
1333.371845,6735.874072,-6365.771101,1225.752797
1333.372175,7031.956449,-5921.647536,612.876398
1333.372505,7031.956449,-6587.832884,1302.362347
1333.372835,6735.874072,-6513.812290,995.924147
1333.373165,6661.853478,-6883.915261,1225.752797
1333.373495,6587.832884,-6735.874072,1149.143247
1333.373825,6661.853478,-6883.915261,1685.410096
1333.374155,6735.874072,-6735.874072,1225.752797
1333.374486,6661.853478,-7105.977043,1455.581446
1333.374816,6513.812290,-6883.915261,919.314598
1333.375146,6513.812290,-6883.915261,995.924147
1333.375476,6439.791695,-6365.771101,612.876398
1333.375806,6809.894666,-7105.977043,995.924147
1333.376136,6883.915261,-6513.812290,1378.971896
1333.376466,7105.977043,-6809.894666,1072.533697
1333.376796,7328.038826,-6291.750507,383.047749
1333.377126,7031.956449,-6587.832884,1225.752797
1333.377456,6883.915261,-6735.874072,689.485948
1333.377786,7105.977043,-6365.771101,919.314598
1333.378116,7254.018232,-5995.668130,919.314598
1333.378446,7254.018232,-6291.750507,1072.533697
1333.378776,6883.915261,-6439.791695,1149.143247
1333.379106,7179.997637,-6217.729913,919.314598
1333.379436,7254.018232,-6661.853478,919.314598
1333.379766,6735.874072,-6365.771101,919.314598
1333.380096,6587.832884,-6439.791695,766.095498
1333.380426,7031.956449,-6661.853478,919.314598
1333.380757,7031.956449,-6809.894666,1225.752797
1333.381087,7105.977043,-6291.750507,842.705048
1333.381417,7105.977043,-6291.750507,1225.752797
1333.381747,6439.791695,-6587.832884,995.924147
1333.382077,6513.812290,-6809.894666,766.095498
1333.382407,6735.874072,-6661.853478,536.266849
1333.382737,6957.935855,-6587.832884,1225.752797
1333.383067,7402.059420,-6513.812290,919.314598
1333.383397,7179.997637,-6587.832884,1302.362347
1333.383727,7105.977043,-6735.874072,919.314598
1333.384057,7328.038826,-6365.771101,919.314598
1333.384386,7179.997637,-6143.709319,842.705048
1333.384716,7254.018232,-6809.894666,536.266849
1333.385045,7105.977043,-6513.812290,1072.533697
1333.385375,7328.038826,-5995.668130,1072.533697
1333.385704,7476.080014,-5921.647536,689.485948
1333.386034,7254.018232,-5995.668130,1455.581446
1333.386363,6957.935855,-6513.812290,1149.143247
1333.386693,7254.018232,-6291.750507,919.314598
1333.387023,6587.832884,-6587.832884,1072.533697
1333.387352,6217.729913,-6439.791695,689.485948
1333.387682,6513.812290,-6661.853478,1072.533697
1333.388011,6735.874072,-6809.894666,1302.362347
1333.388341,6735.874072,-6587.832884,1302.362347
1333.388670,6661.853478,-6587.832884,842.705048
1333.389000,6809.894666,-7105.977043,1532.190996
1333.389329,6587.832884,-7105.977043,842.705048
1333.389659,6291.750507,-6587.832884,689.485948
1333.389988,6513.812290,-7031.956449,919.314598
1333.390318,6883.915261,-7179.997637,689.485948
1333.390648,7031.956449,-6513.812290,1302.362347
1333.390977,7254.018232,-6661.853478,995.924147
1333.391307,6957.935855,-6809.894666,842.705048
1333.391636,6883.915261,-6291.750507,919.314598
1333.391966,6883.915261,-6513.812290,536.266849
1333.392295,6735.874072,-6661.853478,766.095498
1333.392625,7105.977043,-5921.647536,1149.143247
1333.392954,7179.997637,-6291.750507,1149.143247
1333.393284,7105.977043,-6365.771101,1455.581446
1333.393613,7476.080014,-6809.894666,1149.143247
1333.393943,7179.997637,-6439.791695,919.314598
1333.394273,6883.915261,-6291.750507,995.924147
1333.394602,6587.832884,-6587.832884,919.314598
1333.394932,7328.038826,-6513.812290,1302.362347
1333.395261,7031.956449,-7105.977043,1225.752797
1333.395591,6809.894666,-6735.874072,1149.143247
1333.395920,7031.956449,-6513.812290,612.876398
1333.396250,6809.894666,-6513.812290,1149.143247
1333.396579,6735.874072,-6661.853478,1302.362347
1333.396909,6735.874072,-7031.956449,1072.533697
1333.397239,6883.915261,-6291.750507,995.924147
1333.397568,7105.977043,-6661.853478,1072.533697
1333.397898,7402.059420,-6439.791695,1149.143247
1333.398227,7920.203579,-6291.750507,1302.362347
1333.398557,7179.997637,-6661.853478,919.314598
1333.398886,6735.874072,-6365.771101,995.924147
1333.399216,7105.977043,-6439.791695,919.314598
1333.399545,7179.997637,-6365.771101,842.705048
1333.399875,7254.018232,-6143.709319,919.314598
1333.400204,7402.059420,-6217.729913,919.314598
1333.400534,7179.997637,-6217.729913,1149.143247
1333.400864,7254.018232,-6513.812290,1378.971896
1333.401193,7550.100608,-5995.668130,842.705048
1333.401523,7105.977043,-6439.791695,1149.143247
1333.401852,6661.853478,-6735.874072,995.924147
1333.402182,6661.853478,-7105.977043,766.095498
1333.402511,6587.832884,-6661.853478,995.924147
1333.402841,6587.832884,-6883.915261,1455.581446
1333.403170,6809.894666,-6661.853478,689.485948
1333.403500,6809.894666,-7105.977043,1302.362347
1333.403830,6809.894666,-7254.018232,995.924147
1333.404159,7105.977043,-7031.956449,689.485948
1333.404489,6439.791695,-6735.874072,1149.143247
1333.404818,6513.812290,-7105.977043,919.314598
1333.405148,7105.977043,-6957.935855,1072.533697
1333.405477,7031.956449,-6291.750507,919.314598
1333.405807,7031.956449,-6587.832884,919.314598
1333.406136,7031.956449,-6513.812290,689.485948
1333.406466,6661.853478,-7031.956449,612.876398
1333.406795,6587.832884,-6957.935855,919.314598
1333.407125,7328.038826,-6365.771101,1532.190996
1333.407455,7328.038826,-6069.688724,1149.143247
1333.407784,7254.018232,-6069.688724,1225.752797
1333.408114,7254.018232,-6069.688724,1302.362347
1333.408443,7105.977043,-6291.750507,995.924147
1333.408773,6957.935855,-6291.750507,1915.238745
1333.409102,6735.874072,-6513.812290,919.314598
1333.409432,6661.853478,-6439.791695,766.095498
1333.409761,6883.915261,-6587.832884,919.314598
1333.410091,6957.935855,-6587.832884,1378.971896
1333.410420,7254.018232,-6587.832884,766.095498
1333.410750,6587.832884,-6439.791695,919.314598
1333.411080,6735.874072,-6735.874072,919.314598
1333.411409,6735.874072,-7031.956449,842.705048
1333.411739,6661.853478,-6587.832884,1072.533697
1333.412068,6883.915261,-7105.977043,1072.533697
1333.412398,7254.018232,-6809.894666,536.266849
1333.412727,7846.182985,-6513.812290,1225.752797
1333.413057,7254.018232,-6365.771101,1072.533697
1333.413386,7846.182985,-6291.750507,1072.533697
1333.413716,7476.080014,-6513.812290,766.095498
1333.414046,7179.997637,-6587.832884,766.095498
1333.414375,7105.977043,-6217.729913,919.314598
1333.414705,7476.080014,-5921.647536,1608.800546
1333.415034,7328.038826,-6661.853478,689.485948
1333.415364,7105.977043,-6439.791695,1302.362347
1333.415693,6291.750507,-6291.750507,919.314598
1333.416023,7031.956449,-6439.791695,842.705048
1333.416352,6957.935855,-5995.668130,919.314598
1333.416682,6661.853478,-6439.791695,995.924147
1333.417011,6883.915261,-6735.874072,842.705048
1333.417341,6883.915261,-6883.915261,1378.971896
1333.417671,6883.915261,-6661.853478,1532.190996
1333.418000,6883.915261,-6661.853478,919.314598
1333.418330,6587.832884,-6809.894666,1685.410096
1333.418659,6439.791695,-6883.915261,612.876398
1333.418989,6291.750507,-6957.935855,612.876398
1333.419318,6291.750507,-6661.853478,1225.752797
1333.419648,6809.894666,-7105.977043,612.876398
1333.419977,7031.956449,-6809.894666,1532.190996
1333.420307,7031.956449,-6513.812290,995.924147
1333.420636,7105.977043,-6513.812290,842.705048
1333.420966,7179.997637,-6957.935855,1149.143247
1333.421296,6957.935855,-7105.977043,1072.533697
1333.421625,6883.915261,-6587.832884,1149.143247
1333.421955,7105.977043,-6217.729913,995.924147
1333.422284,7031.956449,-6069.688724,1378.971896
1333.422614,6809.894666,-6217.729913,1302.362347
1333.422943,6883.915261,-6587.832884,1072.533697
1333.423273,6809.894666,-6513.812290,919.314598
1333.423602,6735.874072,-6587.832884,995.924147
1333.423932,7031.956449,-6735.874072,842.705048
1333.424262,6587.832884,-6513.812290,919.314598
1333.424591,7105.977043,-6513.812290,1302.362347
1333.424921,6957.935855,-6661.853478,1302.362347
1333.425250,7105.977043,-6365.771101,842.705048
1333.425580,6809.894666,-6587.832884,1072.533697
1333.425909,6735.874072,-6809.894666,919.314598
1333.426239,6513.812290,-6513.812290,919.314598
1333.426568,6587.832884,-6957.935855,612.876398
1333.426898,6957.935855,-6661.853478,1685.410096
1333.427227,7179.997637,-6439.791695,842.705048
1333.427557,7254.018232,-6291.750507,1072.533697
1333.427887,7179.997637,-6513.812290,689.485948
1333.428216,7402.059420,-6365.771101,1149.143247
1333.428546,7031.956449,-5995.668130,766.095498
1333.428875,7105.977043,-6439.791695,1072.533697
1333.429205,7476.080014,-5847.626942,995.924147
1333.429534,7624.121203,-5995.668130,1225.752797
1333.429864,7550.100608,-6365.771101,1072.533697
1333.430193,7105.977043,-6217.729913,1225.752797
1333.430523,7105.977043,-6439.791695,842.705048
1333.430853,6957.935855,-6587.832884,1072.533697
1333.431182,6513.812290,-6513.812290,766.095498
1333.431512,7105.977043,-6883.915261,536.266849
1333.431841,6883.915261,-7105.977043,1072.533697
1333.432171,7105.977043,-6587.832884,1225.752797
1333.432500,7031.956449,-6735.874072,689.485948
1333.432830,6513.812290,-6291.750507,1532.190996
1333.433159,6661.853478,-6513.812290,766.095498
1333.433489,6957.935855,-5921.647536,536.266849
1333.433818,7550.100608,-5403.503377,766.095498
1333.434148,8290.306550,-6291.750507,1302.362347
1333.434478,8290.306550,-6069.688724,1532.190996
1333.434807,7846.182985,-5995.668130,1302.362347
1333.435137,6809.894666,-6661.853478,306.438199
1333.435466,5329.482782,-7179.997637,0.000000
1333.435796,5921.647536,-7105.977043,229.828649
1333.436125,7105.977043,-7254.018232,612.876398
1333.436455,8216.285956,-6513.812290,1685.410096
1333.436784,8660.409521,-5625.565159,1838.629195
1333.437114,8512.368333,-4515.256246,1685.410096
1333.437443,7920.203579,-3552.988522,1225.752797
1333.437773,7846.182985,-4663.297435,1378.971896
1333.438103,7994.224174,-4367.215058,995.924147
1333.438432,8290.306550,-4367.215058,919.314598
1333.438762,8290.306550,-4737.318029,919.314598
1333.439091,7698.141797,-4737.318029,1532.190996
1333.439421,7772.162391,-5847.626942,919.314598
1333.439750,7994.224174,-4885.359217,689.485948
1333.440080,8290.306550,-6143.709319,995.924147
1333.440409,8512.368333,-6291.750507,1608.800546
1333.440739,8290.306550,-5625.565159,229.828649
1333.441069,7476.080014,-6069.688724,229.828649
1333.441398,7624.121203,-4885.359217,766.095498
1333.441728,8734.430116,-5107.421000,536.266849
1333.442057,8734.430116,-3627.009116,1991.848295
1333.442387,9326.594869,-4515.256246,1302.362347
1333.442716,9770.718434,-3849.070898,1762.019645
1333.443046,9548.656652,-2738.761985,1532.190996
1333.443375,9770.718434,-3552.988522,1455.581446
1333.443705,9992.780217,-1998.556043,1149.143247
1333.444034,10214.842000,-3034.844362,1225.752797
1333.444364,10140.821405,-3182.885551,1455.581446
1333.444694,9696.697840,-3404.947333,1455.581446
1333.445023,9474.636058,-4885.359217,1149.143247
1333.445353,9178.553681,-4959.379811,689.485948
1333.445682,8586.388927,-5847.626942,1455.581446
1333.446012,8068.244768,-5477.523971,689.485948
1333.446341,7328.038826,-6291.750507,919.314598
1333.446671,8216.285956,-5847.626942,1225.752797
1333.447000,7994.224174,-5033.400406,919.314598
1333.447330,8364.327145,-4885.359217,1455.581446
1333.447659,8512.368333,-3330.926739,1149.143247
1333.447989,9252.574275,-4663.297435,459.657299
1333.448319,9178.553681,-4145.153275,842.705048
1333.448648,8882.471304,-4219.173869,229.828649
1333.448978,9326.594869,-4885.359217,306.438199
1333.449307,9622.677246,-4293.194464,229.828649
1333.449637,8956.491898,-6365.771101,689.485948
1333.449966,9400.615463,-4219.173869,229.828649
1333.450296,9178.553681,-5329.482782,229.828649
1333.450625,8956.491898,-5403.503377,689.485948
1333.450955,8882.471304,-3923.091493,1455.581446
1333.451285,9696.697840,-4663.297435,1149.143247
1333.451614,9622.677246,-3330.926739,1838.629195
1333.451944,8734.430116,-3404.947333,2068.457845
1333.452273,9178.553681,-3627.009116,2145.067394
1333.452603,9252.574275,-2368.659014,1455.581446
1333.452932,9104.533087,-3701.029710,1991.848295
1333.453262,9104.533087,-2590.720797,1149.143247
1333.453591,8956.491898,-3775.050304,919.314598
1333.453921,9252.574275,-4219.173869,919.314598
1333.454250,8956.491898,-4737.318029,995.924147
1333.454580,8586.388927,-5181.441594,0.000000
1333.454910,8586.388927,-4663.297435,-383.047749
1333.455239,8290.306550,-6883.915261,0.000000
1333.455569,9030.512492,-6143.709319,842.705048
1333.455898,8142.265362,-6587.832884,1455.581446
1333.456228,8438.347739,-6439.791695,1455.581446
1333.456557,8586.388927,-4737.318029,1838.629195
1333.456887,8512.368333,-5329.482782,2068.457845
1333.457216,9104.533087,-4219.173869,1532.190996
1333.457546,8956.491898,-3330.926739,1991.848295
1333.457875,9400.615463,-2960.823768,1685.410096
1333.458205,10288.862594,-1776.494261,1455.581446
1333.458535,11177.109724,-1480.411884,1072.533697
1333.458864,11251.130318,-888.247130,689.485948
1333.459194,10288.862594,-2368.659014,153.219100
1333.459523,9770.718434,-3182.885551,0.000000
1333.459853,9622.677246,-4515.256246,0.000000
1333.460182,9252.574275,-5921.647536,0.000000
1333.460512,8216.285956,-6661.853478,76.609550
1333.460841,7328.038826,-8290.306550,842.705048
1333.461171,6883.915261,-8882.471304,1149.143247
1333.461501,6957.935855,-8142.265362,1532.190996
1333.461830,6439.791695,-8068.244768,995.924147
1333.462160,6735.874072,-6069.688724,919.314598
1333.462489,7550.100608,-4589.276840,536.266849
1333.462819,8734.430116,-3478.967927,1685.410096
1333.463148,9918.759623,-2590.720797,1991.848295
1333.463478,10584.944971,-2072.576638,1608.800546
1333.463807,10807.006753,-740.205942,1302.362347
1333.464137,11251.130318,-740.205942,995.924147
1333.464466,11843.295072,-1036.288319,612.876398
1333.464796,12213.398043,-1702.473667,842.705048
1333.465126,11843.295072,-2886.803174,1762.019645
1333.465455,10436.903782,-4293.194464,1378.971896
1333.465785,8882.471304,-5477.523971,919.314598
1333.466114,7105.977043,-7772.162391,919.314598
1333.466444,5551.544565,-8660.409521,1072.533697
1333.466773,4663.297435,-9474.636058,229.828649
1333.467103,4589.276840,-9104.533087,153.219100
1333.467432,4811.338623,-7698.141797,0.000000
1333.467762,6439.791695,-6513.812290,0.000000
1333.468092,7624.121203,-6217.729913,612.876398
1333.468421,8660.409521,-4663.297435,1455.581446
1333.468751,9178.553681,-3552.988522,1532.190996
1333.469080,8956.491898,-2738.761985,766.095498
1333.469410,8882.471304,-2146.597232,919.314598
1333.469739,9474.636058,-2294.638420,766.095498
1333.470069,11547.212695,-2294.638420,1302.362347
1333.470398,12139.377449,-3552.988522,2145.067394
1333.470728,11843.295072,-4737.318029,3294.210641
1333.471057,10288.862594,-5477.523971,2681.334243
1333.471387,8438.347739,-5699.585753,1685.410096
1333.471717,6365.771101,-5995.668130,383.047749
1333.472046,4959.379811,-8142.265362,0.000000
1333.472376,4367.215058,-8364.327145,0.000000
1333.472705,4293.194464,-8808.450710,0.000000
1333.473035,4737.318029,-8882.471304,153.219100
1333.473364,6217.729913,-6587.832884,766.095498
1333.473694,7328.038826,-6069.688724,612.876398
1333.474023,7772.162391,-4737.318029,766.095498
1333.474353,8734.430116,-3627.009116,1149.143247
1333.474682,9326.594869,-4441.235652,766.095498
1333.475012,9622.677246,-3701.029710,1455.581446
1333.475342,9696.697840,-4515.256246,1915.238745
1333.475671,10066.800811,-5847.626942,2528.115143
1333.476001,8956.491898,-7031.956449,2298.286494
1333.476330,6587.832884,-9030.512492,1378.971896
1333.476660,4811.338623,-9400.615463,766.095498
1333.476989,3997.112087,-9918.759623,612.876398
1333.477319,3552.988522,-9548.656652,229.828649
1333.477648,3108.864956,-7846.182985,229.828649
1333.477978,4219.173869,-6143.709319,76.609550
1333.478308,6439.791695,-4515.256246,-229.828649
1333.478637,8438.347739,-2886.803174,1302.362347
1333.478967,10140.821405,-2294.638420,1225.752797
1333.479296,10881.027347,-2960.823768,1915.238745
1333.479626,10584.944971,-3108.864956,1915.238745
1333.479955,10066.800811,-5477.523971,1608.800546
1333.480285,8956.491898,-6439.791695,2145.067394
1333.480614,8438.347739,-6809.894666,1302.362347
1333.480944,6957.935855,-8586.388927,1072.533697
1333.481273,5995.668130,-9696.697840,1608.800546
1333.481603,4811.338623,-9770.718434,1149.143247
1333.481933,4145.153275,-8512.368333,153.219100
1333.482262,3552.988522,-7179.997637,0.000000
1333.482592,4589.276840,-6661.853478,306.438199
1333.482921,6513.812290,-5847.626942,1455.581446
1333.483250,7179.997637,-5107.421000,1915.238745
1333.483580,7624.121203,-4219.173869,1455.581446
1333.483909,7994.224174,-4293.194464,1991.848295
1333.484238,7920.203579,-5181.441594,919.314598
1333.484568,8216.285956,-6735.874072,612.876398
1333.484897,6735.874072,-8438.347739,919.314598
1333.485227,5403.503377,-10066.800811,1302.362347
1333.485556,5773.606348,-9918.759623,1532.190996
1333.485885,5625.565159,-9178.553681,1915.238745
1333.486215,5625.565159,-7698.141797,612.876398
1333.486544,5995.668130,-6957.935855,1072.533697
1333.486873,6661.853478,-6439.791695,1455.581446
1333.487203,6513.812290,-5847.626942,919.314598
1333.487532,6735.874072,-4515.256246,919.314598
1333.487862,7031.956449,-4441.235652,612.876398
1333.488191,7179.997637,-4367.215058,536.266849
1333.488520,7254.018232,-6365.771101,1455.581446
1333.488850,7846.182985,-6587.832884,1915.238745
1333.489179,8586.388927,-6291.750507,1455.581446
1333.489508,8660.409521,-5773.606348,1762.019645
1333.489838,8290.306550,-7105.977043,1685.410096
1333.490167,7550.100608,-7031.956449,1072.533697
1333.490496,6883.915261,-7254.018232,689.485948
1333.490826,6661.853478,-6513.812290,383.047749
1333.491155,7402.059420,-6143.709319,1072.533697
1333.491485,7179.997637,-5921.647536,1685.410096
1333.491814,7254.018232,-6069.688724,842.705048
1333.492143,7105.977043,-5255.462188,766.095498
1333.492473,6291.750507,-5551.544565,766.095498
1333.492802,6513.812290,-6587.832884,536.266849
1333.493131,6439.791695,-6735.874072,689.485948
1333.493461,6143.709319,-7105.977043,1072.533697
1333.493790,7105.977043,-6883.915261,919.314598
1333.494119,6883.915261,-6513.812290,153.219100
1333.494449,7179.997637,-6587.832884,383.047749
1333.494778,8216.285956,-6365.771101,919.314598
1333.495108,7994.224174,-5995.668130,1378.971896
1333.495437,7772.162391,-6587.832884,1072.533697
1333.495766,7179.997637,-6217.729913,995.924147
1333.496096,6661.853478,-6291.750507,689.485948
1333.496425,6661.853478,-6217.729913,995.924147
1333.496754,6587.832884,-6217.729913,766.095498
1333.497084,6069.688724,-6513.812290,536.266849
1333.497413,6587.832884,-7402.059420,1072.533697
1333.497743,6291.750507,-6883.915261,1225.752797
1333.498072,6291.750507,-6291.750507,1838.629195
1333.498401,6957.935855,-5773.606348,536.266849
1333.498731,7328.038826,-5773.606348,383.047749
1333.499060,7772.162391,-6143.709319,689.485948
1333.499389,8290.306550,-5995.668130,1378.971896
1333.499719,8438.347739,-6143.709319,1762.019645
1333.500048,8512.368333,-7031.956449,1762.019645
1333.500377,7846.182985,-6883.915261,1762.019645
1333.500707,7179.997637,-7179.997637,1072.533697
1333.501036,6513.812290,-7179.997637,1072.533697
1333.501366,5329.482782,-8364.327145,383.047749
1333.501695,4441.235652,-8216.285956,383.047749
1333.502024,4737.318029,-8068.244768,306.438199
1333.502354,6143.709319,-6883.915261,383.047749
1333.502683,7031.956449,-6143.709319,842.705048
1333.503012,7105.977043,-6365.771101,1455.581446
1333.503342,7698.141797,-5551.544565,1302.362347
1333.503671,8142.265362,-4441.235652,1991.848295
1333.504000,8660.409521,-4071.132681,1838.629195
1333.504330,8216.285956,-4811.338623,1532.190996
1333.504659,7254.018232,-6069.688724,1685.410096
1333.504989,7179.997637,-6883.915261,2145.067394
1333.505318,6957.935855,-7328.038826,1378.971896
1333.505647,5477.523971,-7920.203579,1762.019645
1333.505977,5255.462188,-8734.430116,1072.533697
1333.506306,4959.379811,-8142.265362,153.219100
1333.506635,5107.421000,-6661.853478,229.828649
1333.506965,5477.523971,-6661.853478,612.876398
1333.507294,6883.915261,-5699.585753,0.000000
1333.507623,7328.038826,-5625.565159,919.314598
1333.507953,7698.141797,-5255.462188,1149.143247
1333.508282,7994.224174,-5403.503377,306.438199
1333.508612,7476.080014,-5995.668130,842.705048
1333.508941,7254.018232,-7031.956449,766.095498
1333.509270,7105.977043,-8068.244768,1149.143247
1333.509600,7105.977043,-7328.038826,995.924147
1333.509929,6439.791695,-7994.224174,1149.143247
1333.510258,6513.812290,-6957.935855,1762.019645
1333.510588,6957.935855,-6217.729913,919.314598
1333.510917,7402.059420,-6365.771101,766.095498
1333.511247,8142.265362,-5329.482782,842.705048
1333.511576,8068.244768,-5403.503377,1072.533697
1333.511905,7550.100608,-5033.400406,995.924147
1333.512235,7031.956449,-4959.379811,919.314598
1333.512564,7698.141797,-4737.318029,919.314598
1333.512893,7920.203579,-5847.626942,1149.143247
1333.513223,7846.182985,-6291.750507,2451.505594
1333.513552,7031.956449,-7105.977043,766.095498
1333.513881,6291.750507,-7105.977043,0.000000
1333.514211,5921.647536,-7772.162391,612.876398
1333.514540,6883.915261,-8438.347739,383.047749
1333.514870,6513.812290,-7698.141797,766.095498
1333.515199,6735.874072,-6735.874072,842.705048
1333.515528,7698.141797,-6587.832884,766.095498
1333.515858,7994.224174,-5995.668130,1532.190996
1333.516187,8142.265362,-5995.668130,1915.238745
1333.516516,7402.059420,-5625.565159,689.485948
1333.516846,7254.018232,-4885.359217,306.438199
1333.517175,6513.812290,-5921.647536,76.609550
1333.517504,6661.853478,-7624.121203,1149.143247
1333.517834,6957.935855,-8290.306550,995.924147
1333.518163,6883.915261,-7772.162391,1149.143247
1333.518493,6365.771101,-7402.059420,1072.533697
1333.518822,5625.565159,-6661.853478,459.657299
1333.519151,6365.771101,-6069.688724,1149.143247
1333.519481,7105.977043,-6143.709319,766.095498
1333.519810,8068.244768,-5699.585753,919.314598
1333.520139,8142.265362,-6069.688724,1532.190996
1333.520469,8068.244768,-6587.832884,1991.848295
1333.520798,7402.059420,-5181.441594,2145.067394
1333.521128,6217.729913,-6513.812290,919.314598
1333.521457,6069.688724,-6439.791695,612.876398
1333.521786,5329.482782,-7624.121203,842.705048
1333.522116,6587.832884,-8216.285956,536.266849
1333.522445,5995.668130,-7105.977043,689.485948
1333.522774,5773.606348,-7698.141797,306.438199
1333.523104,6513.812290,-7328.038826,459.657299
1333.523433,6735.874072,-6735.874072,842.705048
1333.523762,7698.141797,-6735.874072,1302.362347
1333.524092,8512.368333,-5329.482782,1455.581446
1333.524421,8438.347739,-5995.668130,1072.533697
1333.524751,8142.265362,-5847.626942,1915.238745
1333.525080,7328.038826,-6069.688724,1915.238745
1333.525409,6809.894666,-6513.812290,919.314598
1333.525739,5699.585753,-7402.059420,306.438199
1333.526068,4959.379811,-8586.388927,1302.362347
1333.526397,5329.482782,-7698.141797,1072.533697
1333.526727,6069.688724,-6439.791695,1149.143247
1333.527056,6661.853478,-5921.647536,1225.752797
1333.527385,7105.977043,-5625.565159,995.924147
1333.527715,7254.018232,-5847.626942,1225.752797
1333.528044,7846.182985,-5329.482782,1608.800546
1333.528374,8068.244768,-5181.441594,1225.752797
1333.528703,7476.080014,-5477.523971,1302.362347
1333.529032,7179.997637,-6513.812290,995.924147
1333.529362,6957.935855,-6735.874072,612.876398
1333.529691,7031.956449,-6291.750507,536.266849
1333.530020,6883.915261,-7476.080014,1225.752797
1333.530350,7179.997637,-7624.121203,1302.362347
1333.530679,6809.894666,-7476.080014,1302.362347
1333.531009,6513.812290,-6883.915261,459.657299
1333.531338,6883.915261,-6291.750507,229.828649
1333.531667,7031.956449,-5921.647536,229.828649
1333.531997,7402.059420,-5921.647536,766.095498
1333.532326,7550.100608,-5921.647536,1149.143247
1333.532655,8438.347739,-5255.462188,1149.143247
1333.532985,8438.347739,-5477.523971,1149.143247
1333.533314,7254.018232,-6291.750507,919.314598
1333.533643,6809.894666,-6587.832884,842.705048
1333.533973,6513.812290,-7402.059420,536.266849
1333.534302,5847.626942,-7179.997637,1225.752797
1333.534632,5773.606348,-7920.203579,995.924147
1333.534961,6291.750507,-7624.121203,1072.533697
1333.535290,6735.874072,-6365.771101,1072.533697
1333.535620,7179.997637,-6809.894666,919.314598
1333.535949,7402.059420,-6883.915261,766.095498
1333.536278,6809.894666,-5921.647536,842.705048
1333.536608,7105.977043,-6217.729913,612.876398
1333.536937,7254.018232,-5181.441594,1225.752797
1333.537266,7624.121203,-5921.647536,919.314598
1333.537596,8068.244768,-6365.771101,1225.752797
1333.537925,7772.162391,-7105.977043,1455.581446
1333.538255,6513.812290,-7254.018232,689.485948
1333.538584,6143.709319,-7402.059420,536.266849
1333.538913,5921.647536,-6957.935855,919.314598
1333.539243,6439.791695,-7031.956449,306.438199
1333.539572,7031.956449,-6291.750507,842.705048
1333.539901,8068.244768,-5477.523971,1149.143247
1333.540231,8882.471304,-5773.606348,1455.581446
1333.540560,8216.285956,-5403.503377,2068.457845
1333.540889,7550.100608,-5847.626942,1608.800546
1333.541219,7105.977043,-6513.812290,1072.533697
1333.541548,6513.812290,-7179.997637,919.314598
1333.541878,6217.729913,-7624.121203,766.095498
1333.542207,5773.606348,-8068.244768,1072.533697
1333.542536,5773.606348,-8290.306550,1149.143247
1333.542866,5477.523971,-7994.224174,459.657299
1333.543195,5551.544565,-6735.874072,76.609550
1333.543524,6291.750507,-6439.791695,1225.752797
1333.543854,7402.059420,-6661.853478,1072.533697
1333.544183,7920.203579,-5551.544565,995.924147
1333.544513,7846.182985,-5551.544565,995.924147
1333.544842,7624.121203,-5403.503377,1072.533697
1333.545171,7846.182985,-5773.606348,1455.581446
1333.545501,7846.182985,-6809.894666,1225.752797
1333.545830,7031.956449,-7254.018232,1762.019645
1333.546159,6735.874072,-7624.121203,1455.581446
1333.546489,6439.791695,-7994.224174,919.314598
1333.546818,6217.729913,-7105.977043,995.924147
1333.547147,6217.729913,-7105.977043,842.705048
1333.547477,7031.956449,-5699.585753,612.876398
1333.547806,7328.038826,-6291.750507,1072.533697
1333.548136,7179.997637,-5255.462188,1378.971896
1333.548465,7920.203579,-5033.400406,1455.581446
1333.548794,7772.162391,-4515.256246,1532.190996
1333.549124,7550.100608,-5477.523971,1378.971896
1333.549453,7105.977043,-6069.688724,1225.752797
1333.549782,6883.915261,-6365.771101,995.924147
1333.550112,6291.750507,-8142.265362,536.266849
1333.550441,5773.606348,-8512.368333,689.485948
1333.550770,6143.709319,-8882.471304,995.924147
1333.551100,6143.709319,-8290.306550,1532.190996
1333.551429,5921.647536,-7254.018232,1072.533697
1333.551759,6069.688724,-6439.791695,689.485948
1333.552088,7105.977043,-6069.688724,229.828649
1333.552417,7920.203579,-6143.709319,612.876398
1333.552747,7476.080014,-5699.585753,1149.143247
1333.553076,7402.059420,-5107.421000,1225.752797
1333.553405,7476.080014,-4737.318029,766.095498
1333.553735,7402.059420,-5403.503377,919.314598
1333.554064,8216.285956,-5699.585753,1762.019645
1333.554394,7994.224174,-7105.977043,1838.629195
1333.554723,7624.121203,-7550.100608,1455.581446
1333.555052,6661.853478,-7179.997637,1149.143247
1333.555382,5847.626942,-7105.977043,0.000000
1333.555711,5921.647536,-6439.791695,459.657299
1333.556040,6809.894666,-6809.894666,766.095498
1333.556370,7328.038826,-6069.688724,1225.752797
1333.556699,7772.162391,-5699.585753,1608.800546
1333.557028,8216.285956,-5329.482782,2451.505594
1333.557358,7624.121203,-5255.462188,1685.410096
1333.557687,6735.874072,-6143.709319,459.657299
1333.558017,5921.647536,-6883.915261,536.266849
1333.558346,5477.523971,-8068.244768,76.609550
1333.558675,5329.482782,-8290.306550,153.219100
1333.559005,6069.688724,-8068.244768,1072.533697
1333.559334,6735.874072,-7402.059420,689.485948
1333.559663,7105.977043,-6957.935855,689.485948
1333.559993,6883.915261,-6439.791695,1302.362347
1333.560322,7476.080014,-6587.832884,689.485948
1333.560651,7328.038826,-5921.647536,459.657299
1333.560981,7105.977043,-6217.729913,383.047749
1333.561310,7031.956449,-5773.606348,1072.533697
1333.561640,7328.038826,-6069.688724,1149.143247
1333.561969,7994.224174,-5847.626942,1378.971896
1333.562298,7698.141797,-6513.812290,1608.800546
1333.562628,7179.997637,-6217.729913,1302.362347
1333.562957,6439.791695,-7105.977043,766.095498
1333.563286,6513.812290,-7179.997637,1225.752797
1333.563616,6883.915261,-6735.874072,766.095498
1333.563945,6439.791695,-6809.894666,766.095498
1333.564275,7179.997637,-6217.729913,1378.971896
1333.564604,8142.265362,-5995.668130,1608.800546
1333.564933,8290.306550,-5699.585753,1378.971896
1333.565263,7698.141797,-5403.503377,1302.362347
1333.565592,7105.977043,-6143.709319,1072.533697
1333.565921,6735.874072,-7031.956449,919.314598
1333.566251,5625.565159,-7105.977043,536.266849
1333.566580,5033.400406,-8438.347739,689.485948
1333.566909,5255.462188,-8660.409521,612.876398
1333.567239,5329.482782,-8216.285956,995.924147
1333.567568,5921.647536,-7624.121203,1302.362347
1333.567898,6735.874072,-6439.791695,919.314598
1333.568227,7624.121203,-5107.421000,766.095498
1333.568556,8438.347739,-4959.379811,995.924147
1333.568886,8290.306550,-5477.523971,1762.019645
1333.569215,8956.491898,-4811.338623,1532.190996
1333.569544,8068.244768,-5477.523971,1532.190996
1333.569874,7328.038826,-5625.565159,1378.971896
1333.570203,6809.894666,-6439.791695,1149.143247
1333.570532,6661.853478,-7105.977043,536.266849
1333.570862,6513.812290,-7402.059420,1762.019645
1333.571191,5995.668130,-7772.162391,1225.752797
1333.571521,5847.626942,-7328.038826,766.095498
1333.571850,5625.565159,-7179.997637,995.924147
1333.572179,6069.688724,-6957.935855,229.828649
1333.572509,6587.832884,-6217.729913,766.095498
1333.572838,7179.997637,-5921.647536,1149.143247
1333.573167,8512.368333,-5329.482782,1608.800546
1333.573497,8216.285956,-4737.318029,2374.896044
1333.573826,7698.141797,-5773.606348,1072.533697
1333.574156,7402.059420,-6365.771101,1149.143247
1333.574485,6587.832884,-6735.874072,689.485948
1333.574814,5773.606348,-7994.224174,0.000000
1333.575144,5995.668130,-8660.409521,536.266849
1333.575473,6439.791695,-7920.203579,1072.533697
1333.575802,6957.935855,-6883.915261,842.705048
1333.576132,7031.956449,-6365.771101,1072.533697
1333.576461,7402.059420,-6217.729913,919.314598
1333.576790,7846.182985,-6143.709319,1149.143247
1333.577120,7328.038826,-5403.503377,612.876398
1333.577449,7254.018232,-4663.297435,766.095498
1333.577779,7105.977043,-5329.482782,1149.143247
1333.578108,7476.080014,-5477.523971,1762.019645
1333.578437,7105.977043,-6217.729913,1072.533697
1333.578767,7105.977043,-6587.832884,1149.143247
1333.579096,7031.956449,-7105.977043,1532.190996
1333.579425,6883.915261,-7698.141797,766.095498
1333.579755,6439.791695,-7105.977043,766.095498
1333.580084,6069.688724,-6809.894666,459.657299
1333.580413,6809.894666,-7179.997637,0.000000
1333.580743,7328.038826,-6217.729913,1378.971896
1333.581072,7846.182985,-6439.791695,1302.362347
1333.581402,8808.450710,-6069.688724,1608.800546
1333.581731,7920.203579,-5699.585753,1455.581446
1333.582060,6809.894666,-6217.729913,689.485948
1333.582390,6439.791695,-6365.771101,766.095498
1333.582719,6143.709319,-7179.997637,919.314598
1333.583048,5699.585753,-8142.265362,842.705048
1333.583378,5255.462188,-8364.327145,1225.752797
1333.583707,5995.668130,-7994.224174,995.924147
1333.584036,6661.853478,-7254.018232,766.095498
1333.584366,7179.997637,-6217.729913,919.314598
1333.584695,7550.100608,-5551.544565,919.314598
1333.585025,7550.100608,-6513.812290,995.924147
1333.585354,7328.038826,-5699.585753,1302.362347
1333.585683,7031.956449,-5107.421000,536.266849
1333.586013,6809.894666,-6143.709319,1149.143247
1333.586342,7179.997637,-6217.729913,1762.019645
1333.586672,7328.038826,-7105.977043,1225.752797
1333.587001,6809.894666,-6957.935855,1378.971896
1333.587331,6735.874072,-7105.977043,995.924147
1333.587660,6365.771101,-6883.915261,612.876398
1333.587989,5847.626942,-6809.894666,612.876398
1333.588319,6143.709319,-6735.874072,306.438199
1333.588648,7254.018232,-6365.771101,612.876398
1333.588978,8364.327145,-6217.729913,1455.581446
1333.589307,8586.388927,-5699.585753,1608.800546
1333.589636,8290.306550,-5181.441594,1378.971896
1333.589966,8512.368333,-5033.400406,1455.581446
1333.590295,7179.997637,-6069.688724,995.924147
1333.590625,6365.771101,-6661.853478,1225.752797
1333.590954,5773.606348,-7550.100608,995.924147
1333.591284,5625.565159,-7698.141797,536.266849
1333.591613,5551.544565,-7698.141797,919.314598
1333.591942,5551.544565,-7994.224174,1072.533697
1333.592272,6291.750507,-7476.080014,995.924147
1333.592601,6513.812290,-6587.832884,842.705048
1333.592931,7105.977043,-6217.729913,766.095498
1333.593260,7476.080014,-5181.441594,766.095498
1333.593590,7698.141797,-5329.482782,1455.581446
1333.593919,7550.100608,-5107.421000,1149.143247
1333.594248,7698.141797,-5699.585753,1225.752797
1333.594578,7402.059420,-6069.688724,995.924147
1333.594907,7624.121203,-7328.038826,1915.238745
1333.595237,7179.997637,-7698.141797,1685.410096
1333.595566,6735.874072,-7105.977043,1302.362347
1333.595895,6069.688724,-8068.244768,306.438199
1333.596225,6143.709319,-7550.100608,995.924147
1333.596554,6143.709319,-6217.729913,536.266849
1333.596884,7328.038826,-5625.565159,459.657299
1333.597213,7994.224174,-5477.523971,1225.752797
1333.597543,8290.306550,-5403.503377,1378.971896
1333.597872,8808.450710,-5329.482782,2374.896044
1333.598201,8216.285956,-5551.544565,1915.238745
1333.598531,7328.038826,-6217.729913,1072.533697
1333.598860,5625.565159,-7254.018232,76.609550
1333.599190,4441.235652,-7994.224174,306.438199
1333.599519,4589.276840,-9104.533087,306.438199
1333.599848,5181.441594,-8734.430116,1455.581446
1333.600178,6069.688724,-8586.388927,1225.752797
1333.600507,6587.832884,-7031.956449,536.266849
1333.600837,7031.956449,-6291.750507,919.314598
1333.601166,7550.100608,-6439.791695,842.705048
1333.601496,7994.224174,-5033.400406,1072.533697
1333.601825,7624.121203,-4737.318029,1225.752797
1333.602154,7698.141797,-5847.626942,1302.362347
1333.602484,7846.182985,-4145.153275,919.314598
1333.602813,7476.080014,-6069.688724,1762.019645
1333.603143,7624.121203,-6883.915261,1302.362347
1333.603472,7402.059420,-7105.977043,1455.581446
1333.603801,7105.977043,-6883.915261,612.876398
1333.604131,6587.832884,-7179.997637,536.266849
1333.604460,6365.771101,-6661.853478,383.047749
1333.604790,6513.812290,-7105.977043,459.657299
1333.605119,7179.997637,-6735.874072,1149.143247
1333.605449,8142.265362,-5477.523971,1532.190996
1333.605778,7920.203579,-5403.503377,1762.019645
1333.606107,8068.244768,-6291.750507,1838.629195
1333.606437,7254.018232,-5847.626942,1149.143247
1333.606766,6809.894666,-6291.750507,1149.143247
1333.607096,6291.750507,-7402.059420,1608.800546
1333.607425,6069.688724,-7698.141797,1302.362347
1333.607754,5551.544565,-8364.327145,995.924147
1333.608084,5477.523971,-8142.265362,995.924147
1333.608413,5847.626942,-8290.306550,842.705048
1333.608743,5847.626942,-7179.997637,153.219100
1333.609072,6069.688724,-6883.915261,306.438199
1333.609402,6809.894666,-6587.832884,842.705048
1333.609731,8068.244768,-6069.688724,612.876398
1333.610060,7994.224174,-5477.523971,1838.629195
1333.610390,8216.285956,-5699.585753,1685.410096
1333.610719,8290.306550,-5403.503377,1685.410096
1333.611049,7994.224174,-5033.400406,1532.190996
1333.611378,7550.100608,-5995.668130,1455.581446
1333.611708,6883.915261,-6439.791695,1608.800546
1333.612037,6809.894666,-7105.977043,1378.971896
1333.612366,6291.750507,-6809.894666,1072.533697
1333.612696,6439.791695,-5847.626942,919.314598
1333.613025,7402.059420,-5551.544565,1072.533697
1333.613355,7624.121203,-6143.709319,995.924147
1333.613684,7328.038826,-6217.729913,1378.971896
1333.614013,7105.977043,-6143.709319,995.924147
1333.614343,7624.121203,-6143.709319,1225.752797
1333.614672,7624.121203,-6513.812290,1762.019645
1333.615002,6587.832884,-7254.018232,1149.143247
1333.615331,5773.606348,-7698.141797,919.314598
1333.615661,5699.585753,-7846.182985,536.266849
1333.615990,6365.771101,-8216.285956,995.924147
1333.616319,5921.647536,-8882.471304,1302.362347
1333.616649,5921.647536,-7476.080014,612.876398
1333.616978,6143.709319,-6883.915261,0.000000
1333.617308,6439.791695,-5625.565159,919.314598
1333.617637,7698.141797,-6217.729913,1455.581446
1333.617966,8882.471304,-5625.565159,1532.190996
1333.618296,8364.327145,-4663.297435,1378.971896
1333.618625,7698.141797,-4737.318029,612.876398
1333.618955,7328.038826,-5551.544565,842.705048
1333.619284,7031.956449,-6957.935855,1072.533697
1333.619614,6587.832884,-8142.265362,995.924147
1333.619943,6661.853478,-7179.997637,1608.800546
1333.620272,6809.894666,-6735.874072,766.095498
1333.620602,6587.832884,-6957.935855,1532.190996
1333.620931,6809.894666,-6439.791695,1378.971896
1333.621261,7328.038826,-6439.791695,1302.362347
1333.621590,7698.141797,-5329.482782,919.314598
1333.621919,7105.977043,-4737.318029,1378.971896
1333.622249,7772.162391,-5033.400406,1225.752797
1333.622578,7698.141797,-6143.709319,1762.019645
1333.622908,7254.018232,-6809.894666,1072.533697
1333.623237,6365.771101,-7105.977043,842.705048
1333.623567,5847.626942,-7476.080014,0.000000
1333.623896,4811.338623,-9252.574275,229.828649
1333.624225,5181.441594,-9474.636058,306.438199
1333.624555,5255.462188,-8882.471304,536.266849
1333.624884,6069.688724,-7698.141797,229.828649
1333.625214,6883.915261,-7105.977043,842.705048
1333.625543,7105.977043,-6143.709319,766.095498
1333.625872,7994.224174,-5255.462188,306.438199
1333.626202,7920.203579,-5255.462188,1532.190996
1333.626531,8586.388927,-4219.173869,1838.629195
1333.626861,8364.327145,-5033.400406,1991.848295
1333.627190,8068.244768,-5255.462188,1685.410096
1333.627520,7105.977043,-5255.462188,995.924147
1333.627849,5921.647536,-6735.874072,842.705048
1333.628178,6513.812290,-7254.018232,1225.752797
1333.628508,5921.647536,-7994.224174,842.705048
1333.628837,6809.894666,-7105.977043,1072.533697
1333.629167,7105.977043,-6513.812290,1072.533697
1333.629496,7698.141797,-6439.791695,1455.581446
1333.629826,7550.100608,-7105.977043,1149.143247
1333.630155,7402.059420,-5403.503377,1378.971896
1333.630484,7846.182985,-5699.585753,1072.533697
1333.630814,7698.141797,-6291.750507,1532.190996
1333.631143,7105.977043,-6587.832884,2145.067394
1333.631473,6439.791695,-7179.997637,536.266849
1333.631802,5625.565159,-6883.915261,0.000000
1333.632131,5403.503377,-7624.121203,689.485948
1333.632461,6439.791695,-8216.285956,919.314598
1333.632790,6439.791695,-7476.080014,1072.533697
1333.633120,6143.709319,-7328.038826,76.609550
1333.633449,5773.606348,-5921.647536,0.000000
1333.633779,6587.832884,-5921.647536,-229.828649
1333.634108,7402.059420,-6069.688724,612.876398
1333.634437,8142.265362,-5699.585753,1455.581446
1333.634767,8364.327145,-5403.503377,1685.410096
1333.635096,8660.409521,-4811.338623,1532.190996
1333.635426,7624.121203,-5625.565159,1455.581446
1333.635755,7254.018232,-6365.771101,1762.019645
1333.636084,6513.812290,-6809.894666,1072.533697
1333.636414,6365.771101,-7031.956449,1378.971896
1333.636743,6217.729913,-6439.791695,1378.971896
1333.637073,6661.853478,-6513.812290,1302.362347
1333.637402,7031.956449,-5773.606348,1608.800546
1333.637732,7031.956449,-5625.565159,383.047749
1333.638061,7402.059420,-5921.647536,689.485948
1333.638390,7698.141797,-6143.709319,1532.190996
1333.638720,8512.368333,-6069.688724,1991.848295
1333.639049,7772.162391,-5699.585753,1608.800546
1333.639379,7105.977043,-5921.647536,459.657299
1333.639708,6513.812290,-7402.059420,0.000000
1333.640037,6587.832884,-9030.512492,1378.971896
1333.640367,6365.771101,-8216.285956,842.705048
1333.640696,5773.606348,-8808.450710,1378.971896
1333.641026,5699.585753,-7550.100608,995.924147
1333.641355,6069.688724,-6809.894666,306.438199
1333.641685,7105.977043,-5995.668130,995.924147
1333.642014,7476.080014,-5921.647536,1149.143247
1333.642343,7772.162391,-5773.606348,689.485948
1333.642673,7476.080014,-4885.359217,1072.533697
1333.643002,7179.997637,-5477.523971,919.314598
1333.643332,7254.018232,-6217.729913,1149.143247
1333.643661,7105.977043,-7105.977043,995.924147
1333.643990,6217.729913,-7846.182985,995.924147
1333.644320,6513.812290,-8290.306550,1302.362347
1333.644649,6809.894666,-7402.059420,1915.238745
1333.644979,6587.832884,-7105.977043,1149.143247
1333.645308,6439.791695,-6661.853478,689.485948
1333.645638,6957.935855,-5477.523971,842.705048
1333.645967,7328.038826,-5625.565159,459.657299
1333.646296,7920.203579,-5403.503377,2451.505594
1333.646626,8142.265362,-5033.400406,1915.238745
1333.646955,8068.244768,-5107.421000,1378.971896
1333.647285,7846.182985,-5847.626942,1302.362347
1333.647614,7179.997637,-6809.894666,1072.533697
1333.647943,6883.915261,-6957.935855,1302.362347
1333.648273,6217.729913,-7105.977043,459.657299
1333.648602,5329.482782,-8068.244768,306.438199
1333.648932,5477.523971,-8290.306550,536.266849
1333.649261,6291.750507,-8364.327145,766.095498
1333.649591,6439.791695,-7105.977043,842.705048
1333.649920,7179.997637,-6069.688724,1455.581446
1333.650249,7402.059420,-5551.544565,1149.143247
1333.650579,7772.162391,-4811.338623,1072.533697
1333.650908,7920.203579,-5403.503377,1072.533697
1333.651238,7179.997637,-5329.482782,995.924147
1333.651567,7105.977043,-5551.544565,919.314598
1333.651897,6809.894666,-6513.812290,1378.971896
1333.652226,6735.874072,-7105.977043,1532.190996
1333.652555,7031.956449,-7254.018232,766.095498
1333.652885,6513.812290,-7105.977043,536.266849
1333.653214,6069.688724,-7550.100608,459.657299
1333.653544,6291.750507,-7105.977043,612.876398
1333.653873,7328.038826,-5847.626942,842.705048
1333.654202,7772.162391,-5773.606348,842.705048
1333.654532,8068.244768,-5625.565159,1302.362347
1333.654861,8216.285956,-5329.482782,1532.190996
1333.655191,8364.327145,-5477.523971,1378.971896
1333.655520,8068.244768,-4663.297435,1838.629195
1333.655850,7772.162391,-5551.544565,995.924147
1333.656179,7105.977043,-6513.812290,766.095498
1333.656508,5773.606348,-7920.203579,1149.143247
1333.656838,5329.482782,-7328.038826,612.876398
1333.657167,6143.709319,-7994.224174,1072.533697
1333.657497,5847.626942,-7772.162391,919.314598
1333.657826,5699.585753,-6809.894666,766.095498
1333.658155,6513.812290,-6957.935855,459.657299
1333.658485,7328.038826,-6513.812290,842.705048
1333.658814,7105.977043,-6439.791695,919.314598
1333.659144,7402.059420,-6143.709319,1762.019645
1333.659473,7624.121203,-5921.647536,766.095498
1333.659803,7105.977043,-5921.647536,842.705048
1333.660132,7328.038826,-5995.668130,689.485948
1333.660461,7179.997637,-7031.956449,1072.533697
1333.660791,7624.121203,-7402.059420,1762.019645
1333.661120,7105.977043,-7105.977043,1302.362347
1333.661450,6735.874072,-6513.812290,919.314598
1333.661779,6735.874072,-6513.812290,383.047749
1333.662108,6587.832884,-6883.915261,229.828649
1333.662438,6957.935855,-6661.853478,766.095498
1333.662767,7402.059420,-6291.750507,689.485948
1333.663097,7402.059420,-5181.441594,919.314598
1333.663426,7402.059420,-6809.894666,1455.581446
1333.663756,6735.874072,-7254.018232,1608.800546
1333.664085,6291.750507,-6809.894666,306.438199
1333.664414,6217.729913,-6809.894666,-306.438199
1333.664744,5477.523971,-7476.080014,536.266849
1333.665073,6291.750507,-7994.224174,1072.533697
1333.665403,7031.956449,-7550.100608,1302.362347
1333.665732,6439.791695,-7105.977043,1302.362347
1333.666061,6735.874072,-6217.729913,689.485948
1333.666391,7105.977043,-6217.729913,689.485948
1333.666720,7328.038826,-6439.791695,919.314598
1333.667050,7254.018232,-5773.606348,842.705048
1333.667379,7179.997637,-5551.544565,1455.581446
1333.667709,6883.915261,-6069.688724,1302.362347
1333.668038,7031.956449,-6587.832884,919.314598
1333.668367,6587.832884,-6587.832884,919.314598
1333.668697,6735.874072,-6661.853478,689.485948
1333.669026,6809.894666,-6957.935855,1302.362347
1333.669356,7105.977043,-7179.997637,1072.533697
1333.669685,7105.977043,-7031.956449,766.095498
1333.670015,7179.997637,-6069.688724,766.095498
1333.670344,7994.224174,-5033.400406,919.314598
1333.670673,8512.368333,-5107.421000,1378.971896
1333.671003,8290.306550,-5033.400406,1532.190996
1333.671332,8364.327145,-4811.338623,1532.190996
1333.671662,8142.265362,-5625.565159,1685.410096
1333.671991,7031.956449,-5625.565159,1455.581446
1333.672320,6143.709319,-6735.874072,383.047749
1333.672650,5181.441594,-7920.203579,459.657299
1333.672979,5329.482782,-8216.285956,766.095498
1333.673309,5255.462188,-8290.306550,536.266849
1333.673638,6217.729913,-7402.059420,229.828649
1333.673968,6735.874072,-7179.997637,536.266849
1333.674297,7328.038826,-6661.853478,689.485948
1333.674626,7105.977043,-5773.606348,919.314598
1333.674956,7105.977043,-5107.421000,1149.143247
1333.675285,7846.182985,-5625.565159,689.485948
1333.675615,7624.121203,-5773.606348,1149.143247
1333.675944,7476.080014,-6365.771101,1072.533697
1333.676273,7254.018232,-5995.668130,1608.800546
1333.676603,7476.080014,-5921.647536,1225.752797
1333.676932,7105.977043,-6809.894666,919.314598
1333.677262,6513.812290,-7031.956449,995.924147
1333.677591,6217.729913,-7105.977043,383.047749
1333.677921,6143.709319,-6883.915261,689.485948
1333.678250,6513.812290,-6809.894666,1072.533697
1333.678579,7772.162391,-6957.935855,919.314598
1333.678909,8290.306550,-5921.647536,842.705048
1333.679238,7772.162391,-5329.482782,1455.581446
1333.679568,7920.203579,-5181.441594,1302.362347
1333.679897,7994.224174,-6217.729913,1608.800546
1333.680226,6809.894666,-6291.750507,1532.190996
1333.680556,6291.750507,-6957.935855,1149.143247
1333.680885,6069.688724,-7772.162391,536.266849
1333.681215,5773.606348,-7994.224174,1149.143247
1333.681544,5329.482782,-8660.409521,919.314598
1333.681874,5699.585753,-7402.059420,842.705048
1333.682203,6217.729913,-7031.956449,1149.143247
1333.682532,7105.977043,-6809.894666,1378.971896
1333.682862,7105.977043,-5921.647536,995.924147
1333.683191,7402.059420,-5921.647536,1072.533697
1333.683521,7846.182985,-5255.462188,1149.143247
1333.683850,7920.203579,-5403.503377,1455.581446
1333.684179,8068.244768,-5699.585753,1072.533697
1333.684509,7105.977043,-6439.791695,1302.362347
1333.684838,6735.874072,-6883.915261,1072.533697
1333.685167,6217.729913,-7031.956449,689.485948
1333.685497,6069.688724,-8956.491898,1762.019645
1333.685826,6439.791695,-7402.059420,612.876398
1333.686155,6513.812290,-7254.018232,919.314598
1333.686484,6365.771101,-7105.977043,1149.143247
1333.686814,7254.018232,-5551.544565,1302.362347
1333.687143,7550.100608,-5181.441594,1455.581446
1333.687472,7846.182985,-4811.338623,1532.190996
1333.687802,7550.100608,-4885.359217,995.924147
1333.688131,7550.100608,-5773.606348,1378.971896
1333.688460,6957.935855,-6661.853478,1378.971896
1333.688790,6587.832884,-7402.059420,536.266849
1333.689119,5921.647536,-7772.162391,842.705048
1333.689448,5699.585753,-7402.059420,383.047749
1333.689778,5995.668130,-7994.224174,229.828649
1333.690107,5773.606348,-7624.121203,1302.362347
1333.690436,6957.935855,-7031.956449,919.314598
1333.690766,7254.018232,-6513.812290,459.657299
1333.691095,7179.997637,-6143.709319,536.266849
1333.691424,7402.059420,-5329.482782,306.438199
1333.691753,7550.100608,-5995.668130,1455.581446
1333.692083,7254.018232,-5699.585753,1225.752797
1333.692412,7402.059420,-5995.668130,842.705048
1333.692741,7105.977043,-6143.709319,1225.752797
1333.693071,7328.038826,-6365.771101,1225.752797
1333.693400,7328.038826,-6587.832884,689.485948
1333.693729,6883.915261,-6809.894666,1149.143247
1333.694059,6661.853478,-6735.874072,995.924147
1333.694388,7105.977043,-5995.668130,919.314598
1333.694717,7550.100608,-5699.585753,919.314598
1333.695047,8068.244768,-5181.441594,1455.581446
1333.695376,7920.203579,-5625.565159,1302.362347
1333.695705,7698.141797,-5477.523971,1762.019645
1333.696035,7772.162391,-5477.523971,1455.581446
1333.696364,7550.100608,-6143.709319,1302.362347
1333.696693,6143.709319,-6587.832884,919.314598
1333.697023,5551.544565,-7624.121203,76.609550
1333.697352,5329.482782,-8512.368333,229.828649
1333.697681,5107.421000,-8586.388927,995.924147
1333.698010,5995.668130,-8438.347739,766.095498
1333.698340,6735.874072,-7105.977043,1225.752797
1333.698669,7105.977043,-6069.688724,689.485948
1333.698998,7772.162391,-5921.647536,766.095498
1333.699328,8808.450710,-5551.544565,1149.143247
1333.699657,8364.327145,-5477.523971,1149.143247
1333.699986,7402.059420,-5625.565159,1378.971896
1333.700316,6883.915261,-6217.729913,1302.362347
1333.700645,7031.956449,-6513.812290,995.924147
1333.700974,6809.894666,-6439.791695,383.047749
1333.701304,6513.812290,-7179.997637,995.924147
1333.701633,6587.832884,-7328.038826,1149.143247
1333.701962,6809.894666,-7698.141797,1149.143247
1333.702292,7031.956449,-6883.915261,1532.190996
1333.702621,5921.647536,-6661.853478,612.876398
1333.702950,6513.812290,-5995.668130,536.266849
1333.703279,7328.038826,-6439.791695,689.485948
1333.703609,7624.121203,-5551.544565,1072.533697
1333.703938,7105.977043,-6883.915261,1455.581446
1333.704267,7402.059420,-5181.441594,1225.752797
1333.704597,7328.038826,-6439.791695,1838.629195
1333.704926,7105.977043,-7105.977043,1838.629195
1333.705255,7105.977043,-6513.812290,1225.752797
1333.705585,6809.894666,-7402.059420,1455.581446
1333.705914,6513.812290,-7254.018232,1225.752797
1333.706243,5625.565159,-8364.327145,459.657299
1333.706573,5551.544565,-7550.100608,995.924147
1333.706902,5995.668130,-6143.709319,459.657299
1333.707231,7105.977043,-6365.771101,459.657299
1333.707561,7846.182985,-5921.647536,1685.410096
1333.707890,8808.450710,-5551.544565,1532.190996
1333.708219,7772.162391,-5625.565159,1225.752797
1333.708549,6587.832884,-5181.441594,1455.581446
1333.708878,6513.812290,-6957.935855,1302.362347
1333.709207,6439.791695,-6587.832884,689.485948
1333.709536,6217.729913,-7624.121203,1685.410096
1333.709866,7031.956449,-7179.997637,919.314598
1333.710195,6809.894666,-7105.977043,1608.800546
1333.710524,6365.771101,-7402.059420,1302.362347
1333.710854,6439.791695,-6587.832884,766.095498
1333.711183,6661.853478,-5921.647536,536.266849
1333.711512,7105.977043,-5625.565159,995.924147
1333.711842,7254.018232,-5921.647536,1149.143247
1333.712171,7624.121203,-5329.482782,1149.143247
1333.712500,7994.224174,-5847.626942,1225.752797
1333.712830,8512.368333,-5329.482782,1532.190996
1333.713159,7476.080014,-5773.606348,1608.800546
1333.713488,6587.832884,-7476.080014,842.705048
1333.713818,5847.626942,-7846.182985,842.705048
1333.714147,6069.688724,-8068.244768,689.485948
1333.714476,5847.626942,-7772.162391,842.705048
1333.714805,5847.626942,-6883.915261,689.485948
1333.715135,7105.977043,-6513.812290,766.095498
1333.715464,7328.038826,-5477.523971,995.924147
1333.715793,7624.121203,-5625.565159,1302.362347
1333.716123,7402.059420,-4959.379811,1455.581446
1333.716452,7328.038826,-5921.647536,1149.143247
1333.716781,7328.038826,-6661.853478,1455.581446
1333.717111,7328.038826,-6735.874072,689.485948
1333.717440,7105.977043,-6809.894666,1225.752797
1333.717769,6957.935855,-7105.977043,1225.752797
1333.718099,7031.956449,-7846.182985,1225.752797
1333.718428,7031.956449,-7105.977043,995.924147
1333.718757,6513.812290,-6957.935855,1225.752797
1333.719087,6957.935855,-6883.915261,919.314598
1333.719416,6883.915261,-6069.688724,689.485948
1333.719745,7105.977043,-6069.688724,536.266849
1333.720075,7328.038826,-5847.626942,1072.533697
1333.720404,7698.141797,-5551.544565,1915.238745
1333.720733,7698.141797,-6439.791695,1149.143247
1333.721062,7402.059420,-6661.853478,1378.971896
1333.721392,7179.997637,-6143.709319,536.266849
1333.721721,6513.812290,-6809.894666,153.219100
1333.722050,5995.668130,-7254.018232,1225.752797
1333.722380,6513.812290,-7550.100608,1149.143247
1333.722709,7105.977043,-7698.141797,1225.752797
1333.723038,7105.977043,-6513.812290,1608.800546
1333.723368,6587.832884,-5921.647536,919.314598
1333.723697,7031.956449,-5847.626942,0.000000
1333.724026,7105.977043,-5773.606348,842.705048
1333.724356,7031.956449,-5921.647536,995.924147
1333.724685,7254.018232,-6217.729913,1608.800546
1333.725014,6957.935855,-6661.853478,1149.143247
1333.725344,6661.853478,-7105.977043,842.705048
1333.725673,5773.606348,-7328.038826,459.657299
1333.726002,5699.585753,-8290.306550,689.485948
1333.726331,6143.709319,-7846.182985,766.095498
1333.726661,7105.977043,-7920.203579,2298.286494
1333.726990,7476.080014,-6883.915261,1149.143247
1333.727319,7624.121203,-6661.853478,1225.752797
1333.727649,7328.038826,-6439.791695,919.314598
1333.727978,7550.100608,-5773.606348,689.485948
1333.728307,7254.018232,-5921.647536,1378.971896
1333.728637,7772.162391,-5181.441594,1302.362347
1333.728966,8142.265362,-5773.606348,1455.581446
1333.729295,7624.121203,-6069.688724,1762.019645
1333.729625,6439.791695,-6069.688724,1302.362347
1333.729954,5921.647536,-7772.162391,842.705048
1333.730283,5551.544565,-7105.977043,995.924147
1333.730613,5773.606348,-7846.182985,1149.143247
1333.730942,6513.812290,-7846.182985,1378.971896
1333.731271,7105.977043,-5995.668130,1455.581446
1333.731601,7402.059420,-5847.626942,689.485948
1333.731930,8068.244768,-5033.400406,383.047749
1333.732259,8216.285956,-4737.318029,1149.143247
1333.732588,8216.285956,-5181.441594,1072.533697
1333.732918,7550.100608,-6143.709319,1378.971896
1333.733247,6735.874072,-7031.956449,995.924147
1333.733576,5773.606348,-7105.977043,536.266849
1333.733906,5329.482782,-7328.038826,766.095498
1333.734235,6217.729913,-8142.265362,1378.971896
1333.734564,6365.771101,-7994.224174,1149.143247
1333.734894,6069.688724,-7846.182985,536.266849
1333.735223,6069.688724,-7624.121203,383.047749
1333.735552,6809.894666,-6069.688724,383.047749
1333.735882,7105.977043,-5921.647536,153.219100
1333.736211,7402.059420,-5921.647536,842.705048
1333.736540,8068.244768,-4811.338623,1532.190996
1333.736870,8512.368333,-5107.421000,1685.410096
1333.737199,7994.224174,-5255.462188,1838.629195
1333.737528,7254.018232,-6069.688724,1455.581446
1333.737857,6143.709319,-6661.853478,1225.752797
1333.738187,5699.585753,-7624.121203,842.705048
1333.738516,5699.585753,-8068.244768,842.705048
1333.738845,5477.523971,-7402.059420,842.705048
1333.739175,6661.853478,-7476.080014,995.924147
1333.739504,7698.141797,-5921.647536,1608.800546
1333.739833,7772.162391,-5551.544565,766.095498
1333.740163,7328.038826,-5107.421000,1532.190996
1333.740492,7254.018232,-5329.482782,842.705048
1333.740821,7402.059420,-6439.791695,383.047749
1333.741151,7254.018232,-6069.688724,1225.752797
1333.741480,7179.997637,-6439.791695,995.924147
1333.741809,7550.100608,-6513.812290,1149.143247
1333.742139,7476.080014,-6957.935855,1225.752797
1333.742468,6809.894666,-7402.059420,1302.362347
1333.742797,6439.791695,-7105.977043,842.705048
1333.743127,6143.709319,-7105.977043,842.705048
1333.743456,6365.771101,-6513.812290,306.438199
1333.743785,6957.935855,-6809.894666,842.705048
1333.744114,8216.285956,-6291.750507,1685.410096
1333.744444,8512.368333,-5551.544565,1302.362347
1333.744773,8364.327145,-5255.462188,1302.362347
1333.745102,7550.100608,-5625.565159,1225.752797
1333.745432,7179.997637,-6365.771101,995.924147
1333.745761,6365.771101,-6957.935855,689.485948
1333.746090,5551.544565,-7254.018232,1149.143247
1333.746420,5403.503377,-8438.347739,612.876398
1333.746749,5847.626942,-7994.224174,1225.752797
1333.747078,6069.688724,-7920.203579,842.705048
1333.747408,6513.812290,-7254.018232,689.485948
1333.747737,6809.894666,-6217.729913,1455.581446
1333.748066,7179.997637,-5995.668130,612.876398
1333.748396,7846.182985,-5107.421000,1072.533697
1333.748725,8216.285956,-4515.256246,1455.581446
1333.749054,8216.285956,-5773.606348,1455.581446
1333.749383,8290.306550,-5921.647536,1991.848295
1333.749713,7179.997637,-5625.565159,1455.581446
1333.750042,6735.874072,-6291.750507,689.485948
1333.750371,6365.771101,-7624.121203,1072.533697
1333.750701,6439.791695,-7550.100608,1072.533697
1333.751030,6143.709319,-7772.162391,689.485948
1333.751359,6217.729913,-7328.038826,1378.971896
1333.751689,6735.874072,-5921.647536,612.876398
1333.752018,7402.059420,-5995.668130,536.266849
1333.752347,7105.977043,-5699.585753,1685.410096
1333.752677,7698.141797,-5477.523971,1225.752797
1333.753006,7772.162391,-4885.359217,1532.190996
1333.753335,7328.038826,-5847.626942,1762.019645
1333.753665,6513.812290,-7105.977043,1532.190996
1333.753994,6217.729913,-6587.832884,1838.629195
1333.754323,5847.626942,-8216.285956,995.924147
1333.754653,5403.503377,-8068.244768,612.876398
1333.754982,4959.379811,-7920.203579,1302.362347
1333.755311,5551.544565,-8512.368333,1302.362347
1333.755640,6957.935855,-6957.935855,1378.971896
1333.755970,7402.059420,-5403.503377,1072.533697
1333.756299,8142.265362,-5255.462188,919.314598
1333.756628,8808.450710,-4663.297435,1378.971896
1333.756958,8512.368333,-4737.318029,1685.410096
1333.757287,8438.347739,-4885.359217,1072.533697
1333.757616,8216.285956,-5403.503377,1455.581446
1333.757946,7624.121203,-6809.894666,1378.971896
1333.758275,6735.874072,-7105.977043,1072.533697
1333.758604,6513.812290,-6883.915261,1149.143247
1333.758934,6291.750507,-7105.977043,536.266849
1333.759263,5921.647536,-7994.224174,995.924147
1333.759592,5847.626942,-7846.182985,1302.362347
1333.759922,6809.894666,-7772.162391,689.485948
1333.760251,6587.832884,-5995.668130,306.438199
1333.760580,6735.874072,-6365.771101,919.314598
1333.760909,7920.203579,-6217.729913,1302.362347
1333.761239,8216.285956,-5995.668130,2068.457845
1333.761568,8586.388927,-6069.688724,2374.896044
1333.761897,6809.894666,-6883.915261,383.047749
1333.762227,5699.585753,-6809.894666,306.438199
1333.762556,5329.482782,-7994.224174,0.000000
1333.762885,5699.585753,-8660.409521,689.485948
1333.763215,5847.626942,-7772.162391,689.485948
1333.763544,6291.750507,-7402.059420,306.438199
1333.763873,6735.874072,-7179.997637,153.219100
1333.764203,6957.935855,-6735.874072,842.705048
1333.764532,7550.100608,-5921.647536,842.705048
1333.764861,8290.306550,-5477.523971,1072.533697
1333.765191,8364.327145,-4885.359217,1225.752797
1333.765520,8438.347739,-5329.482782,1762.019645
1333.765849,8216.285956,-5403.503377,1685.410096
1333.766179,8068.244768,-5477.523971,1149.143247
1333.766508,7254.018232,-6439.791695,1072.533697
1333.766837,6883.915261,-6661.853478,995.924147
1333.767166,5921.647536,-7402.059420,459.657299
1333.767496,5551.544565,-7772.162391,689.485948
1333.767825,5699.585753,-7254.018232,306.438199
1333.768154,6069.688724,-7105.977043,229.828649
1333.768484,6957.935855,-6143.709319,919.314598
1333.768813,7254.018232,-5995.668130,1532.190996
1333.769142,8068.244768,-5551.544565,1072.533697
1333.769472,7994.224174,-5551.544565,1915.238745
1333.769801,7698.141797,-6365.771101,1608.800546
1333.770130,7105.977043,-7031.956449,1302.362347
1333.770460,6291.750507,-6735.874072,766.095498
1333.770789,5773.606348,-7920.203579,306.438199
1333.771118,5551.544565,-7328.038826,612.876398
1333.771448,6217.729913,-7846.182985,919.314598
1333.771777,6809.894666,-7105.977043,459.657299
1333.772106,7105.977043,-6439.791695,842.705048
1333.772435,7772.162391,-5107.421000,766.095498
1333.772765,7994.224174,-5107.421000,919.314598
1333.773094,7846.182985,-4885.359217,1149.143247
1333.773423,7772.162391,-5403.503377,1532.190996
1333.773753,7846.182985,-5477.523971,842.705048
1333.774082,7624.121203,-5551.544565,2068.457845
1333.774411,7328.038826,-6587.832884,1685.410096
1333.774741,7328.038826,-6735.874072,1838.629195
1333.775070,6143.709319,-7031.956449,2145.067394
1333.775399,5773.606348,-7624.121203,1225.752797
1333.775729,5625.565159,-6883.915261,689.485948
1333.776058,5403.503377,-6957.935855,536.266849
1333.776387,6069.688724,-6883.915261,1072.533697
1333.776717,7179.997637,-6513.812290,536.266849
1333.777046,8068.244768,-5847.626942,1302.362347
1333.777375,8586.388927,-5921.647536,995.924147
1333.777705,8660.409521,-5921.647536,1608.800546
1333.778034,7476.080014,-6217.729913,2145.067394
1333.778363,6809.894666,-7254.018232,1072.533697
1333.778692,5699.585753,-7846.182985,536.266849
1333.779022,5255.462188,-8438.347739,229.828649
1333.779351,5625.565159,-8438.347739,995.924147
1333.779680,5847.626942,-7254.018232,919.314598
1333.780010,6883.915261,-7105.977043,612.876398
1333.780339,7105.977043,-5847.626942,1302.362347
1333.780668,7624.121203,-5699.585753,995.924147
1333.780998,8364.327145,-4737.318029,1225.752797
1333.781327,7846.182985,-4515.256246,1225.752797
1333.781656,7402.059420,-5255.462188,1455.581446
1333.781986,7772.162391,-5403.503377,1532.190996
1333.782315,7179.997637,-6439.791695,1378.971896
1333.782644,7402.059420,-6735.874072,1149.143247
1333.782974,6883.915261,-8364.327145,1302.362347
1333.783303,6957.935855,-6513.812290,919.314598
1333.783632,6291.750507,-7772.162391,919.314598
1333.783961,5625.565159,-7920.203579,1072.533697
1333.784291,5921.647536,-5847.626942,842.705048
1333.784620,6217.729913,-7031.956449,306.438199
1333.784949,6661.853478,-5773.606348,459.657299
1333.785279,7328.038826,-6291.750507,1378.971896
1333.785608,7476.080014,-7328.038826,2298.286494
1333.785937,7624.121203,-6587.832884,1838.629195
1333.786266,7105.977043,-6809.894666,1149.143247
1333.786596,7105.977043,-6587.832884,1455.581446
1333.786925,6809.894666,-6513.812290,612.876398
1333.787254,6439.791695,-6587.832884,536.266849
1333.787583,6069.688724,-7624.121203,1149.143247
1333.787912,6735.874072,-7624.121203,1455.581446
1333.788241,6957.935855,-6661.853478,1149.143247
1333.788571,6661.853478,-6069.688724,1072.533697
1333.788900,6735.874072,-5625.565159,842.705048
1333.789229,7179.997637,-5329.482782,459.657299
1333.789558,7994.224174,-5995.668130,1608.800546
1333.789887,8290.306550,-5551.544565,1762.019645
1333.790217,7846.182985,-5995.668130,1149.143247
1333.790546,7179.997637,-5995.668130,1455.581446
1333.790875,7254.018232,-6957.935855,1072.533697
1333.791204,6809.894666,-7105.977043,842.705048
1333.791533,6513.812290,-7624.121203,1225.752797
1333.791862,7105.977043,-7179.997637,995.924147
1333.792192,7031.956449,-6587.832884,919.314598
1333.792521,6661.853478,-6587.832884,1149.143247
1333.792850,7105.977043,-6069.688724,306.438199
1333.793179,7105.977043,-5107.421000,995.924147
1333.793508,7105.977043,-5625.565159,1378.971896
1333.793837,7624.121203,-5995.668130,1302.362347
1333.794167,7772.162391,-5995.668130,1455.581446
1333.794496,7031.956449,-6365.771101,919.314598
1333.794825,5921.647536,-7624.121203,766.095498
1333.795154,5847.626942,-7920.203579,612.876398
1333.795483,5773.606348,-8216.285956,689.485948
1333.795812,5699.585753,-8068.244768,1225.752797
1333.796142,5551.544565,-7179.997637,1225.752797
1333.796471,6365.771101,-7031.956449,689.485948
1333.796800,6809.894666,-6809.894666,1378.971896
1333.797129,7476.080014,-5477.523971,1378.971896
1333.797458,7920.203579,-5477.523971,1455.581446
1333.797787,7624.121203,-4737.318029,2374.896044
1333.798117,7920.203579,-4885.359217,1378.971896
1333.798446,7624.121203,-6291.750507,1149.143247
1333.798775,7105.977043,-5995.668130,1225.752797
1333.799104,6735.874072,-7254.018232,612.876398
1333.799433,6587.832884,-6883.915261,1225.752797
1333.799763,6735.874072,-7105.977043,995.924147
1333.800092,6809.894666,-7772.162391,995.924147
1333.800421,6587.832884,-6809.894666,1149.143247
1333.800750,7105.977043,-6143.709319,383.047749
1333.801079,7624.121203,-5921.647536,919.314598
1333.801408,8068.244768,-5033.400406,1149.143247
1333.801738,7994.224174,-5107.421000,1225.752797
1333.802067,8068.244768,-5699.585753,1225.752797
1333.802396,7402.059420,-6439.791695,1685.410096
1333.802725,7105.977043,-7105.977043,1455.581446
1333.803054,6513.812290,-7328.038826,1455.581446
1333.803383,5773.606348,-7328.038826,689.485948
1333.803713,5403.503377,-8068.244768,689.485948
1333.804042,5329.482782,-8512.368333,842.705048
1333.804371,5847.626942,-7476.080014,995.924147
1333.804700,6365.771101,-6439.791695,766.095498
1333.805029,6587.832884,-5477.523971,383.047749
1333.805358,7179.997637,-5699.585753,612.876398
1333.805688,8142.265362,-5477.523971,1225.752797
1333.806017,8290.306550,-5625.565159,2068.457845
1333.806346,8512.368333,-5477.523971,1685.410096
1333.806675,7994.224174,-6217.729913,1915.238745
1333.807004,7105.977043,-5551.544565,1302.362347
1333.807334,7031.956449,-6735.874072,459.657299
1333.807663,7031.956449,-7476.080014,1378.971896
1333.807992,6735.874072,-7920.203579,689.485948
1333.808321,5995.668130,-7846.182985,76.609550
1333.808650,5773.606348,-7105.977043,766.095498
1333.808979,6513.812290,-6661.853478,383.047749
1333.809309,7179.997637,-6069.688724,612.876398
1333.809638,7476.080014,-5477.523971,1225.752797
1333.809967,7698.141797,-5773.606348,1225.752797
1333.810296,7994.224174,-5625.565159,1455.581446
1333.810625,7624.121203,-5921.647536,1302.362347
1333.810954,6957.935855,-6365.771101,1225.752797
1333.811284,6365.771101,-7476.080014,842.705048
1333.811613,5773.606348,-8068.244768,919.314598
1333.811942,5625.565159,-8364.327145,1149.143247
1333.812271,5921.647536,-8438.347739,1149.143247
1333.812600,6291.750507,-7920.203579,842.705048
1333.812929,6513.812290,-7105.977043,153.219100
1333.813259,6217.729913,-5995.668130,383.047749
1333.813588,6957.935855,-5921.647536,459.657299
1333.813917,8216.285956,-5773.606348,1225.752797
1333.814246,8142.265362,-4811.338623,1455.581446
1333.814575,8512.368333,-5477.523971,1455.581446
1333.814905,8364.327145,-5625.565159,1302.362347
1333.815234,7476.080014,-6217.729913,1532.190996
1333.815563,7254.018232,-6513.812290,1302.362347
1333.815892,7698.141797,-5995.668130,1532.190996
1333.816221,7328.038826,-6365.771101,1225.752797
1333.816550,6957.935855,-6439.791695,1378.971896
1333.816880,6439.791695,-6587.832884,995.924147
1333.817209,6809.894666,-5995.668130,612.876398
1333.817538,7105.977043,-6365.771101,536.266849
1333.817867,7105.977043,-5625.565159,1149.143247
1333.818196,7328.038826,-6291.750507,919.314598
1333.818525,7105.977043,-7179.997637,1072.533697
1333.818855,6439.791695,-6365.771101,1608.800546
1333.819184,6069.688724,-7105.977043,383.047749
1333.819513,5847.626942,-7402.059420,1149.143247
1333.819842,5995.668130,-8068.244768,1225.752797
1333.820171,6513.812290,-8216.285956,612.876398
1333.820500,6217.729913,-7402.059420,1608.800546
1333.820830,6661.853478,-7179.997637,1225.752797
1333.821159,6809.894666,-6513.812290,766.095498
1333.821488,7105.977043,-5625.565159,1149.143247
1333.821817,7846.182985,-4811.338623,1072.533697
1333.822146,8142.265362,-4959.379811,766.095498
1333.822476,7994.224174,-6069.688724,1685.410096
1333.822805,8290.306550,-5847.626942,1455.581446
1333.823134,7920.203579,-5477.523971,1302.362347
1333.823463,7105.977043,-5477.523971,995.924147
1333.823792,6735.874072,-6513.812290,766.095498
1333.824121,6735.874072,-7105.977043,1608.800546
1333.824451,6439.791695,-7698.141797,1149.143247
1333.824780,6291.750507,-7550.100608,1455.581446
1333.825109,6661.853478,-6439.791695,536.266849
1333.825438,7105.977043,-5773.606348,612.876398
1333.825767,7179.997637,-5921.647536,1072.533697
1333.826096,7550.100608,-6069.688724,1455.581446
1333.826426,7920.203579,-5625.565159,766.095498
1333.826755,7328.038826,-6365.771101,1455.581446
1333.827084,6957.935855,-7254.018232,1455.581446
1333.827413,6513.812290,-7698.141797,842.705048
1333.827742,5403.503377,-7846.182985,459.657299
1333.828071,5033.400406,-8882.471304,383.047749
1333.828401,5477.523971,-8734.430116,306.438199
1333.828730,6069.688724,-7476.080014,766.095498
1333.829059,6217.729913,-8364.327145,1149.143247
1333.829388,6439.791695,-7105.977043,1378.971896
1333.829717,6883.915261,-5403.503377,536.266849
1333.830047,7179.997637,-5255.462188,689.485948
1333.830376,8216.285956,-4737.318029,1225.752797
1333.830705,8734.430116,-4959.379811,1532.190996
1333.831034,9030.512492,-4885.359217,1915.238745
1333.831363,8216.285956,-5699.585753,1455.581446
1333.831692,7846.182985,-5773.606348,1225.752797
1333.832022,7105.977043,-6883.915261,1455.581446
1333.832351,6735.874072,-7105.977043,995.924147
1333.832680,6143.709319,-7179.997637,1072.533697
1333.833009,6069.688724,-7402.059420,1072.533697
1333.833338,6439.791695,-7105.977043,689.485948
1333.833667,6513.812290,-5921.647536,306.438199
1333.833997,7402.059420,-6069.688724,1378.971896
1333.834326,7772.162391,-5477.523971,1685.410096
1333.834655,7846.182985,-5995.668130,1608.800546
1333.834984,7179.997637,-6513.812290,1532.190996
1333.835313,6069.688724,-6365.771101,842.705048
1333.835642,6217.729913,-6957.935855,229.828649
1333.835972,5329.482782,-7772.162391,536.266849
1333.836301,5033.400406,-8808.450710,536.266849
1333.836630,6069.688724,-8290.306550,1072.533697
1333.836959,6439.791695,-7179.997637,842.705048
1333.837288,7179.997637,-7031.956449,842.705048
1333.837618,7476.080014,-6439.791695,919.314598
1333.837947,7550.100608,-5033.400406,995.924147
1333.838276,7994.224174,-4959.379811,459.657299
1333.838605,7846.182985,-4737.318029,919.314598
1333.838934,8512.368333,-5107.421000,1455.581446
1333.839263,8512.368333,-5773.606348,1991.848295
1333.839593,7772.162391,-5995.668130,1685.410096
1333.839922,6809.894666,-5995.668130,459.657299
1333.840251,6069.688724,-6439.791695,536.266849
1333.840580,6513.812290,-7328.038826,1149.143247
1333.840909,6513.812290,-7402.059420,1149.143247
1333.841238,5847.626942,-7402.059420,842.705048
1333.841568,6587.832884,-6735.874072,536.266849
1333.841897,7031.956449,-5921.647536,383.047749
1333.842226,8142.265362,-6439.791695,1149.143247
1333.842555,8734.430116,-5625.565159,1915.238745
1333.842884,8438.347739,-5921.647536,1455.581446
1333.843213,7550.100608,-6439.791695,1225.752797
1333.843543,6735.874072,-6957.935855,1072.533697
1333.843872,5921.647536,-7698.141797,0.000000
1333.844201,5403.503377,-8142.265362,383.047749
1333.844530,4959.379811,-8956.491898,995.924147
1333.844859,5181.441594,-9030.512492,153.219100
1333.845189,5403.503377,-8068.244768,459.657299
1333.845518,5995.668130,-7179.997637,383.047749
1333.845847,6957.935855,-6291.750507,689.485948
1333.846176,7550.100608,-5255.462188,689.485948
1333.846505,8660.409521,-5033.400406,1608.800546
1333.846834,8956.491898,-5033.400406,1838.629195
1333.847164,9104.533087,-4885.359217,1762.019645
1333.847493,8068.244768,-5699.585753,1762.019645
1333.847822,7476.080014,-6069.688724,1685.410096
1333.848151,6957.935855,-5847.626942,919.314598
1333.848480,6587.832884,-7105.977043,1455.581446
1333.848809,6217.729913,-8142.265362,1608.800546
1333.849139,6439.791695,-7476.080014,1225.752797
1333.849468,5477.523971,-6883.915261,459.657299
1333.849797,5773.606348,-6365.771101,689.485948
1333.850126,6809.894666,-6513.812290,842.705048
1333.850455,7846.182985,-5699.585753,1532.190996
1333.850784,8512.368333,-5551.544565,1455.581446
1333.851114,8512.368333,-5477.523971,1532.190996
1333.851443,8290.306550,-5477.523971,1685.410096
1333.851772,7328.038826,-6439.791695,1455.581446
1333.852101,6883.915261,-7254.018232,1072.533697
1333.852430,6069.688724,-7476.080014,766.095498
1333.852759,5995.668130,-7994.224174,229.828649
1333.853089,5921.647536,-8364.327145,766.095498
1333.853418,5847.626942,-7772.162391,612.876398
1333.853747,6735.874072,-7624.121203,229.828649
1333.854076,5995.668130,-6439.791695,306.438199
1333.854405,5921.647536,-5477.523971,306.438199
1333.854735,6661.853478,-5921.647536,689.485948
1333.855064,7179.997637,-5847.626942,1838.629195
1333.855393,7624.121203,-5773.606348,1532.190996
1333.855722,7328.038826,-6439.791695,1302.362347
1333.856051,7550.100608,-5995.668130,1455.581446
1333.856380,7550.100608,-6291.750507,1149.143247
1333.856710,7254.018232,-6069.688724,919.314598
1333.857039,6957.935855,-6439.791695,1225.752797
1333.857368,7402.059420,-7254.018232,1072.533697
1333.857697,7105.977043,-6661.853478,612.876398
1333.858026,7254.018232,-5995.668130,995.924147
1333.858355,7550.100608,-4959.379811,536.266849
1333.858685,7994.224174,-6069.688724,919.314598
1333.859014,7772.162391,-5625.565159,2068.457845
1333.859343,8142.265362,-5995.668130,1149.143247
1333.859672,7698.141797,-5625.565159,1838.629195
1333.860001,6883.915261,-6883.915261,612.876398
1333.860330,5329.482782,-7402.059420,-153.219100
1333.860660,5033.400406,-7994.224174,766.095498
1333.860989,5773.606348,-9548.656652,766.095498
1333.861318,6439.791695,-8068.244768,1225.752797
1333.861647,6661.853478,-7031.956449,1072.533697
1333.861976,7105.977043,-6513.812290,536.266849
1333.862306,7624.121203,-5477.523971,1149.143247
1333.862635,7105.977043,-5773.606348,1608.800546
1333.862964,7624.121203,-4959.379811,1149.143247
1333.863293,7105.977043,-5403.503377,1149.143247
1333.863622,7624.121203,-6143.709319,1532.190996
1333.863951,7254.018232,-6513.812290,1149.143247
1333.864281,7031.956449,-5921.647536,1532.190996
1333.864610,6735.874072,-6587.832884,766.095498
1333.864939,7105.977043,-7031.956449,1378.971896
1333.865268,7179.997637,-6809.894666,1608.800546
1333.865597,7031.956449,-7624.121203,536.266849
1333.865926,6513.812290,-6291.750507,766.095498
1333.866256,6069.688724,-6587.832884,383.047749
1333.866585,7254.018232,-6513.812290,919.314598
1333.866914,8290.306550,-5255.462188,1532.190996
1333.867243,8734.430116,-5403.503377,1149.143247
1333.867572,8290.306550,-6217.729913,1838.629195
1333.867901,7328.038826,-7179.997637,2068.457845
1333.868231,6587.832884,-6883.915261,995.924147
1333.868560,5107.421000,-7105.977043,153.219100
1333.868889,4589.276840,-8216.285956,229.828649
1333.869218,4367.215058,-8660.409521,306.438199
1333.869547,4959.379811,-9178.553681,919.314598
1333.869877,6513.812290,-8216.285956,1149.143247
1333.870206,7179.997637,-6439.791695,1225.752797
1333.870535,7105.977043,-5921.647536,459.657299
1333.870864,7254.018232,-5255.462188,766.095498
1333.871193,7402.059420,-5477.523971,842.705048
1333.871522,7550.100608,-5773.606348,1455.581446
1333.871852,7772.162391,-5995.668130,995.924147
1333.872181,7328.038826,-6957.935855,1685.410096
1333.872510,7254.018232,-6291.750507,1225.752797
1333.872839,7031.956449,-7105.977043,842.705048
1333.873168,7179.997637,-6735.874072,842.705048
1333.873497,6735.874072,-7254.018232,1532.190996
1333.873827,6587.832884,-6809.894666,459.657299
1333.874156,6587.832884,-5255.462188,612.876398
1333.874485,7105.977043,-5551.544565,766.095498
1333.874814,7994.224174,-5477.523971,1685.410096
1333.875143,8142.265362,-5403.503377,1608.800546
1333.875472,8290.306550,-5847.626942,2068.457845
1333.875802,8586.388927,-5551.544565,1685.410096
1333.876131,7698.141797,-6143.709319,1378.971896
1333.876460,6735.874072,-6661.853478,612.876398
1333.876789,5477.523971,-7698.141797,919.314598
1333.877118,5625.565159,-7920.203579,919.314598
1333.877448,5625.565159,-8364.327145,1302.362347
1333.877777,6143.709319,-7772.162391,1532.190996
1333.878106,6291.750507,-6883.915261,1072.533697
1333.878435,5921.647536,-7179.997637,612.876398
1333.878764,6217.729913,-6439.791695,459.657299
1333.879093,6587.832884,-5477.523971,383.047749
1333.879423,7179.997637,-5625.565159,229.828649
1333.879752,7328.038826,-6069.688724,1532.190996
1333.880081,7328.038826,-6513.812290,1072.533697
1333.880410,7254.018232,-6587.832884,1149.143247
1333.880739,7105.977043,-6883.915261,1302.362347
1333.881068,7179.997637,-7105.977043,995.924147
1333.881398,7328.038826,-6735.874072,1302.362347
1333.881727,7328.038826,-6513.812290,1225.752797
1333.882056,7179.997637,-6513.812290,1225.752797
1333.882385,7105.977043,-4811.338623,1149.143247
1333.882714,7105.977043,-5107.421000,919.314598
1333.883043,7402.059420,-5255.462188,1149.143247
1333.883373,7328.038826,-4811.338623,1608.800546
1333.883702,7550.100608,-5551.544565,1455.581446
1333.884031,7328.038826,-6291.750507,1608.800546
1333.884360,6439.791695,-6143.709319,1225.752797
1333.884689,6069.688724,-7254.018232,536.266849
1333.885019,6217.729913,-8142.265362,919.314598
1333.885348,6143.709319,-8216.285956,1225.752797
1333.885677,6069.688724,-8660.409521,919.314598
1333.886006,5921.647536,-8290.306550,459.657299
1333.886335,5921.647536,-7624.121203,383.047749
1333.886664,6439.791695,-6513.812290,536.266849
1333.886994,7698.141797,-6217.729913,1072.533697
1333.887323,7846.182985,-5995.668130,1225.752797
1333.887652,7772.162391,-5625.565159,1302.362347
1333.887981,7550.100608,-6143.709319,1455.581446
1333.888310,7550.100608,-6217.729913,1149.143247
1333.888640,6661.853478,-6809.894666,1072.533697
1333.888969,6735.874072,-6735.874072,689.485948
1333.889298,6883.915261,-6217.729913,766.095498
1333.889627,7328.038826,-7179.997637,1302.362347
1333.889957,7698.141797,-6661.853478,1302.362347
1333.890286,7328.038826,-6513.812290,1072.533697
1333.890615,6883.915261,-6587.832884,459.657299
1333.890944,6735.874072,-6809.894666,612.876398
1333.891274,7105.977043,-5995.668130,919.314598
1333.891603,7846.182985,-5107.421000,842.705048
1333.891932,7624.121203,-6735.874072,1838.629195
1333.892261,7328.038826,-5921.647536,1455.581446
1333.892591,7772.162391,-5255.462188,1608.800546
1333.892920,7550.100608,-6143.709319,1532.190996
1333.893249,6291.750507,-7254.018232,612.876398
1333.893578,5033.400406,-7402.059420,536.266849
1333.893907,5477.523971,-7179.997637,306.438199
1333.894237,6217.729913,-6957.935855,842.705048
1333.894566,6809.894666,-7105.977043,1762.019645
1333.894895,7772.162391,-5847.626942,536.266849
1333.895224,8142.265362,-5625.565159,1072.533697
1333.895554,7846.182985,-5477.523971,1072.533697
1333.895883,7105.977043,-6365.771101,612.876398
1333.896212,6587.832884,-6143.709319,995.924147
1333.896541,6069.688724,-7105.977043,842.705048
1333.896871,6217.729913,-7624.121203,689.485948
1333.897200,6513.812290,-7179.997637,1378.971896
1333.897529,7402.059420,-7846.182985,2374.896044
1333.897858,7254.018232,-7476.080014,1762.019645
1333.898188,6587.832884,-6513.812290,1302.362347
1333.898517,6143.709319,-6217.729913,1072.533697
1333.898846,6661.853478,-5107.421000,536.266849
1333.899175,7550.100608,-4293.194464,1455.581446
1333.899505,7846.182985,-5699.585753,1532.190996
1333.899834,8290.306550,-4885.359217,2451.505594
1333.900163,8734.430116,-5329.482782,1608.800546
1333.900492,7698.141797,-6291.750507,1838.629195
1333.900822,6365.771101,-6809.894666,919.314598
1333.901151,5773.606348,-7994.224174,153.219100
1333.901480,5255.462188,-8216.285956,229.828649
1333.901809,5403.503377,-8290.306550,689.485948
1333.902139,6291.750507,-8216.285956,536.266849
1333.902468,6513.812290,-7772.162391,919.314598
1333.902797,6957.935855,-6291.750507,689.485948
1333.903126,7328.038826,-5255.462188,612.876398
1333.903456,8512.368333,-5329.482782,1225.752797
1333.903785,8438.347739,-5403.503377,1532.190996
1333.904114,7550.100608,-5033.400406,919.314598
1333.904443,7105.977043,-5847.626942,1302.362347
1333.904772,7476.080014,-6513.812290,1149.143247
1333.905102,7254.018232,-7105.977043,1762.019645
1333.905431,6661.853478,-6883.915261,919.314598
1333.905760,6143.709319,-7254.018232,995.924147
1333.906089,6513.812290,-7698.141797,842.705048
1333.906419,6365.771101,-7476.080014,1302.362347
1333.906748,6069.688724,-7550.100608,842.705048
1333.907077,6809.894666,-6217.729913,1225.752797
1333.907406,7698.141797,-5255.462188,842.705048
1333.907736,7920.203579,-5551.544565,1378.971896
1333.908065,8586.388927,-4959.379811,1532.190996
1333.908394,8660.409521,-5625.565159,1149.143247
1333.908723,7624.121203,-5847.626942,1072.533697
1333.909053,6957.935855,-6217.729913,1072.533697
1333.909382,6587.832884,-7698.141797,766.095498
1333.909711,5921.647536,-7920.203579,1532.190996
1333.910040,5551.544565,-9030.512492,1302.362347
1333.910370,5921.647536,-8142.265362,766.095498
1333.910699,6661.853478,-6661.853478,919.314598
1333.911028,6883.915261,-6439.791695,612.876398
1333.911357,6513.812290,-5625.565159,459.657299
1333.911687,6809.894666,-5699.585753,459.657299
1333.912016,7402.059420,-5995.668130,153.219100
1333.912345,7402.059420,-5921.647536,1149.143247
1333.912674,7254.018232,-6809.894666,1915.238745
1333.913004,7476.080014,-7179.997637,1685.410096
1333.913333,7031.956449,-6661.853478,995.924147
1333.913662,6513.812290,-6883.915261,1149.143247
1333.913991,7105.977043,-7179.997637,842.705048
1333.914320,7031.956449,-7698.141797,1302.362347
1333.914650,6069.688724,-7328.038826,842.705048
1333.914979,5847.626942,-6513.812290,0.000000
1333.915308,6291.750507,-6291.750507,306.438199
1333.915637,7105.977043,-6365.771101,1072.533697
1333.915967,7550.100608,-5699.585753,1302.362347
1333.916296,8142.265362,-4885.359217,1838.629195
1333.916625,8290.306550,-5847.626942,1838.629195
1333.916954,7624.121203,-5699.585753,1302.362347
1333.917284,6883.915261,-6439.791695,1608.800546
1333.917613,6587.832884,-7402.059420,536.266849
1333.917942,6217.729913,-7624.121203,689.485948
1333.918271,6291.750507,-7994.224174,919.314598
1333.918601,6661.853478,-8290.306550,1762.019645
1333.918930,6587.832884,-6957.935855,1225.752797
1333.919259,6883.915261,-6291.750507,842.705048
1333.919588,7105.977043,-5403.503377,1072.533697
1333.919918,7328.038826,-4811.338623,842.705048
1333.920247,7105.977043,-4959.379811,1072.533697
1333.920576,7105.977043,-5921.647536,1225.752797
1333.920905,7105.977043,-6291.750507,1302.362347
1333.921235,6809.894666,-7254.018232,919.314598
1333.921564,6513.812290,-7105.977043,1302.362347
1333.921893,7254.018232,-7179.997637,1608.800546
1333.922222,7105.977043,-7772.162391,1149.143247
1333.922552,6735.874072,-7031.956449,1302.362347
1333.922881,6365.771101,-6883.915261,1072.533697
1333.923210,7105.977043,-6143.709319,612.876398
1333.923539,7105.977043,-5921.647536,1072.533697
1333.923868,7698.141797,-5699.585753,1302.362347
1333.924198,7994.224174,-5477.523971,1302.362347
1333.924527,8290.306550,-5625.565159,1302.362347
1333.924856,7846.182985,-6069.688724,1302.362347
1333.925185,7550.100608,-5921.647536,1302.362347
1333.925515,6661.853478,-6439.791695,306.438199
1333.925844,5847.626942,-7698.141797,306.438199
1333.926173,5403.503377,-7846.182985,842.705048
1333.926502,6365.771101,-8142.265362,995.924147
1333.926832,6587.832884,-8142.265362,1455.581446
1333.927161,6661.853478,-6661.853478,1072.533697
1333.927490,7105.977043,-5847.626942,842.705048
1333.927819,7920.203579,-4959.379811,1225.752797
1333.928149,7772.162391,-5107.421000,1225.752797
1333.928478,7179.997637,-5699.585753,1302.362347
1333.928807,7105.977043,-5551.544565,1072.533697
1333.929136,6957.935855,-6439.791695,1608.800546
1333.929466,6587.832884,-7846.182985,1225.752797
1333.929795,5995.668130,-7402.059420,919.314598
1333.930124,6143.709319,-7846.182985,536.266849
1333.930453,6143.709319,-7772.162391,0.000000
1333.930783,5921.647536,-7179.997637,1225.752797
1333.931112,6587.832884,-6883.915261,842.705048
1333.931441,7328.038826,-6069.688724,689.485948
1333.931770,8068.244768,-5551.544565,842.705048
1333.932100,8216.285956,-5255.462188,1225.752797
1333.932429,8512.368333,-4811.338623,1532.190996
1333.932758,8438.347739,-4737.318029,1838.629195
1333.933087,8142.265362,-5255.462188,1532.190996
1333.933416,7254.018232,-5403.503377,1225.752797
1333.933746,6439.791695,-6365.771101,306.438199
1333.934075,5995.668130,-7698.141797,995.924147
1333.934404,5921.647536,-8142.265362,842.705048
1333.934733,5625.565159,-8068.244768,1072.533697
1333.935063,5625.565159,-7624.121203,995.924147
1333.935392,6217.729913,-6513.812290,689.485948
1333.935721,6735.874072,-5995.668130,766.095498
1333.936050,7105.977043,-5625.565159,995.924147
1333.936380,7179.997637,-4885.359217,842.705048
1333.936709,7476.080014,-4885.359217,995.924147
1333.937038,7846.182985,-6217.729913,1302.362347
1333.937367,7254.018232,-6439.791695,1608.800546
1333.937697,7476.080014,-6735.874072,1149.143247
1333.938026,6809.894666,-6957.935855,1685.410096
1333.938355,6809.894666,-7105.977043,1302.362347
1333.938684,6735.874072,-8216.285956,689.485948
1333.939014,5773.606348,-8142.265362,766.095498
1333.939343,5551.544565,-7254.018232,0.000000
1333.939672,6069.688724,-7031.956449,0.000000
1333.940001,6883.915261,-5107.421000,1149.143247
1333.940331,8142.265362,-5847.626942,1225.752797
1333.940660,8586.388927,-5699.585753,1532.190996
1333.940989,7846.182985,-6291.750507,1915.238745
1333.941318,7105.977043,-6735.874072,1149.143247
1333.941648,6587.832884,-5107.421000,612.876398
1333.941977,6217.729913,-7179.997637,383.047749
1333.942306,5847.626942,-7698.141797,842.705048
1333.942635,6809.894666,-7698.141797,1378.971896
1333.942964,7772.162391,-7105.977043,1838.629195
1333.943294,7254.018232,-7031.956449,1072.533697
1333.943623,6291.750507,-6143.709319,766.095498
1333.943952,6809.894666,-5403.503377,612.876398
1333.944281,7179.997637,-5699.585753,76.609550
1333.944611,7179.997637,-5921.647536,766.095498
1333.944940,7772.162391,-5699.585753,1149.143247
1333.945269,8290.306550,-5403.503377,1378.971896
1333.945598,7624.121203,-5625.565159,1225.752797
1333.945928,7698.141797,-6365.771101,1149.143247
1333.946257,7550.100608,-6957.935855,1149.143247
1333.946586,7031.956449,-7476.080014,1149.143247
1333.946915,6587.832884,-7624.121203,919.314598
1333.947245,6365.771101,-6513.812290,919.314598
1333.947574,6069.688724,-7476.080014,1072.533697
1333.947903,6735.874072,-6291.750507,612.876398
1333.948232,7105.977043,-5551.544565,1072.533697
1333.948562,7772.162391,-5329.482782,1225.752797
1333.948891,8068.244768,-5773.606348,1378.971896
1333.949220,7328.038826,-5995.668130,1455.581446
1333.949549,6883.915261,-6809.894666,1072.533697
1333.949879,6069.688724,-7254.018232,995.924147
1333.950208,5921.647536,-7550.100608,919.314598
1333.950537,6365.771101,-8290.306550,689.485948
1333.950866,6217.729913,-8216.285956,1608.800546
1333.951196,7105.977043,-7624.121203,995.924147
1333.951525,6957.935855,-6735.874072,995.924147
1333.951854,6957.935855,-5995.668130,995.924147
1333.952183,7550.100608,-5847.626942,612.876398
1333.952513,7550.100608,-5699.585753,1072.533697
1333.952842,7624.121203,-4959.379811,1149.143247
1333.953171,8142.265362,-5403.503377,1072.533697
1333.953500,7920.203579,-6587.832884,1915.238745
1333.953829,7402.059420,-7105.977043,1302.362347
1333.954159,7105.977043,-6809.894666,689.485948
1333.954488,6883.915261,-7031.956449,919.314598
1333.954817,6883.915261,-7402.059420,842.705048
1333.955146,6735.874072,-7402.059420,919.314598
1333.955476,5995.668130,-7772.162391,1149.143247
1333.955805,6513.812290,-6957.935855,689.485948
1333.956134,6365.771101,-6439.791695,842.705048
1333.956463,6661.853478,-5921.647536,1149.143247
1333.956793,6809.894666,-6291.750507,1302.362347
1333.957122,7105.977043,-5847.626942,1608.800546
1333.957451,7031.956449,-5921.647536,1378.971896
1333.957780,6661.853478,-6291.750507,1149.143247
1333.958110,6957.935855,-7179.997637,1455.581446
1333.958439,6217.729913,-7846.182985,689.485948
1333.958768,5625.565159,-7698.141797,1072.533697
1333.959097,5625.565159,-8068.244768,1302.362347
1333.959427,6513.812290,-7550.100608,1149.143247
1333.959756,6883.915261,-7105.977043,995.924147
1333.960085,7105.977043,-4885.359217,689.485948
1333.960414,7994.224174,-4737.318029,536.266849
1333.960744,8364.327145,-5107.421000,1302.362347
1333.961073,7994.224174,-5329.482782,2068.457845
1333.961402,7402.059420,-6069.688724,1455.581446
1333.961731,7105.977043,-5403.503377,995.924147
1333.962061,7105.977043,-6513.812290,1149.143247
1333.962390,7031.956449,-6883.915261,1072.533697
1333.962719,7105.977043,-6661.853478,919.314598
1333.963048,6735.874072,-7846.182985,1149.143247
1333.963377,6587.832884,-7031.956449,689.485948
1333.963707,6439.791695,-7105.977043,919.314598
1333.964036,6957.935855,-6513.812290,1455.581446
1333.964365,6661.853478,-6735.874072,1225.752797
1333.964694,7105.977043,-5773.606348,1149.143247
1333.965024,7105.977043,-5699.585753,766.095498
1333.965353,7846.182985,-5995.668130,1762.019645
1333.965682,7698.141797,-6661.853478,1225.752797
1333.966011,6217.729913,-7105.977043,1149.143247
1333.966341,5255.462188,-6809.894666,76.609550
1333.966670,5255.462188,-7624.121203,0.000000
1333.966999,5477.523971,-8512.368333,919.314598
1333.967328,6661.853478,-8290.306550,1685.410096
1333.967658,6957.935855,-7105.977043,995.924147
1333.967987,6587.832884,-6439.791695,766.095498
1333.968316,7105.977043,-5773.606348,689.485948
1333.968645,8216.285956,-5107.421000,689.485948
1333.968975,8290.306550,-4663.297435,995.924147
1333.969304,8882.471304,-4515.256246,1532.190996
1333.969633,8364.327145,-5995.668130,1455.581446
1333.969962,7550.100608,-6439.791695,1302.362347
1333.970292,6883.915261,-6513.812290,689.485948
1333.970621,6587.832884,-6883.915261,536.266849
1333.970950,5921.647536,-7402.059420,459.657299
1333.971279,5477.523971,-8364.327145,689.485948
1333.971609,5995.668130,-7476.080014,842.705048
1333.971938,5921.647536,-7105.977043,1072.533697
1333.972267,6735.874072,-5699.585753,612.876398
1333.972596,7328.038826,-5551.544565,1302.362347
1333.972925,8364.327145,-5403.503377,1608.800546
1333.973255,8808.450710,-4737.318029,1532.190996
1333.973584,8216.285956,-5255.462188,1455.581446
1333.973913,7402.059420,-5921.647536,919.314598
1333.974242,6957.935855,-7105.977043,766.095498
1333.974572,6513.812290,-7105.977043,995.924147
1333.974901,5847.626942,-8290.306550,153.219100
1333.975230,5847.626942,-8808.450710,306.438199
1333.975559,5699.585753,-8808.450710,1149.143247
1333.975889,5847.626942,-8512.368333,1302.362347
1333.976218,5847.626942,-6365.771101,919.314598
1333.976547,6661.853478,-4589.276840,0.000000
1333.976876,6587.832884,-5625.565159,459.657299
1333.977206,7254.018232,-5181.441594,1302.362347
1333.977535,8290.306550,-5033.400406,1378.971896
1333.977864,8290.306550,-5551.544565,1762.019645
1333.978193,7994.224174,-5921.647536,2145.067394
1333.978523,7550.100608,-6661.853478,1302.362347
1333.978852,7105.977043,-6661.853478,842.705048
1333.979181,6735.874072,-7624.121203,1685.410096
1333.979510,6587.832884,-7772.162391,919.314598
1333.979840,6365.771101,-8142.265362,1225.752797
1333.980169,6143.709319,-7550.100608,1225.752797
1333.980498,5921.647536,-6735.874072,536.266849
1333.980827,7031.956449,-5699.585753,153.219100
1333.981157,7179.997637,-5477.523971,1378.971896
1333.981486,8290.306550,-5403.503377,1762.019645
1333.981815,8586.388927,-5033.400406,1838.629195
1333.982144,7994.224174,-5625.565159,1762.019645
1333.982473,6587.832884,-5477.523971,842.705048
1333.982803,5403.503377,-6883.915261,306.438199
1333.983132,5329.482782,-8290.306550,76.609550
1333.983461,5847.626942,-8586.388927,1149.143247
1333.983790,6809.894666,-8290.306550,1608.800546
1333.984120,6661.853478,-7698.141797,1378.971896
1333.984449,6735.874072,-6809.894666,1149.143247
1333.984778,7179.997637,-5773.606348,689.485948
1333.985107,7105.977043,-4811.338623,1302.362347
1333.985437,7920.203579,-4441.235652,995.924147
1333.985766,7846.182985,-4737.318029,1455.581446
1333.986095,7772.162391,-5921.647536,1608.800546
1333.986424,7402.059420,-5699.585753,1838.629195
1333.986754,7402.059420,-5773.606348,842.705048
1333.987083,7105.977043,-6587.832884,1072.533697
1333.987412,6957.935855,-6735.874072,1608.800546
1333.987741,6143.709319,-7698.141797,689.485948
1333.988070,5477.523971,-7772.162391,689.485948
1333.988399,5625.565159,-7624.121203,995.924147
1333.988728,7105.977043,-7179.997637,689.485948
1333.989058,7624.121203,-6513.812290,1532.190996
1333.989387,7920.203579,-6439.791695,1762.019645
1333.989716,8290.306550,-5847.626942,2374.896044
1333.990045,7846.182985,-5699.585753,2068.457845
1333.990374,7328.038826,-6217.729913,842.705048
1333.990703,6217.729913,-6217.729913,459.657299
1333.991033,5403.503377,-6957.935855,229.828649
1333.991362,5625.565159,-7772.162391,612.876398
1333.991691,5921.647536,-8290.306550,1455.581446
1333.992020,7105.977043,-7846.182985,1685.410096
1333.992349,7328.038826,-7179.997637,1072.533697
1333.992678,7105.977043,-5921.647536,536.266849
1333.993007,7402.059420,-5107.421000,689.485948
1333.993337,7772.162391,-5921.647536,1149.143247
1333.993666,7846.182985,-5403.503377,1608.800546
1333.993995,7402.059420,-5847.626942,1532.190996
1333.994324,6809.894666,-6217.729913,1532.190996
1333.994653,6735.874072,-6291.750507,1532.190996
1333.994982,7031.956449,-7476.080014,1149.143247
1333.995312,6513.812290,-6883.915261,919.314598
1333.995641,5847.626942,-7105.977043,1072.533697
1333.995970,5995.668130,-7105.977043,1225.752797
1333.996299,6217.729913,-6809.894666,689.485948
1333.996628,6439.791695,-7105.977043,995.924147
1333.996957,7624.121203,-5921.647536,689.485948
1333.997287,8068.244768,-5625.565159,995.924147
1333.997616,8216.285956,-4811.338623,842.705048
1333.997945,8216.285956,-6365.771101,1072.533697
1333.998274,7698.141797,-6291.750507,1149.143247
1333.998603,6587.832884,-6143.709319,536.266849
1333.998932,5773.606348,-6735.874072,0.000000
1333.999261,5699.585753,-7846.182985,689.485948
1333.999591,6143.709319,-8364.327145,1149.143247
1333.999920,6069.688724,-8068.244768,766.095498
1334.000249,6069.688724,-6883.915261,842.705048
1334.000578,6809.894666,-6587.832884,1225.752797
1334.000907,8068.244768,-6365.771101,1378.971896
1334.001236,8142.265362,-5033.400406,1149.143247
1334.001566,7846.182985,-4885.359217,995.924147
1334.001895,7846.182985,-4071.132681,1532.190996
1334.002224,8660.409521,-4885.359217,1608.800546
1334.002553,8438.347739,-5921.647536,1685.410096
1334.002882,7476.080014,-5773.606348,1378.971896
1334.003211,6735.874072,-6883.915261,383.047749
1334.003540,6439.791695,-7105.977043,536.266849
1334.003870,6069.688724,-8068.244768,612.876398
1334.004199,6735.874072,-8364.327145,689.485948
1334.004528,6587.832884,-7254.018232,842.705048
1334.004857,6217.729913,-6587.832884,842.705048
1334.005186,7920.203579,-6661.853478,612.876398
1334.005515,7698.141797,-5477.523971,1072.533697
1334.005845,7624.121203,-5477.523971,1225.752797
1334.006174,7550.100608,-5403.503377,995.924147
1334.006503,7698.141797,-6735.874072,1838.629195
1334.006832,6809.894666,-6957.935855,1149.143247
1334.007161,6365.771101,-7179.997637,1302.362347
1334.007490,5847.626942,-7772.162391,612.876398
1334.007820,5625.565159,-7698.141797,842.705048
1334.008149,5847.626942,-8438.347739,1302.362347
1334.008478,6217.729913,-7254.018232,2068.457845
1334.008807,6735.874072,-6809.894666,995.924147
1334.009136,7031.956449,-5773.606348,995.924147
1334.009465,7920.203579,-5107.421000,689.485948
1334.009794,7402.059420,-4959.379811,919.314598
1334.010124,7550.100608,-5255.462188,1532.190996
1334.010453,7550.100608,-5699.585753,1225.752797
1334.010782,7254.018232,-5847.626942,1532.190996
1334.011111,7105.977043,-5847.626942,1608.800546
1334.011440,7031.956449,-6661.853478,1302.362347
1334.011769,6957.935855,-6661.853478,1532.190996
1334.012099,6661.853478,-7254.018232,995.924147
1334.012428,7105.977043,-7254.018232,995.924147
1334.012757,7105.977043,-6587.832884,1378.971896
1334.013086,7476.080014,-6291.750507,842.705048
1334.013415,7624.121203,-6439.791695,689.485948
1334.013744,7254.018232,-5773.606348,1072.533697
1334.014073,6883.915261,-6217.729913,995.924147
1334.014403,6661.853478,-6735.874072,1532.190996
1334.014732,6809.894666,-5995.668130,1225.752797
1334.015061,6365.771101,-7254.018232,689.485948
1334.015390,5773.606348,-7476.080014,612.876398
1334.015719,5921.647536,-8216.285956,842.705048
1334.016048,5329.482782,-8438.347739,689.485948
1334.016378,5773.606348,-7624.121203,1378.971896
1334.016707,6439.791695,-7031.956449,1225.752797
1334.017036,6365.771101,-6883.915261,689.485948
1334.017365,6513.812290,-6143.709319,536.266849
1334.017694,7402.059420,-5699.585753,766.095498
1334.018023,8364.327145,-5107.421000,383.047749
1334.018352,8364.327145,-5551.544565,1991.848295
1334.018682,8586.388927,-6217.729913,1302.362347
1334.019011,7624.121203,-6291.750507,1532.190996
1334.019340,7254.018232,-6291.750507,995.924147
1334.019669,6809.894666,-6661.853478,995.924147
1334.019998,6365.771101,-6587.832884,689.485948
1334.020327,6661.853478,-7476.080014,842.705048
1334.020657,6217.729913,-7179.997637,842.705048
1334.020986,6587.832884,-7179.997637,995.924147
1334.021315,7328.038826,-6661.853478,995.924147
1334.021644,8216.285956,-5551.544565,1072.533697
1334.021973,7920.203579,-5107.421000,1455.581446
1334.022302,7772.162391,-5329.482782,995.924147
1334.022632,7550.100608,-6513.812290,1915.238745
1334.022961,7254.018232,-6365.771101,1455.581446
1334.023290,7105.977043,-7179.997637,766.095498
1334.023619,6217.729913,-7698.141797,995.924147
1334.023948,6069.688724,-7994.224174,919.314598
1334.024277,5477.523971,-8364.327145,612.876398
1334.024606,5921.647536,-8142.265362,536.266849
1334.024936,6291.750507,-7476.080014,842.705048
1334.025265,6365.771101,-6069.688724,383.047749
1334.025594,6809.894666,-5403.503377,536.266849
1334.025923,7550.100608,-5255.462188,766.095498
1334.026252,8290.306550,-5033.400406,1915.238745
1334.026581,8586.388927,-5255.462188,1455.581446
1334.026911,8364.327145,-5699.585753,1608.800546
1334.027240,8142.265362,-6143.709319,1608.800546
1334.027569,7179.997637,-6217.729913,1149.143247
1334.027898,7402.059420,-6365.771101,842.705048
1334.028227,7105.977043,-6883.915261,1532.190996
1334.028556,7624.121203,-7031.956449,1991.848295
1334.028885,7254.018232,-6513.812290,1762.019645
1334.029215,7031.956449,-5847.626942,995.924147
1334.029544,5995.668130,-5551.544565,689.485948
1334.029873,6291.750507,-5847.626942,229.828649
1334.030202,7031.956449,-5995.668130,1225.752797
1334.030531,7105.977043,-6439.791695,1532.190996
1334.030860,7254.018232,-7105.977043,1915.238745
1334.031190,6883.915261,-6883.915261,1455.581446
1334.031519,6735.874072,-7254.018232,612.876398
1334.031848,6143.709319,-8068.244768,919.314598
1334.032177,6143.709319,-8512.368333,229.828649
1334.032506,5625.565159,-9030.512492,536.266849
1334.032835,5551.544565,-8068.244768,842.705048
1334.033165,5921.647536,-7994.224174,459.657299
1334.033494,6513.812290,-6883.915261,766.095498
1334.033823,6883.915261,-5921.647536,1302.362347
1334.034152,7179.997637,-5551.544565,612.876398
1334.034481,7698.141797,-4515.256246,995.924147
1334.034810,8068.244768,-4959.379811,995.924147
1334.035139,7550.100608,-5921.647536,1302.362347
1334.035469,7254.018232,-5773.606348,1991.848295
1334.035798,7105.977043,-6957.935855,1149.143247
1334.036127,6883.915261,-7105.977043,1225.752797
1334.036456,6291.750507,-7550.100608,1302.362347
1334.036785,7031.956449,-7402.059420,1532.190996
1334.037114,6957.935855,-6587.832884,1072.533697
1334.037444,7031.956449,-6661.853478,1378.971896
1334.037773,7402.059420,-5477.523971,1072.533697
1334.038102,7698.141797,-5107.421000,995.924147
1334.038431,7402.059420,-4737.318029,2068.457845
1334.038760,7698.141797,-5477.523971,1455.581446
1334.039089,7179.997637,-6291.750507,1302.362347
1334.039418,6513.812290,-6661.853478,1149.143247
1334.039748,5625.565159,-7476.080014,1302.362347
1334.040077,5625.565159,-7550.100608,766.095498
1334.040406,5255.462188,-8882.471304,766.095498
1334.040735,5033.400406,-9474.636058,919.314598
1334.041064,5403.503377,-7698.141797,229.828649
1334.041393,5921.647536,-7550.100608,842.705048
1334.041723,6661.853478,-7402.059420,689.485948
1334.042052,7624.121203,-5033.400406,919.314598
1334.042381,8438.347739,-4959.379811,1302.362347
1334.042710,8438.347739,-4959.379811,1302.362347
1334.043039,7994.224174,-4885.359217,1532.190996
1334.043368,7994.224174,-5255.462188,1532.190996
1334.043697,7624.121203,-5107.421000,1225.752797
1334.044027,6513.812290,-5995.668130,842.705048
1334.044356,6439.791695,-7105.977043,1378.971896
1334.044685,6735.874072,-7846.182985,1378.971896
1334.045014,7105.977043,-7328.038826,1455.581446
1334.045343,6809.894666,-7031.956449,1149.143247
1334.045672,7105.977043,-6217.729913,1149.143247
1334.046002,7031.956449,-6069.688724,229.828649
1334.046331,6883.915261,-6291.750507,536.266849
1334.046660,6809.894666,-6661.853478,919.314598
1334.046989,6661.853478,-7105.977043,842.705048
1334.047318,7031.956449,-8068.244768,1455.581446
1334.047647,5995.668130,-7920.203579,1378.971896
1334.047977,5477.523971,-8882.471304,76.609550
1334.048306,4589.276840,-9992.780217,383.047749
1334.048635,4589.276840,-10066.800811,0.000000
1334.048964,3923.091493,-10066.800811,536.266849
1334.049293,4441.235652,-9178.553681,383.047749
1334.049622,5699.585753,-8290.306550,842.705048
1334.049951,6735.874072,-7254.018232,1149.143247
1334.050281,6809.894666,-5995.668130,1302.362347
1334.050610,7624.121203,-5477.523971,919.314598
1334.050939,8290.306550,-4811.338623,1838.629195
1334.051268,8142.265362,-5255.462188,1685.410096
1334.051597,7476.080014,-6217.729913,1685.410096
1334.051926,6513.812290,-7031.956449,1455.581446
1334.052256,5773.606348,-7031.956449,1149.143247
1334.052585,5551.544565,-7624.121203,995.924147
1334.052914,6069.688724,-8438.347739,1378.971896
1334.053243,6069.688724,-9178.553681,1991.848295
1334.053572,5773.606348,-9400.615463,2298.286494
1334.053901,4219.173869,-7476.080014,1225.752797
1334.054230,4737.318029,-7105.977043,842.705048
1334.054560,5033.400406,-6587.832884,842.705048
1334.054889,6217.729913,-6143.709319,1225.752797
1334.055218,6291.750507,-6883.915261,995.924147
1334.055547,6143.709319,-7920.203579,1685.410096
1334.055876,5329.482782,-9474.636058,2221.676944
1334.056205,4737.318029,-10140.821405,1378.971896
1334.056535,3552.988522,-9696.697840,1225.752797
1334.056864,2294.638420,-11399.171507,-383.047749
1334.057193,1480.411884,-11621.233289,-995.924147
1334.057522,1702.473667,-12435.459826,383.047749
1334.057851,3330.926739,-12657.521608,1532.190996
1334.058180,4885.359217,-10658.965565,2681.334243
1334.058510,4663.297435,-8068.244768,2528.115143
1334.058839,4589.276840,-5699.585753,1991.848295
1334.059168,5477.523971,-4293.194464,1455.581446
1334.059497,6735.874072,-3701.029710,2221.676944
1334.059826,7402.059420,-4071.132681,1455.581446
1334.060155,6957.935855,-5403.503377,1685.410096
1334.060484,5477.523971,-7550.100608,1225.752797
1334.060814,4441.235652,-11177.109724,689.485948
1334.061143,3627.009116,-11843.295072,1149.143247
1334.061472,1924.535449,-13619.789333,0.000000
1334.061801,1998.556043,-13619.789333,-306.438199
1334.062130,2368.659014,-13175.665768,0.000000
1334.062459,3182.885551,-13323.706956,-612.876398
1334.062789,3552.988522,-11991.336260,76.609550
1334.063118,3256.906145,-10584.944971,842.705048
1334.063447,4145.153275,-8660.409521,842.705048
1334.063776,5847.626942,-4885.359217,2681.334243
1334.064105,7550.100608,-4293.194464,3217.601092
1334.064434,9326.594869,-2146.597232,3677.258390
1334.064763,9178.553681,-1184.329507,3064.381992
1334.065093,8734.430116,-1924.535449,2068.457845
1334.065422,7920.203579,-2812.782580,612.876398
1334.065751,6513.812290,-6291.750507,536.266849
1334.066080,5403.503377,-9622.677246,612.876398
1334.066409,4367.215058,-12213.398043,153.219100
1334.066738,4441.235652,-12509.480420,1072.533697
1334.067068,4737.318029,-13249.686362,1608.800546
1334.067397,4367.215058,-12509.480420,1378.971896
1334.067726,2590.720797,-11769.274478,459.657299
1334.068055,1110.308913,-10807.006753,-766.095498
1334.068384,1110.308913,-10436.903782,-1455.581446
1334.068713,2072.576638,-10955.047942,0.000000
1334.069042,3997.112087,-10140.821405,689.485948
1334.069372,5773.606348,-7031.956449,842.705048
1334.069701,6883.915261,-5699.585753,536.266849
1334.070030,7698.141797,-5033.400406,1532.190996
1334.070359,8216.285956,-3552.988522,1762.019645
1334.070688,8734.430116,-4811.338623,1838.629195
1334.071017,7846.182985,-5847.626942,2145.067394
1334.071347,7624.121203,-8068.244768,2145.067394
1334.071676,6735.874072,-10584.944971,2987.772442
1334.072005,5181.441594,-10140.821405,2911.162892
1334.072334,5329.482782,-9474.636058,1915.238745
1334.072663,4219.173869,-9326.594869,1608.800546
1334.072992,3108.864956,-9326.594869,1532.190996
1334.073322,2368.659014,-8734.430116,229.828649
1334.073651,2368.659014,-7772.162391,-306.438199
1334.073980,2590.720797,-8290.306550,-612.876398
1334.074309,3627.009116,-7105.977043,-1302.362347
1334.074638,4737.318029,-7550.100608,536.266849
1334.074967,5773.606348,-8438.347739,995.924147
1334.075296,6661.853478,-10140.821405,995.924147
1334.075626,5921.647536,-11399.171507,1608.800546
1334.075955,4293.194464,-11843.295072,1072.533697
1334.076284,4441.235652,-11621.233289,919.314598
1334.076613,3849.070898,-10510.924376,1838.629195
1334.076942,4219.173869,-10066.800811,2221.676944
1334.077271,5477.523971,-8882.471304,3447.429741
1334.077601,5847.626942,-7031.956449,3524.039291
1334.077930,5921.647536,-6291.750507,2987.772442
1334.078259,5403.503377,-5255.462188,2757.943793
1334.078588,5255.462188,-5699.585753,1991.848295
1334.078917,5181.441594,-5847.626942,1608.800546
1334.079246,5255.462188,-6143.709319,1455.581446
1334.079575,5329.482782,-7920.203579,1685.410096
1334.079905,4959.379811,-8882.471304,1225.752797
1334.080234,3775.050304,-11251.130318,1455.581446
1334.080563,3182.885551,-12213.398043,1838.629195
1334.080892,4071.132681,-13027.624579,1838.629195
1334.081221,4737.318029,-11177.109724,2681.334243
1334.081550,6217.729913,-8956.491898,3753.867940
1334.081880,7031.956449,-7772.162391,4903.011187
1334.082209,7476.080014,-5699.585753,4826.401637
1334.082538,6809.894666,-4959.379811,3294.210641
1334.082867,6439.791695,-4071.132681,2987.772442
1334.083196,6587.832884,-4071.132681,2451.505594
1334.083525,6735.874072,-5329.482782,1685.410096
1334.083855,5995.668130,-5921.647536,2604.724693
1334.084184,6365.771101,-7624.121203,2681.334243
1334.084513,7179.997637,-8364.327145,3217.601092
1334.084842,6735.874072,-8142.265362,3983.696590
1334.085171,6291.750507,-8808.450710,3524.039291
1334.085500,5773.606348,-8068.244768,3677.258390
1334.085829,6217.729913,-7846.182985,3907.087040
1334.086159,7179.997637,-6883.915261,4749.792088
1334.086488,8512.368333,-4663.297435,4979.620737
1334.086817,9178.553681,-3701.029710,5209.449386
1334.087146,8512.368333,-3330.926739,5056.230287
1334.087475,8290.306550,-3849.070898,4826.401637
1334.087804,8364.327145,-4219.173869,4290.134789
1334.088134,7846.182985,-4737.318029,4213.525239
1334.088463,8142.265362,-5625.565159,4749.792088
1334.088792,7254.018232,-6957.935855,3753.867940
1334.089121,6439.791695,-8586.388927,3753.867940
1334.089450,5403.503377,-9696.697840,3983.696590
1334.089780,4589.276840,-10436.903782,3294.210641
1334.090109,3775.050304,-11251.130318,2604.724693
1334.090438,3404.947333,-10658.965565,3370.820191
1334.090767,4145.153275,-9770.718434,3983.696590
1334.091096,5033.400406,-8512.368333,4443.353888
1334.091426,6143.709319,-6513.812290,5669.106685
1334.091755,7476.080014,-5699.585753,5439.278036
1334.092084,9030.512492,-3997.112087,5515.887586
1334.092413,9252.574275,-3404.947333,5362.668486
1334.092742,9178.553681,-2442.679609,5286.058936
1334.093072,9474.636058,-3034.844362,5132.839837
1334.093401,9326.594869,-3404.947333,4213.525239
1334.093730,9030.512492,-4515.256246,5362.668486
1334.094059,7920.203579,-5847.626942,5209.449386
1334.094388,7624.121203,-7550.100608,4519.963438
1334.094718,5847.626942,-8068.244768,4060.306139
1334.095047,5551.544565,-9400.615463,4290.134789
1334.095376,5477.523971,-10140.821405,4213.525239
1334.095705,4219.173869,-9696.697840,4136.915689
1334.096035,3256.906145,-9474.636058,3447.429741
1334.096364,2812.782580,-9474.636058,3294.210641
1334.096693,3775.050304,-8586.388927,4136.915689
1334.097022,5773.606348,-7550.100608,3753.867940
1334.097351,7328.038826,-6069.688724,3983.696590
1334.097681,8216.285956,-4737.318029,5132.839837
1334.098010,9400.615463,-3701.029710,5439.278036
1334.098339,9622.677246,-2738.761985,5592.497135
1334.098668,9474.636058,-2368.659014,4826.401637
1334.098997,9474.636058,-4145.153275,4136.915689
1334.099327,8216.285956,-5773.606348,3830.477490
1334.099656,7328.038826,-7254.018232,3600.648841
1334.099985,6735.874072,-8364.327145,3370.820191
1334.100314,6365.771101,-8808.450710,2834.553343
1334.100643,5551.544565,-9622.677246,2757.943793
1334.100973,5255.462188,-9844.739029,3600.648841
1334.101302,5847.626942,-8956.491898,4290.134789
1334.101631,6365.771101,-6735.874072,3830.477490
1334.101960,7328.038826,-4367.215058,4596.572988
1334.102290,8290.306550,-3108.864956,3677.258390
1334.102619,8882.471304,-3404.947333,3600.648841
1334.102948,8512.368333,-4515.256246,3983.696590
1334.103277,8216.285956,-5477.523971,3140.991542
1334.103606,7402.059420,-6143.709319,3217.601092
1334.103936,5699.585753,-7624.121203,3600.648841
1334.104265,5403.503377,-8216.285956,3140.991542
1334.104594,5403.503377,-8586.388927,2911.162892
1334.104923,5625.565159,-7476.080014,3600.648841
1334.105252,6883.915261,-6809.894666,3677.258390
1334.105582,7920.203579,-6883.915261,4443.353888
1334.105911,8290.306550,-7698.141797,5056.230287
1334.106240,7920.203579,-5847.626942,3983.696590
1334.106569,7254.018232,-5033.400406,3370.820191
1334.106898,6735.874072,-4145.153275,2911.162892
1334.107228,7402.059420,-3108.864956,2681.334243
1334.107557,8586.388927,-3701.029710,3830.477490
1334.107886,8364.327145,-4515.256246,3753.867940
1334.108215,7179.997637,-5921.647536,3140.991542
1334.108545,5551.544565,-8586.388927,2681.334243
1334.108874,4737.318029,-9696.697840,2374.896044
1334.109203,3478.967927,-10288.862594,1915.238745
1334.109532,3182.885551,-10362.883188,1991.848295
1334.109861,4737.318029,-8586.388927,2681.334243
1334.110191,6217.729913,-7402.059420,3140.991542
1334.110520,7402.059420,-6661.853478,4136.915689
1334.110849,7402.059420,-5477.523971,4060.306139
1334.111178,7624.121203,-4663.297435,3064.381992
1334.111507,7402.059420,-3627.009116,2451.505594
1334.111837,7624.121203,-3923.091493,2987.772442
1334.112166,9474.636058,-3108.864956,3064.381992
1334.112495,10732.986159,-3108.864956,2451.505594
1334.112824,10214.842000,-5181.441594,3217.601092
1334.113153,8512.368333,-5625.565159,2221.676944
1334.113483,5921.647536,-8512.368333,1149.143247
1334.113812,4071.132681,-10436.903782,0.000000
1334.114141,3256.906145,-11843.295072,689.485948
1334.114470,4293.194464,-12435.459826,1762.019645
1334.114799,5107.421000,-10732.986159,2451.505594
1334.115129,5625.565159,-8364.327145,2374.896044
1334.115458,6513.812290,-5847.626942,2374.896044
1334.115787,7476.080014,-4293.194464,2681.334243
1334.116116,8882.471304,-3627.009116,3140.991542
1334.116446,9104.533087,-3182.885551,3753.867940
1334.116775,9474.636058,-1628.453072,2911.162892
1334.117104,10214.842000,-1184.329507,2681.334243
1334.117433,10510.924376,-3478.967927,2987.772442
1334.117762,9400.615463,-5699.585753,2451.505594
1334.118092,6809.894666,-7254.018232,1302.362347
1334.118421,4885.359217,-9474.636058,536.266849
1334.118750,4811.338623,-10066.800811,-306.438199
1334.119079,4811.338623,-11177.109724,536.266849
1334.119408,4737.318029,-11325.150913,919.314598
1334.119738,4589.276840,-9178.553681,-153.219100
1334.120067,4737.318029,-7476.080014,689.485948
1334.120396,6217.729913,-4811.338623,995.924147
1334.120725,8068.244768,-4219.173869,2374.896044
1334.121054,9622.677246,-3478.967927,3447.429741
1334.121384,9992.780217,-2220.617826,2451.505594
1334.121713,9770.718434,-2442.679609,1532.190996
1334.122042,8290.306550,-3478.967927,1225.752797
1334.122371,7031.956449,-5847.626942,612.876398
1334.122701,6513.812290,-8438.347739,536.266849
1334.123030,5773.606348,-9474.636058,459.657299
1334.123359,5181.441594,-10362.883188,306.438199
1334.123688,4589.276840,-10658.965565,689.485948
1334.124017,4441.235652,-9178.553681,229.828649
1334.124347,4737.318029,-7031.956449,0.000000
1334.124676,6439.791695,-5921.647536,995.924147
1334.125005,7772.162391,-4737.318029,2221.676944
1334.125334,9622.677246,-4219.173869,2681.334243
1334.125663,9474.636058,-4515.256246,2911.162892
1334.125993,9178.553681,-3701.029710,2221.676944
1334.126322,6809.894666,-3997.112087,536.266849
1334.126651,6365.771101,-5699.585753,689.485948
1334.126980,6809.894666,-6957.935855,306.438199
1334.127309,7624.121203,-7846.182985,153.219100
1334.127639,7328.038826,-7624.121203,842.705048
1334.127968,6809.894666,-9474.636058,766.095498
1334.128297,5699.585753,-10436.903782,0.000000
1334.128626,4663.297435,-8808.450710,-459.657299
1334.128956,5255.462188,-7846.182985,0.000000
1334.129285,7328.038826,-6513.812290,995.924147
1334.129614,8734.430116,-5033.400406,1685.410096
