#time,accel_x,accel_y,accel_z
1314.478478,7105.977043,-6439.791695,689.485948
1314.478808,6883.915261,-6439.791695,1225.752797
1314.479138,7254.018232,-6365.771101,1685.410096
1314.479468,7402.059420,-6365.771101,1225.752797
1314.479798,6883.915261,-5921.647536,1225.752797
1314.480128,6439.791695,-6291.750507,842.705048
1314.480458,6143.709319,-6661.853478,766.095498
1314.480788,6735.874072,-6809.894666,1685.410096
1314.481118,6735.874072,-6883.915261,1608.800546
1314.481448,6957.935855,-6439.791695,1072.533697
1314.481778,6809.894666,-6883.915261,1225.752797
1314.482108,6883.915261,-6809.894666,766.095498
1314.482438,6735.874072,-6883.915261,1149.143247
1314.482768,6513.812290,-6661.853478,919.314598
1314.483098,6809.894666,-7031.956449,842.705048
1314.483428,7179.997637,-6735.874072,1225.752797
1314.483758,7624.121203,-6661.853478,766.095498
1314.484088,7476.080014,-6439.791695,919.314598
1314.484418,7179.997637,-6291.750507,1072.533697
1314.484748,6957.935855,-6513.812290,612.876398
1314.485078,6957.935855,-6291.750507,919.314598
1314.485408,7105.977043,-5699.585753,1072.533697
1314.485738,7624.121203,-6439.791695,1149.143247
1314.486068,7402.059420,-6291.750507,1225.752797
1314.486398,7105.977043,-6513.812290,1455.581446
1314.486728,7179.997637,-6439.791695,1225.752797
1314.487058,7254.018232,-6365.771101,995.924147
1314.487388,6735.874072,-6513.812290,612.876398
1314.487718,6809.894666,-6883.915261,842.705048
1314.488048,7105.977043,-6735.874072,1072.533697
1314.488379,7105.977043,-6143.709319,1072.533697
1314.488709,6809.894666,-6661.853478,766.095498
1314.489039,7031.956449,-6291.750507,995.924147
1314.489369,6957.935855,-6587.832884,842.705048
1314.489699,6809.894666,-6809.894666,766.095498
1314.490029,7105.977043,-6513.812290,919.314598
1314.490359,6735.874072,-7031.956449,919.314598
1314.490689,7105.977043,-6957.935855,919.314598
1314.491019,7105.977043,-6661.853478,1225.752797
1314.491349,7254.018232,-6587.832884,689.485948
1314.491679,7105.977043,-6883.915261,919.314598
1314.492009,7031.956449,-6809.894666,766.095498
1314.492339,7105.977043,-6735.874072,1072.533697
1314.492669,7031.956449,-6661.853478,1149.143247
1314.492999,7105.977043,-5847.626942,1608.800546
1314.493329,6809.894666,-6069.688724,1685.410096
1314.493659,6809.894666,-6365.771101,1378.971896
1314.493989,6883.915261,-6513.812290,1149.143247
1314.494319,6883.915261,-6439.791695,1072.533697
1314.494649,6365.771101,-6291.750507,1072.533697
1314.494979,6291.750507,-6735.874072,919.314598
1314.495309,6735.874072,-7402.059420,1072.533697
1314.495639,6809.894666,-6957.935855,1302.362347
1314.495969,6883.915261,-6661.853478,1225.752797
1314.496299,6735.874072,-6587.832884,1225.752797
1314.496629,6661.853478,-6513.812290,919.314598
1314.496959,6661.853478,-7105.977043,766.095498
1314.497289,5847.626942,-6587.832884,383.047749
1314.497619,7105.977043,-6957.935855,1072.533697
1314.497949,7105.977043,-6661.853478,1072.533697
1314.498279,7105.977043,-6513.812290,1149.143247
1314.498609,7105.977043,-6365.771101,919.314598
1314.498939,7624.121203,-5921.647536,1072.533697
1314.499269,7328.038826,-6439.791695,919.314598
1314.499599,7105.977043,-6143.709319,689.485948
1314.499929,7328.038826,-6217.729913,1149.143247
1314.500259,7402.059420,-6439.791695,919.314598
1314.500589,7254.018232,-6439.791695,689.485948
1314.500919,7254.018232,-6217.729913,1225.752797
1314.501249,7105.977043,-6587.832884,383.047749
1314.501579,7105.977043,-6217.729913,689.485948
1314.501909,7031.956449,-6809.894666,1149.143247
1314.502240,6365.771101,-6217.729913,766.095498
1314.502570,6735.874072,-6661.853478,1072.533697
1314.502900,6809.894666,-6809.894666,1378.971896
1314.503230,6957.935855,-6587.832884,995.924147
1314.503560,6883.915261,-6143.709319,842.705048
1314.503890,6957.935855,-6735.874072,1225.752797
1314.504220,7105.977043,-6883.915261,919.314598
1314.504550,6883.915261,-6587.832884,842.705048
1314.504880,6513.812290,-6957.935855,1072.533697
1314.505210,7328.038826,-7328.038826,1225.752797
1314.505540,7031.956449,-6661.853478,1455.581446
1314.505870,7105.977043,-6809.894666,1072.533697
1314.506200,7105.977043,-6439.791695,766.095498
1314.506530,7105.977043,-5995.668130,689.485948
1314.506860,6809.894666,-6883.915261,1149.143247
1314.507190,6809.894666,-6513.812290,1149.143247
1314.507520,7105.977043,-5995.668130,1149.143247
1314.507850,7254.018232,-6365.771101,842.705048
1314.508180,7550.100608,-6513.812290,1455.581446
1314.508510,7105.977043,-6513.812290,1225.752797
1314.508840,6957.935855,-6587.832884,995.924147
1314.509170,6587.832884,-6291.750507,766.095498
1314.509500,6513.812290,-6809.894666,1149.143247
1314.509830,6661.853478,-6661.853478,1072.533697
1314.510160,7031.956449,-6957.935855,1072.533697
1314.510490,7031.956449,-6809.894666,1149.143247
1314.510820,7105.977043,-6735.874072,1072.533697
1314.511150,6365.771101,-6291.750507,1608.800546
1314.511480,6513.812290,-6883.915261,766.095498
1314.511810,6439.791695,-7105.977043,842.705048
1314.512140,6587.832884,-6957.935855,612.876398
1314.512470,7031.956449,-7328.038826,536.266849
1314.512800,7105.977043,-6587.832884,1225.752797
1314.513130,7179.997637,-6291.750507,1149.143247
1314.513460,7328.038826,-6587.832884,766.095498
1314.513790,7105.977043,-6735.874072,1532.190996
1314.514120,7402.059420,-6217.729913,306.438199
1314.514450,7105.977043,-6513.812290,1225.752797
1314.514780,7328.038826,-6069.688724,1149.143247
1314.515110,7254.018232,-6069.688724,842.705048
1314.515440,7402.059420,-6365.771101,1072.533697
1314.515770,6883.915261,-6291.750507,1072.533697
1314.516101,7105.977043,-6217.729913,919.314598
1314.516431,6735.874072,-6217.729913,919.314598
1314.516761,6809.894666,-6587.832884,1072.533697
1314.517091,7031.956449,-6439.791695,1378.971896
1314.517421,7105.977043,-6809.894666,1225.752797
1314.517751,6957.935855,-6587.832884,1225.752797
1314.518081,7105.977043,-6365.771101,995.924147
1314.518411,6883.915261,-6735.874072,1302.362347
1314.518741,6809.894666,-6735.874072,689.485948
1314.519071,6735.874072,-6809.894666,536.266849
1314.519401,6883.915261,-6587.832884,1072.533697
1314.519731,7105.977043,-6809.894666,1225.752797
1314.520061,7328.038826,-6661.853478,689.485948
1314.520391,7328.038826,-6587.832884,612.876398
1314.520721,7179.997637,-6513.812290,995.924147
1314.521051,7179.997637,-6439.791695,1072.533697
1314.521381,6809.894666,-6587.832884,1072.533697
1314.521711,6883.915261,-6587.832884,1149.143247
1314.522041,7254.018232,-6439.791695,1378.971896
1314.522371,7105.977043,-6291.750507,919.314598
1314.522701,7105.977043,-6587.832884,919.314598
1314.523031,6883.915261,-6439.791695,1149.143247
1314.523361,6809.894666,-6291.750507,1149.143247
1314.523691,6735.874072,-6217.729913,995.924147
1314.524021,6513.812290,-6587.832884,919.314598
1314.524351,6661.853478,-6957.935855,842.705048
1314.524681,6513.812290,-6661.853478,1455.581446
1314.525011,7031.956449,-6735.874072,1608.800546
1314.525341,6661.853478,-6587.832884,689.485948
1314.525671,6957.935855,-6809.894666,1225.752797
1314.526001,6587.832884,-7031.956449,1072.533697
1314.526331,7179.997637,-7254.018232,919.314598
1314.526661,6439.791695,-6587.832884,919.314598
1314.526991,6661.853478,-6957.935855,1072.533697
1314.527321,7105.977043,-6883.915261,1608.800546
1314.527651,7476.080014,-5699.585753,1149.143247
1314.527981,7402.059420,-6069.688724,1072.533697
1314.528311,7328.038826,-6217.729913,995.924147
1314.528641,7179.997637,-6661.853478,1149.143247
1314.528971,7105.977043,-6883.915261,766.095498
1314.529301,7031.956449,-5625.565159,1455.581446
1314.529632,7254.018232,-5847.626942,1072.533697
1314.529962,7105.977043,-6069.688724,1149.143247
1314.530292,7031.956449,-6365.771101,1378.971896
1314.530622,7105.977043,-6217.729913,919.314598
1314.530952,6809.894666,-6217.729913,842.705048
1314.531282,6809.894666,-5995.668130,995.924147
1314.531612,6661.853478,-6365.771101,919.314598
1314.531942,7105.977043,-6513.812290,1149.143247
1314.532272,7105.977043,-6809.894666,1532.190996
1314.532602,7179.997637,-6291.750507,995.924147
1314.532932,7105.977043,-6809.894666,1149.143247
1314.533262,6735.874072,-6957.935855,842.705048
1314.533592,6587.832884,-7105.977043,919.314598
1314.533922,6957.935855,-6809.894666,1072.533697
1314.534252,6661.853478,-6957.935855,919.314598
1314.534582,7105.977043,-6809.894666,766.095498
1314.534912,7105.977043,-6217.729913,1225.752797
1314.535242,7105.977043,-5995.668130,1072.533697
1314.535572,7772.162391,-6143.709319,1225.752797
1314.535902,7402.059420,-5995.668130,995.924147
1314.536232,7105.977043,-6439.791695,536.266849
1314.536562,6957.935855,-6587.832884,1302.362347
1314.536892,7476.080014,-6069.688724,1225.752797
1314.537222,7254.018232,-6439.791695,1225.752797
1314.537552,7031.956449,-6439.791695,1302.362347
1314.537882,6883.915261,-6661.853478,1302.362347
1314.538212,7105.977043,-6365.771101,919.314598
1314.538542,6735.874072,-6513.812290,1455.581446
1314.538872,6217.729913,-6513.812290,536.266849
1314.539202,6587.832884,-7105.977043,919.314598
1314.539532,6661.853478,-6883.915261,1072.533697
1314.539862,6809.894666,-7031.956449,1608.800546
1314.540192,6513.812290,-6587.832884,919.314598
1314.540522,6809.894666,-6957.935855,1225.752797
1314.540852,6661.853478,-7254.018232,536.266849
1314.541182,6661.853478,-7105.977043,919.314598
1314.541512,6735.874072,-7328.038826,1225.752797
1314.541842,7105.977043,-7105.977043,1072.533697
1314.542172,7179.997637,-6513.812290,1149.143247
1314.542502,7328.038826,-6587.832884,612.876398
1314.542832,7476.080014,-6587.832884,306.438199
1314.543162,7105.977043,-6513.812290,1149.143247
1314.543493,7105.977043,-6291.750507,689.485948
1314.543823,7031.956449,-6217.729913,919.314598
1314.544153,7105.977043,-5995.668130,919.314598
1314.544483,7328.038826,-6513.812290,1302.362347
1314.544813,7179.997637,-6217.729913,1378.971896
1314.545143,7179.997637,-6513.812290,1225.752797
1314.545473,7105.977043,-6291.750507,1149.143247
1314.545803,6957.935855,-6291.750507,1378.971896
1314.546133,6809.894666,-6513.812290,306.438199
1314.546463,6883.915261,-6883.915261,995.924147
1314.546793,7031.956449,-6587.832884,1302.362347
1314.547123,7105.977043,-6291.750507,842.705048
1314.547453,7179.997637,-6217.729913,1149.143247
1314.547782,6883.915261,-6439.791695,1072.533697
1314.548112,6735.874072,-6439.791695,612.876398
1314.548442,6587.832884,-6809.894666,919.314598
1314.548772,6883.915261,-6513.812290,766.095498
1314.549101,7179.997637,-6735.874072,766.095498
1314.549431,6809.894666,-6735.874072,919.314598
1314.549761,7328.038826,-6587.832884,1225.752797
1314.550091,7328.038826,-6513.812290,919.314598
1314.550420,6809.894666,-7105.977043,1072.533697
1314.550750,6883.915261,-6587.832884,919.314598
1314.551080,7105.977043,-6809.894666,995.924147
1314.551410,7105.977043,-5995.668130,1149.143247
1314.551739,7328.038826,-6439.791695,689.485948
1314.552069,7179.997637,-6291.750507,766.095498
1314.552399,7031.956449,-6513.812290,1149.143247
1314.552729,6957.935855,-6439.791695,919.314598
1314.553058,6735.874072,-6217.729913,919.314598
1314.553388,6587.832884,-6661.853478,536.266849
1314.553718,6513.812290,-6291.750507,689.485948
1314.554048,6883.915261,-7254.018232,1225.752797
1314.554377,6735.874072,-6883.915261,1072.533697
1314.554707,6735.874072,-6809.894666,1149.143247
1314.555037,6809.894666,-7031.956449,1225.752797
1314.555367,6661.853478,-6735.874072,842.705048
1314.555696,6513.812290,-6883.915261,842.705048
1314.556026,6513.812290,-6957.935855,842.705048
1314.556356,7031.956449,-7031.956449,995.924147
1314.556686,7550.100608,-6661.853478,1838.629195
1314.557016,7105.977043,-6143.709319,1149.143247
1314.557345,7105.977043,-6513.812290,1149.143247
1314.557675,7328.038826,-6735.874072,1225.752797
1314.558005,7402.059420,-7254.018232,1149.143247
1314.558335,6883.915261,-6439.791695,995.924147
1314.558664,7031.956449,-6069.688724,995.924147
1314.558994,7476.080014,-6217.729913,842.705048
1314.559324,7179.997637,-6365.771101,1072.533697
1314.559654,7105.977043,-6513.812290,995.924147
1314.559983,7105.977043,-6217.729913,1149.143247
1314.560313,7031.956449,-5921.647536,919.314598
1314.560643,6661.853478,-6291.750507,1225.752797
1314.560973,6587.832884,-6439.791695,766.095498
1314.561302,7105.977043,-7031.956449,1149.143247
1314.561632,6957.935855,-6735.874072,1149.143247
1314.561962,7105.977043,-6513.812290,919.314598
1314.562292,7254.018232,-6069.688724,995.924147
1314.562621,6661.853478,-6587.832884,1302.362347
1314.562951,6735.874072,-7179.997637,919.314598
1314.563281,6809.894666,-6587.832884,842.705048
1314.563611,6957.935855,-6883.915261,842.705048
1314.563940,7105.977043,-6513.812290,1072.533697
1314.564270,7179.997637,-6217.729913,919.314598
1314.564600,7105.977043,-6439.791695,689.485948
1314.564930,6957.935855,-6291.750507,1225.752797
1314.565259,7105.977043,-6217.729913,842.705048
1314.565589,7105.977043,-6291.750507,1225.752797
1314.565919,6809.894666,-6217.729913,842.705048
1314.566249,7179.997637,-6365.771101,842.705048
1314.566578,7179.997637,-6439.791695,1378.971896
1314.566908,7402.059420,-6291.750507,1072.533697
1314.567238,7031.956449,-5921.647536,1455.581446
1314.567568,6957.935855,-6809.894666,1149.143247
1314.567897,6587.832884,-6587.832884,919.314598
1314.568227,6513.812290,-6661.853478,689.485948
1314.568557,6809.894666,-7105.977043,1455.581446
1314.568887,7105.977043,-6587.832884,1302.362347
1314.569217,6883.915261,-6513.812290,995.924147
1314.569546,6587.832884,-6957.935855,1072.533697
1314.569876,6513.812290,-6587.832884,995.924147
1314.570206,6883.915261,-6661.853478,153.219100
1314.570536,6809.894666,-6957.935855,766.095498
1314.570865,7105.977043,-6809.894666,842.705048
1314.571195,7254.018232,-7105.977043,842.705048
1314.571525,7550.100608,-6439.791695,1149.143247
1314.571855,7328.038826,-6661.853478,1302.362347
1314.572184,7105.977043,-6661.853478,1072.533697
1314.572514,7105.977043,-6439.791695,1072.533697
1314.572844,6883.915261,-6735.874072,612.876398
1314.573174,7105.977043,-6217.729913,1149.143247
1314.573503,7105.977043,-5847.626942,766.095498
1314.573833,6957.935855,-6291.750507,995.924147
1314.574163,7105.977043,-6291.750507,1225.752797
1314.574493,7179.997637,-6513.812290,1455.581446
1314.574822,7105.977043,-5995.668130,1302.362347
1314.575152,7105.977043,-6217.729913,919.314598
1314.575482,6957.935855,-6513.812290,1072.533697
1314.575812,6883.915261,-6957.935855,1225.752797
1314.576141,7031.956449,-6957.935855,1225.752797
1314.576471,6735.874072,-6439.791695,919.314598
1314.576801,6661.853478,-6365.771101,766.095498
1314.577131,6735.874072,-6661.853478,1225.752797
1314.577460,6735.874072,-6661.853478,995.924147
1314.577790,6883.915261,-6069.688724,689.485948
1314.578120,6735.874072,-6587.832884,1149.143247
1314.578450,6439.791695,-6883.915261,689.485948
1314.578779,7105.977043,-6217.729913,1302.362347
1314.579109,7254.018232,-6291.750507,1149.143247
1314.579439,7550.100608,-6587.832884,1455.581446
1314.579769,7105.977043,-6513.812290,1149.143247
1314.580099,7105.977043,-6957.935855,612.876398
1314.580428,6957.935855,-6809.894666,1149.143247
1314.580758,7105.977043,-6217.729913,766.095498
1314.581088,7179.997637,-6513.812290,1838.629195
1314.581418,7105.977043,-6069.688724,1455.581446
1314.581747,7031.956449,-6291.750507,919.314598
1314.582077,6883.915261,-6217.729913,919.314598
1314.582407,6661.853478,-5921.647536,766.095498
1314.582737,6365.771101,-6809.894666,536.266849
1314.583066,6661.853478,-6809.894666,1072.533697
1314.583396,6735.874072,-7031.956449,1225.752797
1314.583726,6883.915261,-6883.915261,1072.533697
1314.584056,6809.894666,-7179.997637,1302.362347
1314.584385,6809.894666,-6735.874072,1149.143247
1314.584715,6661.853478,-7179.997637,383.047749
1314.585045,6513.812290,-6883.915261,919.314598
1314.585375,6735.874072,-7402.059420,766.095498
1314.585704,7105.977043,-6957.935855,995.924147
1314.586034,7550.100608,-6587.832884,1072.533697
1314.586364,7328.038826,-6365.771101,1072.533697
1314.586694,7179.997637,-6365.771101,766.095498
1314.587023,7105.977043,-6365.771101,995.924147
1314.587353,6957.935855,-6809.894666,766.095498
1314.587683,6883.915261,-6661.853478,1225.752797
1314.588013,7328.038826,-6291.750507,842.705048
1314.588342,7624.121203,-5921.647536,689.485948
1314.588672,6809.894666,-5847.626942,1455.581446
1314.589002,7105.977043,-6661.853478,1225.752797
1314.589332,7105.977043,-6365.771101,1225.752797
1314.589661,6883.915261,-6587.832884,1302.362347
1314.589991,6735.874072,-6587.832884,1072.533697
1314.590321,6957.935855,-6735.874072,1072.533697
1314.590651,7105.977043,-6587.832884,1302.362347
1314.590981,6735.874072,-6661.853478,1378.971896
1314.591310,7105.977043,-6513.812290,1378.971896
1314.591640,7031.956449,-6587.832884,1149.143247
1314.591970,6735.874072,-6439.791695,1149.143247
1314.592300,6883.915261,-6809.894666,842.705048
1314.592629,6587.832884,-6735.874072,842.705048
1314.592959,6883.915261,-7105.977043,1225.752797
1314.593289,7179.997637,-6809.894666,1149.143247
1314.593619,7031.956449,-6439.791695,995.924147
1314.593948,6957.935855,-6809.894666,919.314598
1314.594278,7105.977043,-6439.791695,1149.143247
1314.594608,7105.977043,-6587.832884,995.924147
1314.594938,6957.935855,-5921.647536,842.705048
1314.595267,7254.018232,-5033.400406,1225.752797
1314.595597,7772.162391,-5181.441594,1225.752797
1314.595927,7920.203579,-4663.297435,1072.533697
1314.596257,8142.265362,-5625.565159,1302.362347
1314.596586,7624.121203,-6217.729913,995.924147
1314.596916,6587.832884,-6883.915261,229.828649
1314.597246,5403.503377,-7550.100608,76.609550
1314.597576,5699.585753,-6883.915261,536.266849
1314.597905,7254.018232,-7476.080014,842.705048
1314.598235,8068.244768,-6661.853478,1762.019645
1314.598565,8290.306550,-6217.729913,1455.581446
1314.598895,7772.162391,-4367.215058,1762.019645
1314.599224,7994.224174,-4959.379811,536.266849
1314.599554,7624.121203,-5403.503377,536.266849
1314.599884,7994.224174,-4219.173869,1072.533697
1314.600214,8808.450710,-5107.421000,1072.533697
1314.600543,8734.430116,-3923.091493,1302.362347
1314.600873,8290.306550,-4441.235652,1072.533697
1314.601203,8660.409521,-4663.297435,459.657299
1314.601533,8734.430116,-4737.318029,536.266849
1314.601863,8956.491898,-6217.729913,995.924147
1314.602192,8956.491898,-5995.668130,612.876398
1314.602522,7920.203579,-5329.482782,229.828649
1314.602852,7846.182985,-5477.523971,612.876398
1314.603182,7994.224174,-5181.441594,919.314598
1314.603511,8586.388927,-4663.297435,1302.362347
1314.603841,9104.533087,-4515.256246,1838.629195
1314.604171,9178.553681,-4663.297435,1455.581446
1314.604501,9104.533087,-2738.761985,1149.143247
1314.604830,8734.430116,-3404.947333,1072.533697
1314.605160,9696.697840,-3330.926739,1762.019645
1314.605490,10140.821405,-2442.679609,1302.362347
1314.605820,9918.759623,-3478.967927,1838.629195
1314.606149,9696.697840,-3478.967927,1378.971896
1314.606479,9400.615463,-4145.153275,1225.752797
1314.606809,9178.553681,-5181.441594,689.485948
1314.607139,8660.409521,-5477.523971,766.095498
1314.607468,8364.327145,-6217.729913,1532.190996
1314.607798,8290.306550,-5625.565159,766.095498
1314.608128,7328.038826,-5329.482782,1455.581446
1314.608458,8142.265362,-5033.400406,1455.581446
1314.608787,8586.388927,-5181.441594,1225.752797
1314.609117,8216.285956,-4441.235652,1225.752797
1314.609447,8364.327145,-4515.256246,229.828649
1314.609777,8290.306550,-4219.173869,1072.533697
1314.610106,9104.533087,-3775.050304,536.266849
1314.610436,9474.636058,-4811.338623,536.266849
1314.610766,9400.615463,-4663.297435,766.095498
1314.611096,9622.677246,-5477.523971,0.000000
1314.611425,9326.594869,-5107.421000,536.266849
1314.611755,8808.450710,-4589.276840,306.438199
1314.612085,9104.533087,-5181.441594,459.657299
1314.612415,9474.636058,-4885.359217,536.266849
1314.612744,10066.800811,-5625.565159,1455.581446
1314.613074,9326.594869,-3627.009116,1455.581446
1314.613404,8808.450710,-3552.988522,1762.019645
1314.613734,8882.471304,-4145.153275,2145.067394
1314.614064,8882.471304,-3849.070898,2221.676944
1314.614393,8512.368333,-3552.988522,1455.581446
1314.614723,8734.430116,-3182.885551,919.314598
1314.615053,9178.553681,-3701.029710,995.924147
1314.615383,9400.615463,-3849.070898,1302.362347
1314.615712,9252.574275,-3108.864956,612.876398
1314.616042,9474.636058,-3701.029710,0.000000
1314.616372,9326.594869,-3997.112087,-229.828649
1314.616702,9400.615463,-5329.482782,-306.438199
1314.617031,9326.594869,-5699.585753,306.438199
1314.617361,9622.677246,-5181.441594,459.657299
1314.617691,9400.615463,-5847.626942,919.314598
1314.618021,8882.471304,-5403.503377,2145.067394
1314.618350,9178.553681,-5921.647536,2221.676944
1314.618680,8438.347739,-4811.338623,2374.896044
1314.619010,8364.327145,-3997.112087,2221.676944
1314.619340,8216.285956,-3849.070898,1838.629195
1314.619669,8734.430116,-3034.844362,1532.190996
1314.619999,9252.574275,-2368.659014,919.314598
1314.620329,10066.800811,-1850.514855,229.828649
1314.620659,9474.636058,-2294.638420,153.219100
1314.620988,10362.883188,-2960.823768,229.828649
1314.621318,10584.944971,-3256.906145,-229.828649
1314.621648,9918.759623,-4293.194464,0.000000
1314.621978,8808.450710,-6217.729913,-153.219100
1314.622307,8364.327145,-7920.203579,536.266849
1314.622637,7698.141797,-9400.615463,1149.143247
1314.622967,6957.935855,-9252.574275,1455.581446
1314.623297,6587.832884,-8142.265362,1149.143247
1314.623626,5921.647536,-7624.121203,459.657299
1314.623956,5699.585753,-7105.977043,229.828649
1314.624286,6587.832884,-5921.647536,919.314598
1314.624616,8882.471304,-4589.276840,1915.238745
1314.624946,9104.533087,-2664.741391,2221.676944
1314.625275,9326.594869,-1554.432478,1455.581446
1314.625605,9178.553681,-1406.391290,919.314598
1314.625935,10955.047942,-1258.350101,1532.190996
1314.626265,11917.315666,-1258.350101,612.876398
1314.626594,12435.459826,-1258.350101,1532.190996
1314.626924,11843.295072,-1998.556043,1532.190996
1314.627254,10881.027347,-4219.173869,1762.019645
1314.627584,9400.615463,-5551.544565,1608.800546
1314.627913,7698.141797,-6957.935855,1532.190996
1314.628243,6439.791695,-7402.059420,1455.581446
1314.628573,5551.544565,-7772.162391,919.314598
1314.628903,4367.215058,-8808.450710,536.266849
1314.629232,4367.215058,-9104.533087,1149.143247
1314.629562,4441.235652,-8956.491898,-612.876398
1314.629892,4959.379811,-8142.265362,0.000000
1314.630222,5921.647536,-6661.853478,0.000000
1314.630551,7105.977043,-6513.812290,306.438199
1314.630881,8290.306550,-4959.379811,306.438199
1314.631211,8882.471304,-4589.276840,306.438199
1314.631541,9326.594869,-5107.421000,995.924147
1314.631870,10362.883188,-3701.029710,842.705048
1314.632200,10584.944971,-4219.173869,1455.581446
1314.632530,10288.862594,-5107.421000,1838.629195
1314.632860,9030.512492,-6439.791695,2221.676944
1314.633189,7846.182985,-6735.874072,2298.286494
1314.633519,6661.853478,-6365.771101,612.876398
1314.633849,5551.544565,-5773.606348,383.047749
1314.634179,4959.379811,-5995.668130,612.876398
1314.634508,4811.338623,-7476.080014,536.266849
1314.634838,5921.647536,-7105.977043,919.314598
1314.635168,6365.771101,-6513.812290,919.314598
1314.635498,7031.956449,-5181.441594,1378.971896
1314.635828,7624.121203,-4515.256246,383.047749
1314.636157,7994.224174,-4811.338623,229.828649
1314.636487,8438.347739,-5255.462188,612.876398
1314.636817,9252.574275,-4959.379811,1072.533697
1314.637147,9696.697840,-5255.462188,1685.410096
1314.637476,9770.718434,-5551.544565,2221.676944
1314.637806,9252.574275,-7254.018232,2374.896044
1314.638136,7920.203579,-8068.244768,2528.115143
1314.638466,5551.544565,-8734.430116,1532.190996
1314.638795,3923.091493,-8956.491898,76.609550
1314.639125,2886.803174,-9252.574275,-536.266849
1314.639455,2960.823768,-10066.800811,0.000000
1314.639785,4145.153275,-9918.759623,1838.629195
1314.640114,5255.462188,-6883.915261,1608.800546
1314.640444,6439.791695,-4367.215058,1915.238745
1314.640774,8142.265362,-1776.494261,1762.019645
1314.641104,9696.697840,-1036.288319,1532.190996
1314.641433,10288.862594,-1776.494261,1608.800546
1314.641763,9770.718434,-3404.947333,1455.581446
1314.642093,9474.636058,-3701.029710,1991.848295
1314.642423,9104.533087,-6439.791695,1455.581446
1314.642752,7920.203579,-8734.430116,2757.943793
1314.643082,6143.709319,-9474.636058,2145.067394
1314.643412,5625.565159,-9770.718434,1302.362347
1314.643742,4441.235652,-10584.944971,919.314598
1314.644071,3923.091493,-9770.718434,612.876398
1314.644401,4219.173869,-9178.553681,0.000000
1314.644731,3849.070898,-8142.265362,0.000000
1314.645061,4145.153275,-6957.935855,-612.876398
1314.645390,5107.421000,-5921.647536,-612.876398
1314.645720,6513.812290,-4737.318029,383.047749
1314.646050,9030.512492,-4293.194464,612.876398
1314.646380,9770.718434,-3775.050304,1455.581446
1314.646710,10288.862594,-4367.215058,2221.676944
1314.647039,10066.800811,-5625.565159,2298.286494
1314.647369,9178.553681,-6661.853478,2374.896044
1314.647699,7846.182985,-7994.224174,1685.410096
1314.648029,6143.709319,-9770.718434,919.314598
1314.648358,4959.379811,-11177.109724,1149.143247
1314.648688,4145.153275,-10584.944971,766.095498
1314.649018,4737.318029,-8956.491898,1455.581446
1314.649348,4589.276840,-5551.544565,995.924147
1314.649677,5773.606348,-4367.215058,306.438199
1314.650006,6513.812290,-3256.906145,612.876398
1314.650336,7254.018232,-1924.535449,383.047749
1314.650665,7994.224174,-2146.597232,-76.609550
1314.650994,8586.388927,-2368.659014,153.219100
1314.651324,9474.636058,-5255.462188,1532.190996
1314.651653,10214.842000,-6587.832884,2298.286494
1314.651982,9770.718434,-6883.915261,2757.943793
1314.652312,8882.471304,-7772.162391,1225.752797
1314.652641,7994.224174,-9178.553681,1455.581446
1314.652970,7105.977043,-10732.986159,1225.752797
1314.653300,5181.441594,-10362.883188,153.219100
1314.653629,3330.926739,-8808.450710,-383.047749
1314.653958,3552.988522,-7476.080014,-919.314598
1314.654288,4219.173869,-6735.874072,-536.266849
1314.654617,5551.544565,-5921.647536,229.828649
1314.654946,7105.977043,-4145.153275,1302.362347
1314.655276,8216.285956,-3627.009116,229.828649
1314.655605,9104.533087,-2886.803174,1225.752797
1314.655934,9918.759623,-3627.009116,1915.238745
1314.656264,10436.903782,-4737.318029,2528.115143
1314.656593,10881.027347,-5625.565159,1685.410096
1314.656922,8068.244768,-7772.162391,1608.800546
1314.657252,6587.832884,-9474.636058,1532.190996
1314.657581,5625.565159,-10732.986159,1685.410096
1314.657910,5329.482782,-11621.233289,1149.143247
1314.658240,4885.359217,-9474.636058,383.047749
1314.658569,4145.153275,-7698.141797,0.000000
1314.658898,4367.215058,-6439.791695,-76.609550
1314.659228,5107.421000,-4737.318029,0.000000
1314.659557,6143.709319,-3182.885551,-153.219100
1314.659886,7179.997637,-3330.926739,383.047749
1314.660216,8364.327145,-4145.153275,1302.362347
1314.660545,9400.615463,-4885.359217,1991.848295
1314.660874,9696.697840,-5329.482782,2374.896044
1314.661204,9622.677246,-6217.729913,2145.067394
1314.661533,8586.388927,-7179.997637,1532.190996
1314.661862,7920.203579,-9474.636058,2451.505594
1314.662192,7254.018232,-9992.780217,1838.629195
1314.662521,6513.812290,-9474.636058,1455.581446
1314.662850,5403.503377,-8586.388927,689.485948
1314.663180,5107.421000,-6365.771101,153.219100
1314.663509,5107.421000,-5773.606348,76.609550
1314.663838,5181.441594,-4811.338623,766.095498
1314.664168,6143.709319,-3775.050304,842.705048
1314.664497,7476.080014,-2368.659014,919.314598
1314.664826,9178.553681,-2220.617826,1915.238745
1314.665156,9918.759623,-4071.132681,2451.505594
1314.665485,9104.533087,-4959.379811,2068.457845
1314.665814,7550.100608,-6513.812290,766.095498
1314.666144,6069.688724,-8142.265362,536.266849
1314.666473,5625.565159,-10288.862594,689.485948
1314.666802,5773.606348,-11991.336260,1455.581446
1314.667132,5921.647536,-11103.089130,1838.629195
1314.667461,6513.812290,-9622.677246,1149.143247
1314.667790,5773.606348,-7105.977043,612.876398
1314.668120,5329.482782,-6069.688724,612.876398
1314.668449,5181.441594,-4367.215058,-383.047749
1314.668778,6513.812290,-2738.761985,459.657299
1314.669108,7254.018232,-2960.823768,306.438199
1314.669437,7846.182985,-3627.009116,1072.533697
1314.669766,8438.347739,-4515.256246,1225.752797
1314.670096,8882.471304,-6291.750507,1532.190996
1314.670425,8068.244768,-6439.791695,1302.362347
1314.670754,7105.977043,-8660.409521,1455.581446
1314.671084,7031.956449,-10362.883188,1915.238745
1314.671413,6809.894666,-11769.274478,1838.629195
1314.671742,6439.791695,-10881.027347,1302.362347
1314.672072,5625.565159,-9030.512492,766.095498
1314.672401,5329.482782,-7179.997637,0.000000
1314.672730,5403.503377,-5847.626942,-612.876398
1314.673060,5477.523971,-5699.585753,0.000000
1314.673389,7105.977043,-3923.091493,153.219100
1314.673718,8438.347739,-3256.906145,1225.752797
1314.674048,8882.471304,-2442.679609,1762.019645
1314.674377,9104.533087,-3775.050304,1991.848295
1314.674706,8808.450710,-4737.318029,1608.800546
1314.675036,8290.306550,-5107.421000,1225.752797
1314.675365,7105.977043,-7772.162391,1378.971896
1314.675694,6587.832884,-9474.636058,995.924147
1314.676024,6069.688724,-10807.006753,1072.533697
1314.676353,6143.709319,-10658.965565,1302.362347
1314.676682,6291.750507,-9104.533087,1225.752797
1314.677012,6735.874072,-6809.894666,919.314598
1314.677341,6809.894666,-5477.523971,612.876398
1314.677670,6143.709319,-4219.173869,153.219100
1314.678000,6661.853478,-2590.720797,-229.828649
1314.678329,7105.977043,-2960.823768,612.876398
1314.678658,8290.306550,-3034.844362,1455.581446
1314.678988,8438.347739,-4441.235652,1762.019645
1314.679317,8956.491898,-4441.235652,1762.019645
1314.679646,8586.388927,-5181.441594,1762.019645
1314.679976,7994.224174,-7846.182985,1532.190996
1314.680305,7254.018232,-9770.718434,1685.410096
1314.680634,6143.709319,-11103.089130,919.314598
1314.680964,5181.441594,-10510.924376,306.438199
1314.681293,4293.194464,-8808.450710,-153.219100
1314.681622,4959.379811,-7846.182985,-229.828649
1314.681952,6217.729913,-6735.874072,0.000000
1314.682281,7105.977043,-5033.400406,1455.581446
1314.682610,7994.224174,-4071.132681,919.314598
1314.682940,8364.327145,-2738.761985,1378.971896
1314.683269,8512.368333,-3552.988522,1532.190996
1314.683598,8068.244768,-4737.318029,1685.410096
1314.683928,7328.038826,-4885.359217,2068.457845
1314.684257,7476.080014,-5995.668130,842.705048
1314.684586,7105.977043,-8660.409521,1225.752797
1314.684916,7105.977043,-9918.759623,1685.410096
1314.685245,6291.750507,-11473.192101,1838.629195
1314.685574,5921.647536,-10436.903782,1072.533697
1314.685904,5403.503377,-8586.388927,0.000000
1314.686233,4959.379811,-7920.203579,76.609550
1314.686563,5329.482782,-6587.832884,1608.800546
1314.686892,6883.915261,-3330.926739,919.314598
1314.687221,7698.141797,-2294.638420,1608.800546
1314.687551,8364.327145,-1332.370696,1455.581446
1314.687880,8660.409521,-3849.070898,1991.848295
1314.688209,8734.430116,-5255.462188,2068.457845
1314.688539,7550.100608,-5773.606348,1455.581446
1314.688868,6883.915261,-7179.997637,536.266849
1314.689197,6661.853478,-9030.512492,842.705048
1314.689527,6661.853478,-10732.986159,1685.410096
1314.689856,6809.894666,-11399.171507,1378.971896
1314.690185,5551.544565,-9400.615463,1149.143247
1314.690515,5847.626942,-8438.347739,0.000000
1314.690844,5255.462188,-6661.853478,0.000000
1314.691173,5773.606348,-5403.503377,383.047749
1314.691503,6587.832884,-5033.400406,1455.581446
1314.691832,7994.224174,-3330.926739,1838.629195
1314.692161,8438.347739,-2368.659014,2145.067394
1314.692491,8512.368333,-3404.947333,2298.286494
1314.692820,8364.327145,-4811.338623,2221.676944
1314.693149,7179.997637,-5699.585753,612.876398
1314.693479,6217.729913,-7476.080014,536.266849
1314.693808,5403.503377,-9400.615463,689.485948
1314.694137,6365.771101,-10955.047942,1608.800546
1314.694467,6217.729913,-10362.883188,2221.676944
1314.694796,6291.750507,-9400.615463,842.705048
1314.695125,5773.606348,-7402.059420,383.047749
1314.695455,5921.647536,-6513.812290,459.657299
1314.695784,6513.812290,-4885.359217,536.266849
1314.696113,6809.894666,-3627.009116,536.266849
1314.696443,7550.100608,-2516.700203,1072.533697
1314.696772,7698.141797,-3182.885551,1149.143247
1314.697101,7846.182985,-4737.318029,1455.581446
1314.697431,7476.080014,-6143.709319,1455.581446
1314.697760,7328.038826,-5847.626942,842.705048
1314.698089,7624.121203,-6735.874072,919.314598
1314.698419,8290.306550,-8956.491898,1915.238745
1314.698748,8068.244768,-9696.697840,1762.019645
1314.699077,6883.915261,-9770.718434,1762.019645
1314.699407,5403.503377,-8142.265362,383.047749
1314.699736,5255.462188,-6735.874072,-612.876398
1314.700065,5847.626942,-5995.668130,-306.438199
1314.700395,6957.935855,-5107.421000,689.485948
1314.700724,7698.141797,-4589.276840,1838.629195
1314.701053,8808.450710,-2664.741391,1378.971896
1314.701383,8586.388927,-3330.926739,1838.629195
1314.701712,7994.224174,-4737.318029,2068.457845
1314.702041,7550.100608,-5477.523971,1608.800546
1314.702371,6143.709319,-6661.853478,459.657299
1314.702700,5847.626942,-8660.409521,612.876398
1314.703029,6587.832884,-10584.944971,1455.581446
1314.703359,7105.977043,-10658.965565,2145.067394
1314.703688,6365.771101,-10214.842000,612.876398
1314.704017,5847.626942,-8660.409521,383.047749
1314.704347,6217.729913,-7105.977043,-306.438199
1314.704676,6883.915261,-5033.400406,153.219100
1314.705005,8216.285956,-3552.988522,1149.143247
1314.705335,8660.409521,-2886.803174,1378.971896
1314.705664,8882.471304,-1702.473667,842.705048
1314.705993,7994.224174,-3627.009116,1762.019645
1314.706323,7476.080014,-5551.544565,1685.410096
1314.706652,6735.874072,-6365.771101,1455.581446
1314.706981,6735.874072,-6957.935855,919.314598
1314.707311,6809.894666,-8142.265362,1608.800546
1314.707640,7328.038826,-10214.842000,1991.848295
1314.707969,7254.018232,-10807.006753,2681.334243
1314.708299,5773.606348,-9992.780217,383.047749
1314.708628,4441.235652,-8364.327145,-306.438199
1314.708957,4367.215058,-7105.977043,-383.047749
1314.709287,5847.626942,-6587.832884,0.000000
1314.709616,7105.977043,-4589.276840,919.314598
1314.709945,7994.224174,-3182.885551,1225.752797
1314.710275,8438.347739,-3034.844362,1838.629195
1314.710604,8734.430116,-3404.947333,2374.896044
1314.710933,7994.224174,-4811.338623,1532.190996
1314.711263,6587.832884,-5699.585753,1149.143247
1314.711592,5921.647536,-6661.853478,153.219100
1314.711921,6217.729913,-10066.800811,1225.752797
1314.712251,6513.812290,-10732.986159,1378.971896
1314.712580,6291.750507,-10288.862594,995.924147
1314.712909,6143.709319,-9178.553681,689.485948
1314.713239,6513.812290,-7698.141797,536.266849
1314.713568,7550.100608,-6661.853478,1532.190996
1314.713897,7994.224174,-4737.318029,2145.067394
1314.714227,7994.224174,-2368.659014,1149.143247
1314.714556,7624.121203,-1184.329507,689.485948
1314.714885,7328.038826,-2146.597232,1378.971896
1314.715215,7994.224174,-4071.132681,2145.067394
1314.715544,7624.121203,-5403.503377,2451.505594
1314.715873,6957.935855,-6365.771101,1378.971896
1314.716203,6439.791695,-8068.244768,1149.143247
1314.716532,6513.812290,-9992.780217,612.876398
1314.716861,6217.729913,-11177.109724,1838.629195
1314.717191,5847.626942,-11399.171507,459.657299
1314.717520,5329.482782,-9178.553681,0.000000
1314.717849,4885.359217,-7698.141797,0.000000
1314.718179,6069.688724,-7179.997637,0.000000
1314.718508,7550.100608,-5033.400406,1532.190996
1314.718837,7772.162391,-4737.318029,1072.533697
1314.719167,7402.059420,-3923.091493,1072.533697
1314.719496,6957.935855,-3627.009116,1149.143247
1314.719825,7328.038826,-4515.256246,1685.410096
1314.720155,7624.121203,-5625.565159,1455.581446
1314.720484,7402.059420,-5847.626942,1302.362347
1314.720813,7254.018232,-7105.977043,1225.752797
1314.721143,7698.141797,-9918.759623,1608.800546
1314.721472,7105.977043,-10214.842000,1991.848295
1314.721801,6661.853478,-9622.677246,1225.752797
1314.722131,5773.606348,-8808.450710,383.047749
1314.722460,5995.668130,-7105.977043,766.095498
1314.722789,7031.956449,-6069.688724,689.485948
1314.723119,7920.203579,-3701.029710,1302.362347
1314.723448,8142.265362,-2516.700203,1225.752797
1314.723777,8364.327145,-2738.761985,536.266849
1314.724107,7476.080014,-3404.947333,1378.971896
1314.724436,7254.018232,-5699.585753,1149.143247
1314.724765,7254.018232,-5921.647536,1608.800546
1314.725095,7179.997637,-6661.853478,1455.581446
1314.725424,7328.038826,-8438.347739,1302.362347
1314.725753,7179.997637,-9400.615463,919.314598
1314.726083,6735.874072,-10140.821405,919.314598
1314.726412,5847.626942,-9696.697840,459.657299
1314.726741,5329.482782,-8882.471304,0.000000
1314.727071,6365.771101,-7105.977043,0.000000
1314.727400,7031.956449,-5551.544565,459.657299
1314.727729,7105.977043,-4441.235652,919.314598
1314.728059,7550.100608,-3182.885551,1072.533697
1314.728388,8142.265362,-3478.967927,1149.143247
1314.728717,7994.224174,-4219.173869,1378.971896
1314.729047,7328.038826,-5329.482782,1685.410096
1314.729376,7179.997637,-6069.688724,995.924147
1314.729705,6587.832884,-6661.853478,1149.143247
1314.730035,6217.729913,-9474.636058,1225.752797
1314.730364,6143.709319,-10955.047942,1762.019645
1314.730694,6143.709319,-10214.842000,1685.410096
1314.731023,5551.544565,-9252.574275,229.828649
1314.731352,5107.421000,-7920.203579,0.000000
1314.731682,5329.482782,-7105.977043,536.266849
1314.732011,7179.997637,-5773.606348,153.219100
1314.732340,8216.285956,-3404.947333,1072.533697
1314.732670,8068.244768,-2368.659014,536.266849
1314.732999,8512.368333,-2590.720797,995.924147
1314.733328,8660.409521,-4145.153275,1608.800546
1314.733658,8512.368333,-5255.462188,1685.410096
1314.733987,7920.203579,-5847.626942,842.705048
1314.734316,7772.162391,-6883.915261,1149.143247
1314.734646,7550.100608,-8882.471304,1302.362347
1314.734975,7031.956449,-9844.739029,1915.238745
1314.735304,6365.771101,-9622.677246,1149.143247
1314.735634,5181.441594,-8956.491898,306.438199
1314.735963,5625.565159,-7994.224174,689.485948
1314.736292,5847.626942,-6883.915261,383.047749
1314.736622,5699.585753,-5847.626942,612.876398
1314.736951,6069.688724,-4219.173869,153.219100
1314.737280,6735.874072,-3478.967927,766.095498
1314.737610,7846.182985,-4589.276840,2068.457845
1314.737939,8512.368333,-4293.194464,2451.505594
1314.738268,8290.306550,-4885.359217,1685.410096
1314.738598,6957.935855,-6143.709319,919.314598
1314.738927,5921.647536,-8290.306550,612.876398
1314.739256,5921.647536,-10658.965565,229.828649
1314.739586,6069.688724,-11399.171507,306.438199
1314.739915,5847.626942,-10066.800811,2145.067394
1314.740244,5921.647536,-9030.512492,919.314598
1314.740574,6439.791695,-7105.977043,1149.143247
1314.740903,6809.894666,-5255.462188,995.924147
1314.741232,7402.059420,-3478.967927,1149.143247
1314.741562,7846.182985,-2220.617826,536.266849
1314.741891,7920.203579,-2368.659014,919.314598
1314.742220,7772.162391,-2886.803174,995.924147
1314.742550,7624.121203,-4737.318029,1225.752797
1314.742879,8290.306550,-5329.482782,1378.971896
1314.743208,7550.100608,-5995.668130,1225.752797
1314.743538,7624.121203,-7772.162391,1149.143247
1314.743867,7624.121203,-9474.636058,1838.629195
1314.744196,7031.956449,-10510.924376,1532.190996
1314.744526,6143.709319,-10140.821405,1225.752797
1314.744855,4515.256246,-9918.759623,612.876398
1314.745184,4737.318029,-8068.244768,-306.438199
1314.745514,5107.421000,-6365.771101,0.000000
1314.745843,5995.668130,-5329.482782,76.609550
1314.746172,6735.874072,-4145.153275,536.266849
1314.746502,7624.121203,-3627.009116,766.095498
1314.746831,8364.327145,-4071.132681,1455.581446
1314.747160,8290.306550,-4367.215058,2068.457845
1314.747490,8068.244768,-4663.297435,2374.896044
1314.747819,7994.224174,-6809.894666,1455.581446
1314.748148,7402.059420,-7920.203579,995.924147
1314.748478,7254.018232,-10362.883188,1532.190996
1314.748807,6809.894666,-9992.780217,1838.629195
1314.749136,6217.729913,-9474.636058,995.924147
1314.749466,5921.647536,-8142.265362,842.705048
1314.749795,6143.709319,-6069.688724,306.438199
1314.750124,6735.874072,-4663.297435,306.438199
1314.750454,7105.977043,-2738.761985,1072.533697
1314.750783,7624.121203,-2886.803174,689.485948
1314.751112,7550.100608,-3256.906145,689.485948
1314.751442,8142.265362,-4219.173869,1838.629195
1314.751771,9104.533087,-5181.441594,2604.724693
1314.752100,9474.636058,-4737.318029,2451.505594
1314.752430,8438.347739,-6439.791695,1838.629195
1314.752759,7994.224174,-8068.244768,1838.629195
1314.753089,7254.018232,-9326.594869,1149.143247
1314.753418,5699.585753,-10436.903782,842.705048
1314.753747,4367.215058,-9918.759623,383.047749
1314.754077,4071.132681,-9326.594869,-383.047749
1314.754406,4663.297435,-7328.038826,-689.485948
1314.754735,5921.647536,-7105.977043,459.657299
1314.755065,7476.080014,-5255.462188,1149.143247
1314.755394,8142.265362,-3997.112087,689.485948
1314.755723,7772.162391,-3923.091493,689.485948
1314.756053,7254.018232,-4441.235652,995.924147
1314.756382,7179.997637,-5107.421000,1762.019645
1314.756711,7624.121203,-6587.832884,1225.752797
1314.757041,6661.853478,-7550.100608,995.924147
1314.757370,6735.874072,-9696.697840,1378.971896
1314.757699,6587.832884,-10510.924376,1455.581446
1314.758029,6143.709319,-9770.718434,1762.019645
1314.758358,5255.462188,-9474.636058,842.705048
1314.758687,5625.565159,-7624.121203,229.828649
1314.759017,5477.523971,-6365.771101,153.219100
1314.759346,6291.750507,-4663.297435,0.000000
1314.759676,6661.853478,-3404.947333,612.876398
1314.760005,8290.306550,-3997.112087,1532.190996
1314.760334,8956.491898,-4441.235652,2068.457845
1314.760664,8586.388927,-4367.215058,2145.067394
1314.760993,8364.327145,-4367.215058,1455.581446
1314.761322,7920.203579,-5699.585753,1302.362347
1314.761652,8216.285956,-6587.832884,1455.581446
1314.761981,7624.121203,-7846.182985,1455.581446
1314.762310,6957.935855,-9104.533087,1685.410096
1314.762640,6439.791695,-9474.636058,1378.971896
1314.762969,5329.482782,-9178.553681,229.828649
1314.763298,5255.462188,-8068.244768,459.657299
1314.763628,5773.606348,-6291.750507,-536.266849
1314.763957,7031.956449,-5033.400406,383.047749
1314.764286,7624.121203,-4811.338623,689.485948
1314.764616,8142.265362,-3701.029710,1302.362347
1314.764945,8364.327145,-3849.070898,1532.190996
1314.765274,7698.141797,-4737.318029,1762.019645
1314.765604,6735.874072,-5107.421000,1762.019645
1314.765933,6439.791695,-6513.812290,1072.533697
1314.766263,6365.771101,-7846.182985,1302.362347
1314.766592,6069.688724,-9918.759623,1455.581446
1314.766921,6661.853478,-10288.862594,2528.115143
1314.767251,6735.874072,-9696.697840,1378.971896
1314.767580,5995.668130,-8734.430116,536.266849
1314.767909,5699.585753,-6957.935855,383.047749
1314.768239,6365.771101,-5625.565159,689.485948
1314.768568,7550.100608,-3849.070898,1149.143247
1314.768897,7920.203579,-2738.761985,1302.362347
1314.769227,7994.224174,-2960.823768,1532.190996
1314.769556,8216.285956,-3552.988522,1302.362347
1314.769885,7698.141797,-4663.297435,1685.410096
1314.770215,7846.182985,-6143.709319,1302.362347
1314.770544,6883.915261,-6587.832884,1149.143247
1314.770873,6957.935855,-7698.141797,1072.533697
1314.771203,7179.997637,-9326.594869,1608.800546
1314.771532,6809.894666,-9178.553681,1378.971896
1314.771861,6513.812290,-9622.677246,1532.190996
1314.772191,5847.626942,-8586.388927,383.047749
1314.772520,6365.771101,-6883.915261,0.000000
1314.772850,6661.853478,-5625.565159,76.609550
1314.773179,6957.935855,-5181.441594,306.438199
1314.773508,6513.812290,-5255.462188,153.219100
1314.773838,7105.977043,-4663.297435,766.095498
1314.774167,7328.038826,-5403.503377,1532.190996
1314.774496,7624.121203,-5921.647536,2145.067394
1314.774826,6883.915261,-6217.729913,1455.581446
1314.775155,5995.668130,-6957.935855,459.657299
1314.775484,5551.544565,-8512.368333,995.924147
1314.775814,6365.771101,-10510.924376,1302.362347
1314.776143,6217.729913,-9770.718434,1455.581446
1314.776472,6069.688724,-9030.512492,995.924147
1314.776802,6143.709319,-8068.244768,383.047749
1314.777131,7105.977043,-6291.750507,306.438199
1314.777460,7476.080014,-4811.338623,383.047749
1314.777790,8290.306550,-3256.906145,1072.533697
1314.778119,8808.450710,-2590.720797,766.095498
1314.778448,8512.368333,-2886.803174,919.314598
1314.778778,7698.141797,-3478.967927,1072.533697
1314.779107,7698.141797,-5181.441594,1378.971896
1314.779437,7846.182985,-5107.421000,1532.190996
1314.779766,7550.100608,-6291.750507,1455.581446
1314.780095,7698.141797,-7698.141797,1762.019645
1314.780425,7254.018232,-9622.677246,1685.410096
1314.780754,7031.956449,-9548.656652,1302.362347
1314.781083,5921.647536,-8956.491898,1072.533697
1314.781413,5625.565159,-7402.059420,0.000000
1314.781742,5995.668130,-6069.688724,-383.047749
1314.782071,6291.750507,-5255.462188,536.266849
1314.782401,7254.018232,-5107.421000,383.047749
1314.782730,7476.080014,-4737.318029,1378.971896
1314.783059,7624.121203,-4737.318029,1149.143247
1314.783389,7402.059420,-4959.379811,1302.362347
1314.783718,7402.059420,-6217.729913,1762.019645
1314.784047,7105.977043,-7179.997637,766.095498
1314.784377,6809.894666,-8216.285956,919.314598
1314.784706,6513.812290,-9474.636058,1225.752797
1314.785035,6069.688724,-10436.903782,1072.533697
1314.785365,6069.688724,-10436.903782,1225.752797
1314.785694,5477.523971,-9326.594869,536.266849
1314.786023,5773.606348,-7846.182985,459.657299
1314.786353,6217.729913,-6513.812290,536.266849
1314.786682,7698.141797,-3849.070898,766.095498
1314.787012,7624.121203,-3108.864956,689.485948
1314.787341,7920.203579,-2368.659014,842.705048
1314.787670,8290.306550,-2516.700203,1455.581446
1314.788000,8586.388927,-4663.297435,2298.286494
1314.788329,9030.512492,-5107.421000,2757.943793
1314.788658,8290.306550,-5921.647536,2068.457845
1314.788988,7550.100608,-7105.977043,1838.629195
1314.789317,6883.915261,-8808.450710,1532.190996
1314.789646,6291.750507,-9844.739029,1149.143247
1314.789976,5625.565159,-9992.780217,842.705048
1314.790305,4811.338623,-9104.533087,153.219100
1314.790634,4885.359217,-7476.080014,-383.047749
1314.790964,5477.523971,-5847.626942,383.047749
1314.791293,7328.038826,-4589.276840,842.705048
1314.791622,7994.224174,-3849.070898,1072.533697
1314.791952,8142.265362,-3552.988522,1302.362347
1314.792281,8290.306550,-3701.029710,1532.190996
1314.792610,8142.265362,-4663.297435,1991.848295
1314.792940,7920.203579,-5699.585753,1838.629195
1314.793269,6735.874072,-7179.997637,995.924147
1314.793599,5921.647536,-8586.388927,919.314598
1314.793928,6291.750507,-10436.903782,1455.581446
1314.794257,6217.729913,-10881.027347,1838.629195
1314.794587,5699.585753,-9844.739029,1685.410096
1314.794916,5107.421000,-8216.285956,0.000000
1314.795245,5107.421000,-6365.771101,306.438199
1314.795575,5995.668130,-5403.503377,536.266849
1314.795904,7624.121203,-3330.926739,995.924147
1314.796233,8438.347739,-2368.659014,1915.238745
1314.796563,8586.388927,-1258.350101,1532.190996
1314.796892,9178.553681,-2516.700203,1225.752797
1314.797221,8438.347739,-4515.256246,2681.334243
1314.797551,8364.327145,-6587.832884,1762.019645
1314.797880,7328.038826,-6809.894666,919.314598
1314.798209,6735.874072,-8216.285956,1455.581446
1314.798539,6957.935855,-10214.842000,1378.971896
1314.798868,6957.935855,-10214.842000,1685.410096
1314.799197,6217.729913,-10214.842000,1225.752797
1314.799527,5255.462188,-8956.491898,0.000000
1314.799856,4515.256246,-7105.977043,-689.485948
1314.800186,4959.379811,-5181.441594,-995.924147
1314.800515,5847.626942,-4885.359217,-919.314598
1314.800844,7476.080014,-4515.256246,536.266849
1314.801174,9030.512492,-4145.153275,1685.410096
1314.801503,9622.677246,-4515.256246,1915.238745
1314.801832,9474.636058,-4071.132681,2757.943793
1314.802162,8216.285956,-5847.626942,1455.581446
1314.802491,6661.853478,-7476.080014,689.485948
1314.802820,6143.709319,-9770.718434,1225.752797
1314.803150,5773.606348,-11769.274478,1608.800546
1314.803479,5403.503377,-10436.903782,2374.896044
1314.803808,5033.400406,-10881.027347,1225.752797
1314.804138,4589.276840,-8438.347739,-306.438199
1314.804467,4219.173869,-6883.915261,-383.047749
1314.804796,4737.318029,-5847.626942,-153.219100
1314.805126,6809.894666,-3404.947333,0.000000
1314.805455,8216.285956,-2812.782580,995.924147
1314.805784,9474.636058,-2368.659014,1455.581446
1314.806114,9918.759623,-2664.741391,1838.629195
1314.806443,9548.656652,-3997.112087,3370.820191
1314.806773,9326.594869,-4515.256246,1762.019645
1314.807102,8586.388927,-5551.544565,1608.800546
1314.807431,7772.162391,-7846.182985,1685.410096
1314.807761,7105.977043,-10066.800811,2145.067394
1314.808090,6439.791695,-10288.862594,1838.629195
1314.808419,5551.544565,-9104.533087,842.705048
1314.808749,5255.462188,-7846.182985,383.047749
1314.809078,5773.606348,-5773.606348,536.266849
1314.809407,6143.709319,-4441.235652,383.047749
1314.809737,6365.771101,-4293.194464,229.828649
1314.810066,6661.853478,-4441.235652,919.314598
1314.810395,7328.038826,-3775.050304,612.876398
1314.810725,7920.203579,-5033.400406,1838.629195
1314.811054,8882.471304,-5107.421000,1608.800546
1314.811383,7920.203579,-6217.729913,1225.752797
1314.811713,6957.935855,-7994.224174,536.266849
1314.812042,5995.668130,-9622.677246,1149.143247
1314.812371,5995.668130,-11103.089130,612.876398
1314.812701,5181.441594,-10732.986159,766.095498
1314.813030,5329.482782,-9622.677246,383.047749
1314.813360,5625.565159,-8290.306550,0.000000
1314.813689,6069.688724,-6587.832884,306.438199
1314.814018,7254.018232,-4663.297435,536.266849
1314.814348,7994.224174,-3701.029710,536.266849
1314.814677,8364.327145,-2442.679609,1762.019645
1314.815006,8364.327145,-2960.823768,766.095498
1314.815336,7994.224174,-4367.215058,766.095498
1314.815665,7920.203579,-5329.482782,1608.800546
1314.815994,7994.224174,-5995.668130,1225.752797
1314.816324,7624.121203,-6513.812290,1225.752797
1314.816653,7328.038826,-8882.471304,1991.848295
1314.816982,6809.894666,-9400.615463,2068.457845
1314.817312,6809.894666,-9548.656652,1991.848295
1314.817641,5995.668130,-8068.244768,612.876398
1314.817970,5551.544565,-6809.894666,0.000000
1314.818300,6513.812290,-5551.544565,383.047749
1314.818629,7772.162391,-4145.153275,842.705048
1314.818958,8068.244768,-3552.988522,919.314598
1314.819288,7920.203579,-3330.926739,1302.362347
1314.819617,8142.265362,-4367.215058,1762.019645
1314.819947,6587.832884,-5033.400406,1225.752797
1314.820276,5921.647536,-6291.750507,1149.143247
1314.820605,5551.544565,-7031.956449,459.657299
1314.820935,6143.709319,-8660.409521,766.095498
1314.821264,6291.750507,-11029.068536,1685.410096
1314.821593,6439.791695,-12361.439231,1915.238745
1314.821923,5551.544565,-10510.924376,1455.581446
1314.822252,5181.441594,-9030.512492,153.219100
1314.822581,5773.606348,-7254.018232,76.609550
1314.822911,7476.080014,-5921.647536,536.266849
1314.823240,8142.265362,-3849.070898,995.924147
1314.823569,8586.388927,-3330.926739,995.924147
1314.823899,8438.347739,-2812.782580,1302.362347
1314.824228,7994.224174,-3627.009116,1378.971896
1314.824557,7476.080014,-4885.359217,2068.457845
1314.824887,6883.915261,-5847.626942,1685.410096
1314.825216,6439.791695,-6587.832884,1149.143247
1314.825545,6587.832884,-7920.203579,1378.971896
1314.825875,7031.956449,-9474.636058,1991.848295
1314.826204,6809.894666,-9992.780217,1455.581446
1314.826533,6217.729913,-8290.306550,766.095498
1314.826863,5551.544565,-8068.244768,76.609550
1314.827192,5699.585753,-7550.100608,153.219100
1314.827522,6143.709319,-5403.503377,919.314598
1314.827851,8142.265362,-3997.112087,1072.533697
1314.828180,9622.677246,-3182.885551,1991.848295
1314.828510,9622.677246,-3034.844362,2145.067394
1314.828839,8882.471304,-3997.112087,2145.067394
1314.829168,7179.997637,-4219.173869,1302.362347
1314.829498,5995.668130,-5477.523971,689.485948
1314.829827,5551.544565,-7179.997637,306.438199
1314.830156,5477.523971,-9474.636058,842.705048
1314.830486,6143.709319,-11029.068536,1225.752797
1314.830815,6365.771101,-10807.006753,1378.971896
1314.831144,5699.585753,-9474.636058,919.314598
1314.831474,5625.565159,-7920.203579,229.828649
1314.831803,6217.729913,-7031.956449,612.876398
1314.832132,6957.935855,-5107.421000,689.485948
1314.832462,7254.018232,-3849.070898,383.047749
1314.832791,7772.162391,-3552.988522,995.924147
1314.833120,8512.368333,-2960.823768,1302.362347
1314.833450,8216.285956,-4293.194464,1532.190996
1314.833779,8290.306550,-4811.338623,1838.629195
1314.834109,7698.141797,-5477.523971,1302.362347
1314.834438,7105.977043,-6587.832884,1225.752797
1314.834767,7105.977043,-7698.141797,1378.971896
1314.835097,7179.997637,-9178.553681,1608.800546
1314.835426,7105.977043,-9252.574275,1225.752797
1314.835755,5921.647536,-8734.430116,689.485948
1314.836085,5773.606348,-8068.244768,0.000000
1314.836414,6143.709319,-6513.812290,383.047749
1314.836743,7550.100608,-5181.441594,383.047749
1314.837073,7994.224174,-3997.112087,919.314598
1314.837402,8068.244768,-3478.967927,1378.971896
1314.837731,8068.244768,-4441.235652,1225.752797
1314.838061,7105.977043,-4515.256246,1225.752797
1314.838390,6439.791695,-5255.462188,1072.533697
1314.838719,6143.709319,-6735.874072,919.314598
1314.839049,6587.832884,-8808.450710,1302.362347
1314.839378,6143.709319,-10584.944971,1532.190996
1314.839707,5551.544565,-11029.068536,1302.362347
1314.840037,5329.482782,-9918.759623,1072.533697
1314.840366,5625.565159,-8512.368333,995.924147
1314.840696,6439.791695,-7179.997637,459.657299
1314.841025,6735.874072,-5329.482782,459.657299
1314.841354,7105.977043,-3849.070898,842.705048
1314.841684,7698.141797,-3849.070898,536.266849
1314.842013,8290.306550,-2812.782580,1608.800546
1314.842342,8068.244768,-4293.194464,1762.019645
1314.842672,9104.533087,-4737.318029,1838.629195
1314.843001,7550.100608,-5329.482782,1225.752797
1314.843330,6661.853478,-6883.915261,1072.533697
1314.843660,7031.956449,-7402.059420,766.095498
1314.843989,7328.038826,-9548.656652,1608.800546
1314.844318,7328.038826,-10140.821405,1762.019645
1314.844648,6217.729913,-8808.450710,995.924147
1314.844977,5921.647536,-8364.327145,459.657299
1314.845306,6439.791695,-7105.977043,995.924147
1314.845636,7031.956449,-4959.379811,229.828649
1314.845965,7402.059420,-3330.926739,459.657299
1314.846294,7920.203579,-3034.844362,536.266849
1314.846624,8290.306550,-3256.906145,1608.800546
1314.846953,8438.347739,-4441.235652,1838.629195
1314.847283,7994.224174,-4885.359217,2221.676944
1314.847612,7105.977043,-5773.606348,1455.581446
1314.847941,6217.729913,-7254.018232,383.047749
1314.848271,5773.606348,-9400.615463,919.314598
1314.848600,5625.565159,-11473.192101,1302.362347
1314.848929,5329.482782,-11473.192101,995.924147
1314.849259,4811.338623,-9992.780217,689.485948
1314.849588,5255.462188,-8512.368333,153.219100
1314.849917,6143.709319,-7179.997637,383.047749
1314.850247,6735.874072,-6291.750507,229.828649
1314.850576,7031.956449,-3923.091493,306.438199
1314.850905,7476.080014,-3552.988522,229.828649
1314.851234,8438.347739,-3034.844362,1149.143247
1314.851564,8216.285956,-4367.215058,1225.752797
1314.851893,7994.224174,-4737.318029,2068.457845
1314.852222,7254.018232,-5847.626942,1225.752797
1314.852551,7179.997637,-7698.141797,1072.533697
1314.852880,7105.977043,-8808.450710,1302.362347
1314.853210,6883.915261,-9770.718434,1072.533697
1314.853539,6439.791695,-10362.883188,1455.581446
1314.853868,5847.626942,-8882.471304,1225.752797
1314.854197,5773.606348,-7328.038826,459.657299
1314.854526,6365.771101,-5625.565159,229.828649
1314.854856,7105.977043,-3627.009116,842.705048
1314.855185,7772.162391,-3256.906145,766.095498
1314.855514,7846.182985,-3182.885551,919.314598
1314.855843,7846.182985,-3775.050304,1302.362347
1314.856173,8290.306550,-4071.132681,1225.752797
1314.856502,7772.162391,-4959.379811,2068.457845
1314.856831,7402.059420,-5995.668130,1532.190996
1314.857160,6957.935855,-7846.182985,689.485948
1314.857489,6735.874072,-9992.780217,1455.581446
1314.857819,6513.812290,-10214.842000,766.095498
1314.858148,5847.626942,-10362.883188,1149.143247
1314.858477,5477.523971,-9178.553681,459.657299
1314.858806,5773.606348,-7105.977043,0.000000
1314.859135,5995.668130,-6069.688724,383.047749
1314.859465,7179.997637,-4959.379811,842.705048
1314.859794,7994.224174,-2812.782580,1149.143247
1314.860123,8364.327145,-2738.761985,1149.143247
1314.860452,7698.141797,-2368.659014,1072.533697
1314.860782,7846.182985,-4367.215058,1378.971896
1314.861111,7846.182985,-5625.565159,1685.410096
1314.861440,7698.141797,-6069.688724,1455.581446
1314.861769,7550.100608,-7994.224174,1685.410096
1314.862098,7624.121203,-8512.368333,1915.238745
1314.862428,7476.080014,-10140.821405,1149.143247
1314.862757,6143.709319,-9622.677246,766.095498
1314.863086,5181.441594,-8290.306550,536.266849
1314.863415,5477.523971,-7254.018232,0.000000
1314.863744,5847.626942,-5921.647536,229.828649
1314.864074,6809.894666,-4219.173869,229.828649
1314.864403,7476.080014,-4441.235652,842.705048
1314.864732,8068.244768,-3701.029710,1149.143247
1314.865061,8142.265362,-4145.153275,1378.971896
1314.865391,8068.244768,-4663.297435,1608.800546
1314.865720,7920.203579,-5699.585753,1225.752797
1314.866049,6661.853478,-6883.915261,919.314598
1314.866378,5921.647536,-9252.574275,766.095498
1314.866707,6069.688724,-11325.150913,1149.143247
1314.867037,6513.812290,-11029.068536,1915.238745
1314.867366,5773.606348,-10658.965565,1455.581446
1314.867695,5107.421000,-8586.388927,-153.219100
1314.868024,5699.585753,-7179.997637,76.609550
1314.868353,6217.729913,-6069.688724,459.657299
1314.868683,7328.038826,-4737.318029,995.924147
1314.869012,7624.121203,-3552.988522,995.924147
1314.869341,8068.244768,-2812.782580,1532.190996
1314.869670,7846.182985,-4367.215058,1762.019645
1314.870000,7772.162391,-5329.482782,1685.410096
1314.870329,7105.977043,-4885.359217,1532.190996
1314.870658,7105.977043,-6217.729913,766.095498
1314.870987,7179.997637,-7698.141797,1072.533697
1314.871316,7402.059420,-9178.553681,1838.629195
1314.871646,6957.935855,-10658.965565,1302.362347
1314.871975,6291.750507,-9400.615463,1302.362347
1314.872304,5625.565159,-7698.141797,0.000000
1314.872633,5921.647536,-6513.812290,153.219100
1314.872962,6957.935855,-5625.565159,1685.410096
1314.873292,8142.265362,-4441.235652,1378.971896
1314.873621,8290.306550,-2960.823768,1532.190996
1314.873950,8142.265362,-2812.782580,1685.410096
1314.874279,8364.327145,-3701.029710,1685.410096
1314.874609,7550.100608,-5033.400406,1608.800546
1314.874938,6365.771101,-5995.668130,536.266849
1314.875267,5403.503377,-7328.038826,306.438199
1314.875596,5995.668130,-9622.677246,995.924147
1314.875925,6143.709319,-11251.130318,1762.019645
1314.876255,5625.565159,-11029.068536,1685.410096
1314.876584,5181.441594,-10510.924376,1149.143247
1314.876913,5033.400406,-7994.224174,229.828649
1314.877242,5551.544565,-6661.853478,0.000000
1314.877571,6291.750507,-5329.482782,459.657299
1314.877901,7624.121203,-3997.112087,383.047749
1314.878230,8438.347739,-4515.256246,1302.362347
1314.878559,8586.388927,-2812.782580,1532.190996
1314.878888,8216.285956,-4515.256246,1838.629195
1314.879218,8586.388927,-4737.318029,1378.971896
1314.879547,7994.224174,-5181.441594,995.924147
1314.879876,7031.956449,-7328.038826,766.095498
1314.880205,6809.894666,-8364.327145,1072.533697
1314.880534,6809.894666,-9474.636058,1991.848295
1314.880864,6587.832884,-9622.677246,1072.533697
1314.881193,6439.791695,-8882.471304,842.705048
1314.881522,6957.935855,-7772.162391,1225.752797
1314.881851,7328.038826,-5625.565159,995.924147
1314.882180,8364.327145,-4367.215058,689.485948
1314.882510,7920.203579,-2960.823768,536.266849
1314.882839,7772.162391,-3256.906145,842.705048
1314.883168,7476.080014,-4293.194464,1225.752797
1314.883497,7772.162391,-4737.318029,1838.629195
1314.883827,7476.080014,-5699.585753,1455.581446
1314.884156,7254.018232,-5847.626942,1685.410096
1314.884485,6809.894666,-7920.203579,1225.752797
1314.884814,6291.750507,-9474.636058,1302.362347
1314.885143,6069.688724,-10288.862594,1149.143247
1314.885473,4959.379811,-10214.842000,612.876398
1314.885802,4959.379811,-8660.409521,306.438199
1314.886131,5625.565159,-7179.997637,76.609550
1314.886460,6883.915261,-5551.544565,-306.438199
1314.886789,7624.121203,-4885.359217,842.705048
1314.887119,8290.306550,-4293.194464,995.924147
1314.887448,8290.306550,-3923.091493,1149.143247
1314.887777,7994.224174,-3775.050304,995.924147
1314.888106,7402.059420,-5181.441594,766.095498
1314.888436,7328.038826,-5847.626942,766.095498
1314.888765,6735.874072,-6883.915261,689.485948
1314.889094,6735.874072,-7846.182985,1072.533697
1314.889423,7105.977043,-8956.491898,1762.019645
1314.889752,6587.832884,-8438.347739,1455.581446
1314.890082,5995.668130,-8808.450710,919.314598
1314.890411,5995.668130,-7920.203579,612.876398
1314.890740,5995.668130,-6883.915261,383.047749
1314.891069,6365.771101,-6143.709319,612.876398
1314.891398,7402.059420,-4441.235652,612.876398
1314.891728,8068.244768,-3256.906145,383.047749
1314.892057,7402.059420,-4071.132681,766.095498
1314.892386,7698.141797,-4737.318029,1838.629195
1314.892715,8364.327145,-6069.688724,1225.752797
1314.893045,7624.121203,-6217.729913,1685.410096
1314.893374,7105.977043,-6883.915261,1225.752797
1314.893703,7031.956449,-9178.553681,1149.143247
1314.894032,5625.565159,-9992.780217,1762.019645
1314.894361,4737.318029,-10881.027347,229.828649
1314.894691,5033.400406,-9474.636058,766.095498
1314.895020,5921.647536,-7698.141797,153.219100
1314.895349,6809.894666,-6439.791695,919.314598
1314.895678,7031.956449,-4663.297435,1149.143247
1314.896007,7698.141797,-3775.050304,1225.752797
1314.896337,8586.388927,-2886.803174,1532.190996
1314.896666,8068.244768,-3034.844362,1608.800546
1314.896995,7254.018232,-4145.153275,1685.410096
1314.897324,7179.997637,-5995.668130,1149.143247
1314.897654,6735.874072,-6587.832884,1455.581446
1314.897983,6439.791695,-7846.182985,689.485948
1314.898312,6513.812290,-9548.656652,1302.362347
1314.898641,6513.812290,-10362.883188,2528.115143
1314.898970,6809.894666,-9622.677246,1532.190996
1314.899300,5773.606348,-8512.368333,689.485948
1314.899629,5477.523971,-7624.121203,229.828649
1314.899958,5551.544565,-6587.832884,0.000000
1314.900287,6587.832884,-4885.359217,-76.609550
1314.900617,7328.038826,-3701.029710,306.438199
1314.900946,8512.368333,-3627.009116,995.924147
1314.901275,8586.388927,-4441.235652,2068.457845
1314.901604,8586.388927,-4441.235652,2298.286494
1314.901933,8290.306550,-5403.503377,1838.629195
1314.902263,7624.121203,-5551.544565,1149.143247
1314.902592,7031.956449,-6883.915261,612.876398
1314.902921,6291.750507,-9474.636058,1302.362347
1314.903250,5773.606348,-10658.965565,919.314598
1314.903579,5329.482782,-10288.862594,689.485948
1314.903909,5551.544565,-9400.615463,612.876398
1314.904238,6143.709319,-7031.956449,612.876398
1314.904567,6735.874072,-5403.503377,459.657299
1314.904896,7624.121203,-4589.276840,459.657299
1314.905226,7624.121203,-3256.906145,689.485948
1314.905555,8216.285956,-3330.926739,1378.971896
1314.905884,8290.306550,-3330.926739,1762.019645
1314.906213,8438.347739,-4737.318029,1608.800546
1314.906542,7550.100608,-6217.729913,1685.410096
1314.906872,6809.894666,-7105.977043,1302.362347
1314.907201,6735.874072,-6735.874072,919.314598
1314.907530,6735.874072,-9474.636058,1378.971896
1314.907859,6957.935855,-9622.677246,1608.800546
1314.908188,6809.894666,-8512.368333,1225.752797
1314.908518,6735.874072,-9474.636058,1149.143247
1314.908847,6069.688724,-6735.874072,0.000000
1314.909176,5329.482782,-5551.544565,153.219100
1314.909505,5699.585753,-4663.297435,-306.438199
1314.909835,7624.121203,-2886.803174,459.657299
1314.910164,8660.409521,-3997.112087,1532.190996
1314.910493,9178.553681,-4367.215058,2451.505594
1314.910822,9178.553681,-5033.400406,2298.286494
1314.911151,8660.409521,-5995.668130,1838.629195
1314.911481,7328.038826,-5329.482782,1378.971896
1314.911810,6365.771101,-8216.285956,1378.971896
1314.912139,6587.832884,-9696.697840,1455.581446
1314.912468,5847.626942,-10362.883188,1532.190996
1314.912797,5773.606348,-10510.924376,1455.581446
1314.913127,5847.626942,-7328.038826,536.266849
1314.913456,5551.544565,-7105.977043,383.047749
1314.913785,5921.647536,-6069.688724,-459.657299
1314.914114,6069.688724,-4589.276840,76.609550
1314.914444,6365.771101,-3552.988522,0.000000
1314.914773,7698.141797,-4589.276840,766.095498
1314.915102,7402.059420,-4737.318029,1762.019645
1314.915431,7550.100608,-6883.915261,1762.019645
1314.915760,7328.038826,-6661.853478,842.705048
1314.916090,7105.977043,-6661.853478,766.095498
1314.916419,7105.977043,-8660.409521,1455.581446
1314.916748,7402.059420,-9104.533087,1915.238745
1314.917077,7179.997637,-9474.636058,1302.362347
1314.917406,6513.812290,-8734.430116,1072.533697
1314.917736,6143.709319,-7994.224174,995.924147
1314.918065,6217.729913,-6883.915261,842.705048
1314.918394,6809.894666,-5847.626942,229.828649
1314.918723,6957.935855,-4145.153275,306.438199
1314.919053,7476.080014,-2960.823768,612.876398
1314.919382,8068.244768,-4367.215058,1302.362347
1314.919711,8512.368333,-5033.400406,2911.162892
1314.920040,8364.327145,-5403.503377,1532.190996
1314.920369,7476.080014,-5033.400406,1685.410096
1314.920699,6735.874072,-6291.750507,1149.143247
1314.921028,6735.874072,-9696.697840,1455.581446
1314.921357,6439.791695,-9252.574275,1685.410096
1314.921686,5995.668130,-10214.842000,1685.410096
1314.922015,5847.626942,-9030.512492,1072.533697
1314.922345,6069.688724,-6883.915261,612.876398
1314.922674,6069.688724,-6587.832884,459.657299
1314.923003,7179.997637,-3701.029710,383.047749
1314.923332,7402.059420,-4071.132681,459.657299
1314.923662,7624.121203,-3775.050304,689.485948
1314.923991,7328.038826,-3552.988522,612.876398
1314.924320,7624.121203,-5107.421000,1072.533697
1314.924649,7328.038826,-6217.729913,1838.629195
1314.924978,7179.997637,-6587.832884,1378.971896
1314.925308,7476.080014,-7031.956449,1532.190996
1314.925637,7179.997637,-8808.450710,1685.410096
1314.925966,7328.038826,-10214.842000,2221.676944
1314.926295,6217.729913,-9474.636058,1532.190996
1314.926624,5773.606348,-8956.491898,766.095498
1314.926954,5107.421000,-7254.018232,76.609550
1314.927283,5181.441594,-6291.750507,-229.828649
1314.927612,6291.750507,-5329.482782,383.047749
1314.927941,7624.121203,-3330.926739,842.705048
1314.928271,8142.265362,-3627.009116,919.314598
1314.928600,8512.368333,-3775.050304,1378.971896
1314.928929,8364.327145,-4811.338623,2451.505594
1314.929258,8068.244768,-5995.668130,1378.971896
1314.929587,6957.935855,-5921.647536,1149.143247
1314.929917,6661.853478,-7994.224174,842.705048
1314.930246,7105.977043,-9844.739029,1072.533697
1314.930575,6735.874072,-10955.047942,1302.362347
1314.930904,6217.729913,-10658.965565,1378.971896
1314.931233,5847.626942,-8808.450710,1225.752797
1314.931563,6439.791695,-6735.874072,306.438199
1314.931892,5921.647536,-5033.400406,306.438199
1314.932221,6735.874072,-3775.050304,153.219100
1314.932550,7624.121203,-3552.988522,459.657299
1314.932880,8512.368333,-3108.864956,1072.533697
1314.933209,8660.409521,-3256.906145,1532.190996
1314.933538,8734.430116,-4885.359217,1838.629195
1314.933867,7550.100608,-5847.626942,1225.752797
1314.934196,7105.977043,-6365.771101,1149.143247
1314.934526,6957.935855,-8142.265362,1149.143247
1314.934855,7105.977043,-9474.636058,1762.019645
1314.935184,6587.832884,-10436.903782,2221.676944
1314.935513,6069.688724,-10214.842000,1302.362347
1314.935842,5033.400406,-9030.512492,536.266849
1314.936172,5033.400406,-7550.100608,0.000000
1314.936501,6439.791695,-6291.750507,-459.657299
1314.936830,6957.935855,-4293.194464,306.438199
1314.937159,7772.162391,-3775.050304,995.924147
1314.937489,8660.409521,-3849.070898,1455.581446
1314.937818,9252.574275,-3627.009116,2221.676944
1314.938147,8956.491898,-4811.338623,1608.800546
1314.938476,7846.182985,-5403.503377,1225.752797
1314.938805,6809.894666,-5995.668130,536.266849
1314.939135,6217.729913,-8660.409521,612.876398
1314.939464,6291.750507,-10436.903782,2068.457845
1314.939793,6439.791695,-11029.068536,2145.067394
1314.940122,6143.709319,-9696.697840,1149.143247
1314.940451,5403.503377,-7550.100608,766.095498
1314.940781,5551.544565,-6735.874072,229.828649
1314.941110,5625.565159,-5403.503377,153.219100
1314.941439,6143.709319,-4515.256246,536.266849
1314.941768,7105.977043,-3923.091493,766.095498
1314.942098,8586.388927,-3256.906145,1302.362347
1314.942427,9030.512492,-4219.173869,2681.334243
1314.942756,8512.368333,-4959.379811,1762.019645
1314.943085,7476.080014,-4737.318029,1149.143247
1314.943414,6883.915261,-5847.626942,612.876398
1314.943744,7328.038826,-8216.285956,995.924147
1314.944073,7402.059420,-9548.656652,1762.019645
1314.944402,6587.832884,-10436.903782,1685.410096
1314.944731,5551.544565,-9178.553681,689.485948
1314.945060,4959.379811,-8290.306550,-306.438199
1314.945390,5329.482782,-7105.977043,0.000000
1314.945719,5625.565159,-6883.915261,229.828649
1314.946048,6957.935855,-4885.359217,306.438199
1314.946377,7920.203579,-4367.215058,612.876398
1314.946707,8068.244768,-4219.173869,1378.971896
1314.947036,8216.285956,-4959.379811,1838.629195
1314.947365,7920.203579,-5403.503377,2221.676944
1314.947694,7105.977043,-6217.729913,1455.581446
1314.948023,6439.791695,-6809.894666,612.876398
1314.948353,6291.750507,-9104.533087,1072.533697
1314.948682,7179.997637,-10288.862594,1225.752797
1314.949011,6735.874072,-10066.800811,1762.019645
1314.949340,5995.668130,-8364.327145,1072.533697
1314.949669,5699.585753,-5995.668130,153.219100
1314.949999,5995.668130,-5329.482782,459.657299
1314.950328,6735.874072,-4589.276840,153.219100
1314.950657,7846.182985,-3775.050304,1225.752797
1314.950986,8290.306550,-3478.967927,1302.362347
1314.951316,8142.265362,-4219.173869,1838.629195
1314.951645,7846.182985,-4441.235652,2145.067394
1314.951974,7698.141797,-5255.462188,1455.581446
1314.952303,7328.038826,-5847.626942,1072.533697
1314.952632,7105.977043,-7476.080014,919.314598
1314.952961,7476.080014,-9030.512492,1302.362347
1314.953291,7179.997637,-9548.656652,1225.752797
1314.953620,6735.874072,-9474.636058,1225.752797
1314.953949,5625.565159,-8808.450710,536.266849
1314.954278,5255.462188,-7105.977043,-153.219100
1314.954607,5773.606348,-5995.668130,-306.438199
1314.954936,7179.997637,-4811.338623,306.438199
1314.955265,7846.182985,-3923.091493,995.924147
1314.955594,7698.141797,-3849.070898,689.485948
1314.955924,7254.018232,-4589.276840,1149.143247
1314.956253,7105.977043,-5403.503377,2068.457845
1314.956582,6883.915261,-6587.832884,1072.533697
1314.956911,6735.874072,-6587.832884,1608.800546
1314.957240,6587.832884,-8068.244768,1532.190996
1314.957569,7254.018232,-10140.821405,995.924147
1314.957898,5921.647536,-10658.965565,1532.190996
1314.958228,5255.462188,-10436.903782,1072.533697
1314.958557,5699.585753,-7772.162391,689.485948
1314.958886,6069.688724,-6661.853478,229.828649
1314.959215,7031.956449,-5847.626942,612.876398
1314.959544,7920.203579,-3775.050304,919.314598
1314.959873,8882.471304,-3108.864956,842.705048
1314.960202,9104.533087,-2368.659014,1302.362347
1314.960531,8808.450710,-3701.029710,1838.629195
1314.960861,8290.306550,-4737.318029,1762.019645
1314.961190,7254.018232,-5699.585753,1378.971896
1314.961519,6735.874072,-6957.935855,1072.533697
1314.961848,7105.977043,-8068.244768,1378.971896
1314.962177,7254.018232,-10436.903782,1915.238745
1314.962506,6587.832884,-10584.944971,1608.800546
1314.962835,5773.606348,-9252.574275,766.095498
1314.963164,5773.606348,-7624.121203,0.000000
1314.963494,5403.503377,-7105.977043,0.000000
1314.963823,5995.668130,-6661.853478,766.095498
1314.964152,7105.977043,-5551.544565,766.095498
1314.964481,7772.162391,-4145.153275,1149.143247
1314.964810,8142.265362,-4071.132681,919.314598
1314.965139,8216.285956,-4811.338623,2068.457845
1314.965468,7772.162391,-6069.688724,1915.238745
1314.965797,7031.956449,-6217.729913,1149.143247
1314.966127,6217.729913,-6291.750507,612.876398
1314.966456,6217.729913,-8512.368333,689.485948
1314.966785,6439.791695,-10140.821405,1225.752797
1314.967114,5551.544565,-10658.965565,1608.800546
1314.967443,5477.523971,-9844.739029,536.266849
1314.967772,5995.668130,-7179.997637,766.095498
1314.968101,7105.977043,-5773.606348,383.047749
1314.968430,7328.038826,-4737.318029,1225.752797
1314.968760,8290.306550,-3775.050304,1072.533697
1314.969089,8882.471304,-2664.741391,1225.752797
1314.969418,8660.409521,-2516.700203,1685.410096
1314.969747,8660.409521,-2886.803174,1915.238745
1314.970076,8290.306550,-4293.194464,1532.190996
1314.970405,7105.977043,-5329.482782,1455.581446
1314.970734,6587.832884,-6735.874072,995.924147
1314.971064,6809.894666,-8882.471304,1225.752797
1314.971393,6809.894666,-9844.739029,1991.848295
1314.971722,5699.585753,-10288.862594,1149.143247
1314.972051,5033.400406,-9326.594869,229.828649
1314.972380,4959.379811,-8808.450710,0.000000
1314.972709,5551.544565,-7105.977043,766.095498
1314.973038,6661.853478,-5699.585753,76.609550
1314.973367,7550.100608,-4663.297435,383.047749
1314.973697,7105.977043,-3997.112087,306.438199
1314.974026,7920.203579,-4367.215058,1302.362347
1314.974355,8882.471304,-5329.482782,2068.457845
1314.974684,7772.162391,-5699.585753,1378.971896
1314.975013,6883.915261,-5995.668130,995.924147
1314.975342,6069.688724,-7105.977043,842.705048
1314.975671,5847.626942,-10658.965565,1149.143247
1314.976000,5847.626942,-10881.027347,1149.143247
1314.976330,5403.503377,-10510.924376,1455.581446
1314.976659,6365.771101,-8660.409521,766.095498
1314.976988,7772.162391,-5699.585753,1378.971896
1314.977317,8660.409521,-4885.359217,1915.238745
1314.977646,8956.491898,-3627.009116,612.876398
1314.977975,7846.182985,-2960.823768,612.876398
1314.978304,7105.977043,-2590.720797,383.047749
1314.978633,6883.915261,-3923.091493,919.314598
1314.978963,7698.141797,-4515.256246,2298.286494
1314.979292,7624.121203,-6217.729913,2145.067394
1314.979621,7179.997637,-6365.771101,1532.190996
1314.979950,7105.977043,-6439.791695,1302.362347
1314.980279,7624.121203,-8216.285956,995.924147
1314.980608,6957.935855,-9622.677246,1378.971896
1314.980937,5995.668130,-9844.739029,842.705048
1314.981266,5329.482782,-9326.594869,-76.609550
1314.981596,5477.523971,-7476.080014,76.609550
1314.981925,6513.812290,-7031.956449,306.438199
1314.982254,7105.977043,-5699.585753,842.705048
1314.982583,7772.162391,-4737.318029,995.924147
1314.982912,8216.285956,-4441.235652,766.095498
1314.983241,7624.121203,-4071.132681,919.314598
1314.983570,7254.018232,-5847.626942,1915.238745
1314.983900,6661.853478,-5995.668130,1149.143247
1314.984229,5551.544565,-7031.956449,536.266849
1314.984558,5477.523971,-8660.409521,689.485948
1314.984887,6143.709319,-10362.883188,1608.800546
1314.985216,6735.874072,-10436.903782,1762.019645
1314.985545,6513.812290,-9326.594869,1225.752797
1314.985874,5995.668130,-7476.080014,612.876398
1314.986203,6513.812290,-5995.668130,229.828649
1314.986533,6735.874072,-4737.318029,229.828649
1314.986862,7698.141797,-3849.070898,842.705048
1314.987191,7994.224174,-3775.050304,1072.533697
1314.987520,8364.327145,-3701.029710,766.095498
1314.987849,7402.059420,-4441.235652,1685.410096
1314.988178,7772.162391,-4959.379811,1532.190996
1314.988507,7624.121203,-5255.462188,1149.143247
1314.988836,7254.018232,-5773.606348,612.876398
1314.989166,6883.915261,-7254.018232,689.485948
1314.989495,7624.121203,-9696.697840,1225.752797
1314.989824,6661.853478,-10584.944971,1378.971896
1314.990153,6217.729913,-9474.636058,842.705048
1314.990482,5625.565159,-8142.265362,306.438199
1314.990811,6069.688724,-6365.771101,229.828649
1314.991140,7105.977043,-5921.647536,0.000000
1314.991469,7698.141797,-4663.297435,842.705048
1314.991799,7920.203579,-3849.070898,536.266849
1314.992128,7328.038826,-3997.112087,536.266849
1314.992457,7105.977043,-5033.400406,1915.238745
1314.992786,7254.018232,-5995.668130,1838.629195
1314.993115,6883.915261,-7402.059420,1532.190996
1314.993444,6217.729913,-7624.121203,1302.362347
1314.993773,6217.729913,-8882.471304,995.924147
1314.994102,6809.894666,-9992.780217,995.924147
1314.994432,6143.709319,-9770.718434,1455.581446
1314.994761,5995.668130,-9030.512492,995.924147
1314.995090,6587.832884,-7476.080014,766.095498
1314.995419,6513.812290,-4811.338623,689.485948
1314.995748,7328.038826,-4145.153275,766.095498
1314.996077,7920.203579,-3404.947333,1072.533697
1314.996406,8586.388927,-2738.761985,1302.362347
1314.996736,8512.368333,-3923.091493,1608.800546
1314.997065,8808.450710,-4071.132681,2528.115143
1314.997394,8734.430116,-5107.421000,1455.581446
1314.997723,7179.997637,-5699.585753,1378.971896
1314.998052,6291.750507,-7105.977043,995.924147
1314.998381,6513.812290,-9400.615463,1149.143247
1314.998710,6809.894666,-10140.821405,1302.362347
1314.999039,6587.832884,-9770.718434,1762.019645
1314.999369,6365.771101,-8364.327145,995.924147
1314.999698,6143.709319,-7624.121203,76.609550
1315.000027,5699.585753,-6661.853478,0.000000
1315.000356,5625.565159,-5551.544565,0.000000
1315.000685,6883.915261,-4959.379811,689.485948
1315.001014,7328.038826,-4737.318029,1225.752797
1315.001343,7846.182985,-5625.565159,1532.190996
1315.001672,8216.285956,-4959.379811,1378.971896
1315.002002,7254.018232,-5921.647536,1302.362347
1315.002331,6809.894666,-6735.874072,919.314598
1315.002660,6365.771101,-7624.121203,919.314598
1315.002989,6513.812290,-9474.636058,1149.143247
1315.003318,6513.812290,-9770.718434,1455.581446
1315.003647,5847.626942,-9548.656652,1455.581446
1315.003976,5477.523971,-8216.285956,229.828649
1315.004305,6143.709319,-6809.894666,459.657299
1315.004635,7328.038826,-5477.523971,1072.533697
1315.004964,8290.306550,-3849.070898,1149.143247
1315.005293,8438.347739,-3108.864956,1072.533697
1315.005622,8290.306550,-3330.926739,1302.362347
1315.005951,8364.327145,-3923.091493,1838.629195
1315.006280,8290.306550,-4737.318029,2145.067394
1315.006609,7550.100608,-4515.256246,1532.190996
1315.006938,7328.038826,-5995.668130,1302.362347
1315.007268,7328.038826,-7254.018232,1532.190996
1315.007597,7105.977043,-8882.471304,1685.410096
1315.007926,6735.874072,-9622.677246,1532.190996
1315.008255,6439.791695,-9178.553681,1225.752797
1315.008584,5551.544565,-8068.244768,0.000000
1315.008913,4959.379811,-7179.997637,0.000000
1315.009242,5699.585753,-6291.750507,0.000000
1315.009572,6661.853478,-5625.565159,383.047749
1315.009901,7105.977043,-4441.235652,612.876398
1315.010230,7105.977043,-5107.421000,919.314598
1315.010559,7698.141797,-5403.503377,842.705048
1315.010888,7994.224174,-5921.647536,1608.800546
1315.011217,7105.977043,-6365.771101,1149.143247
1315.011546,6439.791695,-7179.997637,766.095498
1315.011875,6513.812290,-8882.471304,766.095498
1315.012205,6365.771101,-10362.883188,1072.533697
1315.012534,5625.565159,-9918.759623,842.705048
1315.012863,5329.482782,-9178.553681,612.876398
1315.013192,6069.688724,-7920.203579,306.438199
1315.013521,6439.791695,-6143.709319,536.266849
1315.013850,7402.059420,-4441.235652,766.095498
1315.014179,8438.347739,-3330.926739,612.876398
1315.014508,8364.327145,-2886.803174,1072.533697
1315.014838,8142.265362,-3478.967927,1608.800546
1315.015167,8364.327145,-4515.256246,1991.848295
1315.015496,8438.347739,-4589.276840,2451.505594
1315.015825,8068.244768,-5329.482782,1762.019645
1315.016154,7328.038826,-6365.771101,1302.362347
1315.016483,7179.997637,-7476.080014,1455.581446
1315.016812,6439.791695,-9178.553681,919.314598
1315.017141,6365.771101,-9918.759623,1378.971896
1315.017471,5551.544565,-9252.574275,306.438199
1315.017800,5403.503377,-8290.306550,229.828649
1315.018129,6365.771101,-6217.729913,-76.609550
1315.018458,6809.894666,-5477.523971,0.000000
1315.018787,7550.100608,-4811.338623,536.266849
1315.019116,7920.203579,-4367.215058,842.705048
1315.019445,8290.306550,-4145.153275,1225.752797
1315.019774,8512.368333,-4959.379811,1225.752797
1315.020104,7254.018232,-6513.812290,1838.629195
1315.020433,6809.894666,-6957.935855,1225.752797
1315.020762,6217.729913,-7920.203579,995.924147
1315.021091,5477.523971,-9400.615463,1762.019645
1315.021420,5625.565159,-10510.924376,1608.800546
1315.021749,5625.565159,-9400.615463,842.705048
1315.022078,5033.400406,-9030.512492,612.876398
1315.022408,5329.482782,-7031.956449,383.047749
1315.022737,6883.915261,-5181.441594,306.438199
1315.023066,7179.997637,-4071.132681,612.876398
1315.023395,8068.244768,-3182.885551,689.485948
1315.023724,8364.327145,-2442.679609,1685.410096
1315.024053,8956.491898,-3627.009116,1685.410096
1315.024382,8364.327145,-4663.297435,2451.505594
1315.024711,8438.347739,-5107.421000,1991.848295
1315.025041,7550.100608,-5329.482782,919.314598
1315.025370,6809.894666,-7179.997637,919.314598
1315.025699,6291.750507,-8586.388927,1455.581446
1315.026028,5995.668130,-10288.862594,1225.752797
1315.026357,5921.647536,-9992.780217,1378.971896
1315.026686,5847.626942,-8364.327145,383.047749
1315.027015,5995.668130,-7402.059420,229.828649
1315.027344,6291.750507,-5107.421000,842.705048
1315.027674,7550.100608,-4811.338623,842.705048
1315.028003,8512.368333,-3701.029710,995.924147
1315.028332,8216.285956,-3256.906145,1072.533697
1315.028661,7846.182985,-4811.338623,1991.848295
1315.028990,7105.977043,-6365.771101,1838.629195
1315.029319,6587.832884,-7105.977043,1762.019645
1315.029648,6143.709319,-8068.244768,689.485948
1315.029977,5033.400406,-9252.574275,1225.752797
1315.030307,4885.359217,-11251.130318,1838.629195
1315.030636,5033.400406,-11251.130318,1149.143247
1315.030965,5033.400406,-9474.636058,612.876398
1315.031294,5625.565159,-7698.141797,229.828649
1315.031623,7105.977043,-6957.935855,842.705048
1315.031952,7698.141797,-4441.235652,689.485948
1315.032281,8512.368333,-3627.009116,995.924147
1315.032610,9252.574275,-2516.700203,995.924147
1315.032940,8956.491898,-2516.700203,1072.533697
1315.033269,8290.306550,-4293.194464,1455.581446
1315.033598,8438.347739,-5033.400406,2221.676944
1315.033927,7402.059420,-5181.441594,459.657299
1315.034256,6143.709319,-6513.812290,306.438199
1315.034585,6365.771101,-8290.306550,1225.752797
1315.034914,7105.977043,-9992.780217,1685.410096
1315.035244,6587.832884,-10140.821405,1608.800546
1315.035573,5847.626942,-8882.471304,1302.362347
1315.035902,5995.668130,-7624.121203,689.485948
1315.036231,6513.812290,-5699.585753,842.705048
1315.036560,7105.977043,-4367.215058,919.314598
1315.036889,7254.018232,-3478.967927,383.047749
1315.037218,7994.224174,-3701.029710,1149.143247
1315.037547,8586.388927,-3997.112087,1455.581446
1315.037877,8364.327145,-5329.482782,1991.848295
1315.038206,7179.997637,-5995.668130,1608.800546
1315.038535,6217.729913,-6587.832884,536.266849
1315.038864,5033.400406,-8290.306550,0.000000
1315.039193,5181.441594,-9770.718434,612.876398
1315.039522,5033.400406,-11621.233289,1378.971896
1315.039851,6069.688724,-11251.130318,1225.752797
1315.040180,5773.606348,-9770.718434,689.485948
1315.040510,5921.647536,-7994.224174,536.266849
1315.040839,6587.832884,-6587.832884,229.828649
1315.041168,7105.977043,-4219.173869,306.438199
1315.041497,8142.265362,-2590.720797,919.314598
1315.041826,9400.615463,-2294.638420,1302.362347
1315.042155,10066.800811,-1702.473667,1915.238745
1315.042484,9770.718434,-3034.844362,1838.629195
1315.042813,8660.409521,-3849.070898,1455.581446
1315.043143,7179.997637,-4811.338623,995.924147
1315.043472,6217.729913,-7105.977043,383.047749
1315.043801,6143.709319,-8438.347739,1762.019645
1315.044130,6365.771101,-10658.965565,1608.800546
1315.044459,6365.771101,-10584.944971,1302.362347
1315.044788,6217.729913,-9104.533087,1072.533697
1315.045117,6069.688724,-8068.244768,536.266849
1315.045446,6217.729913,-5847.626942,919.314598
1315.045776,6291.750507,-5625.565159,306.438199
1315.046105,7328.038826,-4515.256246,536.266849
1315.046434,7920.203579,-3849.070898,919.314598
1315.046763,8290.306550,-4515.256246,1532.190996
1315.047092,8882.471304,-4737.318029,1838.629195
1315.047421,7920.203579,-5847.626942,1685.410096
1315.047750,6957.935855,-6809.894666,306.438199
1315.048080,6069.688724,-8068.244768,612.876398
1315.048409,5329.482782,-9696.697840,612.876398
1315.048738,5107.421000,-11695.253884,612.876398
1315.049067,4885.359217,-11177.109724,995.924147
1315.049396,5107.421000,-9770.718434,919.314598
1315.049725,6069.688724,-7846.182985,536.266849
1315.050054,7105.977043,-5699.585753,766.095498
1315.050383,7179.997637,-4145.153275,459.657299
1315.050713,8290.306550,-2738.761985,689.485948
1315.051042,9474.636058,-2886.803174,1915.238745
1315.051371,9992.780217,-2886.803174,2221.676944
1315.051700,8660.409521,-3997.112087,2451.505594
1315.052029,7994.224174,-4515.256246,1455.581446
1315.052359,7105.977043,-5329.482782,766.095498
1315.052688,6957.935855,-6809.894666,1072.533697
1315.053017,6883.915261,-9030.512492,1608.800546
1315.053346,6809.894666,-10436.903782,1378.971896
1315.053676,6143.709319,-10066.800811,1685.410096
1315.054005,5329.482782,-8734.430116,383.047749
1315.054334,5699.585753,-7105.977043,153.219100
1315.054663,5995.668130,-5699.585753,306.438199
1315.054993,6957.935855,-4959.379811,0.000000
1315.055322,7698.141797,-4219.173869,1149.143247
1315.055651,8660.409521,-3627.009116,1532.190996
1315.055980,8660.409521,-4441.235652,1991.848295
1315.056310,7772.162391,-5033.400406,1685.410096
1315.056639,6661.853478,-5995.668130,766.095498
1315.056968,5255.462188,-6883.915261,459.657299
1315.057297,4737.318029,-8586.388927,459.657299
1315.057627,5773.606348,-10362.883188,1608.800546
1315.057956,5921.647536,-11103.089130,1378.971896
1315.058285,5625.565159,-10288.862594,995.924147
1315.058614,5181.441594,-8660.409521,383.047749
1315.058944,5181.441594,-6661.853478,0.000000
1315.059273,6143.709319,-5995.668130,612.876398
1315.059602,7698.141797,-4293.194464,689.485948
1315.059932,8882.471304,-3404.947333,1149.143247
1315.060261,9474.636058,-3256.906145,1455.581446
1315.060590,9400.615463,-4367.215058,1762.019645
1315.060919,8586.388927,-4663.297435,2068.457845
1315.061249,7846.182985,-4589.276840,1685.410096
1315.061578,7179.997637,-5477.523971,612.876398
1315.061907,6735.874072,-6809.894666,1149.143247
1315.062236,6735.874072,-8956.491898,919.314598
1315.062566,6735.874072,-9844.739029,1608.800546
1315.062895,6587.832884,-9104.533087,1302.362347
1315.063224,6217.729913,-7179.997637,536.266849
1315.063553,6365.771101,-5995.668130,612.876398
1315.063883,7105.977043,-5847.626942,689.485948
1315.064212,8216.285956,-4885.359217,1302.362347
1315.064541,8660.409521,-4071.132681,1685.410096
1315.064870,8512.368333,-3627.009116,1455.581446
1315.065200,7846.182985,-4737.318029,1455.581446
1315.065529,6883.915261,-6513.812290,1302.362347
1315.065858,6143.709319,-6809.894666,1072.533697
1315.066187,5329.482782,-7698.141797,612.876398
1315.066517,5995.668130,-8882.471304,1455.581446
1315.066846,5995.668130,-10066.800811,1302.362347
1315.067175,5921.647536,-10288.862594,1302.362347
1315.067504,4885.359217,-9030.512492,459.657299
1315.067834,4589.276840,-8068.244768,-229.828649
1315.068163,5699.585753,-6809.894666,0.000000
1315.068492,6365.771101,-5329.482782,153.219100
1315.068821,8142.265362,-4293.194464,1072.533697
1315.069151,9474.636058,-3775.050304,1762.019645
1315.069480,9622.677246,-3849.070898,2221.676944
1315.069809,9326.594869,-4219.173869,1915.238745
1315.070138,8290.306550,-3997.112087,1455.581446
1315.070468,7476.080014,-4885.359217,842.705048
1315.070797,7179.997637,-5773.606348,919.314598
1315.071126,7105.977043,-7846.182985,2068.457845
1315.071455,7772.162391,-9326.594869,1991.848295
1315.071785,7476.080014,-8808.450710,1915.238745
1315.072114,6439.791695,-7994.224174,842.705048
1315.072443,5625.565159,-7031.956449,919.314598
1315.072772,5033.400406,-6513.812290,229.828649
1315.073102,5699.585753,-6365.771101,229.828649
1315.073431,6587.832884,-4811.338623,612.876398
1315.073760,7254.018232,-4663.297435,919.314598
1315.074089,8068.244768,-4737.318029,1072.533697
1315.074419,7550.100608,-5921.647536,1838.629195
1315.074748,7105.977043,-6809.894666,1455.581446
1315.075077,6809.894666,-7105.977043,919.314598
1315.075406,6069.688724,-8142.265362,842.705048
1315.075736,5699.585753,-9770.718434,689.485948
1315.076065,6217.729913,-9992.780217,995.924147
1315.076394,5551.544565,-9548.656652,689.485948
1315.076723,5773.606348,-8068.244768,383.047749
1315.077053,6069.688724,-7179.997637,306.438199
1315.077382,6809.894666,-5699.585753,536.266849
1315.077711,7550.100608,-4663.297435,0.000000
1315.078040,7994.224174,-4071.132681,919.314598
1315.078370,8734.430116,-3627.009116,1225.752797
1315.078699,8660.409521,-3923.091493,1455.581446
1315.079028,7698.141797,-5329.482782,2145.067394
1315.079357,7105.977043,-5255.462188,1302.362347
1315.079687,5625.565159,-6217.729913,536.266849
1315.080016,6661.853478,-7254.018232,842.705048
1315.080345,7105.977043,-8808.450710,1991.848295
1315.080674,7179.997637,-9474.636058,1838.629195
1315.081004,6587.832884,-8290.306550,1532.190996
1315.081333,6365.771101,-6661.853478,306.438199
1315.081662,6439.791695,-6439.791695,459.657299
1315.081991,6735.874072,-5477.523971,306.438199
1315.082321,7846.182985,-4959.379811,842.705048
1315.082650,8512.368333,-3997.112087,995.924147
1315.082979,8512.368333,-3775.050304,1608.800546
1315.083309,7994.224174,-4663.297435,2068.457845
1315.083638,7772.162391,-5551.544565,1225.752797
1315.083967,6809.894666,-6735.874072,1072.533697
1315.084296,5773.606348,-7254.018232,612.876398
1315.084626,5181.441594,-9844.739029,1149.143247
1315.084955,5403.503377,-11399.171507,1072.533697
1315.085284,4737.318029,-10807.006753,1378.971896
1315.085613,4737.318029,-9548.656652,1072.533697
1315.085943,5181.441594,-7402.059420,229.828649
1315.086272,5773.606348,-6735.874072,1072.533697
1315.086601,7105.977043,-4885.359217,919.314598
1315.086930,7920.203579,-2960.823768,919.314598
1315.087260,8216.285956,-3552.988522,842.705048
1315.087589,8734.430116,-3034.844362,1608.800546
1315.087918,8956.491898,-4589.276840,1838.629195
1315.088247,8660.409521,-4885.359217,2221.676944
1315.088577,7179.997637,-4959.379811,1532.190996
1315.088906,6513.812290,-6365.771101,689.485948
1315.089235,6365.771101,-7698.141797,842.705048
1315.089564,6513.812290,-10066.800811,1991.848295
1315.089894,7031.956449,-10288.862594,1838.629195
1315.090223,6809.894666,-8290.306550,1225.752797
1315.090552,6069.688724,-7105.977043,612.876398
1315.090881,5699.585753,-5773.606348,229.828649
1315.091211,6883.915261,-5847.626942,306.438199
1315.091540,7328.038826,-4441.235652,459.657299
1315.091869,7920.203579,-3775.050304,1149.143247
1315.092198,8734.430116,-3627.009116,919.314598
1315.092528,8586.388927,-4959.379811,2145.067394
1315.092857,7920.203579,-6069.688724,1762.019645
1315.093186,7031.956449,-6365.771101,1072.533697
1315.093515,6291.750507,-7254.018232,536.266849
1315.093845,6143.709319,-9918.759623,1149.143247
1315.094174,5551.544565,-10436.903782,1762.019645
1315.094503,5255.462188,-10436.903782,1302.362347
1315.094832,5181.441594,-9252.574275,766.095498
1315.095162,5625.565159,-7476.080014,153.219100
1315.095491,6735.874072,-6513.812290,842.705048
1315.095820,7254.018232,-4293.194464,536.266849
1315.096149,7698.141797,-4071.132681,766.095498
1315.096479,7994.224174,-3701.029710,995.924147
1315.096808,7698.141797,-4737.318029,1149.143247
1315.097137,7772.162391,-5699.585753,1225.752797
1315.097466,7476.080014,-5403.503377,1302.362347
1315.097796,7105.977043,-6143.709319,459.657299
1315.098125,7031.956449,-7105.977043,995.924147
1315.098454,7402.059420,-8438.347739,1838.629195
1315.098783,7402.059420,-9696.697840,1838.629195
1315.099113,6809.894666,-8808.450710,1072.533697
1315.099442,5625.565159,-8068.244768,229.828649
1315.099771,6735.874072,-5995.668130,919.314598
1315.100100,7402.059420,-5699.585753,536.266849
1315.100430,8216.285956,-4515.256246,995.924147
1315.100759,8586.388927,-3552.988522,1455.581446
1315.101088,8586.388927,-3108.864956,1608.800546
1315.101417,7550.100608,-3404.947333,919.314598
1315.101747,6661.853478,-4811.338623,1532.190996
1315.102076,6661.853478,-6661.853478,1072.533697
1315.102405,5995.668130,-7254.018232,842.705048
1315.102734,5403.503377,-9474.636058,995.924147
1315.103064,6143.709319,-11251.130318,1378.971896
1315.103393,6069.688724,-10510.924376,1532.190996
1315.103722,5255.462188,-10214.842000,842.705048
1315.104051,4885.359217,-8660.409521,842.705048
1315.104381,5403.503377,-6513.812290,229.828649
1315.104710,6735.874072,-5329.482782,153.219100
1315.105039,7550.100608,-3627.009116,919.314598
1315.105368,8660.409521,-3701.029710,1378.971896
1315.105698,9400.615463,-2738.761985,612.876398
1315.106027,8660.409521,-3997.112087,1302.362347
1315.106356,7624.121203,-5329.482782,1608.800546
1315.106685,7105.977043,-5329.482782,842.705048
1315.107015,7031.956449,-6883.915261,766.095498
1315.107344,6661.853478,-8438.347739,1149.143247
1315.107673,6809.894666,-10288.862594,1762.019645
1315.108003,6883.915261,-9622.677246,1455.581446
1315.108332,6069.688724,-8660.409521,1149.143247
1315.108661,5847.626942,-7254.018232,612.876398
1315.108990,6439.791695,-6439.791695,842.705048
1315.109320,6735.874072,-5329.482782,689.485948
1315.109649,7105.977043,-4367.215058,842.705048
1315.109978,7624.121203,-5107.421000,1455.581446
1315.110307,8956.491898,-3034.844362,1915.238745
1315.110637,9178.553681,-4293.194464,1838.629195
1315.110966,8216.285956,-5847.626942,2145.067394
1315.111295,7476.080014,-5033.400406,995.924147
1315.111624,6513.812290,-7105.977043,689.485948
1315.111954,5551.544565,-8956.491898,536.266849
1315.112283,5107.421000,-9992.780217,919.314598
1315.112612,5181.441594,-10955.047942,919.314598
1315.112941,4959.379811,-9474.636058,459.657299
1315.113271,5921.647536,-7402.059420,536.266849
1315.113600,7031.956449,-6439.791695,76.609550
1315.113929,7920.203579,-4145.153275,536.266849
1315.114258,8734.430116,-3997.112087,1149.143247
1315.114588,8660.409521,-4219.173869,1072.533697
1315.114917,8734.430116,-3775.050304,1455.581446
1315.115246,7994.224174,-4959.379811,1915.238745
1315.115575,7920.203579,-5699.585753,1532.190996
1315.115905,6661.853478,-5699.585753,919.314598
1315.116234,6143.709319,-7476.080014,842.705048
1315.116563,6143.709319,-8142.265362,1455.581446
1315.116892,6661.853478,-9770.718434,1915.238745
1315.117222,6513.812290,-9030.512492,1608.800546
1315.117551,5477.523971,-8216.285956,766.095498
1315.117880,5033.400406,-6661.853478,306.438199
1315.118209,5699.585753,-5921.647536,0.000000
1315.118539,6735.874072,-5107.421000,0.000000
1315.118868,8142.265362,-3997.112087,919.314598
1315.119197,9030.512492,-4441.235652,1532.190996
1315.119526,10066.800811,-3923.091493,1762.019645
1315.119856,8660.409521,-4589.276840,2145.067394
1315.120185,8068.244768,-5181.441594,1685.410096
1315.120514,6883.915261,-6069.688724,919.314598
1315.120843,6217.729913,-7846.182985,383.047749
1315.121173,6069.688724,-9770.718434,1149.143247
1315.121502,5625.565159,-10362.883188,1072.533697
1315.121831,5255.462188,-10436.903782,1072.533697
1315.122160,5255.462188,-8808.450710,689.485948
1315.122490,5847.626942,-6365.771101,459.657299
1315.122819,6957.935855,-5625.565159,612.876398
1315.123148,7179.997637,-4293.194464,459.657299
1315.123477,7254.018232,-4071.132681,383.047749
1315.123807,7179.997637,-4737.318029,536.266849
1315.124136,7920.203579,-5699.585753,536.266849
1315.124465,7328.038826,-6439.791695,1455.581446
1315.124794,7254.018232,-6587.832884,1762.019645
1315.125124,7179.997637,-6957.935855,1838.629195
1315.125453,7105.977043,-7105.977043,1149.143247
1315.125782,7179.997637,-8216.285956,919.314598
1315.126111,6809.894666,-9104.533087,1455.581446
1315.126441,6661.853478,-8956.491898,842.705048
1315.126770,6143.709319,-7179.997637,766.095498
1315.127099,6439.791695,-6809.894666,229.828649
1315.127428,6735.874072,-5477.523971,76.609550
1315.127758,7402.059420,-4441.235652,383.047749
1315.128087,8068.244768,-4293.194464,1072.533697
1315.128416,9252.574275,-4441.235652,1685.410096
1315.128745,8438.347739,-4663.297435,1455.581446
1315.129075,7328.038826,-5477.523971,1532.190996
1315.129404,6661.853478,-6291.750507,919.314598
1315.129733,6513.812290,-7179.997637,1072.533697
1315.130062,6217.729913,-8660.409521,2145.067394
1315.130392,6291.750507,-9844.739029,2145.067394
1315.130721,6587.832884,-9030.512492,1608.800546
1315.131050,6365.771101,-7698.141797,1149.143247
1315.131379,5921.647536,-7031.956449,536.266849
1315.131709,5995.668130,-5699.585753,1149.143247
1315.132038,6661.853478,-5107.421000,383.047749
1315.132367,7624.121203,-3923.091493,689.485948
1315.132697,8290.306550,-4145.153275,995.924147
1315.133026,8512.368333,-4885.359217,1685.410096
1315.133355,8142.265362,-5773.606348,1532.190996
1315.133684,7105.977043,-6735.874072,1455.581446
1315.134014,6365.771101,-6439.791695,1225.752797
1315.134343,5773.606348,-7476.080014,306.438199
1315.134672,5699.585753,-8438.347739,536.266849
1315.135001,5255.462188,-10214.842000,1302.362347
1315.135331,5625.565159,-10584.944971,919.314598
1315.135660,5477.523971,-8290.306550,995.924147
1315.135989,6143.709319,-6957.935855,612.876398
1315.136318,7846.182985,-5181.441594,842.705048
1315.136648,8068.244768,-4219.173869,1225.752797
1315.136977,9030.512492,-3701.029710,1072.533697
1315.137306,9178.553681,-3034.844362,1072.533697
1315.137635,9400.615463,-3552.988522,2145.067394
1315.137965,8438.347739,-4145.153275,1685.410096
1315.138294,7550.100608,-5995.668130,1225.752797
1315.138623,6735.874072,-7328.038826,1378.971896
1315.138952,5921.647536,-7698.141797,1302.362347
1315.139282,5847.626942,-9474.636058,766.095498
1315.139611,5403.503377,-9622.677246,1302.362347
1315.139940,5107.421000,-9474.636058,1072.533697
1315.140269,5329.482782,-8808.450710,459.657299
1315.140599,6365.771101,-6439.791695,919.314598
1315.140928,6809.894666,-6291.750507,153.219100
1315.141257,7994.224174,-3997.112087,919.314598
1315.141586,8438.347739,-3330.926739,1302.362347
1315.141916,8808.450710,-4293.194464,1072.533697
1315.142245,8734.430116,-3923.091493,1762.019645
1315.142574,7402.059420,-5847.626942,1302.362347
1315.142903,7402.059420,-5847.626942,1225.752797
1315.143233,7105.977043,-6069.688724,536.266849
1315.143562,7031.956449,-7476.080014,536.266849
1315.143891,6809.894666,-9104.533087,995.924147
1315.144220,6069.688724,-10066.800811,1532.190996
1315.144550,5625.565159,-9622.677246,766.095498
1315.144879,5403.503377,-8660.409521,306.438199
1315.145208,5921.647536,-6661.853478,383.047749
1315.145537,6513.812290,-6143.709319,0.000000
1315.145867,7105.977043,-5403.503377,995.924147
1315.146196,7624.121203,-4737.318029,766.095498
1315.146525,8438.347739,-4293.194464,995.924147
1315.146854,8290.306550,-3775.050304,1608.800546
1315.147184,7846.182985,-5255.462188,1455.581446
1315.147513,7179.997637,-6587.832884,1225.752797
1315.147842,6661.853478,-6661.853478,1072.533697
1315.148171,6587.832884,-8142.265362,842.705048
1315.148501,6291.750507,-9030.512492,1378.971896
1315.148830,6069.688724,-9326.594869,1302.362347
1315.149159,5625.565159,-9474.636058,229.828649
1315.149488,6217.729913,-7698.141797,306.438199
1315.149818,6513.812290,-6291.750507,229.828649
1315.150147,7254.018232,-4811.338623,536.266849
1315.150476,7994.224174,-3997.112087,536.266849
1315.150805,8586.388927,-3775.050304,766.095498
1315.151135,8438.347739,-4219.173869,1762.019645
1315.151464,8438.347739,-4959.379811,1838.629195
1315.151793,7846.182985,-5921.647536,2298.286494
1315.152122,7402.059420,-5847.626942,1455.581446
1315.152452,6661.853478,-6217.729913,1225.752797
1315.152781,6957.935855,-6883.915261,919.314598
1315.153110,6957.935855,-8882.471304,1378.971896
1315.153436,6513.812290,-8882.471304,1455.581446
1315.153765,5921.647536,-8956.491898,612.876398
1315.154094,5477.523971,-7846.182985,229.828649
1315.154423,6069.688724,-6513.812290,153.219100
1315.154752,7031.956449,-6217.729913,536.266849
1315.155081,7624.121203,-4959.379811,919.314598
1315.155410,8438.347739,-4071.132681,919.314598
1315.155740,8586.388927,-3997.112087,995.924147
1315.156069,8142.265362,-4737.318029,1762.019645
1315.156398,7328.038826,-6439.791695,1225.752797
1315.156727,7031.956449,-6587.832884,1608.800546
1315.157056,6439.791695,-7105.977043,612.876398
1315.157385,5995.668130,-8882.471304,919.314598
1315.157714,6217.729913,-9400.615463,1685.410096
1315.158043,6217.729913,-10140.821405,1072.533697
1315.158372,6217.729913,-8438.347739,1378.971896
1315.158702,6143.709319,-6217.729913,689.485948
1315.159031,6661.853478,-4959.379811,766.095498
1315.159360,7994.224174,-4219.173869,919.314598
1315.159689,8512.368333,-3552.988522,1225.752797
1315.160018,7846.182985,-3701.029710,536.266849
1315.160347,7402.059420,-4367.215058,1225.752797
1315.160676,7179.997637,-5625.565159,1608.800546
1315.161005,7179.997637,-6587.832884,1378.971896
1315.161334,7105.977043,-6513.812290,1762.019645
1315.161663,6661.853478,-7624.121203,1225.752797
1315.161993,7328.038826,-8660.409521,995.924147
1315.162322,6143.709319,-9252.574275,1072.533697
1315.162651,5329.482782,-9992.780217,536.266849
1315.162980,5107.421000,-8660.409521,0.000000
1315.163309,5329.482782,-8068.244768,612.876398
1315.163638,6069.688724,-6587.832884,536.266849
1315.163967,7254.018232,-4811.338623,536.266849
1315.164296,8438.347739,-3923.091493,1149.143247
1315.164625,8882.471304,-3404.947333,1225.752797
1315.164955,8364.327145,-4293.194464,2068.457845
1315.165284,8290.306550,-4737.318029,1762.019645
1315.165613,7402.059420,-5773.606348,1072.533697
1315.165942,6217.729913,-7254.018232,1149.143247
1315.166271,6069.688724,-8290.306550,995.924147
1315.166600,6217.729913,-9770.718434,1302.362347
1315.166929,5995.668130,-9918.759623,1762.019645
1315.167258,5773.606348,-8734.430116,1225.752797
1315.167587,5773.606348,-7846.182985,766.095498
1315.167916,5773.606348,-6587.832884,1149.143247
1315.168246,5921.647536,-5329.482782,459.657299
1315.168575,7254.018232,-4441.235652,612.876398
1315.168904,8290.306550,-3478.967927,1302.362347
1315.169233,8586.388927,-4663.297435,1225.752797
1315.169562,8808.450710,-4515.256246,1302.362347
1315.169891,8068.244768,-5403.503377,1685.410096
1315.170220,7328.038826,-5773.606348,919.314598
1315.170549,6957.935855,-5921.647536,842.705048
1315.170878,6439.791695,-7550.100608,1225.752797
1315.171208,7031.956449,-9844.739029,1762.019645
1315.171537,6069.688724,-9992.780217,1225.752797
1315.171866,5329.482782,-9178.553681,536.266849
1315.172195,4959.379811,-8364.327145,153.219100
1315.172524,5625.565159,-7105.977043,383.047749
1315.172853,6587.832884,-5329.482782,76.609550
1315.173182,7624.121203,-4589.276840,306.438199
1315.173511,8290.306550,-3701.029710,919.314598
1315.173840,9252.574275,-4293.194464,1149.143247
1315.174170,8512.368333,-4737.318029,1915.238745
1315.174499,7698.141797,-5403.503377,1225.752797
1315.174828,7328.038826,-6883.915261,1608.800546
1315.175157,6735.874072,-7846.182985,1302.362347
1315.175486,6513.812290,-9030.512492,1608.800546
1315.175815,6143.709319,-10066.800811,1302.362347
1315.176144,5699.585753,-9770.718434,1608.800546
1315.176473,5625.565159,-9104.533087,766.095498
1315.176802,5625.565159,-7624.121203,459.657299
1315.177131,6069.688724,-6143.709319,383.047749
1315.177461,6587.832884,-5255.462188,229.828649
1315.177790,7328.038826,-3256.906145,536.266849
1315.178119,8216.285956,-3552.988522,766.095498
1315.178448,8882.471304,-3330.926739,1608.800546
1315.178777,8734.430116,-3775.050304,2068.457845
1315.179106,8882.471304,-5033.400406,1532.190996
1315.179435,7994.224174,-5403.503377,1378.971896
1315.179764,6883.915261,-6513.812290,1072.533697
1315.180093,7031.956449,-8438.347739,689.485948
1315.180423,6439.791695,-9844.739029,1455.581446
1315.180752,6069.688724,-9992.780217,1072.533697
1315.181081,5921.647536,-9474.636058,1302.362347
1315.181410,5995.668130,-7846.182985,1302.362347
1315.181739,6735.874072,-6365.771101,689.485948
1315.182068,6587.832884,-4885.359217,76.609550
1315.182397,6735.874072,-4441.235652,0.000000
1315.182726,7698.141797,-3701.029710,842.705048
1315.183055,8216.285956,-4145.153275,1685.410096
1315.183385,8142.265362,-5033.400406,2068.457845
1315.183714,7698.141797,-5329.482782,995.924147
1315.184043,6735.874072,-6365.771101,689.485948
1315.184372,5995.668130,-7772.162391,842.705048
1315.184701,5773.606348,-9326.594869,536.266849
1315.185030,5033.400406,-10807.006753,1532.190996
1315.185359,5107.421000,-10658.965565,689.485948
1315.185688,5033.400406,-10214.842000,919.314598
1315.186017,6365.771101,-7476.080014,842.705048
1315.186346,7179.997637,-6291.750507,842.705048
1315.186676,7624.121203,-3849.070898,612.876398
1315.187005,8142.265362,-2664.741391,689.485948
1315.187334,8808.450710,-3256.906145,612.876398
1315.187663,8956.491898,-3256.906145,1149.143247
1315.187992,8216.285956,-4737.318029,1685.410096
1315.188321,8290.306550,-5551.544565,1455.581446
1315.188650,7624.121203,-5921.647536,1302.362347
1315.188979,6809.894666,-7476.080014,1532.190996
1315.189308,6143.709319,-9252.574275,1302.362347
1315.189638,6217.729913,-10362.883188,1838.629195
1315.189967,6069.688724,-9918.759623,1455.581446
1315.190296,5773.606348,-8956.491898,689.485948
1315.190625,6513.812290,-7402.059420,919.314598
1315.190954,6957.935855,-6217.729913,229.828649
1315.191283,7105.977043,-4589.276840,536.266849
1315.191612,7624.121203,-3701.029710,383.047749
1315.191941,8364.327145,-3849.070898,536.266849
1315.192270,7994.224174,-4071.132681,1915.238745
1315.192600,7476.080014,-4811.338623,1838.629195
1315.192929,7105.977043,-5773.606348,995.924147
1315.193258,5995.668130,-6587.832884,612.876398
1315.193587,5773.606348,-8586.388927,612.876398
1315.193916,5921.647536,-10510.924376,1378.971896
1315.194245,6513.812290,-10732.986159,1762.019645
1315.194574,6143.709319,-10214.842000,1378.971896
1315.194903,5773.606348,-8068.244768,1149.143247
1315.195232,6439.791695,-6735.874072,1072.533697
1315.195561,6957.935855,-5847.626942,306.438199
1315.195891,7624.121203,-3849.070898,1072.533697
1315.196220,8068.244768,-3849.070898,995.924147
1315.196549,8734.430116,-3108.864956,995.924147
1315.196878,7994.224174,-4293.194464,1762.019645
1315.197207,7772.162391,-5255.462188,1762.019645
1315.197536,7476.080014,-5255.462188,1685.410096
1315.197865,6587.832884,-5773.606348,1149.143247
1315.198194,6513.812290,-8068.244768,612.876398
1315.198523,6439.791695,-9326.594869,1455.581446
1315.198853,6513.812290,-9992.780217,1532.190996
1315.199182,6143.709319,-9770.718434,842.705048
1315.199511,5773.606348,-8586.388927,612.876398
1315.199840,6217.729913,-6735.874072,612.876398
1315.200169,6513.812290,-5699.585753,76.609550
1315.200498,6957.935855,-4959.379811,229.828649
1315.200827,7772.162391,-4663.297435,995.924147
1315.201156,8512.368333,-4293.194464,1378.971896
1315.201485,8216.285956,-4515.256246,1915.238745
1315.201815,7328.038826,-5181.441594,1149.143247
1315.202144,6957.935855,-5847.626942,383.047749
1315.202473,6143.709319,-6661.853478,612.876398
1315.202802,5847.626942,-8586.388927,842.705048
1315.203131,6439.791695,-9770.718434,1225.752797
1315.203460,6735.874072,-9622.677246,1532.190996
1315.203789,6365.771101,-9030.512492,995.924147
1315.204118,5921.647536,-7402.059420,1455.581446
1315.204447,6439.791695,-6291.750507,1149.143247
1315.204776,7031.956449,-5403.503377,306.438199
1315.205106,7698.141797,-3775.050304,842.705048
1315.205435,8808.450710,-3701.029710,1378.971896
1315.205764,8808.450710,-3404.947333,1608.800546
1315.206093,7772.162391,-4663.297435,1532.190996
1315.206422,7402.059420,-5181.441594,1455.581446
1315.206751,7105.977043,-5699.585753,1072.533697
1315.207080,6883.915261,-6069.688724,1149.143247
1315.207409,7105.977043,-7254.018232,1072.533697
1315.207738,7105.977043,-9474.636058,2451.505594
1315.208068,7476.080014,-9178.553681,1838.629195
1315.208397,6439.791695,-8586.388927,766.095498
1315.208726,5847.626942,-7476.080014,229.828649
1315.209055,6069.688724,-7031.956449,0.000000
1315.209384,6735.874072,-5773.606348,153.219100
1315.209713,7328.038826,-5699.585753,995.924147
1315.210042,8512.368333,-4663.297435,1532.190996
1315.210371,9030.512492,-4663.297435,1838.629195
1315.210700,7772.162391,-5403.503377,1532.190996
1315.211029,6587.832884,-5255.462188,766.095498
1315.211359,6217.729913,-6217.729913,383.047749
1315.211688,5551.544565,-7476.080014,612.876398
1315.212017,6217.729913,-9252.574275,1302.362347
1315.212346,6439.791695,-9770.718434,1762.019645
1315.212675,6587.832884,-9104.533087,1915.238745
1315.213004,5921.647536,-8808.450710,536.266849
1315.213333,5033.400406,-7179.997637,536.266849
1315.213662,5107.421000,-7476.080014,229.828649
1315.213991,6513.812290,-5403.503377,76.609550
1315.214321,7328.038826,-4219.173869,766.095498
1315.214650,7698.141797,-4293.194464,1149.143247
1315.214979,9104.533087,-4145.153275,1762.019645
1315.215308,8290.306550,-4219.173869,1608.800546
1315.215637,7550.100608,-4885.359217,229.828649
1315.215966,7254.018232,-5403.503377,919.314598
1315.216295,6957.935855,-6735.874072,1608.800546
1315.216624,7105.977043,-8364.327145,1378.971896
1315.216953,7328.038826,-9252.574275,1915.238745
1315.217283,6735.874072,-8956.491898,1455.581446
1315.217612,5921.647536,-7920.203579,842.705048
1315.217941,6143.709319,-7105.977043,612.876398
1315.218270,6365.771101,-6143.709319,383.047749
1315.218599,6883.915261,-5477.523971,536.266849
1315.218928,6809.894666,-5477.523971,995.924147
1315.219257,7105.977043,-5255.462188,919.314598
1315.219586,7476.080014,-5403.503377,995.924147
1315.219915,7254.018232,-5625.565159,1838.629195
1315.220244,6957.935855,-7105.977043,1225.752797
1315.220574,6439.791695,-6291.750507,689.485948
1315.220903,6217.729913,-7994.224174,919.314598
1315.221232,6587.832884,-9992.780217,1762.019645
1315.221561,6439.791695,-9474.636058,1455.581446
1315.221890,6439.791695,-9030.512492,1302.362347
1315.222219,6513.812290,-7179.997637,842.705048
1315.222548,6661.853478,-6513.812290,1149.143247
1315.222877,7179.997637,-5033.400406,612.876398
1315.223206,7402.059420,-4293.194464,612.876398
1315.223536,8216.285956,-4293.194464,766.095498
1315.223865,9178.553681,-3108.864956,1072.533697
1315.224194,8364.327145,-3997.112087,1532.190996
1315.224523,8142.265362,-4737.318029,2145.067394
1315.224852,7624.121203,-5921.647536,1225.752797
1315.225181,7105.977043,-6439.791695,995.924147
1315.225510,6809.894666,-6883.915261,1378.971896
1315.225839,6883.915261,-9252.574275,1915.238745
1315.226168,6957.935855,-9474.636058,1838.629195
1315.226498,5921.647536,-8512.368333,842.705048
1315.226827,5403.503377,-7105.977043,612.876398
1315.227156,6291.750507,-6291.750507,0.000000
1315.227485,6069.688724,-6069.688724,459.657299
1315.227814,6735.874072,-5255.462188,689.485948
1315.228143,7179.997637,-4811.338623,536.266849
1315.228472,7772.162391,-4441.235652,459.657299
1315.228801,7550.100608,-5551.544565,1455.581446
1315.229130,7476.080014,-6069.688724,1608.800546
1315.229459,7328.038826,-6587.832884,459.657299
1315.229789,6365.771101,-6439.791695,689.485948
1315.230118,5847.626942,-8882.471304,1072.533697
1315.230447,6291.750507,-10510.924376,1532.190996
1315.230776,6587.832884,-9252.574275,1149.143247
1315.231105,6069.688724,-9178.553681,1072.533697
1315.231434,6513.812290,-7105.977043,919.314598
1315.231763,6661.853478,-5329.482782,306.438199
1315.232092,7105.977043,-4885.359217,536.266849
1315.232421,7920.203579,-3404.947333,766.095498
1315.232751,8364.327145,-3478.967927,919.314598
1315.233080,8512.368333,-3701.029710,1302.362347
1315.233409,7994.224174,-4589.276840,1915.238745
1315.233738,7624.121203,-5329.482782,2145.067394
1315.234067,7105.977043,-5699.585753,919.314598
1315.234396,6661.853478,-6069.688724,1455.581446
1315.234725,7031.956449,-8364.327145,1302.362347
1315.235054,7105.977043,-9696.697840,2068.457845
1315.235383,6809.894666,-9030.512492,1608.800546
1315.235713,5773.606348,-8364.327145,842.705048
1315.236042,5551.544565,-6809.894666,306.438199
1315.236371,5625.565159,-6661.853478,0.000000
1315.236700,6291.750507,-6143.709319,229.828649
1315.237029,7031.956449,-4737.318029,459.657299
1315.237358,7328.038826,-3997.112087,995.924147
1315.237687,8068.244768,-4811.338623,1378.971896
1315.238016,7698.141797,-5181.441594,1762.019645
1315.238345,7328.038826,-6217.729913,1225.752797
1315.238674,7105.977043,-6513.812290,1072.533697
1315.239004,6439.791695,-7920.203579,842.705048
1315.239333,6513.812290,-9844.739029,1455.581446
1315.239662,6513.812290,-9844.739029,1455.581446
1315.239991,6143.709319,-9252.574275,1072.533697
1315.240320,5625.565159,-8660.409521,1302.362347
1315.240649,6291.750507,-7031.956449,536.266849
1315.240978,6365.771101,-6069.688724,76.609550
1315.241307,6439.791695,-4441.235652,306.438199
1315.241636,6883.915261,-4589.276840,1149.143247
1315.241966,8068.244768,-3256.906145,1378.971896
1315.242295,8586.388927,-4219.173869,1685.410096
1315.242624,8290.306550,-4663.297435,2298.286494
1315.242953,8660.409521,-4515.256246,1532.190996
1315.243282,8142.265362,-5329.482782,1149.143247
1315.243611,7920.203579,-6365.771101,1149.143247
1315.243940,7846.182985,-9104.533087,1838.629195
1315.244269,7698.141797,-9326.594869,2068.457845
1315.244598,7031.956449,-8956.491898,1302.362347
1315.244928,5255.462188,-8882.471304,0.000000
1315.245257,4737.318029,-7328.038826,0.000000
1315.245586,5477.523971,-6735.874072,-306.438199
1315.245915,6217.729913,-5773.606348,229.828649
1315.246244,7105.977043,-5181.441594,1072.533697
1315.246573,8438.347739,-4811.338623,919.314598
1315.246902,7994.224174,-5033.400406,1608.800546
1315.247231,7476.080014,-5625.565159,1149.143247
1315.247560,7105.977043,-5699.585753,1149.143247
1315.247889,6957.935855,-6883.915261,1072.533697
1315.248219,6809.894666,-8438.347739,1072.533697
1315.248548,6957.935855,-9696.697840,1838.629195
1315.248877,6587.832884,-9844.739029,1455.581446
1315.249206,5699.585753,-9326.594869,1072.533697
1315.249535,4441.235652,-7624.121203,459.657299
1315.249864,5107.421000,-7105.977043,-306.438199
1315.250193,5181.441594,-5255.462188,0.000000
1315.250522,7031.956449,-5107.421000,766.095498
1315.250851,8364.327145,-3923.091493,919.314598
1315.251181,8660.409521,-3256.906145,2068.457845
1315.251510,8586.388927,-4145.153275,1762.019645
1315.251839,8438.347739,-3552.988522,1762.019645
1315.252168,8290.306550,-4219.173869,1225.752797
1315.252497,8068.244768,-5699.585753,919.314598
1315.252826,8216.285956,-7846.182985,1455.581446
1315.253155,7550.100608,-9548.656652,2145.067394
1315.253485,6957.935855,-9992.780217,1608.800546
1315.253814,6069.688724,-8586.388927,995.924147
1315.254143,5773.606348,-7624.121203,919.314598
1315.254472,6143.709319,-6661.853478,153.219100
1315.254801,5995.668130,-5329.482782,0.000000
1315.255130,6439.791695,-5329.482782,0.000000
1315.255460,7328.038826,-4589.276840,842.705048
1315.255789,7402.059420,-5033.400406,1302.362347
1315.256118,7624.121203,-5921.647536,1838.629195
1315.256447,7328.038826,-5995.668130,1608.800546
1315.256776,7105.977043,-7179.997637,1225.752797
1315.257105,6809.894666,-7105.977043,1302.362347
1315.257435,6735.874072,-8956.491898,1302.362347
1315.257764,6735.874072,-10066.800811,1149.143247
1315.258093,6217.729913,-9030.512492,1072.533697
1315.258422,5625.565159,-8956.491898,459.657299
1315.258751,5847.626942,-7476.080014,0.000000
1315.259080,6217.729913,-6957.935855,689.485948
1315.259410,7031.956449,-5403.503377,459.657299
1315.259739,7328.038826,-4071.132681,612.876398
1315.260068,7846.182985,-3627.009116,842.705048
1315.260397,8290.306550,-3701.029710,1072.533697
1315.260726,7920.203579,-4663.297435,1225.752797
1315.261056,8142.265362,-4515.256246,1532.190996
1315.261385,8438.347739,-5107.421000,1302.362347
1315.261714,8216.285956,-6809.894666,2604.724693
1315.262043,7402.059420,-8364.327145,1991.848295
1315.262372,7328.038826,-9400.615463,2145.067394
1315.262701,6735.874072,-8734.430116,1302.362347
1315.263031,5329.482782,-8438.347739,689.485948
1315.263360,5033.400406,-7402.059420,229.828649
1315.263689,5625.565159,-6513.812290,612.876398
1315.264018,5995.668130,-5403.503377,0.000000
1315.264347,6069.688724,-4737.318029,612.876398
1315.264676,7254.018232,-4589.276840,689.485948
1315.265006,7476.080014,-5329.482782,1225.752797
1315.265335,7550.100608,-5033.400406,1838.629195
1315.265664,7476.080014,-5699.585753,1991.848295
1315.265993,7105.977043,-6365.771101,919.314598
1315.266322,6513.812290,-8068.244768,1302.362347
1315.266651,6365.771101,-9918.759623,842.705048
1315.266981,6217.729913,-10140.821405,1378.971896
1315.267310,5921.647536,-9178.553681,1225.752797
1315.267639,6143.709319,-7994.224174,842.705048
1315.267968,6365.771101,-7179.997637,842.705048
1315.268297,6735.874072,-6217.729913,536.266849
1315.268626,6809.894666,-4219.173869,536.266849
1315.268956,7105.977043,-3552.988522,766.095498
1315.269285,7624.121203,-2812.782580,919.314598
1315.269614,8068.244768,-4663.297435,1302.362347
1315.269943,7846.182985,-5181.441594,1532.190996
1315.270272,8290.306550,-4737.318029,1455.581446
1315.270601,8068.244768,-5773.606348,1149.143247
1315.270931,7698.141797,-6291.750507,1455.581446
1315.271260,7402.059420,-8290.306550,1608.800546
1315.271589,7031.956449,-8290.306550,1225.752797
1315.271918,6365.771101,-8882.471304,766.095498
1315.272247,5995.668130,-8290.306550,76.609550
1315.272576,6439.791695,-7402.059420,612.876398
1315.272906,6661.853478,-5773.606348,229.828649
1315.273235,6587.832884,-5699.585753,229.828649
1315.273564,6957.935855,-5033.400406,766.095498
1315.273893,7624.121203,-4145.153275,306.438199
1315.274222,7920.203579,-4515.256246,1302.362347
1315.274551,7994.224174,-5403.503377,1762.019645
1315.274881,7698.141797,-6291.750507,1149.143247
1315.275210,6365.771101,-6809.894666,459.657299
1315.275539,5477.523971,-9252.574275,995.924147
1315.275868,6365.771101,-10510.924376,1455.581446
1315.276197,6735.874072,-9918.759623,1532.190996
1315.276527,5995.668130,-8956.491898,1378.971896
1315.276856,5773.606348,-7550.100608,536.266849
1315.277185,5625.565159,-7550.100608,536.266849
1315.277514,5773.606348,-6217.729913,-383.047749
1315.277843,5477.523971,-5329.482782,0.000000
1315.278172,6291.750507,-5625.565159,842.705048
1315.278502,7328.038826,-6069.688724,995.924147
1315.278831,7105.977043,-7105.977043,1455.581446
1315.279160,6809.894666,-7105.977043,1608.800546
1315.279489,6735.874072,-7328.038826,689.485948
1315.279818,6513.812290,-7328.038826,919.314598
1315.280147,6291.750507,-9030.512492,612.876398
1315.280477,6365.771101,-10066.800811,1532.190996
1315.280806,6439.791695,-9770.718434,1225.752797
1315.281135,5403.503377,-9918.759623,766.095498
1315.281464,5107.421000,-7920.203579,153.219100
1315.281793,5699.585753,-7105.977043,459.657299
1315.282122,6069.688724,-5625.565159,0.000000
1315.282452,6291.750507,-4293.194464,995.924147
1315.282781,8068.244768,-4663.297435,2374.896044
1315.283110,9104.533087,-3775.050304,2374.896044
1315.283439,8216.285956,-3775.050304,3217.601092
1315.283768,7328.038826,-4367.215058,2451.505594
1315.284097,6217.729913,-6587.832884,919.314598
1315.284427,4441.235652,-9104.533087,536.266849
1315.284756,2368.659014,-11547.212695,0.000000
1315.285085,2368.659014,-13323.706956,-383.047749
1315.285414,2886.803174,-14730.098246,689.485948
1315.285743,2664.741391,-15322.262999,1838.629195
1315.286072,3256.906145,-12509.480420,1149.143247
1315.286402,3256.906145,-9104.533087,1455.581446
1315.286731,4145.153275,-5847.626942,612.876398
1315.287060,5921.647536,-3404.947333,1608.800546
1315.287389,7920.203579,-2220.617826,2298.286494
1315.287718,8734.430116,-3552.988522,1072.533697
1315.288047,7698.141797,-3627.009116,1685.410096
1315.288377,5995.668130,-6143.709319,995.924147
1315.288706,4589.276840,-8438.347739,0.000000
1315.289035,3034.844362,-10658.965565,612.876398
1315.289364,2442.679609,-12657.521608,76.609550
1315.289693,2812.782580,-13101.645173,153.219100
1315.290022,3997.112087,-13619.789333,229.828649
1315.290352,4737.318029,-13323.706956,0.000000
1315.290681,3997.112087,-12213.398043,-919.314598
1315.291010,3404.947333,-12361.439231,-612.876398
1315.291339,3182.885551,-10732.986159,919.314598
1315.291668,3552.988522,-8882.471304,1838.629195
