#time,accel_x,accel_y,accel_z
1475.033384,6439.791695,-7254.018232,842.705048
1475.033715,6365.771101,-6735.874072,1455.581446
1475.034045,6365.771101,-6365.771101,612.876398
1475.034375,6957.935855,-6809.894666,1225.752797
1475.034706,7179.997637,-6513.812290,1225.752797
1475.035036,7105.977043,-6661.853478,1072.533697
1475.035367,7328.038826,-6439.791695,689.485948
1475.035697,7105.977043,-6661.853478,689.485948
1475.036027,7105.977043,-6661.853478,842.705048
1475.036358,7031.956449,-6587.832884,995.924147
1475.036688,7179.997637,-6735.874072,1149.143247
1475.037019,6957.935855,-6143.709319,1149.143247
1475.037349,6957.935855,-6735.874072,919.314598
1475.037679,6587.832884,-6365.771101,995.924147
1475.038010,7105.977043,-6661.853478,919.314598
1475.038340,6587.832884,-6439.791695,1225.752797
1475.038671,6587.832884,-6513.812290,1072.533697
1475.039001,7031.956449,-6661.853478,1072.533697
1475.039331,6735.874072,-6365.771101,1072.533697
1475.039662,7105.977043,-6513.812290,766.095498
1475.039992,7328.038826,-6883.915261,995.924147
1475.040323,7105.977043,-6735.874072,1608.800546
1475.040653,7105.977043,-6957.935855,689.485948
1475.040984,6735.874072,-6661.853478,1072.533697
1475.041314,6809.894666,-6587.832884,842.705048
1475.041644,7550.100608,-6883.915261,536.266849
1475.041975,7328.038826,-6661.853478,1225.752797
1475.042305,7105.977043,-6587.832884,919.314598
1475.042636,7105.977043,-6365.771101,919.314598
1475.042966,7105.977043,-6069.688724,995.924147
1475.043296,7328.038826,-6217.729913,995.924147
1475.043627,7402.059420,-5847.626942,1225.752797
1475.043957,7476.080014,-6439.791695,1302.362347
1475.044288,7402.059420,-6365.771101,1072.533697
1475.044618,7254.018232,-6291.750507,1762.019645
1475.044948,7105.977043,-6587.832884,1149.143247
1475.045279,6957.935855,-6439.791695,995.924147
1475.045609,6883.915261,-6439.791695,1302.362347
1475.045940,6957.935855,-6809.894666,1149.143247
1475.046270,6809.894666,-6587.832884,919.314598
1475.046600,6735.874072,-6587.832884,1072.533697
1475.046931,6809.894666,-6809.894666,995.924147
1475.047261,6513.812290,-6439.791695,995.924147
1475.047592,6439.791695,-6809.894666,1378.971896
1475.047922,6883.915261,-6883.915261,995.924147
1475.048252,6883.915261,-6883.915261,1149.143247
1475.048583,6735.874072,-7031.956449,1149.143247
1475.048913,6809.894666,-7105.977043,766.095498
1475.049244,6957.935855,-6587.832884,995.924147
1475.049574,7179.997637,-6661.853478,995.924147
1475.049904,7105.977043,-6957.935855,766.095498
1475.050235,7105.977043,-6439.791695,919.314598
1475.050565,6809.894666,-6809.894666,1302.362347
1475.050896,7105.977043,-6513.812290,1072.533697
1475.051226,7105.977043,-6143.709319,1072.533697
1475.051556,7105.977043,-6365.771101,919.314598
1475.051887,6883.915261,-6291.750507,919.314598
1475.052217,7550.100608,-6439.791695,1455.581446
1475.052548,7105.977043,-6439.791695,995.924147
1475.052878,6957.935855,-6587.832884,1072.533697
1475.053208,6957.935855,-6143.709319,919.314598
1475.053539,6809.894666,-6291.750507,1149.143247
1475.053869,7031.956449,-7254.018232,1302.362347
1475.054200,7105.977043,-6587.832884,1072.533697
1475.054530,7105.977043,-6661.853478,919.314598
1475.054860,6809.894666,-6883.915261,1302.362347
1475.055191,7031.956449,-6661.853478,1302.362347
1475.055521,6661.853478,-7328.038826,689.485948
1475.055852,6513.812290,-6365.771101,842.705048
1475.056182,6735.874072,-6661.853478,842.705048
1475.056513,7105.977043,-6513.812290,919.314598
1475.056843,7254.018232,-6069.688724,995.924147
1475.057173,7328.038826,-6439.791695,995.924147
1475.057504,7624.121203,-6069.688724,1455.581446
1475.057834,7254.018232,-6439.791695,1149.143247
1475.058165,7254.018232,-6513.812290,1225.752797
1475.058495,7179.997637,-5847.626942,842.705048
1475.058825,7105.977043,-6217.729913,1149.143247
1475.059156,7254.018232,-6291.750507,842.705048
1475.059486,7105.977043,-6217.729913,1225.752797
1475.059817,6957.935855,-6143.709319,919.314598
1475.060147,7179.997637,-6291.750507,689.485948
1475.060477,6735.874072,-6439.791695,1072.533697
1475.060808,6883.915261,-6587.832884,1149.143247
1475.061138,6735.874072,-6513.812290,1455.581446
1475.061469,6513.812290,-6587.832884,1072.533697
1475.061799,6809.894666,-6587.832884,1225.752797
1475.062129,6883.915261,-6513.812290,995.924147
1475.062460,6735.874072,-6661.853478,1302.362347
1475.062790,6809.894666,-7031.956449,766.095498
1475.063121,6513.812290,-7179.997637,1072.533697
1475.063451,6513.812290,-6957.935855,1225.752797
1475.063781,6883.915261,-6809.894666,1149.143247
1475.064112,7031.956449,-7105.977043,1608.800546
1475.064442,7105.977043,-6883.915261,919.314598
1475.064773,6957.935855,-6735.874072,919.314598
1475.065103,7031.956449,-6661.853478,1072.533697
1475.065433,6883.915261,-6957.935855,766.095498
1475.065764,7031.956449,-5995.668130,1072.533697
1475.066094,7105.977043,-6217.729913,689.485948
1475.066425,7105.977043,-6439.791695,995.924147
1475.066755,7179.997637,-6291.750507,1225.752797
1475.067085,6883.915261,-6587.832884,1225.752797
1475.067416,6883.915261,-6291.750507,1225.752797
1475.067746,7105.977043,-6513.812290,459.657299
1475.068077,6735.874072,-6513.812290,919.314598
1475.068407,6513.812290,-6513.812290,1072.533697
1475.068737,6513.812290,-6587.832884,1302.362347
1475.069068,7105.977043,-6661.853478,919.314598
1475.069398,6809.894666,-6513.812290,995.924147
1475.069729,6883.915261,-6291.750507,995.924147
1475.070059,6883.915261,-6809.894666,842.705048
1475.070390,6809.894666,-6439.791695,459.657299
1475.070720,6809.894666,-6661.853478,766.095498
1475.071050,6957.935855,-7031.956449,919.314598
1475.071381,7179.997637,-6735.874072,689.485948
1475.071711,7402.059420,-6217.729913,1302.362347
1475.072042,7105.977043,-6735.874072,919.314598
1475.072372,7254.018232,-6291.750507,919.314598
1475.072702,7328.038826,-6439.791695,1225.752797
1475.073033,7179.997637,-6217.729913,919.314598
1475.073363,7328.038826,-5551.544565,1149.143247
1475.073694,7624.121203,-6513.812290,1225.752797
1475.074024,7328.038826,-5847.626942,919.314598
1475.074354,7105.977043,-6217.729913,919.314598
1475.074685,7105.977043,-6217.729913,995.924147
1475.075015,6661.853478,-6439.791695,1608.800546
1475.075346,7105.977043,-6513.812290,1225.752797
1475.075676,6809.894666,-6587.832884,1225.752797
1475.076006,6735.874072,-7031.956449,1149.143247
1475.076337,6661.853478,-6513.812290,1455.581446
1475.076667,7031.956449,-6883.915261,766.095498
1475.076998,6661.853478,-6809.894666,1608.800546
1475.077328,6735.874072,-6513.812290,995.924147
1475.077658,6735.874072,-6809.894666,1149.143247
1475.077989,6661.853478,-6217.729913,766.095498
1475.078319,6587.832884,-6883.915261,919.314598
1475.078650,6883.915261,-6513.812290,842.705048
1475.078980,7105.977043,-6439.791695,1225.752797
1475.079310,7105.977043,-6809.894666,842.705048
1475.079641,7179.997637,-6883.915261,1608.800546
1475.079971,6957.935855,-6735.874072,919.314598
1475.080302,7031.956449,-6957.935855,766.095498
1475.080632,6809.894666,-6587.832884,766.095498
1475.080962,7476.080014,-5995.668130,842.705048
1475.081293,7179.997637,-6439.791695,842.705048
1475.081623,7105.977043,-6291.750507,1378.971896
1475.081954,6957.935855,-6217.729913,1225.752797
1475.082284,6957.935855,-6291.750507,1225.752797
1475.082614,6513.812290,-6069.688724,1685.410096
1475.082945,6735.874072,-6513.812290,1072.533697
1475.083275,6439.791695,-6883.915261,689.485948
1475.083606,6587.832884,-7105.977043,1072.533697
1475.083936,7105.977043,-6957.935855,1149.143247
1475.084266,7105.977043,-6883.915261,995.924147
1475.084597,6809.894666,-6587.832884,1455.581446
1475.084927,6513.812290,-6809.894666,842.705048
1475.085258,6809.894666,-6883.915261,919.314598
1475.085588,7031.956449,-6291.750507,919.314598
1475.085919,7031.956449,-6439.791695,536.266849
1475.086249,7179.997637,-6217.729913,1072.533697
1475.086579,7031.956449,-6365.771101,1225.752797
1475.086910,6809.894666,-6217.729913,1608.800546
1475.087240,7624.121203,-6291.750507,766.095498
1475.087571,7254.018232,-6809.894666,1149.143247
1475.087901,7179.997637,-6513.812290,919.314598
1475.088231,7328.038826,-5995.668130,1149.143247
1475.088562,7328.038826,-5847.626942,1225.752797
1475.088892,7254.018232,-6069.688724,1302.362347
1475.089223,7105.977043,-6587.832884,1455.581446
1475.089553,7105.977043,-6291.750507,919.314598
1475.089883,6883.915261,-6291.750507,1149.143247
1475.090214,6735.874072,-5921.647536,995.924147
1475.090544,6735.874072,-6365.771101,689.485948
1475.090875,7031.956449,-6587.832884,1225.752797
1475.091205,6809.894666,-6661.853478,995.924147
1475.091535,6661.853478,-6809.894666,1455.581446
1475.091866,7105.977043,-6957.935855,1149.143247
1475.092196,6809.894666,-7179.997637,995.924147
1475.092527,6513.812290,-6957.935855,536.266849
1475.092857,6661.853478,-6957.935855,689.485948
1475.093187,6291.750507,-7179.997637,1302.362347
1475.093518,7254.018232,-6883.915261,1225.752797
1475.093848,7031.956449,-6661.853478,1378.971896
1475.094179,6735.874072,-6365.771101,766.095498
1475.094509,7105.977043,-6587.832884,842.705048
1475.094839,7105.977043,-6513.812290,995.924147
1475.095170,6957.935855,-6735.874072,766.095498
1475.095500,6809.894666,-6217.729913,995.924147
1475.095831,7254.018232,-6883.915261,919.314598
1475.096161,7772.162391,-6661.853478,689.485948
1475.096491,6883.915261,-6439.791695,995.924147
1475.096822,7105.977043,-6513.812290,995.924147
1475.097152,7031.956449,-6883.915261,1378.971896
1475.097483,6883.915261,-6661.853478,1149.143247
1475.097813,7328.038826,-6661.853478,1149.143247
1475.098143,6957.935855,-6661.853478,995.924147
1475.098474,6957.935855,-6735.874072,1225.752797
1475.098804,7031.956449,-6291.750507,1149.143247
1475.099134,6365.771101,-5995.668130,1302.362347
1475.099463,6735.874072,-6291.750507,1225.752797
1475.099793,6513.812290,-7105.977043,995.924147
1475.100123,6587.832884,-6587.832884,766.095498
1475.100453,6587.832884,-6957.935855,1072.533697
1475.100783,7105.977043,-6365.771101,153.219100
1475.101113,7402.059420,-6513.812290,1072.533697
1475.101443,7402.059420,-6735.874072,1149.143247
1475.101773,7328.038826,-6513.812290,1149.143247
1475.102102,7328.038826,-5847.626942,1378.971896
1475.102432,7254.018232,-6143.709319,1225.752797
1475.102762,7031.956449,-6217.729913,995.924147
1475.103092,7179.997637,-5995.668130,995.924147
1475.103422,7105.977043,-6291.750507,1072.533697
1475.103752,7105.977043,-6069.688724,1838.629195
1475.104082,7105.977043,-6439.791695,1072.533697
1475.104412,7031.956449,-6217.729913,766.095498
1475.104741,6735.874072,-6883.915261,995.924147
1475.105071,6809.894666,-6587.832884,842.705048
1475.105401,6809.894666,-6735.874072,689.485948
1475.105731,7031.956449,-6883.915261,1225.752797
1475.106061,6957.935855,-6365.771101,1072.533697
1475.106391,7105.977043,-6735.874072,1072.533697
1475.106721,7105.977043,-6957.935855,1225.752797
1475.107050,6735.874072,-6291.750507,1225.752797
1475.107380,6735.874072,-6809.894666,766.095498
1475.107710,6217.729913,-7031.956449,689.485948
1475.108040,6513.812290,-7105.977043,919.314598
1475.108370,7105.977043,-6513.812290,1072.533697
1475.108700,7105.977043,-6513.812290,995.924147
1475.109030,7105.977043,-6587.832884,995.924147
1475.109360,7328.038826,-6587.832884,995.924147
1475.109689,7254.018232,-7105.977043,1455.581446
1475.110019,7254.018232,-6587.832884,1378.971896
1475.110349,7328.038826,-6439.791695,1149.143247
1475.110679,7550.100608,-6291.750507,1072.533697
1475.111009,7179.997637,-6365.771101,1149.143247
1475.111339,7105.977043,-6513.812290,995.924147
1475.111669,6735.874072,-6291.750507,1072.533697
1475.111998,6809.894666,-6661.853478,1072.533697
1475.112328,6809.894666,-6513.812290,995.924147
1475.112658,6587.832884,-6735.874072,842.705048
1475.112988,6957.935855,-6587.832884,842.705048
1475.113318,6809.894666,-6513.812290,1378.971896
1475.113648,6809.894666,-6883.915261,919.314598
1475.113978,6883.915261,-6957.935855,1225.752797
1475.114308,7105.977043,-6735.874072,1608.800546
1475.114637,6809.894666,-6883.915261,766.095498
1475.114967,6735.874072,-6587.832884,919.314598
1475.115297,6809.894666,-7105.977043,1072.533697
1475.115627,7254.018232,-6809.894666,995.924147
1475.115957,7402.059420,-5995.668130,1302.362347
1475.116287,6809.894666,-6661.853478,995.924147
1475.116617,7328.038826,-6217.729913,995.924147
1475.116947,7105.977043,-6291.750507,612.876398
1475.117276,7105.977043,-6957.935855,842.705048
1475.117606,7105.977043,-6143.709319,1302.362347
1475.117936,7624.121203,-5995.668130,1302.362347
1475.118266,7476.080014,-6513.812290,1225.752797
1475.118596,7179.997637,-6069.688724,1378.971896
1475.118926,7328.038826,-6735.874072,1532.190996
1475.119256,7105.977043,-6587.832884,1149.143247
1475.119585,6587.832884,-6439.791695,919.314598
1475.119915,6513.812290,-6513.812290,1149.143247
1475.120245,6735.874072,-6513.812290,689.485948
1475.120575,6735.874072,-6809.894666,1378.971896
1475.120905,6735.874072,-6661.853478,1149.143247
1475.121235,6957.935855,-7105.977043,919.314598
1475.121565,6883.915261,-6291.750507,919.314598
1475.121895,6957.935855,-6439.791695,536.266849
1475.122224,6957.935855,-6735.874072,842.705048
1475.122554,6735.874072,-6809.894666,842.705048
1475.122884,7105.977043,-7031.956449,842.705048
1475.123214,7105.977043,-6883.915261,1072.533697
1475.123544,7105.977043,-6365.771101,1532.190996
1475.123874,7105.977043,-7031.956449,383.047749
1475.124204,7031.956449,-6809.894666,1072.533697
1475.124533,6957.935855,-7031.956449,689.485948
1475.124863,7105.977043,-6883.915261,689.485948
1475.125193,7179.997637,-6291.750507,1149.143247
1475.125523,7254.018232,-6291.750507,766.095498
1475.125853,6365.771101,-6439.791695,842.705048
1475.126183,6809.894666,-6587.832884,1149.143247
1475.126513,7328.038826,-6291.750507,383.047749
1475.126843,7105.977043,-6365.771101,1225.752797
1475.127172,7031.956449,-6069.688724,1225.752797
1475.127502,6809.894666,-6365.771101,689.485948
1475.127832,7031.956449,-7105.977043,1149.143247
1475.128162,6587.832884,-6661.853478,612.876398
1475.128492,6661.853478,-6661.853478,1072.533697
1475.128822,6661.853478,-6883.915261,1225.752797
1475.129152,6809.894666,-6735.874072,842.705048
1475.129482,6957.935855,-6587.832884,1225.752797
1475.129811,6957.935855,-6809.894666,306.438199
1475.130141,6957.935855,-6735.874072,995.924147
1475.130471,7328.038826,-6587.832884,919.314598
1475.130801,7179.997637,-6143.709319,919.314598
1475.131131,6883.915261,-6365.771101,1532.190996
1475.131461,7328.038826,-6587.832884,1149.143247
1475.131791,7254.018232,-6513.812290,995.924147
1475.132120,7179.997637,-6587.832884,919.314598
1475.132450,7254.018232,-6439.791695,1455.581446
1475.132780,6957.935855,-6217.729913,842.705048
1475.133110,7031.956449,-6217.729913,842.705048
1475.133440,7105.977043,-6439.791695,1149.143247
1475.133770,7031.956449,-6143.709319,1225.752797
1475.134100,7031.956449,-5921.647536,612.876398
1475.134430,6957.935855,-6587.832884,1302.362347
1475.134759,6809.894666,-6661.853478,995.924147
1475.135089,6661.853478,-6809.894666,1072.533697
1475.135419,6809.894666,-6735.874072,1225.752797
1475.135749,6809.894666,-6661.853478,1762.019645
1475.136079,6809.894666,-6883.915261,1072.533697
1475.136409,6661.853478,-6957.935855,1685.410096
1475.136739,6291.750507,-6809.894666,842.705048
1475.137068,6661.853478,-6291.750507,459.657299
1475.137398,6809.894666,-6735.874072,919.314598
1475.137728,6809.894666,-6661.853478,919.314598
1475.138058,7179.997637,-6143.709319,1455.581446
1475.138388,7105.977043,-6661.853478,1225.752797
1475.138718,7328.038826,-5995.668130,1302.362347
1475.139048,7105.977043,-6513.812290,919.314598
1475.139378,7105.977043,-6661.853478,995.924147
1475.139707,7105.977043,-6365.771101,919.314598
1475.140037,7105.977043,-6513.812290,919.314598
1475.140367,7031.956449,-6661.853478,919.314598
1475.140697,6957.935855,-6143.709319,919.314598
1475.141027,6735.874072,-6291.750507,919.314598
1475.141357,7105.977043,-6291.750507,842.705048
1475.141687,7105.977043,-6439.791695,1378.971896
1475.142017,6735.874072,-6735.874072,995.924147
1475.142346,6735.874072,-6661.853478,842.705048
1475.142676,6809.894666,-6661.853478,1225.752797
1475.143006,6809.894666,-6587.832884,1608.800546
1475.143336,7179.997637,-7031.956449,689.485948
1475.143666,6809.894666,-6587.832884,1225.752797
1475.143996,7105.977043,-6883.915261,689.485948
1475.144326,6957.935855,-7328.038826,612.876398
1475.144655,7031.956449,-6217.729913,1072.533697
1475.144985,6957.935855,-7031.956449,842.705048
1475.145315,6957.935855,-6587.832884,1072.533697
1475.145645,7105.977043,-6217.729913,1072.533697
1475.145975,7254.018232,-6143.709319,919.314598
1475.146305,7179.997637,-6069.688724,1685.410096
1475.146635,7254.018232,-6661.853478,995.924147
1475.146965,7402.059420,-6291.750507,995.924147
1475.147294,7105.977043,-6291.750507,1302.362347
1475.147624,7179.997637,-6217.729913,1378.971896
1475.147954,7402.059420,-6365.771101,1072.533697
1475.148284,6957.935855,-6291.750507,1149.143247
1475.148614,7105.977043,-6143.709319,1072.533697
1475.148944,7179.997637,-5477.523971,1455.581446
1475.149274,7550.100608,-5181.441594,1072.533697
1475.149603,7920.203579,-5403.503377,1072.533697
1475.149933,8068.244768,-5551.544565,1685.410096
1475.150263,7772.162391,-6143.709319,1149.143247
1475.150593,6957.935855,-6587.832884,229.828649
1475.150923,5995.668130,-7846.182985,153.219100
1475.151253,5773.606348,-7179.997637,383.047749
1475.151583,6735.874072,-7402.059420,612.876398
1475.151913,7920.203579,-7179.997637,1225.752797
1475.152242,8364.327145,-6809.894666,1608.800546
1475.152572,8438.347739,-4959.379811,1455.581446
1475.152902,7772.162391,-3923.091493,1072.533697
1475.153232,8142.265362,-4811.338623,1149.143247
1475.153562,8512.368333,-4219.173869,1302.362347
1475.153892,8808.450710,-4219.173869,1149.143247
1475.154222,8586.388927,-4737.318029,995.924147
1475.154552,8290.306550,-4441.235652,612.876398
1475.154881,7920.203579,-5551.544565,612.876398
1475.155211,8586.388927,-4441.235652,689.485948
1475.155541,8586.388927,-5847.626942,995.924147
1475.155871,8512.368333,-6217.729913,2068.457845
1475.156201,8142.265362,-5699.585753,766.095498
1475.156531,7772.162391,-5847.626942,612.876398
1475.156861,7994.224174,-4737.318029,1149.143247
1475.157190,7994.224174,-5477.523971,689.485948
1475.157520,8512.368333,-4663.297435,1455.581446
1475.157850,8660.409521,-4145.153275,1532.190996
1475.158180,9400.615463,-3701.029710,1302.362347
1475.158510,9474.636058,-2960.823768,1455.581446
1475.158840,9400.615463,-3775.050304,1072.533697
1475.159170,9696.697840,-3108.864956,1149.143247
1475.159500,9400.615463,-2886.803174,1149.143247
1475.159829,9696.697840,-3701.029710,2145.067394
1475.160159,9992.780217,-3404.947333,1302.362347
1475.160489,10288.862594,-4885.359217,1685.410096
1475.160819,9696.697840,-5181.441594,1685.410096
1475.161149,8808.450710,-5329.482782,1302.362347
1475.161479,8290.306550,-4737.318029,919.314598
1475.161809,7698.141797,-4885.359217,766.095498
1475.162138,7994.224174,-4811.338623,919.314598
1475.162468,8660.409521,-4367.215058,1149.143247
1475.162798,8660.409521,-4589.276840,766.095498
1475.163128,8808.450710,-4589.276840,1225.752797
1475.163458,8586.388927,-5033.400406,612.876398
1475.163788,8068.244768,-5255.462188,229.828649
1475.164118,8438.347739,-4959.379811,0.000000
1475.164448,8364.327145,-5329.482782,-383.047749
1475.164777,9326.594869,-4737.318029,383.047749
1475.165107,10140.821405,-5329.482782,842.705048
1475.165437,9918.759623,-5107.421000,1378.971896
1475.165767,9400.615463,-3997.112087,1608.800546
1475.166097,9400.615463,-3923.091493,536.266849
1475.166427,8734.430116,-4441.235652,842.705048
1475.166757,8068.244768,-4071.132681,1302.362347
1475.167087,8512.368333,-3701.029710,1149.143247
1475.167416,8882.471304,-4145.153275,1762.019645
1475.167746,9178.553681,-3701.029710,1915.238745
1475.168076,9252.574275,-3775.050304,2145.067394
1475.168406,9474.636058,-3775.050304,1915.238745
1475.168736,9400.615463,-3552.988522,1608.800546
1475.169066,9474.636058,-3701.029710,766.095498
1475.169396,9030.512492,-3775.050304,689.485948
1475.169725,9178.553681,-3997.112087,153.219100
1475.170055,8956.491898,-4959.379811,229.828649
1475.170385,9548.656652,-5033.400406,76.609550
1475.170715,8882.471304,-5551.544565,153.219100
1475.171045,8882.471304,-5773.606348,536.266849
1475.171375,8660.409521,-5403.503377,766.095498
1475.171705,8068.244768,-5847.626942,842.705048
1475.172035,8216.285956,-5921.647536,1455.581446
1475.172364,7846.182985,-5255.462188,1685.410096
1475.172694,8364.327145,-4441.235652,1838.629195
1475.173024,8808.450710,-4293.194464,1838.629195
1475.173354,9770.718434,-3182.885551,2451.505594
1475.173684,10066.800811,-2664.741391,1991.848295
1475.174014,10214.842000,-2072.576638,1302.362347
1475.174344,9696.697840,-1924.535449,229.828649
1475.174674,9548.656652,-2812.782580,-306.438199
1475.175003,9918.759623,-2738.761985,0.000000
1475.175333,9326.594869,-4515.256246,0.000000
1475.175663,9104.533087,-5847.626942,0.000000
1475.175993,9178.553681,-6291.750507,689.485948
1475.176323,8660.409521,-7624.121203,919.314598
1475.176653,7994.224174,-8068.244768,766.095498
1475.176983,7254.018232,-7846.182985,766.095498
1475.177312,6883.915261,-7031.956449,383.047749
1475.177642,6661.853478,-5921.647536,842.705048
1475.177972,7328.038826,-4367.215058,1378.971896
1475.178302,9252.574275,-2886.803174,1532.190996
1475.178632,10362.883188,-2516.700203,2145.067394
1475.178962,10658.965565,-888.247130,2221.676944
1475.179292,10584.944971,-222.061783,1225.752797
1475.179622,10807.006753,-296.082377,1608.800546
1475.179951,11399.171507,-518.144159,766.095498
1475.180281,11843.295072,-1184.329507,1149.143247
1475.180611,12361.439231,-1776.494261,1455.581446
1475.180941,11843.295072,-3478.967927,1378.971896
1475.181271,10288.862594,-6513.812290,919.314598
1475.181601,8142.265362,-7476.080014,1455.581446
1475.181931,6365.771101,-9622.677246,536.266849
1475.182260,4293.194464,-9474.636058,-383.047749
1475.182590,2886.803174,-8512.368333,-1225.752797
1475.182920,4219.173869,-8882.471304,-995.924147
1475.183250,6069.688724,-7920.203579,0.000000
1475.183580,7550.100608,-6883.915261,842.705048
1475.183910,9622.677246,-3330.926739,766.095498
1475.184240,10140.821405,-2146.597232,1608.800546
1475.184570,11103.089130,-1332.370696,1532.190996
1475.184899,11547.212695,-666.185348,1608.800546
1475.185229,11547.212695,-222.061783,1455.581446
1475.185559,12731.542202,0.000000,1762.019645
1475.185889,13101.645173,-888.247130,1838.629195
1475.186219,13027.624579,-2072.576638,2681.334243
1475.186549,11917.315666,-2590.720797,2298.286494
1475.186879,9844.739029,-4367.215058,1685.410096
1475.187209,8142.265362,-5107.421000,1225.752797
1475.187538,6069.688724,-7328.038826,76.609550
1475.187868,4663.297435,-8290.306550,383.047749
1475.188198,3701.029710,-8068.244768,-536.266849
1475.188528,3849.070898,-8438.347739,-1072.533697
1475.188858,5477.523971,-5699.585753,-536.266849
1475.189188,8808.450710,-4441.235652,0.000000
1475.189518,11769.274478,-2886.803174,995.924147
1475.189847,12583.501014,-2072.576638,2374.896044
1475.190177,12953.603985,-2368.659014,1915.238745
1475.190507,11547.212695,-2368.659014,1378.971896
1475.190837,9918.759623,-3256.906145,1455.581446
1475.191167,9104.533087,-4367.215058,306.438199
1475.191497,8660.409521,-6069.688724,1455.581446
1475.191827,8882.471304,-7772.162391,1762.019645
1475.192157,8956.491898,-7846.182985,2298.286494
1475.192486,8586.388927,-5847.626942,2221.676944
1475.192816,7402.059420,-4071.132681,459.657299
1475.193146,7105.977043,-1702.473667,-689.485948
1475.193476,7402.059420,-2368.659014,-536.266849
1475.193806,8660.409521,-2664.741391,612.876398
1475.194136,10214.842000,-3478.967927,1685.410096
1475.194466,10732.986159,-1850.514855,1838.629195
1475.194795,10807.006753,-1850.514855,1302.362347
1475.195125,10881.027347,-3701.029710,1302.362347
1475.195455,10807.006753,-4959.379811,2298.286494
1475.195785,9844.739029,-6291.750507,2145.067394
1475.196115,8808.450710,-5625.565159,1378.971896
1475.196445,7476.080014,-4737.318029,-229.828649
1475.196775,6957.935855,-6291.750507,-689.485948
1475.197105,6883.915261,-8734.430116,766.095498
1475.197434,6661.853478,-9104.533087,1149.143247
1475.197764,6957.935855,-7105.977043,0.000000
1475.198094,6217.729913,-5255.462188,0.000000
1475.198424,6809.894666,-4145.153275,-383.047749
1475.198754,7920.203579,-5403.503377,1225.752797
1475.199084,9030.512492,-4367.215058,1762.019645
1475.199414,10584.944971,-1850.514855,1225.752797
1475.199744,10658.965565,74.020594,1072.533697
1475.200073,11325.150913,296.082377,1302.362347
1475.200403,11843.295072,-1702.473667,1915.238745
1475.200733,11991.336260,-3478.967927,2681.334243
1475.201062,11177.109724,-3478.967927,1838.629195
1475.201392,10362.883188,-3552.988522,1685.410096
1475.201721,9844.739029,-3775.050304,1991.848295
1475.202050,9548.656652,-4737.318029,1915.238745
1475.202379,9548.656652,-4293.194464,1762.019645
1475.202708,8068.244768,-4737.318029,766.095498
1475.203038,7402.059420,-6291.750507,995.924147
1475.203367,7920.203579,-4885.359217,1149.143247
1475.203696,6809.894666,-5625.565159,-689.485948
1475.204025,5921.647536,-6439.791695,-1149.143247
1475.204354,5921.647536,-6143.709319,-383.047749
1475.204684,8586.388927,-6661.853478,1072.533697
1475.205013,10658.965565,-5181.441594,919.314598
1475.205342,10732.986159,-3775.050304,1378.971896
1475.205671,9548.656652,-3256.906145,76.609550
1475.206000,9400.615463,-6217.729913,1072.533697
1475.206330,9252.574275,-6957.935855,1762.019645
1475.206659,9326.594869,-4219.173869,383.047749
1475.206988,9770.718434,-3034.844362,766.095498
1475.207317,10288.862594,-3997.112087,1991.848295
1475.207646,10214.842000,-4515.256246,2451.505594
1475.207976,9178.553681,-3330.926739,1838.629195
1475.208305,9252.574275,-740.205942,383.047749
1475.208634,8882.471304,-2146.597232,229.828649
1475.208963,8808.450710,-2886.803174,1608.800546
1475.209292,8660.409521,-4145.153275,1762.019645
1475.209622,9104.533087,-4293.194464,1302.362347
1475.209951,10214.842000,-3923.091493,1608.800546
1475.210280,10140.821405,-4293.194464,1685.410096
1475.210609,10288.862594,-3552.988522,1532.190996
1475.210939,9178.553681,-5773.606348,536.266849
1475.211268,7846.182985,-6439.791695,229.828649
1475.211597,7846.182985,-5107.421000,-76.609550
1475.211926,7772.162391,-5551.544565,536.266849
1475.212255,7994.224174,-4885.359217,383.047749
1475.212585,8216.285956,-5699.585753,689.485948
1475.212914,8956.491898,-4441.235652,842.705048
1475.213243,8438.347739,-5699.585753,612.876398
1475.213572,7031.956449,-7105.977043,995.924147
1475.213901,6809.894666,-7402.059420,689.485948
1475.214231,6735.874072,-5477.523971,0.000000
1475.214560,7328.038826,-5329.482782,153.219100
1475.214889,8734.430116,-5255.462188,1838.629195
1475.215218,9770.718434,-4367.215058,1685.410096
1475.215547,10510.924376,-3997.112087,2068.457845
1475.215877,9400.615463,-2664.741391,1455.581446
1475.216206,7994.224174,-3478.967927,612.876398
1475.216535,8068.244768,-3330.926739,842.705048
1475.216864,8586.388927,-3775.050304,1685.410096
1475.217193,10140.821405,-3849.070898,1225.752797
1475.217523,10510.924376,-3775.050304,2681.334243
1475.217852,9992.780217,-3849.070898,1838.629195
1475.218181,8438.347739,-4885.359217,612.876398
1475.218510,6809.894666,-5477.523971,306.438199
1475.218840,7105.977043,-7254.018232,689.485948
1475.219169,7254.018232,-5921.647536,383.047749
1475.219498,7105.977043,-6587.832884,919.314598
1475.219827,7624.121203,-9252.574275,919.314598
1475.220156,7698.141797,-7550.100608,383.047749
1475.220486,6291.750507,-7105.977043,306.438199
1475.220815,5625.565159,-8216.285956,536.266849
1475.221144,5995.668130,-7254.018232,0.000000
1475.221473,6735.874072,-7105.977043,-306.438199
1475.221802,5921.647536,-7402.059420,0.000000
1475.222132,6365.771101,-5699.585753,0.000000
1475.222461,7105.977043,-7105.977043,229.828649
1475.222790,7402.059420,-7031.956449,1378.971896
1475.223119,8068.244768,-5699.585753,1378.971896
1475.223448,8512.368333,-5477.523971,1455.581446
1475.223778,8068.244768,-5551.544565,1455.581446
1475.224107,7402.059420,-6883.915261,1608.800546
1475.224436,7698.141797,-4811.338623,1302.362347
1475.224765,7105.977043,-5699.585753,1685.410096
1475.225094,7179.997637,-4811.338623,2221.676944
1475.225424,7476.080014,-5255.462188,2451.505594
1475.225753,7994.224174,-5107.421000,2068.457845
1475.226082,6513.812290,-5403.503377,1302.362347
1475.226411,5551.544565,-6291.750507,995.924147
1475.226740,5551.544565,-6809.894666,459.657299
1475.227070,6143.709319,-6291.750507,0.000000
1475.227399,7550.100608,-6217.729913,383.047749
1475.227728,8142.265362,-7772.162391,2451.505594
1475.228057,9178.553681,-4959.379811,1455.581446
1475.228387,8216.285956,-5107.421000,1991.848295
1475.228716,8216.285956,-4811.338623,2068.457845
1475.229045,8808.450710,-4811.338623,1072.533697
1475.229374,8808.450710,-3330.926739,2451.505594
1475.229703,8660.409521,-5551.544565,1378.971896
1475.230033,7994.224174,-6217.729913,612.876398
1475.230362,6143.709319,-7624.121203,1072.533697
1475.230691,4367.215058,-7698.141797,0.000000
1475.231020,3997.112087,-9252.574275,-153.219100
1475.231349,3997.112087,-9992.780217,-842.705048
1475.231679,4737.318029,-9696.697840,0.000000
1475.232008,6217.729913,-10510.924376,842.705048
1475.232337,6735.874072,-9252.574275,1149.143247
1475.232666,6587.832884,-8734.430116,1762.019645
1475.232995,4811.338623,-8438.347739,0.000000
1475.233325,4293.194464,-7105.977043,76.609550
1475.233654,5921.647536,-5921.647536,1149.143247
1475.233983,8068.244768,-4367.215058,1762.019645
1475.234312,9992.780217,-3256.906145,2681.334243
1475.234641,9548.656652,-2738.761985,2987.772442
1475.234971,8956.491898,-3478.967927,2374.896044
1475.235300,7920.203579,-5477.523971,1762.019645
1475.235629,6883.915261,-4441.235652,1072.533697
1475.235958,6809.894666,-7772.162391,1225.752797
1475.236287,7772.162391,-7328.038826,842.705048
1475.236617,6069.688724,-7698.141797,459.657299
1475.236946,5847.626942,-7772.162391,1608.800546
1475.237275,6735.874072,-7772.162391,689.485948
1475.237604,6513.812290,-5403.503377,689.485948
1475.237934,5255.462188,-6217.729913,612.876398
1475.238263,6143.709319,-6957.935855,1149.143247
1475.238592,7031.956449,-4737.318029,536.266849
1475.238921,5921.647536,-5329.482782,919.314598
1475.239250,6291.750507,-5551.544565,1225.752797
1475.239580,8512.368333,-5255.462188,1532.190996
1475.239909,8882.471304,-6587.832884,1838.629195
1475.240238,8808.450710,-7550.100608,1838.629195
1475.240567,7402.059420,-8142.265362,1685.410096
1475.240896,6365.771101,-8660.409521,0.000000
1475.241226,4515.256246,-9622.677246,-919.314598
1475.241555,4367.215058,-9030.512492,-612.876398
1475.241884,5255.462188,-9326.594869,-689.485948
1475.242213,6439.791695,-10510.924376,1149.143247
1475.242542,7105.977043,-7772.162391,383.047749
1475.242872,6809.894666,-5921.647536,766.095498
1475.243201,6439.791695,-5847.626942,842.705048
1475.243530,6661.853478,-5181.441594,-229.828649
1475.243859,6217.729913,-4293.194464,842.705048
1475.244188,7994.224174,-4589.276840,1378.971896
1475.244518,10658.965565,-5329.482782,2145.067394
1475.244847,10436.903782,-4515.256246,2528.115143
1475.245176,8956.491898,-5329.482782,2757.943793
1475.245505,9104.533087,-6217.729913,1149.143247
1475.245834,8586.388927,-4885.359217,919.314598
1475.246164,7772.162391,-5403.503377,1915.238745
1475.246493,7402.059420,-5921.647536,536.266849
1475.246822,6439.791695,-7550.100608,842.705048
1475.247151,5033.400406,-7624.121203,1072.533697
1475.247481,4367.215058,-7624.121203,-153.219100
1475.247810,4959.379811,-6291.750507,0.000000
1475.248139,5255.462188,-6143.709319,153.219100
1475.248468,7994.224174,-7254.018232,995.924147
1475.248797,8956.491898,-4737.318029,1915.238745
1475.249127,7994.224174,-5107.421000,1455.581446
1475.249456,8216.285956,-5699.585753,995.924147
1475.249785,8586.388927,-4737.318029,1225.752797
1475.250114,8734.430116,-6661.853478,1378.971896
1475.250443,8956.491898,-6735.874072,1838.629195
1475.250773,8142.265362,-7624.121203,1455.581446
1475.251102,6069.688724,-8512.368333,459.657299
1475.251431,4811.338623,-8068.244768,306.438199
1475.251760,4589.276840,-9030.512492,153.219100
1475.252089,4145.153275,-8068.244768,76.609550
1475.252419,3923.091493,-9252.574275,229.828649
1475.252748,4959.379811,-7994.224174,383.047749
1475.253077,6069.688724,-6587.832884,306.438199
1475.253406,6587.832884,-7179.997637,2145.067394
1475.253735,8660.409521,-3923.091493,842.705048
1475.254065,9030.512492,-5255.462188,1838.629195
1475.254394,10066.800811,-5403.503377,3217.601092
1475.254723,10732.986159,-4515.256246,2068.457845
1475.255052,9622.677246,-4589.276840,1608.800546
1475.255381,7328.038826,-5699.585753,612.876398
1475.255711,5921.647536,-8216.285956,459.657299
1475.256040,5995.668130,-7846.182985,995.924147
1475.256369,5255.462188,-7772.162391,612.876398
1475.256698,5625.565159,-8734.430116,1302.362347
1475.257028,5847.626942,-7031.956449,0.000000
1475.257357,4959.379811,-7698.141797,1072.533697
1475.257686,4663.297435,-7328.038826,76.609550
1475.258015,5255.462188,-4441.235652,0.000000
1475.258344,7105.977043,-4441.235652,1608.800546
1475.258674,9104.533087,-4589.276840,2451.505594
1475.259003,10584.944971,-4589.276840,2757.943793
1475.259332,10214.842000,-4293.194464,2604.724693
1475.259661,8512.368333,-4293.194464,2068.457845
1475.259990,7179.997637,-5847.626942,1149.143247
1475.260320,7105.977043,-6439.791695,1302.362347
1475.260649,6735.874072,-8290.306550,1378.971896
1475.260978,5403.503377,-8808.450710,766.095498
1475.261307,4071.132681,-9178.553681,612.876398
1475.261636,3182.885551,-9252.574275,383.047749
1475.261966,3404.947333,-8586.388927,-995.924147
1475.262295,4811.338623,-7920.203579,-383.047749
1475.262624,6069.688724,-7031.956449,766.095498
1475.262953,8364.327145,-7624.121203,1378.971896
1475.263282,8438.347739,-5773.606348,1378.971896
1475.263612,7550.100608,-4811.338623,1762.019645
1475.263941,6957.935855,-6217.729913,842.705048
1475.264270,7328.038826,-5699.585753,842.705048
1475.264599,7105.977043,-6735.874072,1685.410096
1475.264929,8216.285956,-8364.327145,2834.553343
1475.265258,8734.430116,-7698.141797,2145.067394
1475.265587,6883.915261,-5921.647536,1225.752797
1475.265916,5107.421000,-7328.038826,766.095498
1475.266245,5403.503377,-6809.894666,306.438199
1475.266575,5699.585753,-6365.771101,229.828649
1475.266904,6735.874072,-6291.750507,842.705048
1475.267233,7402.059420,-5329.482782,1838.629195
1475.267562,7772.162391,-4737.318029,1302.362347
1475.267891,7328.038826,-6069.688724,1225.752797
1475.268221,6661.853478,-6661.853478,1991.848295
1475.268550,7254.018232,-5995.668130,1685.410096
1475.268879,7550.100608,-5181.441594,1762.019645
1475.269208,8364.327145,-6735.874072,2604.724693
1475.269537,9252.574275,-5033.400406,1608.800546
1475.269867,7920.203579,-5551.544565,1302.362347
1475.270196,6217.729913,-6587.832884,689.485948
1475.270525,5403.503377,-6735.874072,153.219100
1475.270854,6513.812290,-6735.874072,1302.362347
1475.271183,7105.977043,-7476.080014,459.657299
1475.271513,6291.750507,-7254.018232,689.485948
1475.271842,5773.606348,-7772.162391,306.438199
1475.272171,5921.647536,-8290.306550,76.609550
1475.272500,5699.585753,-6809.894666,76.609550
1475.272829,6143.709319,-7031.956449,995.924147
1475.273159,7031.956449,-6735.874072,383.047749
1475.273488,7550.100608,-6661.853478,612.876398
1475.273817,7550.100608,-7328.038826,1838.629195
1475.274146,7994.224174,-6217.729913,1149.143247
1475.274476,8216.285956,-6365.771101,1685.410096
1475.274805,7920.203579,-4145.153275,1455.581446
1475.275134,8290.306550,-5773.606348,1532.190996
1475.275463,9104.533087,-6809.894666,1302.362347
1475.275792,7550.100608,-6957.935855,1685.410096
1475.276122,5551.544565,-7105.977043,536.266849
1475.276451,5625.565159,-5847.626942,-229.828649
1475.276780,5033.400406,-6587.832884,-153.219100
1475.277109,5773.606348,-7476.080014,153.219100
1475.277438,7920.203579,-6513.812290,995.924147
1475.277768,8660.409521,-6439.791695,1532.190996
1475.278097,7698.141797,-5329.482782,1378.971896
1475.278426,7254.018232,-4737.318029,842.705048
1475.278755,8142.265362,-4589.276840,536.266849
1475.279084,8216.285956,-4071.132681,842.705048
1475.279414,8808.450710,-6587.832884,1378.971896
1475.279743,8586.388927,-6365.771101,1455.581446
1475.280072,8068.244768,-5477.523971,1072.533697
1475.280401,6809.894666,-8068.244768,919.314598
1475.280730,5995.668130,-8734.430116,1072.533697
1475.281060,5107.421000,-8216.285956,536.266849
1475.281389,5625.565159,-8364.327145,-153.219100
1475.281718,6513.812290,-7402.059420,766.095498
1475.282047,6513.812290,-6513.812290,1072.533697
1475.282376,6513.812290,-6439.791695,229.828649
1475.282706,5477.523971,-6365.771101,0.000000
1475.283035,5921.647536,-5847.626942,229.828649
1475.283364,7624.121203,-5699.585753,1302.362347
1475.283693,8956.491898,-6883.915261,1915.238745
1475.284023,8142.265362,-6513.812290,1838.629195
1475.284352,6809.894666,-6217.729913,1762.019645
1475.284681,6439.791695,-7328.038826,76.609550
1475.285010,6143.709319,-6587.832884,1149.143247
1475.285339,6587.832884,-8216.285956,1455.581446
1475.285669,8142.265362,-7920.203579,766.095498
1475.285998,7105.977043,-6291.750507,459.657299
1475.286327,5773.606348,-7550.100608,1225.752797
1475.286656,5995.668130,-6957.935855,76.609550
1475.286985,6291.750507,-6291.750507,995.924147
1475.287315,6365.771101,-6291.750507,1378.971896
1475.287644,7624.121203,-4959.379811,1149.143247
1475.287973,8216.285956,-3330.926739,1149.143247
1475.288302,7550.100608,-4663.297435,2451.505594
1475.288631,7550.100608,-5477.523971,1991.848295
1475.288961,8364.327145,-5773.606348,1838.629195
1475.289290,7624.121203,-5255.462188,2145.067394
1475.289619,7179.997637,-7105.977043,1455.581446
1475.289948,7105.977043,-8216.285956,2451.505594
1475.290277,6513.812290,-8438.347739,1149.143247
1475.290607,5403.503377,-7920.203579,995.924147
1475.290936,5847.626942,-8142.265362,383.047749
1475.291265,6217.729913,-6143.709319,1685.410096
1475.291594,7105.977043,-6883.915261,459.657299
1475.291923,6809.894666,-7254.018232,1225.752797
1475.292253,5625.565159,-4811.338623,0.000000
1475.292582,4589.276840,-7105.977043,0.000000
1475.292911,5551.544565,-7179.997637,536.266849
1475.293240,6735.874072,-7105.977043,766.095498
1475.293570,7402.059420,-7920.203579,1685.410096
1475.293899,7846.182985,-7994.224174,1608.800546
1475.294228,7105.977043,-8216.285956,1149.143247
1475.294557,6513.812290,-7328.038826,995.924147
1475.294886,6957.935855,-6439.791695,306.438199
1475.295216,7105.977043,-6143.709319,536.266849
1475.295545,7328.038826,-6661.853478,1762.019645
1475.295874,7920.203579,-7772.162391,1762.019645
1475.296203,8216.285956,-5477.523971,2528.115143
1475.296532,7179.997637,-5329.482782,2298.286494
1475.296862,5995.668130,-5403.503377,842.705048
1475.297191,5477.523971,-3627.009116,-766.095498
1475.297520,5477.523971,-4219.173869,919.314598
1475.297849,7402.059420,-7772.162391,1838.629195
1475.298178,8290.306550,-5329.482782,1225.752797
1475.298508,7624.121203,-5551.544565,2068.457845
1475.298837,7328.038826,-7105.977043,1915.238745
1475.299166,7920.203579,-7031.956449,766.095498
1475.299495,7698.141797,-5181.441594,1225.752797
1475.299824,7402.059420,-5921.647536,1378.971896
1475.300153,9696.697840,-6291.750507,1302.362347
1475.300482,9178.553681,-5403.503377,1762.019645
1475.300812,6587.832884,-5847.626942,1149.143247
1475.301141,5033.400406,-6587.832884,383.047749
1475.301470,5255.462188,-7328.038826,383.047749
1475.301799,4959.379811,-7254.018232,-689.485948
1475.302128,5181.441594,-7698.141797,919.314598
1475.302457,6069.688724,-7254.018232,459.657299
1475.302786,6439.791695,-7994.224174,536.266849
1475.303115,5847.626942,-8364.327145,536.266849
1475.303444,6365.771101,-7846.182985,536.266849
1475.303773,7402.059420,-4737.318029,995.924147
1475.304102,8216.285956,-5699.585753,459.657299
1475.304431,8438.347739,-6735.874072,1225.752797
1475.304760,8364.327145,-6735.874072,1608.800546
1475.305089,8216.285956,-7550.100608,1532.190996
1475.305418,6291.750507,-6883.915261,306.438199
1475.305748,5477.523971,-7105.977043,1149.143247
1475.306077,5995.668130,-7402.059420,689.485948
1475.306406,6883.915261,-8290.306550,153.219100
1475.306735,5995.668130,-6069.688724,2068.457845
1475.307064,5625.565159,-7105.977043,995.924147
1475.307393,6365.771101,-6661.853478,-306.438199
1475.307722,5773.606348,-4885.359217,459.657299
1475.308051,7179.997637,-5477.523971,919.314598
1475.308380,9622.677246,-6513.812290,1915.238745
1475.308709,9770.718434,-5255.462188,1762.019645
1475.309038,7476.080014,-5921.647536,1915.238745
1475.309367,7179.997637,-5625.565159,689.485948
1475.309696,7550.100608,-5847.626942,459.657299
1475.310025,7105.977043,-6291.750507,1915.238745
1475.310354,7254.018232,-7698.141797,1838.629195
1475.310684,7550.100608,-6291.750507,1608.800546
1475.311013,6883.915261,-5995.668130,1608.800546
1475.311342,6217.729913,-6735.874072,1685.410096
1475.311671,5995.668130,-5551.544565,153.219100
1475.312000,5847.626942,-6587.832884,-76.609550
1475.312329,6217.729913,-8438.347739,612.876398
1475.312658,6957.935855,-7328.038826,1072.533697
1475.312987,6587.832884,-6587.832884,1762.019645
1475.313316,6587.832884,-7254.018232,306.438199
1475.313645,6809.894666,-7179.997637,919.314598
1475.313974,6587.832884,-7402.059420,1225.752797
1475.314303,7254.018232,-7031.956449,1608.800546
1475.314632,7476.080014,-7179.997637,1072.533697
1475.314961,6735.874072,-6735.874072,919.314598
1475.315290,6439.791695,-6957.935855,1455.581446
1475.315620,6735.874072,-7550.100608,842.705048
1475.315949,6809.894666,-5699.585753,1302.362347
1475.316278,6439.791695,-6069.688724,995.924147
1475.316607,7254.018232,-6735.874072,1149.143247
1475.316936,6661.853478,-5551.544565,306.438199
1475.317265,5625.565159,-6513.812290,0.000000
1475.317594,6513.812290,-7402.059420,919.314598
1475.317923,8216.285956,-6069.688724,1378.971896
1475.318252,9178.553681,-5329.482782,2145.067394
1475.318581,9696.697840,-5477.523971,2681.334243
1475.318910,9622.677246,-5551.544565,1915.238745
1475.319239,7550.100608,-6217.729913,1378.971896
1475.319568,5625.565159,-6143.709319,689.485948
1475.319897,4663.297435,-6735.874072,153.219100
1475.320227,5477.523971,-5551.544565,1225.752797
1475.320556,6587.832884,-6587.832884,995.924147
1475.320885,7105.977043,-7550.100608,1532.190996
1475.321214,7105.977043,-5477.523971,1455.581446
1475.321543,6957.935855,-6217.729913,1685.410096
1475.321872,6439.791695,-6587.832884,842.705048
1475.322201,5847.626942,-6365.771101,306.438199
1475.322530,6735.874072,-7476.080014,995.924147
1475.322859,7624.121203,-6735.874072,229.828649
1475.323188,7328.038826,-8068.244768,1378.971896
1475.323517,7179.997637,-6883.915261,1685.410096
1475.323846,8142.265362,-6661.853478,689.485948
1475.324175,7624.121203,-7031.956449,1532.190996
1475.324504,7476.080014,-5033.400406,1378.971896
1475.324833,7698.141797,-6439.791695,919.314598
1475.325163,7772.162391,-5773.606348,995.924147
1475.325492,5921.647536,-5477.523971,842.705048
1475.325821,5255.462188,-7402.059420,153.219100
1475.326150,5551.544565,-6291.750507,306.438199
1475.326479,5033.400406,-6883.915261,459.657299
1475.326808,6439.791695,-8364.327145,1072.533697
1475.327137,7994.224174,-8142.265362,1685.410096
1475.327466,7920.203579,-6587.832884,2451.505594
1475.327795,7105.977043,-6069.688724,536.266849
1475.328124,6217.729913,-6587.832884,1149.143247
1475.328453,6513.812290,-5847.626942,766.095498
1475.328782,7402.059420,-5625.565159,1149.143247
1475.329111,8068.244768,-6735.874072,2145.067394
1475.329440,7772.162391,-6439.791695,2221.676944
1475.329769,7105.977043,-5403.503377,1225.752797
1475.330099,5921.647536,-5921.647536,612.876398
1475.330428,6069.688724,-5625.565159,995.924147
1475.330757,7550.100608,-6291.750507,1225.752797
1475.331086,7402.059420,-6069.688724,383.047749
1475.331415,6735.874072,-5995.668130,919.314598
1475.331744,7179.997637,-7179.997637,1455.581446
1475.332073,7698.141797,-8512.368333,919.314598
1475.332402,6883.915261,-5995.668130,1149.143247
1475.332731,6439.791695,-6143.709319,1378.971896
1475.333060,7402.059420,-7624.121203,229.828649
1475.333389,7698.141797,-6883.915261,995.924147
1475.333718,5921.647536,-7328.038826,1378.971896
1475.334047,5921.647536,-7031.956449,842.705048
1475.334376,5773.606348,-7328.038826,766.095498
1475.334705,5847.626942,-7105.977043,995.924147
1475.335035,7476.080014,-7105.977043,1455.581446
1475.335364,9104.533087,-6217.729913,1455.581446
1475.335693,7846.182985,-6365.771101,2068.457845
1475.336022,6661.853478,-5921.647536,383.047749
1475.336351,6661.853478,-5403.503377,0.000000
1475.336680,7031.956449,-5477.523971,536.266849
1475.337009,7105.977043,-6291.750507,1149.143247
1475.337338,7772.162391,-7179.997637,1378.971896
1475.337667,7624.121203,-5921.647536,536.266849
1475.337996,7105.977043,-6883.915261,1225.752797
1475.338325,6587.832884,-7254.018232,1072.533697
1475.338654,6809.894666,-6365.771101,1149.143247
1475.338983,6365.771101,-6513.812290,1072.533697
1475.339312,7328.038826,-6661.853478,919.314598
1475.339641,7105.977043,-6069.688724,1685.410096
1475.339971,6957.935855,-6069.688724,1532.190996
1475.340300,6957.935855,-5255.462188,766.095498
1475.340629,6661.853478,-5107.421000,306.438199
1475.340958,7624.121203,-5329.482782,1302.362347
1475.341287,8512.368333,-5847.626942,1072.533697
1475.341616,8142.265362,-7031.956449,689.485948
1475.341945,6735.874072,-6587.832884,2145.067394
1475.342274,6439.791695,-7402.059420,0.000000
1475.342603,5847.626942,-7402.059420,-229.828649
1475.342932,5847.626942,-7105.977043,1378.971896
1475.343261,6735.874072,-9992.780217,1149.143247
1475.343590,7105.977043,-7550.100608,1149.143247
1475.343919,5181.441594,-6513.812290,536.266849
1475.344248,5995.668130,-7476.080014,536.266849
1475.344577,8216.285956,-6069.688724,1302.362347
1475.344907,7994.224174,-5847.626942,1302.362347
1475.345236,7772.162391,-5551.544565,1455.581446
1475.345565,7624.121203,-7254.018232,689.485948
1475.345894,7328.038826,-5773.606348,306.438199
1475.346223,5625.565159,-7402.059420,306.438199
1475.346552,5699.585753,-8586.388927,842.705048
1475.346881,6735.874072,-7179.997637,383.047749
1475.347210,7105.977043,-7402.059420,1225.752797
1475.347539,7179.997637,-6365.771101,2068.457845
1475.347868,7254.018232,-6291.750507,1302.362347
1475.348197,7105.977043,-5625.565159,1608.800546
1475.348526,6069.688724,-5477.523971,612.876398
1475.348855,6883.915261,-4959.379811,995.924147
1475.349184,7772.162391,-4515.256246,2374.896044
1475.349514,8364.327145,-6069.688724,2221.676944
1475.349843,7624.121203,-5477.523971,1685.410096
1475.350172,6291.750507,-5329.482782,2221.676944
1475.350501,6735.874072,-6291.750507,1302.362347
1475.350830,6587.832884,-6217.729913,383.047749
1475.351159,5773.606348,-7105.977043,1378.971896
1475.351488,7031.956449,-7328.038826,1915.238745
1475.351817,8068.244768,-7179.997637,842.705048
1475.352146,6217.729913,-6069.688724,1608.800546
1475.352475,5551.544565,-6661.853478,1072.533697
1475.352804,5995.668130,-6513.812290,612.876398
1475.353133,5847.626942,-5847.626942,1149.143247
1475.353462,6069.688724,-5033.400406,1455.581446
1475.353791,8734.430116,-5625.565159,1225.752797
1475.354120,8216.285956,-5033.400406,1532.190996
1475.354450,6735.874072,-7254.018232,1762.019645
1475.354779,6661.853478,-7328.038826,1149.143247
1475.355108,6513.812290,-6957.935855,995.924147
1475.355437,6809.894666,-8216.285956,1838.629195
1475.355766,7550.100608,-7994.224174,689.485948
1475.356095,7031.956449,-7179.997637,612.876398
1475.356424,5921.647536,-7402.059420,995.924147
1475.356753,6809.894666,-7772.162391,1225.752797
1475.357082,6735.874072,-7031.956449,612.876398
1475.357411,6217.729913,-5107.421000,689.485948
1475.357740,6291.750507,-7254.018232,0.000000
1475.358069,6735.874072,-6217.729913,153.219100
1475.358398,5921.647536,-6587.832884,1149.143247
1475.358727,6587.832884,-7920.203579,1225.752797
1475.359056,7402.059420,-6661.853478,842.705048
1475.359386,7105.977043,-5699.585753,1149.143247
1475.359715,8142.265362,-7179.997637,1838.629195
1475.360044,8808.450710,-6809.894666,1455.581446
1475.360373,8290.306550,-6735.874072,1838.629195
1475.360702,7402.059420,-6809.894666,919.314598
1475.361031,7105.977043,-5699.585753,689.485948
1475.361360,7402.059420,-4885.359217,766.095498
1475.361689,7476.080014,-5699.585753,766.095498
1475.362018,8216.285956,-6513.812290,1455.581446
1475.362347,7994.224174,-5329.482782,2221.676944
1475.362676,6809.894666,-5107.421000,689.485948
1475.363005,5921.647536,-5625.565159,306.438199
1475.363334,5181.441594,-6587.832884,-229.828649
1475.363663,6143.709319,-7328.038826,1225.752797
1475.363992,8068.244768,-7624.121203,1302.362347
1475.364322,8586.388927,-6735.874072,2145.067394
1475.364651,7624.121203,-5921.647536,1455.581446
1475.364980,7402.059420,-6291.750507,1072.533697
1475.365309,7328.038826,-6291.750507,536.266849
1475.365638,7105.977043,-5255.462188,459.657299
1475.365967,6957.935855,-7476.080014,536.266849
1475.366296,7105.977043,-5995.668130,153.219100
1475.366625,6143.709319,-5625.565159,689.485948
1475.366954,5995.668130,-6809.894666,153.219100
1475.367283,6883.915261,-6809.894666,459.657299
1475.367612,7254.018232,-6513.812290,1378.971896
1475.367941,8142.265362,-7846.182985,1455.581446
1475.368270,8364.327145,-6735.874072,1149.143247
1475.368599,6439.791695,-6291.750507,919.314598
1475.368928,5329.482782,-6143.709319,0.000000
1475.369258,7105.977043,-7624.121203,0.000000
1475.369587,8290.306550,-5995.668130,1608.800546
1475.369916,8216.285956,-5551.544565,2068.457845
1475.370245,8956.491898,-6587.832884,1378.971896
1475.370574,7994.224174,-4293.194464,766.095498
1475.370903,5329.482782,-7105.977043,536.266849
1475.371232,4367.215058,-7550.100608,-689.485948
1475.371561,4737.318029,-7624.121203,306.438199
1475.371890,6957.935855,-7476.080014,1225.752797
1475.372219,8586.388927,-7179.997637,1685.410096
1475.372548,8512.368333,-6735.874072,1838.629195
1475.372877,7031.956449,-6291.750507,1378.971896
1475.373206,6809.894666,-5329.482782,76.609550
1475.373535,7254.018232,-5329.482782,536.266849
1475.373865,8068.244768,-3701.029710,1532.190996
1475.374194,9696.697840,-6217.729913,2451.505594
1475.374523,9992.780217,-7550.100608,2528.115143
1475.374852,6735.874072,-6291.750507,1608.800546
1475.375181,4441.235652,-7105.977043,536.266849
1475.375510,4959.379811,-6069.688724,-612.876398
1475.375839,4811.338623,-7846.182985,689.485948
1475.376168,5625.565159,-8808.450710,2068.457845
1475.376497,6291.750507,-9622.677246,919.314598
1475.376826,5921.647536,-7920.203579,1149.143247
1475.377155,5921.647536,-6587.832884,153.219100
1475.377484,6143.709319,-7402.059420,459.657299
1475.377813,6957.935855,-5033.400406,1608.800546
1475.378142,7402.059420,-5995.668130,1532.190996
1475.378471,8660.409521,-6661.853478,2068.457845
1475.378801,8068.244768,-5625.565159,2298.286494
1475.379130,6661.853478,-6069.688724,1455.581446
1475.379459,6217.729913,-5551.544565,1532.190996
1475.379788,6513.812290,-5625.565159,689.485948
1475.380117,6291.750507,-7624.121203,1762.019645
1475.380446,6587.832884,-7402.059420,2298.286494
1475.380775,6809.894666,-6661.853478,1149.143247
1475.381104,5255.462188,-6439.791695,-383.047749
1475.381433,4441.235652,-8660.409521,383.047749
1475.381762,5847.626942,-6513.812290,-153.219100
1475.382091,7402.059420,-6143.709319,766.095498
1475.382420,8438.347739,-5551.544565,1685.410096
1475.382749,9400.615463,-4367.215058,1149.143247
1475.383078,8808.450710,-5699.585753,1608.800546
1475.383407,7624.121203,-5551.544565,1685.410096
1475.383737,7920.203579,-6439.791695,995.924147
1475.384066,7105.977043,-5625.565159,1072.533697
1475.384395,7031.956449,-6439.791695,1455.581446
1475.384724,7550.100608,-7846.182985,1532.190996
1475.385053,7402.059420,-7031.956449,1838.629195
1475.385382,7105.977043,-7105.977043,689.485948
1475.385711,5625.565159,-7476.080014,459.657299
1475.386040,5921.647536,-7179.997637,689.485948
1475.386369,6365.771101,-6513.812290,459.657299
1475.386698,6365.771101,-7254.018232,612.876398
1475.387027,7031.956449,-6661.853478,459.657299
1475.387356,6735.874072,-6957.935855,459.657299
1475.387685,6513.812290,-7624.121203,689.485948
1475.388014,6513.812290,-7105.977043,1302.362347
1475.388343,7179.997637,-7328.038826,1455.581446
1475.388673,7254.018232,-7105.977043,919.314598
1475.389002,7254.018232,-6439.791695,1991.848295
1475.389331,7772.162391,-6291.750507,1532.190996
1475.389660,7179.997637,-5921.647536,1149.143247
1475.389989,6809.894666,-6069.688724,1608.800546
1475.390318,6957.935855,-4737.318029,1149.143247
1475.390647,7476.080014,-4811.338623,0.000000
1475.390976,7920.203579,-5699.585753,1915.238745
1475.391305,7772.162391,-5033.400406,1915.238745
1475.391634,7624.121203,-5403.503377,1225.752797
1475.391963,7031.956449,-4811.338623,383.047749
1475.392292,6365.771101,-6217.729913,536.266849
1475.392621,7550.100608,-6217.729913,1532.190996
1475.392950,6957.935855,-8882.471304,1225.752797
1475.393279,5773.606348,-8660.409521,1532.190996
1475.393609,5033.400406,-7254.018232,842.705048
1475.393938,6143.709319,-8216.285956,842.705048
1475.394267,7031.956449,-5921.647536,1455.581446
1475.394596,7105.977043,-6069.688724,1378.971896
1475.394925,7624.121203,-6883.915261,459.657299
1475.395254,6735.874072,-6217.729913,1072.533697
1475.395583,5995.668130,-6513.812290,995.924147
1475.395912,7328.038826,-6735.874072,689.485948
1475.396241,7179.997637,-6365.771101,1685.410096
1475.396570,7994.224174,-6365.771101,1608.800546
1475.396899,7846.182985,-7179.997637,1532.190996
1475.397228,7550.100608,-6883.915261,1991.848295
1475.397557,6809.894666,-6587.832884,383.047749
1475.397886,5329.482782,-6439.791695,0.000000
1475.398215,5107.421000,-7772.162391,-229.828649
1475.398545,5921.647536,-7031.956449,1072.533697
1475.398874,7624.121203,-6513.812290,1685.410096
1475.399203,8586.388927,-5773.606348,1991.848295
1475.399532,8142.265362,-5329.482782,2298.286494
1475.399861,6809.894666,-6587.832884,1455.581446
1475.400190,5477.523971,-8142.265362,766.095498
1475.400519,4663.297435,-6661.853478,536.266849
1475.400848,5773.606348,-6809.894666,995.924147
1475.401177,7550.100608,-6439.791695,1149.143247
1475.401506,7698.141797,-5847.626942,1991.848295
1475.401836,7624.121203,-5773.606348,2298.286494
1475.402165,7179.997637,-7105.977043,536.266849
1475.402494,7105.977043,-5477.523971,995.924147
1475.402823,7105.977043,-4663.297435,842.705048
1475.403152,8364.327145,-6661.853478,1225.752797
1475.403481,8586.388927,-4663.297435,1915.238745
1475.403810,6439.791695,-6365.771101,536.266849
1475.404139,5329.482782,-6883.915261,612.876398
1475.404469,5995.668130,-7328.038826,766.095498
1475.404798,6735.874072,-6957.935855,612.876398
1475.405127,6513.812290,-7772.162391,919.314598
1475.405456,6365.771101,-8068.244768,1302.362347
1475.405785,6069.688724,-7698.141797,1072.533697
1475.406114,5995.668130,-6957.935855,306.438199
1475.406443,6439.791695,-6513.812290,153.219100
1475.406772,6661.853478,-5107.421000,383.047749
1475.407101,8512.368333,-6957.935855,1685.410096
1475.407430,9252.574275,-6809.894666,1608.800546
1475.407760,7920.203579,-6069.688724,1455.581446
1475.408089,7624.121203,-6439.791695,1532.190996
1475.408418,7179.997637,-6291.750507,842.705048
1475.408747,6513.812290,-7476.080014,995.924147
1475.409076,6809.894666,-7105.977043,1608.800546
1475.409405,7105.977043,-7254.018232,612.876398
1475.409734,6735.874072,-7402.059420,842.705048
1475.410063,5403.503377,-6809.894666,1149.143247
1475.410392,6143.709319,-7402.059420,153.219100
1475.410722,6587.832884,-5921.647536,229.828649
1475.411051,6735.874072,-3997.112087,995.924147
1475.411380,9030.512492,-5329.482782,383.047749
1475.411709,9474.636058,-5255.462188,919.314598
1475.412038,7994.224174,-6883.915261,1302.362347
1475.412367,7846.182985,-6439.791695,919.314598
1475.412696,7179.997637,-6143.709319,306.438199
1475.413025,6661.853478,-5995.668130,919.314598
1475.413354,7550.100608,-7105.977043,1225.752797
1475.413684,9104.533087,-6587.832884,1455.581446
1475.414013,8512.368333,-5995.668130,2451.505594
1475.414342,7105.977043,-6513.812290,1149.143247
1475.414671,5995.668130,-5477.523971,0.000000
1475.415000,5181.441594,-6143.709319,229.828649
1475.415329,5773.606348,-6957.935855,536.266849
1475.415658,7179.997637,-6587.832884,766.095498
1475.415987,6809.894666,-6439.791695,766.095498
1475.416316,6439.791695,-6735.874072,1302.362347
1475.416646,7105.977043,-6587.832884,766.095498
1475.416975,7402.059420,-7179.997637,919.314598
1475.417304,7105.977043,-7105.977043,1225.752797
1475.417633,7328.038826,-8068.244768,766.095498
1475.417962,7031.956449,-7105.977043,995.924147
1475.418291,6365.771101,-6365.771101,1149.143247
1475.418620,7328.038826,-6291.750507,1455.581446
1475.418949,8142.265362,-6069.688724,995.924147
1475.419278,7550.100608,-5699.585753,1991.848295
1475.419608,7476.080014,-6365.771101,612.876398
1475.419937,6883.915261,-6439.791695,459.657299
1475.420266,5995.668130,-5995.668130,612.876398
1475.420595,5625.565159,-6735.874072,0.000000
1475.420924,6217.729913,-7402.059420,536.266849
1475.421253,7402.059420,-6661.853478,1225.752797
1475.421582,8586.388927,-6069.688724,1225.752797
1475.421911,8956.491898,-6291.750507,2068.457845
1475.422240,7920.203579,-6365.771101,1991.848295
1475.422569,6587.832884,-6661.853478,1149.143247
1475.422899,5847.626942,-6143.709319,76.609550
1475.423228,6143.709319,-5033.400406,1149.143247
1475.423557,7105.977043,-6883.915261,1838.629195
1475.423886,8290.306550,-6513.812290,1608.800546
1475.424215,7179.997637,-5699.585753,1149.143247
1475.424544,6513.812290,-6735.874072,229.828649
1475.424873,6291.750507,-7402.059420,612.876398
1475.425202,6365.771101,-6809.894666,919.314598
1475.425531,6735.874072,-6883.915261,1532.190996
1475.425861,7254.018232,-7402.059420,1302.362347
1475.426190,7105.977043,-6957.935855,1225.752797
1475.426519,5699.585753,-7846.182985,1072.533697
1475.426848,5477.523971,-8068.244768,536.266849
1475.427177,6291.750507,-7476.080014,1455.581446
1475.427506,6513.812290,-6143.709319,459.657299
1475.427835,7031.956449,-5477.523971,153.219100
1475.428164,7402.059420,-6217.729913,1302.362347
1475.428493,6439.791695,-5773.606348,919.314598
1475.428823,5403.503377,-6069.688724,76.609550
1475.429152,6291.750507,-6365.771101,1149.143247
1475.429481,8216.285956,-5403.503377,1685.410096
1475.429810,8882.471304,-7402.059420,2145.067394
1475.430139,8586.388927,-7772.162391,3294.210641
1475.430468,6661.853478,-6883.915261,1608.800546
1475.430797,6809.894666,-5995.668130,-306.438199
1475.431126,5773.606348,-6365.771101,1149.143247
1475.431455,6883.915261,-6883.915261,1838.629195
1475.431785,7624.121203,-4663.297435,919.314598
1475.432114,7402.059420,-6291.750507,2068.457845
1475.432443,7105.977043,-5921.647536,1455.581446
1475.432772,7476.080014,-4441.235652,919.314598
1475.433101,6661.853478,-5773.606348,612.876398
1475.433430,5773.606348,-5699.585753,842.705048
1475.433759,6735.874072,-6439.791695,995.924147
1475.434088,8734.430116,-7031.956449,1302.362347
1475.434417,8290.306550,-7105.977043,1915.238745
1475.434747,7920.203579,-6439.791695,1991.848295
1475.435076,7698.141797,-5551.544565,0.000000
1475.435405,7476.080014,-6439.791695,842.705048
1475.435734,7254.018232,-6439.791695,1991.848295
1475.436063,8142.265362,-6809.894666,1915.238745
1475.436392,7624.121203,-7179.997637,1149.143247
1475.436721,4737.318029,-5699.585753,919.314598
1475.437050,4737.318029,-7105.977043,0.000000
1475.437379,5255.462188,-7624.121203,0.000000
1475.437708,5921.647536,-7994.224174,1685.410096
1475.438038,7846.182985,-6957.935855,1455.581446
1475.438367,8956.491898,-6587.832884,2298.286494
1475.438696,7846.182985,-5403.503377,1685.410096
1475.439025,5995.668130,-6809.894666,76.609550
1475.439354,5403.503377,-7550.100608,0.000000
1475.439683,5625.565159,-6587.832884,76.609550
1475.440012,7476.080014,-6735.874072,1532.190996
1475.440341,8882.471304,-6957.935855,1915.238745
1475.440670,8142.265362,-6365.771101,1149.143247
1475.441000,6513.812290,-7476.080014,1608.800546
1475.441329,6365.771101,-7105.977043,76.609550
1475.441658,5699.585753,-6143.709319,0.000000
1475.441987,6291.750507,-6217.729913,766.095498
1475.442316,7254.018232,-7846.182985,842.705048
1475.442645,7698.141797,-7476.080014,1608.800546
1475.442974,6513.812290,-5773.606348,1302.362347
1475.443303,6809.894666,-6291.750507,306.438199
1475.443632,7328.038826,-5403.503377,1302.362347
1475.443962,7624.121203,-4071.132681,2451.505594
1475.444291,8660.409521,-4959.379811,919.314598
1475.444620,7846.182985,-5329.482782,1685.410096
1475.444949,6439.791695,-6069.688724,1915.238745
1475.445278,7105.977043,-7105.977043,1149.143247
1475.445607,7031.956449,-5329.482782,919.314598
1475.445936,5847.626942,-6069.688724,2068.457845
1475.446265,7698.141797,-6883.915261,1149.143247
1475.446594,7031.956449,-7772.162391,1072.533697
1475.446924,5181.441594,-7105.977043,1072.533697
1475.447253,5329.482782,-5699.585753,0.000000
1475.447582,6809.894666,-5329.482782,76.609550
1475.447911,5255.462188,-7105.977043,0.000000
1475.448240,4737.318029,-8142.265362,995.924147
1475.448569,6957.935855,-8068.244768,1072.533697
1475.448898,7179.997637,-7179.997637,229.828649
1475.449227,5255.462188,-7328.038826,1608.800546
1475.449556,6143.709319,-7105.977043,0.000000
1475.449885,6883.915261,-7031.956449,383.047749
1475.450215,6735.874072,-7698.141797,1378.971896
1475.450544,7698.141797,-7105.977043,1608.800546
1475.450873,9030.512492,-6069.688724,1455.581446
1475.451202,7994.224174,-6217.729913,2528.115143
1475.451531,7105.977043,-5847.626942,1455.581446
1475.451860,6735.874072,-5625.565159,536.266849
1475.452189,5921.647536,-5477.523971,1072.533697
1475.452518,7179.997637,-7031.956449,1378.971896
1475.452847,7994.224174,-7476.080014,1225.752797
1475.453177,6217.729913,-5699.585753,2068.457845
1475.453506,5255.462188,-7698.141797,459.657299
1475.453835,6513.812290,-7698.141797,306.438199
1475.454164,6587.832884,-6809.894666,1685.410096
1475.454493,8068.244768,-6883.915261,1762.019645
1475.454822,9030.512492,-5921.647536,1685.410096
1475.455151,7328.038826,-5699.585753,1149.143247
1475.455480,6217.729913,-6217.729913,766.095498
1475.455809,7402.059420,-6291.750507,536.266849
1475.456139,6587.832884,-6809.894666,842.705048
1475.456468,6513.812290,-5403.503377,1302.362347
1475.456797,7624.121203,-7402.059420,0.000000
1475.457126,7550.100608,-7179.997637,1532.190996
1475.457455,6217.729913,-7624.121203,1685.410096
1475.457784,6069.688724,-7179.997637,383.047749
1475.458113,4959.379811,-6883.915261,-536.266849
1475.458442,5255.462188,-7550.100608,766.095498
1475.458771,7031.956449,-8660.409521,689.485948
1475.459101,7105.977043,-8586.388927,1532.190996
1475.459430,5773.606348,-6883.915261,1532.190996
1475.459759,6217.729913,-6217.729913,306.438199
1475.460088,7105.977043,-6365.771101,153.219100
1475.460417,7105.977043,-5255.462188,1915.238745
1475.460746,8068.244768,-5551.544565,1532.190996
1475.461075,8512.368333,-5847.626942,919.314598
1475.461404,7105.977043,-5995.668130,1455.581446
1475.461733,6661.853478,-7031.956449,1762.019645
1475.462063,7105.977043,-7031.956449,0.000000
1475.462392,6291.750507,-7402.059420,1915.238745
1475.462721,6809.894666,-8290.306550,1149.143247
1475.463050,7105.977043,-8808.450710,459.657299
1475.463379,6069.688724,-8068.244768,689.485948
1475.463708,3997.112087,-9844.739029,76.609550
1475.464037,4145.153275,-8660.409521,-842.705048
1475.464366,4441.235652,-7402.059420,-766.095498
1475.464695,4737.318029,-9104.533087,612.876398
1475.465024,7254.018232,-9548.656652,1225.752797
1475.465354,7402.059420,-8364.327145,2451.505594
1475.465683,5255.462188,-8216.285956,1378.971896
1475.466012,3923.091493,-9474.636058,2374.896044
1475.466341,3627.009116,-6809.894666,689.485948
1475.466670,4145.153275,-6883.915261,1838.629195
1475.466999,7105.977043,-5699.585753,2221.676944
1475.467328,8068.244768,-6883.915261,2987.772442
1475.467657,7254.018232,-5921.647536,3064.381992
1475.467986,5773.606348,-7328.038826,2451.505594
1475.468316,4885.359217,-6661.853478,-229.828649
1475.468645,3404.947333,-7698.141797,-536.266849
1475.468974,3552.988522,-10807.006753,1455.581446
1475.469303,4515.256246,-10214.842000,229.828649
1475.469632,3849.070898,-10362.883188,612.876398
1475.469961,3404.947333,-11473.192101,1225.752797
1475.470290,3997.112087,-10510.924376,-229.828649
1475.470619,2146.597232,-10066.800811,-766.095498
1475.470948,2072.576638,-12509.480420,459.657299
1475.471278,4367.215058,-12435.459826,1302.362347
1475.471607,4367.215058,-9400.615463,2451.505594
1475.471936,3256.906145,-9104.533087,2757.943793
1475.472265,4663.297435,-7920.203579,2221.676944
1475.472594,5107.421000,-4811.338623,1455.581446
1475.472923,3849.070898,-6587.832884,2451.505594
1475.473252,5847.626942,-6735.874072,3294.210641
1475.473581,7179.997637,-5033.400406,2221.676944
1475.473910,6291.750507,-6587.832884,1455.581446
1475.474240,5181.441594,-8142.265362,1532.190996
1475.474569,5329.482782,-8808.450710,1685.410096
1475.474898,4145.153275,-10955.047942,229.828649
1475.475227,2886.803174,-11029.068536,1072.533697
1475.475556,3404.947333,-11325.150913,306.438199
1475.475885,3923.091493,-10066.800811,0.000000
1475.476214,3775.050304,-11547.212695,1225.752797
1475.476543,4811.338623,-10362.883188,1225.752797
1475.476872,5699.585753,-8216.285956,459.657299
1475.477202,5625.565159,-7476.080014,306.438199
1475.477531,5847.626942,-6883.915261,459.657299
1475.477860,6291.750507,-8882.471304,1608.800546
1475.478189,6809.894666,-8438.347739,1762.019645
1475.478518,6661.853478,-6439.791695,1072.533697
1475.478847,7179.997637,-5033.400406,995.924147
1475.479176,8068.244768,-4737.318029,1149.143247
1475.479505,8216.285956,-6069.688724,1455.581446
1475.479834,6809.894666,-8660.409521,2068.457845
1475.480163,5699.585753,-10584.944971,2298.286494
1475.480493,4663.297435,-9252.574275,689.485948
1475.480822,1776.494261,-8956.491898,-306.438199
1475.481151,1406.391290,-11399.171507,229.828649
1475.481480,3627.009116,-10362.883188,1302.362347
1475.481809,5477.523971,-8660.409521,1455.581446
1475.482138,5625.565159,-5699.585753,995.924147
1475.482467,6587.832884,-4071.132681,1455.581446
1475.482796,7402.059420,-6587.832884,1378.971896
1475.483125,5773.606348,-7624.121203,842.705048
1475.483455,3552.988522,-7920.203579,306.438199
1475.483784,4737.318029,-7846.182985,229.828649
1475.484113,5625.565159,-9030.512492,842.705048
1475.484442,5255.462188,-9622.677246,1762.019645
1475.484771,5403.503377,-9326.594869,1072.533697
1475.485100,5551.544565,-9104.533087,76.609550
1475.485429,4367.215058,-11029.068536,612.876398
1475.485758,2812.782580,-11843.295072,536.266849
1475.486087,2368.659014,-11695.253884,0.000000
1475.486417,2294.638420,-9918.759623,0.000000
1475.486746,2738.761985,-10362.883188,689.485948
1475.487075,4737.318029,-9844.739029,2987.772442
1475.487404,6365.771101,-7105.977043,3217.601092
1475.487733,6809.894666,-4663.297435,1608.800546
1475.488062,6439.791695,-4293.194464,1378.971896
1475.488391,5847.626942,-5921.647536,1149.143247
1475.488720,5181.441594,-9474.636058,1762.019645
1475.489049,3701.029710,-9918.759623,1455.581446
1475.489379,2960.823768,-9844.739029,-459.657299
1475.489708,3034.844362,-11251.130318,153.219100
1475.490037,3182.885551,-14211.954086,1149.143247
1475.490366,3478.967927,-15174.221811,2145.067394
1475.490695,3849.070898,-11843.295072,842.705048
1475.491024,3997.112087,-7772.162391,-689.485948
1475.491353,4737.318029,-6883.915261,153.219100
1475.491682,5329.482782,-8438.347739,2374.896044
1475.492011,6365.771101,-8512.368333,2987.772442
1475.492340,5329.482782,-6883.915261,1455.581446
1475.492670,4071.132681,-5773.606348,153.219100
1475.492999,4071.132681,-6439.791695,919.314598
1475.493328,5551.544565,-8660.409521,1915.238745
1475.493657,6291.750507,-8438.347739,1838.629195
1475.493986,5995.668130,-7698.141797,1072.533697
1475.494315,5403.503377,-7254.018232,919.314598
1475.494644,5847.626942,-8068.244768,1149.143247
1475.494973,6513.812290,-8734.430116,1072.533697
1475.495302,6513.812290,-8438.347739,612.876398
1475.495632,5921.647536,-8512.368333,536.266849
1475.495961,5921.647536,-10214.842000,2528.115143
1475.496290,5625.565159,-9770.718434,1915.238745
1475.496619,4737.318029,-8808.450710,919.314598
1475.496948,3701.029710,-8290.306550,-383.047749
1475.497277,2960.823768,-9992.780217,459.657299
1475.497606,3256.906145,-10658.965565,1378.971896
1475.497935,4737.318029,-8660.409521,1685.410096
1475.498264,5625.565159,-5477.523971,842.705048
1475.498594,6735.874072,-4737.318029,919.314598
1475.498923,7179.997637,-6883.915261,919.314598
1475.499252,6661.853478,-7994.224174,2145.067394
1475.499581,7328.038826,-6809.894666,1455.581446
1475.499910,7105.977043,-6069.688724,536.266849
1475.500239,6291.750507,-7179.997637,1455.581446
1475.500568,5551.544565,-9252.574275,1532.190996
1475.500897,4811.338623,-10658.965565,1302.362347
1475.501227,3923.091493,-10288.862594,459.657299
1475.501556,2812.782580,-9474.636058,-383.047749
1475.501885,2368.659014,-10214.842000,0.000000
1475.502214,2886.803174,-12139.377449,306.438199
1475.502543,3330.926739,-12361.439231,1072.533697
1475.502872,3701.029710,-9992.780217,1608.800546
1475.503202,4515.256246,-7105.977043,766.095498
1475.503531,5403.503377,-6587.832884,1762.019645
1475.503860,6883.915261,-6217.729913,2374.896044
1475.504189,7402.059420,-5773.606348,1762.019645
1475.504518,6957.935855,-5625.565159,1455.581446
1475.504847,6365.771101,-6291.750507,1378.971896
1475.505176,5625.565159,-8364.327145,842.705048
1475.505506,4441.235652,-9918.759623,766.095498
1475.505835,2368.659014,-11843.295072,229.828649
1475.506164,1036.288319,-13545.768739,-306.438199
1475.506493,1554.432478,-13915.871710,-306.438199
1475.506822,2294.638420,-12583.501014,-995.924147
1475.507151,3923.091493,-11103.089130,-536.266849
1475.507481,4885.359217,-10066.800811,766.095498
1475.507810,5033.400406,-8586.388927,1991.848295
1475.508139,5181.441594,-7105.977043,1915.238745
1475.508468,5625.565159,-6069.688724,2221.676944
1475.508797,6735.874072,-5255.462188,2834.553343
1475.509126,7105.977043,-5255.462188,2834.553343
1475.509456,6513.812290,-5625.565159,2757.943793
1475.509785,6143.709319,-5551.544565,1072.533697
1475.510114,5551.544565,-6513.812290,229.828649
1475.510443,4441.235652,-8660.409521,76.609550
1475.510772,3256.906145,-11621.233289,306.438199
1475.511101,3404.947333,-13027.624579,383.047749
1475.511431,3997.112087,-12065.356855,919.314598
1475.511760,4737.318029,-11769.274478,1455.581446
1475.512089,5625.565159,-9400.615463,1838.629195
1475.512418,4737.318029,-8660.409521,1685.410096
1475.512747,4293.194464,-8438.347739,229.828649
1475.513076,3627.009116,-8290.306550,612.876398
1475.513405,3849.070898,-8364.327145,766.095498
1475.513735,4885.359217,-6735.874072,1685.410096
1475.514064,5403.503377,-5847.626942,995.924147
1475.514393,5625.565159,-6143.709319,842.705048
1475.514722,5847.626942,-5625.565159,995.924147
1475.515051,6143.709319,-6439.791695,1225.752797
1475.515380,6069.688724,-8512.368333,995.924147
1475.515710,5921.647536,-10140.821405,1532.190996
1475.516039,5551.544565,-11843.295072,2068.457845
1475.516368,5847.626942,-10658.965565,2374.896044
1475.516697,6513.812290,-9178.553681,3064.381992
1475.517026,6957.935855,-7031.956449,2145.067394
1475.517355,6365.771101,-5847.626942,1991.848295
1475.517685,4515.256246,-5773.606348,1072.533697
1475.518014,3478.967927,-6587.832884,0.000000
1475.518343,3034.844362,-7476.080014,-612.876398
1475.518672,3182.885551,-7624.121203,-689.485948
1475.519001,3997.112087,-8142.265362,-689.485948
1475.519330,5329.482782,-9252.574275,995.924147
1475.519660,5477.523971,-10288.862594,995.924147
1475.519989,5255.462188,-11621.233289,536.266849
1475.520318,4811.338623,-11325.150913,1225.752797
1475.520647,5107.421000,-11547.212695,1762.019645
1475.520976,5699.585753,-10510.924376,2911.162892
1475.521305,6291.750507,-9178.553681,3753.867940
1475.521634,6809.894666,-7179.997637,3370.820191
1475.521964,6069.688724,-4885.359217,3370.820191
1475.522293,6661.853478,-4441.235652,3600.648841
1475.522622,6883.915261,-4737.318029,2834.553343
1475.522951,5847.626942,-5181.441594,1915.238745
1475.523280,3849.070898,-7031.956449,536.266849
1475.523609,3404.947333,-8586.388927,0.000000
1475.523939,3849.070898,-10658.965565,689.485948
1475.524268,3775.050304,-11547.212695,766.095498
1475.524597,3775.050304,-12805.562797,1225.752797
1475.524926,4219.173869,-13101.645173,2145.067394
1475.525255,4367.215058,-11843.295072,2068.457845
1475.525584,4737.318029,-10066.800811,3064.381992
1475.525914,6661.853478,-7698.141797,4519.963438
1475.526243,7772.162391,-5551.544565,4826.401637
1475.526572,7846.182985,-4367.215058,5132.839837
1475.526901,7254.018232,-2960.823768,4596.572988
1475.527230,7105.977043,-3552.988522,3600.648841
1475.527559,6513.812290,-4515.256246,1991.848295
1475.527888,4145.153275,-6513.812290,1838.629195
1475.528218,4515.256246,-8734.430116,1762.019645
1475.528547,5107.421000,-9030.512492,1378.971896
1475.528876,5625.565159,-10140.821405,3140.991542
1475.529205,6291.750507,-10066.800811,3907.087040
1475.529534,6513.812290,-9178.553681,3600.648841
1475.529863,5625.565159,-8882.471304,3140.991542
1475.530193,4737.318029,-8512.368333,3217.601092
1475.530522,5625.565159,-6513.812290,3677.258390
1475.530851,6365.771101,-4737.318029,3677.258390
1475.531180,7698.141797,-3849.070898,4903.011187
1475.531509,9178.553681,-2738.761985,5515.887586
1475.531838,10214.842000,-2146.597232,5209.449386
1475.532168,10066.800811,-2442.679609,5056.230287
1475.532497,8586.388927,-2960.823768,4596.572988
1475.532826,8068.244768,-5033.400406,4366.744339
1475.533155,7920.203579,-7179.997637,3983.696590
1475.533484,6069.688724,-8882.471304,3370.820191
1475.533813,5625.565159,-10732.986159,3370.820191
1475.534143,5107.421000,-11251.130318,3524.039291
1475.534472,4441.235652,-11029.068536,3370.820191
1475.534801,3701.029710,-10732.986159,3447.429741
1475.535130,2886.803174,-9844.739029,4060.306139
1475.535459,3701.029710,-8660.409521,3524.039291
1475.535788,4811.338623,-6365.771101,4443.353888
1475.536117,6809.894666,-4515.256246,5132.839837
1475.536447,9474.636058,-3627.009116,5745.716235
1475.536776,10881.027347,-3701.029710,6665.030833
1475.537105,11177.109724,-2886.803174,6052.154434
1475.537434,10584.944971,-2960.823768,5132.839837
1475.537763,9992.780217,-3775.050304,4903.011187
1475.538092,9030.512492,-4811.338623,4519.963438
1475.538422,8216.285956,-6587.832884,4749.792088
1475.538751,7846.182985,-6883.915261,5132.839837
1475.539080,7179.997637,-8142.265362,4903.011187
1475.539409,6365.771101,-8808.450710,4903.011187
1475.539738,5255.462188,-8512.368333,4136.915689
1475.540067,3552.988522,-9474.636058,3524.039291
1475.540397,2294.638420,-9030.512492,2681.334243
1475.540726,1480.411884,-8808.450710,2681.334243
1475.541055,3034.844362,-7698.141797,2757.943793
1475.541384,5107.421000,-6883.915261,3753.867940
1475.541713,7698.141797,-6439.791695,5362.668486
1475.542042,9696.697840,-4737.318029,5592.497135
1475.542372,9918.759623,-3849.070898,5515.887586
1475.542701,9622.677246,-2738.761985,6281.983084
1475.543030,9622.677246,-2664.741391,4826.401637
1475.543359,9030.512492,-3627.009116,4290.134789
1475.543688,7772.162391,-5403.503377,3600.648841
1475.544017,6809.894666,-7624.121203,3677.258390
1475.544346,5847.626942,-8290.306550,3064.381992
1475.544676,4589.276840,-9622.677246,2757.943793
1475.545005,4219.173869,-9918.759623,2528.115143
1475.545334,4293.194464,-9918.759623,3064.381992
1475.545663,5403.503377,-9030.512492,2987.772442
1475.545992,5773.606348,-6587.832884,4060.306139
1475.546321,7846.182985,-5033.400406,4213.525239
1475.546651,9918.759623,-4219.173869,4673.182538
1475.546980,10214.842000,-4145.153275,5286.058936
1475.547309,9548.656652,-4589.276840,4673.182538
1475.547638,7920.203579,-4811.338623,3064.381992
1475.547967,6439.791695,-5699.585753,2681.334243
1475.548296,6143.709319,-7105.977043,2757.943793
1475.548626,5551.544565,-8068.244768,3677.258390
1475.548955,5699.585753,-8660.409521,3677.258390
1475.549284,5921.647536,-8290.306550,3140.991542
1475.549613,6291.750507,-7994.224174,3600.648841
1475.549942,6735.874072,-7698.141797,3524.039291
1475.550271,7476.080014,-7772.162391,3370.820191
1475.550601,6957.935855,-6587.832884,3600.648841
1475.550930,7105.977043,-4737.318029,3677.258390
1475.551259,8142.265362,-3404.947333,3447.429741
1475.551588,9252.574275,-3182.885551,4443.353888
1475.551917,9844.739029,-4219.173869,4749.792088
1475.552246,9326.594869,-4219.173869,4366.744339
1475.552575,7402.059420,-5773.606348,3217.601092
1475.552905,5625.565159,-7402.059420,2604.724693
1475.553234,4737.318029,-9474.636058,2681.334243
1475.553563,4589.276840,-9992.780217,2451.505594
1475.553892,4737.318029,-9622.677246,2681.334243
1475.554221,5181.441594,-8438.347739,3907.087040
1475.554550,6513.812290,-6957.935855,4060.306139
1475.554880,6365.771101,-5551.544565,4213.525239
1475.555209,7328.038826,-5551.544565,4519.963438
1475.555538,7624.121203,-4959.379811,5132.839837
1475.555867,7476.080014,-5107.421000,4903.011187
1475.556196,8216.285956,-3849.070898,4673.182538
1475.556525,9474.636058,-2960.823768,4903.011187
1475.556855,9844.739029,-2960.823768,4519.963438
1475.557184,8734.430116,-4663.297435,4366.744339
1475.557513,6957.935855,-7698.141797,3830.477490
1475.557842,6143.709319,-9252.574275,2834.553343
1475.558171,4737.318029,-10584.944971,2834.553343
1475.558500,4515.256246,-11769.274478,3140.991542
1475.558829,4737.318029,-11177.109724,4443.353888
1475.559159,4811.338623,-9326.594869,3830.477490
1475.559488,5181.441594,-7105.977043,2911.162892
1475.559817,6439.791695,-3849.070898,3370.820191
1475.560146,8438.347739,-2590.720797,4290.134789
1475.560475,9474.636058,-3034.844362,5362.668486
1475.560804,9548.656652,-2738.761985,6281.983084
1475.561134,10066.800811,-2294.638420,5822.325785
1475.561463,9474.636058,-3478.967927,5286.058936
1475.561792,8068.244768,-5699.585753,5132.839837
1475.562121,7105.977043,-8216.285956,4519.963438
1475.562450,6883.915261,-9030.512492,3907.087040
1475.562779,6217.729913,-9474.636058,3677.258390
1475.563109,4811.338623,-9918.759623,3294.210641
1475.563438,4441.235652,-9252.574275,2911.162892
1475.563767,4441.235652,-7698.141797,2834.553343
1475.564096,4441.235652,-7698.141797,4136.915689
1475.564425,6365.771101,-6587.832884,5362.668486
1475.564754,7994.224174,-5773.606348,5669.106685
1475.565084,7698.141797,-5033.400406,5439.278036
1475.565413,7031.956449,-3923.091493,4826.401637
1475.565742,7328.038826,-4293.194464,4060.306139
1475.566071,7550.100608,-4959.379811,4213.525239
1475.566400,7846.182985,-5625.565159,4749.792088
1475.566729,7698.141797,-4885.359217,4673.182538
1475.567058,7328.038826,-6513.812290,3907.087040
1475.567388,6661.853478,-8438.347739,4136.915689
1475.567717,6513.812290,-9178.553681,4749.792088
1475.568046,7031.956449,-9252.574275,4903.011187
1475.568375,6291.750507,-7920.203579,3217.601092
1475.568704,4811.338623,-6439.791695,2987.772442
1475.569033,4885.359217,-7254.018232,3217.601092
1475.569363,6735.874072,-6587.832884,4366.744339
1475.569692,7105.977043,-4737.318029,4443.353888
1475.570021,7105.977043,-2886.803174,4136.915689
1475.570350,7846.182985,-3256.906145,3447.429741
1475.570679,8364.327145,-5921.647536,4290.134789
1475.571008,8586.388927,-6735.874072,5209.449386
1475.571338,8808.450710,-7550.100608,5056.230287
1475.571667,7698.141797,-7624.121203,4673.182538
1475.571996,6143.709319,-8956.491898,3983.696590
1475.572325,5107.421000,-9474.636058,3447.429741
1475.572654,5995.668130,-7846.182985,3677.258390
1475.572983,6957.935855,-6513.812290,3677.258390
1475.573313,7402.059420,-6291.750507,3600.648841
1475.573642,7105.977043,-6365.771101,3983.696590
1475.573971,7105.977043,-5699.585753,4290.134789
1475.574300,7031.956449,-4885.359217,3294.210641
1475.574629,6217.729913,-6069.688724,3600.648841
1475.574958,6735.874072,-5181.441594,3294.210641
1475.575287,7254.018232,-4293.194464,3600.648841
1475.575617,8216.285956,-4145.153275,4136.915689
1475.575946,8586.388927,-5403.503377,4213.525239
1475.576275,8068.244768,-8068.244768,4136.915689
1475.576604,7105.977043,-7624.121203,4060.306139
1475.576933,6513.812290,-8142.265362,3524.039291
1475.577262,5181.441594,-8882.471304,3447.429741
1475.577592,4663.297435,-9400.615463,3677.258390
1475.577921,4515.256246,-8586.388927,3753.867940
1475.578250,7031.956449,-6143.709319,4673.182538
1475.578579,8290.306550,-5033.400406,5515.887586
1475.578908,8512.368333,-3775.050304,4903.011187
1475.579237,7031.956449,-4441.235652,3830.477490
1475.579567,5847.626942,-4737.318029,3677.258390
1475.579896,6439.791695,-3478.967927,2681.334243
1475.580225,7624.121203,-4589.276840,2681.334243
1475.580554,8512.368333,-5255.462188,3600.648841
1475.580883,8586.388927,-7920.203579,3753.867940
1475.581212,7994.224174,-8956.491898,4060.306139
1475.581542,7550.100608,-8734.430116,3907.087040
1475.581871,6513.812290,-9400.615463,3140.991542
1475.582200,5107.421000,-9326.594869,2987.772442
1475.582529,3923.091493,-9252.574275,3064.381992
1475.582858,5181.441594,-6883.915261,3217.601092
1475.583187,7846.182985,-5107.421000,4136.915689
1475.583516,9252.574275,-5699.585753,7354.516781
1475.583846,10066.800811,-4367.215058,6894.859482
1475.584175,8512.368333,-2960.823768,5056.230287
1475.584504,6809.894666,-3108.864956,3907.087040
1475.584833,6513.812290,-3256.906145,3294.210641
1475.585162,7476.080014,-4589.276840,2374.896044
1475.585491,8438.347739,-7105.977043,3907.087040
1475.585821,8216.285956,-7031.956449,2528.115143
1475.586150,5921.647536,-9104.533087,1455.581446
1475.586479,3775.050304,-10807.006753,2451.505594
1475.586808,3701.029710,-12065.356855,2221.676944
1475.587137,4737.318029,-11325.150913,2528.115143
1475.587466,4737.318029,-8290.306550,2757.943793
1475.587796,5403.503377,-7402.059420,3524.039291
1475.588125,6809.894666,-5033.400406,4213.525239
1475.588454,8068.244768,-3923.091493,3370.820191
1475.588783,8734.430116,-2368.659014,3524.039291
1475.589112,8882.471304,-1924.535449,3447.429741
1475.589441,9622.677246,-2738.761985,2681.334243
1475.589770,9400.615463,-2442.679609,2911.162892
1475.590100,8956.491898,-4589.276840,2757.943793
1475.590429,8956.491898,-5995.668130,2451.505594
1475.590758,7550.100608,-6957.935855,1302.362347
1475.591087,6291.750507,-9474.636058,995.924147
1475.591416,5033.400406,-10066.800811,1838.629195
1475.591745,4589.276840,-12139.377449,612.876398
1475.592075,3997.112087,-11325.150913,842.705048
1475.592404,4071.132681,-9178.553681,1838.629195
1475.592733,5403.503377,-9178.553681,2451.505594
1475.593062,5995.668130,-5921.647536,1762.019645
1475.593391,4811.338623,-4589.276840,1838.629195
1475.593720,6883.915261,-3997.112087,1991.848295
1475.594050,9030.512492,-2738.761985,1455.581446
1475.594379,9400.615463,-3478.967927,2451.505594
1475.594708,9918.759623,-3404.947333,2451.505594
1475.595037,10658.965565,-3182.885551,1225.752797
1475.595366,9548.656652,-5847.626942,1302.362347
1475.595695,8364.327145,-7105.977043,1378.971896
1475.596025,6957.935855,-8660.409521,0.000000
1475.596354,6513.812290,-9918.759623,0.000000
1475.596683,4959.379811,-9622.677246,0.000000
1475.597012,4441.235652,-10510.924376,0.000000
1475.597341,4367.215058,-10288.862594,153.219100
1475.597670,4663.297435,-6883.915261,229.828649
1475.597999,6661.853478,-5181.441594,459.657299
1475.598329,7994.224174,-5329.482782,1991.848295
1475.598658,8882.471304,-2442.679609,2757.943793
1475.598987,9474.636058,-3849.070898,2451.505594
1475.599316,8808.450710,-3478.967927,536.266849
1475.599645,6365.771101,-3849.070898,0.000000
1475.599974,6883.915261,-5995.668130,229.828649
1475.600304,8216.285956,-7031.956449,-306.438199
1475.600633,7179.997637,-9252.574275,1149.143247
1475.600962,6365.771101,-10362.883188,1378.971896
1475.601291,5847.626942,-10881.027347,1072.533697
1475.601620,4811.338623,-10510.924376,1608.800546
1475.601949,4737.318029,-7920.203579,1149.143247
1475.602279,5477.523971,-6365.771101,76.609550
1475.602608,7105.977043,-5477.523971,995.924147
1475.602937,7846.182985,-3404.947333,1302.362347
1475.603266,8660.409521,-3330.926739,1149.143247
1475.603596,7994.224174,-3997.112087,1302.362347
1475.603925,6143.709319,-4293.194464,842.705048
1475.604254,5921.647536,-7328.038826,919.314598
1475.604583,7550.100608,-6661.853478,1455.581446
1475.604913,7624.121203,-7402.059420,1991.848295
1475.605242,7772.162391,-7402.059420,2145.067394
1475.605571,6957.935855,-7624.121203,612.876398
1475.605900,5551.544565,-7179.997637,383.047749
1475.606230,6069.688724,-6957.935855,1378.971896
1475.606559,7476.080014,-7698.141797,536.266849
1475.606888,7328.038826,-6069.688724,1149.143247
1475.607218,6735.874072,-6661.853478,842.705048
1475.607547,7476.080014,-7402.059420,1149.143247
1475.607876,7402.059420,-5921.647536,1762.019645
1475.608205,6661.853478,-5995.668130,1149.143247
1475.608535,6957.935855,-6143.709319,766.095498
1475.608864,7105.977043,-6291.750507,1072.533697
1475.609193,7179.997637,-6217.729913,306.438199
1475.609522,6365.771101,-6513.812290,459.657299
1475.609852,6957.935855,-7402.059420,1455.581446
1475.610181,7772.162391,-6291.750507,1149.143247
1475.610510,7846.182985,-6513.812290,1608.800546
1475.610840,7624.121203,-7031.956449,842.705048
1475.611169,7105.977043,-7105.977043,842.705048
1475.611498,6883.915261,-7105.977043,306.438199
1475.611827,6587.832884,-7031.956449,0.000000
1475.612157,6587.832884,-6587.832884,1991.848295
1475.612486,7624.121203,-6735.874072,1685.410096
1475.612815,7624.121203,-8586.388927,1685.410096
1475.613144,6439.791695,-5699.585753,1225.752797
1475.613474,5699.585753,-4811.338623,383.047749
1475.613803,6587.832884,-6291.750507,153.219100
1475.614132,6809.894666,-4811.338623,1455.581446
1475.614461,7179.997637,-5403.503377,995.924147
1475.614791,7920.203579,-6587.832884,995.924147
1475.615120,8068.244768,-6217.729913,2451.505594
1475.615449,7476.080014,-6587.832884,995.924147
1475.615779,6661.853478,-7550.100608,0.000000
1475.616108,5107.421000,-6365.771101,76.609550
1475.616437,5329.482782,-7772.162391,0.000000
1475.616766,7254.018232,-8882.471304,1149.143247
1475.617096,7550.100608,-7994.224174,2068.457845
1475.617425,7476.080014,-6957.935855,1762.019645
1475.617754,7402.059420,-6513.812290,1915.238745
1475.618083,6661.853478,-6365.771101,842.705048
1475.618413,5477.523971,-4293.194464,459.657299
1475.618742,6513.812290,-4515.256246,306.438199
1475.619071,8808.450710,-5329.482782,1225.752797
1475.619400,7920.203579,-3923.091493,1762.019645
1475.619730,5847.626942,-5107.421000,459.657299
1475.620059,6291.750507,-6883.915261,536.266849
1475.620388,5921.647536,-6957.935855,1302.362347
1475.620718,6661.853478,-8512.368333,995.924147
1475.621047,7105.977043,-9326.594869,1838.629195
1475.621376,6809.894666,-8734.430116,2911.162892
1475.621705,6809.894666,-8068.244768,919.314598
1475.622035,5847.626942,-7105.977043,919.314598
1475.622364,6143.709319,-5921.647536,1378.971896
1475.622693,7179.997637,-5181.441594,612.876398
1475.623022,8216.285956,-5551.544565,842.705048
1475.623352,7698.141797,-4441.235652,1378.971896
1475.623681,7550.100608,-4441.235652,689.485948
1475.624010,7105.977043,-5921.647536,229.828649
1475.624339,5921.647536,-7105.977043,1225.752797
1475.624669,6661.853478,-7920.203579,306.438199
1475.624998,7920.203579,-9252.574275,1302.362347
1475.625327,7179.997637,-9252.574275,1915.238745
1475.625657,6069.688724,-7402.059420,842.705048
1475.625986,5847.626942,-7772.162391,153.219100
1475.626315,6735.874072,-6217.729913,842.705048
1475.626644,7328.038826,-5551.544565,1455.581446
1475.626974,8216.285956,-5699.585753,2451.505594
1475.627303,8882.471304,-4885.359217,2145.067394
1475.627632,8364.327145,-4071.132681,1225.752797
1475.627961,7328.038826,-3627.009116,76.609550
1475.628291,6143.709319,-5033.400406,0.000000
1475.628620,5773.606348,-6661.853478,612.876398
1475.628949,6439.791695,-7105.977043,0.000000
1475.629278,6513.812290,-9252.574275,612.876398
1475.629608,6809.894666,-8216.285956,1532.190996
1475.629937,5921.647536,-8142.265362,229.828649
1475.630266,5773.606348,-9030.512492,612.876398
1475.630596,5773.606348,-6587.832884,689.485948
1475.630925,7105.977043,-5551.544565,536.266849
1475.631254,9400.615463,-6365.771101,1915.238745
1475.631583,8956.491898,-5477.523971,2374.896044
1475.631913,7846.182985,-5255.462188,1991.848295
1475.632242,6957.935855,-6069.688724,919.314598
1475.632571,5773.606348,-5477.523971,0.000000
1475.632900,5625.565159,-4737.318029,-459.657299
1475.633230,7105.977043,-8216.285956,919.314598
1475.633559,8142.265362,-7476.080014,1455.581446
1475.633888,7328.038826,-7402.059420,1455.581446
1475.634217,6439.791695,-8068.244768,919.314598
1475.634547,5477.523971,-6957.935855,842.705048
1475.634876,6143.709319,-7105.977043,766.095498
1475.635205,7698.141797,-6809.894666,1915.238745
1475.635535,8290.306550,-5921.647536,1915.238745
1475.635864,8068.244768,-5847.626942,1608.800546
1475.636193,7402.059420,-5847.626942,1685.410096
1475.636522,6735.874072,-5255.462188,766.095498
1475.636852,6143.709319,-5181.441594,689.485948
1475.637181,5847.626942,-5921.647536,1838.629195
1475.637510,6661.853478,-8068.244768,1072.533697
1475.637839,7698.141797,-7624.121203,1762.019645
1475.638169,7402.059420,-6661.853478,1991.848295
1475.638498,7254.018232,-8438.347739,842.705048
1475.638827,5847.626942,-6661.853478,689.485948
1475.639157,5329.482782,-6809.894666,76.609550
1475.639486,7698.141797,-7328.038826,229.828649
1475.639815,7698.141797,-5551.544565,842.705048
1475.640144,7105.977043,-6217.729913,766.095498
1475.640474,7328.038826,-6217.729913,842.705048
1475.640803,7031.956449,-4737.318029,1225.752797
1475.641132,6661.853478,-6661.853478,1838.629195
1475.641461,7624.121203,-7105.977043,2451.505594
1475.641791,7328.038826,-5921.647536,2374.896044
1475.642120,6735.874072,-5033.400406,919.314598
1475.642449,7105.977043,-6143.709319,1149.143247
1475.642778,6365.771101,-5477.523971,-229.828649
1475.643108,6291.750507,-5551.544565,-766.095498
1475.643437,7031.956449,-7254.018232,383.047749
1475.643766,8512.368333,-7476.080014,1378.971896
1475.644096,8438.347739,-6439.791695,919.314598
1475.644425,6809.894666,-6809.894666,383.047749
1475.644754,6217.729913,-6439.791695,-306.438199
1475.645083,6587.832884,-6957.935855,-1149.143247
1475.645413,7105.977043,-6513.812290,536.266849
1475.645742,7772.162391,-7846.182985,689.485948
1475.646071,8290.306550,-7550.100608,1762.019645
1475.646400,7328.038826,-5625.565159,1302.362347
1475.646730,7105.977043,-7179.997637,842.705048
1475.647059,7105.977043,-5255.462188,1378.971896
1475.647388,7254.018232,-4737.318029,459.657299
1475.647717,8438.347739,-7105.977043,689.485948
1475.648047,9400.615463,-5181.441594,459.657299
1475.648376,7994.224174,-6143.709319,536.266849
1475.648705,6883.915261,-7328.038826,0.000000
1475.649035,5995.668130,-7920.203579,0.000000
1475.649364,5403.503377,-6291.750507,-689.485948
1475.649693,5551.544565,-7698.141797,-689.485948
1475.650022,6365.771101,-7920.203579,919.314598
1475.650352,7254.018232,-6439.791695,1532.190996
1475.650681,6809.894666,-7994.224174,1225.752797
1475.651010,6143.709319,-6069.688724,1838.629195
1475.651339,7105.977043,-5403.503377,2145.067394
1475.651669,7624.121203,-6217.729913,1608.800546
1475.651998,7328.038826,-5255.462188,1532.190996
1475.652327,7105.977043,-5847.626942,919.314598
1475.652656,6809.894666,-5699.585753,689.485948
1475.652986,5625.565159,-5477.523971,-919.314598
1475.653315,4885.359217,-6883.915261,306.438199
1475.653644,5847.626942,-7031.956449,306.438199
1475.653974,5921.647536,-8808.450710,1455.581446
1475.654303,7179.997637,-9178.553681,2757.943793
1475.654632,6809.894666,-7920.203579,2221.676944
1475.654961,6883.915261,-7476.080014,842.705048
1475.655291,6069.688724,-5847.626942,995.924147
1475.655620,6143.709319,-5921.647536,1532.190996
1475.655949,9400.615463,-6957.935855,2374.896044
1475.656278,8438.347739,-4737.318029,2604.724693
1475.656608,7105.977043,-4959.379811,1532.190996
1475.656937,7328.038826,-5847.626942,1455.581446
1475.657266,7105.977043,-6069.688724,1532.190996
1475.657595,7031.956449,-6513.812290,1302.362347
1475.657925,6365.771101,-7624.121203,1149.143247
1475.658254,6735.874072,-7328.038826,1532.190996
1475.658583,6587.832884,-5921.647536,1225.752797
1475.658913,6143.709319,-7105.977043,919.314598
1475.659242,6439.791695,-6439.791695,612.876398
1475.659571,6513.812290,-6291.750507,306.438199
1475.659900,6957.935855,-6883.915261,1149.143247
1475.660230,8290.306550,-6735.874072,1762.019645
1475.660559,9474.636058,-6883.915261,1991.848295
1475.660888,8364.327145,-6809.894666,1378.971896
1475.661217,7105.977043,-7179.997637,1072.533697
1475.661547,6809.894666,-6291.750507,689.485948
1475.661876,7254.018232,-5773.606348,1072.533697
1475.662205,8216.285956,-6957.935855,1838.629195
1475.662534,7994.224174,-7698.141797,2834.553343
1475.662864,7402.059420,-5255.462188,1378.971896
1475.663193,6217.729913,-5033.400406,-459.657299
1475.663522,5477.523971,-5181.441594,229.828649
1475.663852,6809.894666,-5107.421000,689.485948
1475.664181,9178.553681,-7476.080014,1149.143247
1475.664510,8956.491898,-7476.080014,2145.067394
1475.664839,6735.874072,-6513.812290,1072.533697
1475.665169,5847.626942,-6883.915261,0.000000
1475.665498,5847.626942,-7772.162391,536.266849
1475.665827,5847.626942,-6957.935855,1532.190996
1475.666156,6365.771101,-7624.121203,536.266849
1475.666486,6883.915261,-7994.224174,2145.067394
1475.666815,6957.935855,-4885.359217,1532.190996
1475.667144,6883.915261,-6439.791695,1915.238745
1475.667474,6439.791695,-5329.482782,1915.238745
1475.667803,5995.668130,-4737.318029,995.924147
1475.668132,6587.832884,-5995.668130,842.705048
1475.668461,7328.038826,-4737.318029,1378.971896
1475.668791,7624.121203,-5107.421000,153.219100
1475.669120,7105.977043,-7105.977043,0.000000
1475.669449,5995.668130,-8068.244768,-536.266849
1475.669778,5255.462188,-8512.368333,0.000000
1475.670108,5847.626942,-8512.368333,306.438199
1475.670437,7402.059420,-9252.574275,919.314598
1475.670766,7550.100608,-7994.224174,1762.019645
1475.671095,7031.956449,-7846.182985,2374.896044
1475.671425,7698.141797,-7328.038826,2681.334243
1475.671754,7550.100608,-4367.215058,1378.971896
1475.672083,6735.874072,-4515.256246,1685.410096
1475.672413,7402.059420,-4737.318029,689.485948
1475.672742,8734.430116,-5033.400406,1072.533697
1475.673071,7105.977043,-6143.709319,1378.971896
1475.673400,6291.750507,-6587.832884,229.828649
1475.673730,5773.606348,-7550.100608,-383.047749
1475.674059,5847.626942,-7402.059420,383.047749
1475.674388,5551.544565,-9622.677246,229.828649
1475.674717,6439.791695,-10510.924376,1378.971896
1475.675047,7031.956449,-8290.306550,1608.800546
1475.675376,6809.894666,-7772.162391,459.657299
1475.675705,7031.956449,-6217.729913,1608.800546
1475.676034,6143.709319,-4367.215058,689.485948
1475.676364,6439.791695,-4737.318029,0.000000
1475.676693,7328.038826,-4737.318029,1149.143247
1475.677022,8438.347739,-4071.132681,1149.143247
1475.677352,9178.553681,-4737.318029,1149.143247
1475.677681,7920.203579,-5847.626942,1225.752797
1475.678010,7105.977043,-7031.956449,1149.143247
1475.678339,6735.874072,-7550.100608,383.047749
1475.678669,6513.812290,-8512.368333,612.876398
1475.678998,7105.977043,-7624.121203,766.095498
1475.679327,7476.080014,-6735.874072,842.705048
1475.679656,7105.977043,-7179.997637,766.095498
1475.679986,6513.812290,-5477.523971,689.485948
1475.680315,6365.771101,-4737.318029,536.266849
1475.680644,7698.141797,-4959.379811,1225.752797
1475.680973,8438.347739,-4515.256246,1378.971896
1475.681303,7920.203579,-6513.812290,2145.067394
1475.681632,7550.100608,-6809.894666,2068.457845
1475.681961,6735.874072,-7179.997637,306.438199
1475.682291,5625.565159,-6365.771101,383.047749
1475.682620,5329.482782,-6439.791695,-229.828649
1475.682949,6883.915261,-9030.512492,306.438199
1475.683278,7624.121203,-6365.771101,2221.676944
1475.683608,7105.977043,-6735.874072,1225.752797
1475.683937,7624.121203,-7624.121203,2145.067394
1475.684266,7550.100608,-5699.585753,1838.629195
1475.684595,6809.894666,-6365.771101,612.876398
1475.684925,6217.729913,-4737.318029,1225.752797
1475.685254,7179.997637,-5255.462188,995.924147
1475.685583,7624.121203,-6735.874072,919.314598
1475.685912,6069.688724,-5329.482782,766.095498
1475.686242,5181.441594,-6661.853478,0.000000
1475.686571,5921.647536,-7402.059420,842.705048
1475.686900,7105.977043,-8364.327145,1915.238745
1475.687230,7772.162391,-8438.347739,2145.067394
1475.687559,7698.141797,-7328.038826,2374.896044
1475.687888,7624.121203,-7920.203579,2298.286494
1475.688217,7179.997637,-5329.482782,919.314598
1475.688547,6439.791695,-5699.585753,536.266849
1475.688876,7179.997637,-5921.647536,1455.581446
1475.689205,7550.100608,-5329.482782,229.828649
1475.689534,6587.832884,-5847.626942,306.438199
1475.689864,5699.585753,-6217.729913,0.000000
1475.690193,5551.544565,-7846.182985,-229.828649
1475.690522,5551.544565,-7105.977043,229.828649
1475.690852,6883.915261,-7920.203579,536.266849
1475.691181,8660.409521,-7920.203579,1915.238745
1475.691510,9104.533087,-7698.141797,2757.943793
1475.691839,7698.141797,-6957.935855,2298.286494
1475.692169,6883.915261,-4663.297435,689.485948
1475.692498,7179.997637,-3256.906145,-383.047749
1475.692827,7179.997637,-4145.153275,306.438199
1475.693156,8512.368333,-4959.379811,1532.190996
1475.693486,8438.347739,-5699.585753,1455.581446
1475.693815,7920.203579,-5921.647536,612.876398
1475.694144,7031.956449,-7105.977043,383.047749
1475.694473,5181.441594,-8068.244768,153.219100
1475.694803,5181.441594,-8586.388927,-536.266849
1475.695132,6217.729913,-8512.368333,612.876398
1475.695461,7328.038826,-8290.306550,842.705048
1475.695791,7624.121203,-7402.059420,1149.143247
1475.696120,7254.018232,-6587.832884,1378.971896
1475.696449,6587.832884,-6291.750507,306.438199
1475.696778,7105.977043,-5329.482782,919.314598
1475.697108,8068.244768,-5255.462188,2068.457845
1475.697437,8882.471304,-6439.791695,2451.505594
1475.697766,7772.162391,-4441.235652,1532.190996
1475.698095,6365.771101,-5403.503377,229.828649
1475.698425,5403.503377,-6217.729913,-229.828649
1475.698754,4441.235652,-6291.750507,-995.924147
1475.699083,5329.482782,-7476.080014,0.000000
1475.699412,7105.977043,-8808.450710,689.485948
1475.699742,7920.203579,-8660.409521,2068.457845
1475.700071,8142.265362,-8364.327145,2987.772442
1475.700400,8216.285956,-8512.368333,2298.286494
1475.700730,7105.977043,-4737.318029,1455.581446
1475.701059,6365.771101,-3552.988522,0.000000
1475.701388,7624.121203,-5551.544565,1072.533697
1475.701717,8364.327145,-4145.153275,1915.238745
1475.702046,7105.977043,-4145.153275,229.828649
1475.702375,6143.709319,-6143.709319,153.219100
1475.702704,5255.462188,-6809.894666,1072.533697
1475.703034,5403.503377,-7994.224174,306.438199
1475.703363,5921.647536,-8512.368333,1072.533697
1475.703692,6661.853478,-9622.677246,1991.848295
1475.704021,7772.162391,-8808.450710,1378.971896
1475.704350,6809.894666,-7402.059420,1608.800546
1475.704679,6069.688724,-6513.812290,536.266849
1475.705008,7254.018232,-4885.359217,459.657299
1475.705338,8290.306550,-4441.235652,1072.533697
1475.705667,8438.347739,-5625.565159,1532.190996
1475.705996,8364.327145,-5181.441594,2834.553343
1475.706325,8290.306550,-6587.832884,2068.457845
1475.706654,6661.853478,-6439.791695,383.047749
1475.706983,4663.297435,-6513.812290,229.828649
1475.707312,5033.400406,-7994.224174,383.047749
1475.707641,6735.874072,-8364.327145,459.657299
1475.707971,6513.812290,-8068.244768,1072.533697
1475.708300,7105.977043,-7772.162391,2145.067394
1475.708629,7624.121203,-7402.059420,1762.019645
1475.708958,7328.038826,-5921.647536,1762.019645
1475.709287,6957.935855,-5847.626942,2298.286494
1475.709616,8882.471304,-5033.400406,2374.896044
1475.709945,8290.306550,-3256.906145,995.924147
1475.710275,6661.853478,-4367.215058,842.705048
1475.710604,6883.915261,-4663.297435,-153.219100
1475.710933,6735.874072,-5773.606348,-306.438199
1475.711262,5329.482782,-8216.285956,612.876398
1475.711591,5625.565159,-9696.697840,766.095498
1475.711920,7105.977043,-9696.697840,1225.752797
1475.712249,6883.915261,-7772.162391,766.095498
1475.712578,6143.709319,-9252.574275,766.095498
1475.712908,7105.977043,-7550.100608,1149.143247
1475.713237,7550.100608,-5921.647536,612.876398
1475.713566,7698.141797,-5921.647536,1608.800546
1475.713895,8438.347739,-4663.297435,2451.505594
1475.714224,8142.265362,-4071.132681,1838.629195
1475.714553,7254.018232,-4441.235652,612.876398
1475.714882,6291.750507,-4885.359217,842.705048
1475.715212,6217.729913,-5107.421000,1225.752797
1475.715541,6735.874072,-6809.894666,995.924147
1475.715870,7105.977043,-8660.409521,1838.629195
1475.716199,7550.100608,-8956.491898,2068.457845
1475.716528,6513.812290,-7476.080014,689.485948
1475.716857,5847.626942,-9252.574275,689.485948
1475.717186,5477.523971,-7920.203579,1685.410096
1475.717515,7105.977043,-5477.523971,383.047749
1475.717845,7994.224174,-5995.668130,1608.800546
1475.718174,8142.265362,-5181.441594,2987.772442
1475.718503,7920.203579,-5625.565159,1225.752797
1475.718832,6661.853478,-5033.400406,842.705048
1475.719161,4811.338623,-5107.421000,0.000000
1475.719490,5773.606348,-5329.482782,383.047749
1475.719819,7920.203579,-7105.977043,1455.581446
1475.720149,7550.100608,-7402.059420,1225.752797
1475.720478,7402.059420,-7179.997637,1302.362347
1475.720807,7624.121203,-8512.368333,1685.410096
1475.721136,7402.059420,-6069.688724,0.000000
1475.721465,5847.626942,-7179.997637,612.876398
1475.721794,7105.977043,-7105.977043,1302.362347
1475.722123,9326.594869,-6217.729913,1072.533697
1475.722452,8956.491898,-6513.812290,1991.848295
1475.722782,7624.121203,-4589.276840,1532.190996
1475.723111,7031.956449,-5403.503377,153.219100
1475.723440,6069.688724,-5107.421000,229.828649
1475.723769,4737.318029,-6291.750507,0.000000
1475.724098,6883.915261,-8068.244768,1378.971896
1475.724427,8364.327145,-6883.915261,2068.457845
1475.724756,7402.059420,-7846.182985,1838.629195
1475.725086,6291.750507,-7105.977043,1455.581446
1475.725415,5699.585753,-5921.647536,612.876398
1475.725744,6217.729913,-6069.688724,229.828649
1475.726073,7402.059420,-6365.771101,842.705048
1475.726402,7920.203579,-5699.585753,766.095498
1475.726731,7550.100608,-6587.832884,612.876398
1475.727060,6661.853478,-6809.894666,842.705048
1475.727389,5625.565159,-6809.894666,306.438199
1475.727719,5995.668130,-6069.688724,76.609550
1475.728048,6809.894666,-7772.162391,842.705048
1475.728377,7772.162391,-7476.080014,1608.800546
1475.728706,7920.203579,-7105.977043,1608.800546
1475.729035,6957.935855,-7328.038826,919.314598
1475.729364,6587.832884,-5699.585753,0.000000
1475.729693,6957.935855,-5847.626942,766.095498
1475.730023,8290.306550,-6809.894666,2298.286494
1475.730352,8660.409521,-6883.915261,1838.629195
1475.730681,7846.182985,-5921.647536,1378.971896
1475.731010,6291.750507,-5551.544565,306.438199
1475.731339,5921.647536,-6069.688724,0.000000
1475.731668,6069.688724,-5847.626942,459.657299
1475.731997,5551.544565,-6661.853478,306.438199
1475.732326,6661.853478,-7402.059420,689.485948
1475.732656,7328.038826,-8438.347739,1915.238745
1475.732985,7698.141797,-7328.038826,2451.505594
1475.733314,6957.935855,-7476.080014,1838.629195
1475.733643,6143.709319,-6735.874072,1225.752797
1475.733972,6069.688724,-6365.771101,766.095498
1475.734301,8290.306550,-7698.141797,1455.581446
1475.734630,9474.636058,-6735.874072,2834.553343
1475.734960,8216.285956,-5773.606348,1838.629195
1475.735289,6069.688724,-4737.318029,-919.314598
1475.735618,3997.112087,-5699.585753,-612.876398
1475.735947,3923.091493,-5625.565159,76.609550
1475.736276,5773.606348,-6439.791695,766.095498
1475.736605,7328.038826,-7846.182985,2145.067394
1475.736934,8068.244768,-6439.791695,3064.381992
1475.737263,8660.409521,-7624.121203,2911.162892
1475.737593,7328.038826,-6439.791695,2221.676944
1475.737922,5551.544565,-4737.318029,612.876398
1475.738251,7179.997637,-6957.935855,459.657299
1475.738580,8512.368333,-5107.421000,842.705048
1475.738909,7031.956449,-5329.482782,612.876398
1475.739238,6587.832884,-7476.080014,995.924147
1475.739567,6439.791695,-6809.894666,1455.581446
1475.739897,5699.585753,-7254.018232,459.657299
1475.740226,5773.606348,-7920.203579,1608.800546
1475.740555,7550.100608,-8808.450710,2068.457845
1475.740884,8290.306550,-7994.224174,2145.067394
1475.741213,6587.832884,-6513.812290,1302.362347
1475.741542,5921.647536,-6217.729913,536.266849
1475.741871,6513.812290,-4515.256246,383.047749
1475.742200,6957.935855,-5255.462188,612.876398
1475.742530,8216.285956,-5847.626942,1838.629195
1475.742859,8734.430116,-5477.523971,1685.410096
1475.743188,7994.224174,-6439.791695,1225.752797
1475.743517,6883.915261,-6883.915261,76.609550
1475.743846,6365.771101,-7772.162391,842.705048
1475.744175,5847.626942,-6439.791695,76.609550
1475.744504,6217.729913,-7476.080014,689.485948
1475.744834,7550.100608,-7772.162391,1915.238745
1475.745163,8068.244768,-6587.832884,1608.800546
1475.745492,6957.935855,-6809.894666,1762.019645
1475.745821,6143.709319,-6587.832884,766.095498
1475.746150,6291.750507,-4219.173869,383.047749
1475.746479,7328.038826,-6217.729913,995.924147
1475.746808,8364.327145,-6291.750507,2528.115143
1475.747137,8290.306550,-5921.647536,1838.629195
1475.747467,7254.018232,-6883.915261,1225.752797
1475.747796,5773.606348,-5181.441594,-689.485948
1475.748125,4441.235652,-6513.812290,-689.485948
1475.748454,5255.462188,-6661.853478,0.000000
1475.748783,6365.771101,-8068.244768,306.438199
1475.749112,6957.935855,-9252.574275,1685.410096
1475.749441,7105.977043,-8142.265362,2451.505594
1475.749771,7550.100608,-8142.265362,2298.286494
1475.750100,7254.018232,-5847.626942,2068.457845
1475.750429,7105.977043,-5255.462188,1225.752797
1475.750758,7772.162391,-5995.668130,1072.533697
1475.751087,7846.182985,-5107.421000,1225.752797
1475.751416,7328.038826,-5551.544565,229.828649
1475.751745,6661.853478,-5699.585753,536.266849
1475.752075,6661.853478,-6809.894666,1072.533697
1475.752404,6587.832884,-7550.100608,1685.410096
1475.752733,6587.832884,-7179.997637,842.705048
1475.753062,6513.812290,-7254.018232,229.828649
1475.753391,6587.832884,-5995.668130,842.705048
1475.753720,7402.059420,-7698.141797,1378.971896
1475.754049,7105.977043,-6883.915261,995.924147
1475.754378,5847.626942,-5995.668130,1225.752797
1475.754708,7105.977043,-7179.997637,1225.752797
1475.755037,8290.306550,-6587.832884,1915.238745
1475.755366,7846.182985,-6735.874072,1608.800546
1475.755695,6809.894666,-7254.018232,1225.752797
1475.756024,6439.791695,-6217.729913,1225.752797
1475.756353,4811.338623,-5847.626942,-383.047749
1475.756682,5033.400406,-6143.709319,0.000000
1475.757012,6809.894666,-7031.956449,1302.362347
1475.757341,8882.471304,-7254.018232,2528.115143
1475.757670,8142.265362,-6735.874072,2145.067394
1475.757999,6587.832884,-7105.977043,1762.019645
1475.758328,6143.709319,-6143.709319,536.266849
1475.758657,6735.874072,-6217.729913,383.047749
1475.758986,8438.347739,-7476.080014,1915.238745
1475.759315,8512.368333,-7328.038826,1685.410096
1475.759645,6957.935855,-6809.894666,766.095498
1475.759974,5625.565159,-6513.812290,842.705048
1475.760303,5625.565159,-6291.750507,689.485948
1475.760632,6365.771101,-5477.523971,1072.533697
1475.760961,6809.894666,-7179.997637,1532.190996
1475.761290,7698.141797,-8142.265362,2374.896044
1475.761619,8586.388927,-5699.585753,2451.505594
1475.761949,8586.388927,-5995.668130,1378.971896
1475.762278,6957.935855,-5181.441594,689.485948
1475.762607,5773.606348,-5255.462188,0.000000
1475.762936,6365.771101,-7105.977043,229.828649
1475.763265,7105.977043,-6809.894666,612.876398
1475.763594,7328.038826,-7328.038826,995.924147
1475.763923,7476.080014,-7550.100608,1072.533697
1475.764252,6957.935855,-7846.182985,536.266849
1475.764582,5699.585753,-7920.203579,0.000000
1475.764911,5551.544565,-7031.956449,689.485948
1475.765240,7624.121203,-7179.997637,1685.410096
1475.765569,8734.430116,-6217.729913,1991.848295
1475.765898,7772.162391,-5255.462188,2528.115143
1475.766227,7105.977043,-4589.276840,1838.629195
1475.766556,6735.874072,-4515.256246,1225.752797
1475.766886,6069.688724,-4367.215058,995.924147
1475.767215,7920.203579,-5329.482782,1685.410096
1475.767544,9548.656652,-6513.812290,1762.019645
1475.767873,8142.265362,-6661.853478,2374.896044
1475.768202,5921.647536,-8512.368333,689.485948
1475.768531,4515.256246,-9326.594869,-383.047749
1475.768860,3478.967927,-6661.853478,-1302.362347
1475.769189,4441.235652,-8290.306550,-1532.190996
1475.769519,6957.935855,-8438.347739,1532.190996
1475.769848,8660.409521,-7105.977043,3370.820191
1475.770177,8290.306550,-7772.162391,2451.505594
1475.770506,7031.956449,-4885.359217,2757.943793
1475.770835,6735.874072,-3923.091493,1378.971896
1475.771164,7994.224174,-5255.462188,612.876398
1475.771493,8142.265362,-4663.297435,2451.505594
1475.771823,8290.306550,-5403.503377,1072.533697
1475.772152,8216.285956,-5995.668130,153.219100
1475.772481,6661.853478,-6143.709319,306.438199
1475.772810,5255.462188,-7476.080014,-766.095498
1475.773139,5995.668130,-8586.388927,-383.047749
1475.773468,6513.812290,-8956.491898,153.219100
1475.773797,6661.853478,-9474.636058,1149.143247
1475.774126,8290.306550,-8512.368333,2681.334243
1475.774456,7920.203579,-7254.018232,1838.629195
1475.774785,7624.121203,-4663.297435,1762.019645
1475.775114,7254.018232,-4219.173869,1608.800546
1475.775443,7994.224174,-3923.091493,1302.362347
1475.775772,7772.162391,-2960.823768,1532.190996
1475.776101,7105.977043,-3404.947333,383.047749
1475.776430,6735.874072,-4663.297435,383.047749
1475.776760,6661.853478,-7031.956449,383.047749
1475.777089,5847.626942,-7846.182985,1149.143247
1475.777418,5773.606348,-8808.450710,766.095498
1475.777747,7105.977043,-10140.821405,995.924147
1475.778076,7772.162391,-8364.327145,1302.362347
1475.778405,7105.977043,-8956.491898,842.705048
1475.778734,6365.771101,-6291.750507,-842.705048
1475.779063,5847.626942,-4737.318029,0.000000
1475.779393,6957.935855,-5699.585753,76.609550
1475.779722,8734.430116,-4737.318029,1608.800546
1475.780051,8660.409521,-5329.482782,2604.724693
1475.780380,8586.388927,-5403.503377,1762.019645
1475.780709,7105.977043,-6291.750507,995.924147
1475.781038,5773.606348,-6513.812290,689.485948
1475.781367,5995.668130,-6661.853478,76.609550
1475.781697,7179.997637,-7105.977043,766.095498
1475.782026,7550.100608,-6883.915261,842.705048
1475.782355,7105.977043,-7105.977043,995.924147
1475.782684,6365.771101,-7031.956449,766.095498
1475.783013,6143.709319,-5995.668130,-459.657299
1475.783342,7179.997637,-6809.894666,1378.971896
1475.783671,9326.594869,-7179.997637,2451.505594
1475.784000,9400.615463,-7402.059420,1685.410096
1475.784330,6365.771101,-5699.585753,536.266849
1475.784659,4811.338623,-5773.606348,-383.047749
1475.784988,5329.482782,-6069.688724,-1225.752797
1475.785317,5255.462188,-5699.585753,76.609550
1475.785646,6143.709319,-7846.182985,1455.581446
1475.785975,7994.224174,-7105.977043,2068.457845
1475.786304,8142.265362,-6661.853478,2374.896044
1475.786634,8290.306550,-7254.018232,2757.943793
1475.786963,8142.265362,-6217.729913,2374.896044
1475.787292,7402.059420,-4885.359217,306.438199
1475.787621,6069.688724,-5551.544565,306.438199
1475.787950,6809.894666,-5033.400406,-383.047749
1475.788279,7920.203579,-5403.503377,-383.047749
1475.788608,7179.997637,-6809.894666,229.828649
1475.788937,6217.729913,-7328.038826,536.266849
1475.789267,5551.544565,-6661.853478,383.047749
1475.789596,5551.544565,-7402.059420,842.705048
1475.789925,6735.874072,-7550.100608,1685.410096
1475.790254,8290.306550,-8216.285956,2374.896044
1475.790583,8956.491898,-7105.977043,2834.553343
1475.790912,7920.203579,-5551.544565,1991.848295
1475.791241,6513.812290,-5107.421000,689.485948
1475.791571,6365.771101,-4663.297435,1225.752797
1475.791900,7476.080014,-5403.503377,1225.752797
1475.792229,7624.121203,-5107.421000,1685.410096
1475.792558,6439.791695,-5921.647536,1149.143247
1475.792887,5921.647536,-6661.853478,0.000000
1475.793216,5847.626942,-7698.141797,-459.657299
1475.793545,5625.565159,-7550.100608,0.000000
1475.793874,6069.688724,-7846.182985,842.705048
1475.794204,7846.182985,-9326.594869,766.095498
1475.794533,7920.203579,-7846.182985,1838.629195
1475.794862,7328.038826,-6661.853478,1608.800546
1475.795191,6661.853478,-5995.668130,1991.848295
1475.795520,6809.894666,-3701.029710,1378.971896
1475.795849,7772.162391,-5329.482782,1838.629195
1475.796178,9622.677246,-4959.379811,2757.943793
1475.796508,9474.636058,-4959.379811,2757.943793
1475.796837,8512.368333,-6291.750507,1225.752797
1475.797166,6143.709319,-6291.750507,153.219100
1475.797495,4737.318029,-6957.935855,-536.266849
1475.797824,4515.256246,-7698.141797,-536.266849
1475.798153,4737.318029,-7698.141797,459.657299
1475.798482,6439.791695,-9326.594869,1149.143247
1475.798811,7698.141797,-8660.409521,2221.676944
1475.799141,7328.038826,-8290.306550,3217.601092
1475.799470,7402.059420,-7550.100608,2145.067394
1475.799799,7031.956449,-4663.297435,1608.800546
1475.800128,6365.771101,-3552.988522,-153.219100
1475.800457,7698.141797,-6365.771101,2374.896044
1475.800786,8660.409521,-4441.235652,2451.505594
1475.801115,6513.812290,-4441.235652,229.828649
1475.801445,4663.297435,-6513.812290,536.266849
1475.801774,4441.235652,-5551.544565,842.705048
1475.802103,5847.626942,-9030.512492,229.828649
1475.802432,6883.915261,-9474.636058,1685.410096
1475.802761,7328.038826,-8734.430116,2451.505594
1475.803090,8438.347739,-8808.450710,1532.190996
1475.803419,7402.059420,-7476.080014,1762.019645
1475.803749,6217.729913,-4663.297435,842.705048
1475.804078,7624.121203,-4441.235652,689.485948
1475.804407,8586.388927,-4367.215058,1685.410096
1475.804736,7402.059420,-5107.421000,1608.800546
1475.805065,7179.997637,-4441.235652,1608.800546
1475.805395,7254.018232,-6513.812290,536.266849
1475.805724,6291.750507,-7031.956449,229.828649
1475.806053,4737.318029,-8216.285956,76.609550
1475.806382,5847.626942,-9326.594869,0.000000
1475.806711,6735.874072,-7698.141797,153.219100
1475.807041,6587.832884,-7550.100608,995.924147
1475.807370,7254.018232,-7476.080014,1302.362347
1475.807699,7550.100608,-7105.977043,1302.362347
1475.808028,7105.977043,-6291.750507,2068.457845
1475.808357,7920.203579,-4737.318029,1608.800546
1475.808686,9178.553681,-4811.338623,1762.019645
1475.809016,8290.306550,-3404.947333,1378.971896
1475.809345,6735.874072,-4293.194464,-306.438199
1475.809674,5995.668130,-5551.544565,-306.438199
1475.810003,5403.503377,-5773.606348,-1072.533697
1475.810332,5403.503377,-6291.750507,0.000000
1475.810662,7105.977043,-7994.224174,459.657299
1475.810991,8364.327145,-9844.739029,2145.067394
1475.811320,8586.388927,-9844.739029,2451.505594
1475.811649,7254.018232,-9326.594869,2298.286494
1475.811978,6143.709319,-5699.585753,459.657299
1475.812308,6143.709319,-4515.256246,76.609550
1475.812637,7846.182985,-4885.359217,1072.533697
1475.812966,8882.471304,-3701.029710,1072.533697
1475.813295,7772.162391,-4737.318029,1225.752797
1475.813624,6735.874072,-5107.421000,153.219100
1475.813954,5255.462188,-6217.729913,-229.828649
1475.814283,5033.400406,-7105.977043,-459.657299
1475.814612,5551.544565,-8586.388927,-229.828649
1475.814941,6365.771101,-9030.512492,1149.143247
1475.815270,7328.038826,-8660.409521,842.705048
1475.815599,7772.162391,-9252.574275,1149.143247
1475.815929,7698.141797,-7550.100608,1302.362347
1475.816258,7328.038826,-5329.482782,0.000000
1475.816587,7031.956449,-7920.203579,612.876398
1475.816916,7550.100608,-7328.038826,2681.334243
1475.817245,7994.224174,-4663.297435,1072.533697
1475.817575,7031.956449,-3997.112087,383.047749
1475.817904,6365.771101,-4737.318029,1302.362347
1475.818233,6143.709319,-5107.421000,1149.143247
1475.818562,5551.544565,-7179.997637,0.000000
1475.818891,4737.318029,-7254.018232,536.266849
1475.819221,6735.874072,-7476.080014,766.095498
1475.819550,8956.491898,-7624.121203,383.047749
1475.819879,6957.935855,-7920.203579,1532.190996
1475.820208,5699.585753,-7846.182985,1762.019645
1475.820537,7105.977043,-6513.812290,1149.143247
1475.820867,7031.956449,-4441.235652,766.095498
1475.821196,7328.038826,-5477.523971,2145.067394
1475.821525,8364.327145,-6957.935855,3140.991542
1475.821854,7994.224174,-6143.709319,995.924147
1475.822183,4811.338623,-5403.503377,536.266849
1475.822512,4737.318029,-6143.709319,1072.533697
1475.822842,6513.812290,-5847.626942,1149.143247
1475.823171,6735.874072,-6513.812290,1072.533697
1475.823500,5921.647536,-7476.080014,1302.362347
1475.823829,6883.915261,-6661.853478,1762.019645
1475.824158,7994.224174,-7476.080014,995.924147
1475.824488,7624.121203,-6809.894666,919.314598
1475.824817,8808.450710,-4959.379811,2374.896044
1475.825146,10436.903782,-6365.771101,1302.362347
1475.825475,8808.450710,-6217.729913,1149.143247
1475.825804,6217.729913,-5921.647536,2298.286494
1475.826134,6883.915261,-5995.668130,306.438199
1475.826463,5477.523971,-4885.359217,-383.047749
1475.826792,3849.070898,-6291.750507,1072.533697
1475.827121,6069.688724,-7402.059420,1072.533697
1475.827450,8438.347739,-7179.997637,1378.971896
1475.827780,7920.203579,-7624.121203,2681.334243
1475.828109,7624.121203,-7105.977043,1455.581446
1475.828438,7624.121203,-6143.709319,229.828649
1475.828767,6809.894666,-5921.647536,229.828649
1475.829096,7254.018232,-6513.812290,0.000000
1475.829425,8364.327145,-4737.318029,-306.438199
1475.829755,7254.018232,-5699.585753,-612.876398
1475.830084,6143.709319,-6735.874072,-766.095498
1475.830413,5625.565159,-7772.162391,153.219100
1475.830742,5625.565159,-8068.244768,-689.485948
1475.831071,5255.462188,-8364.327145,-689.485948
1475.831401,5995.668130,-7920.203579,229.828649
1475.831730,8216.285956,-7624.121203,306.438199
1475.832059,7476.080014,-6513.812290,-229.828649
1475.832388,6439.791695,-4293.194464,-689.485948
1475.832717,6143.709319,-5403.503377,-1072.533697
1475.833047,7698.141797,-5107.421000,153.219100
1475.833376,9030.512492,-6587.832884,689.485948
1475.833705,9844.739029,-6809.894666,612.876398
1475.834034,8956.491898,-5033.400406,-383.047749
1475.834363,5995.668130,-7772.162391,-2604.724693
1475.834693,4293.194464,-7476.080014,-2298.286494
1475.835022,3997.112087,-5181.441594,-3524.039291
1475.835351,5773.606348,-7402.059420,-3217.601092
1475.835680,7105.977043,-8364.327145,0.000000
1475.836009,7846.182985,-8068.244768,1532.190996
1475.836339,8142.265362,-8660.409521,-383.047749
1475.836668,6217.729913,-5995.668130,-306.438199
1475.836997,5773.606348,-4885.359217,-919.314598
1475.837326,7698.141797,-5773.606348,-1915.238745
1475.837655,8216.285956,-4959.379811,-689.485948
1475.837984,7624.121203,-4293.194464,-689.485948
1475.838314,8512.368333,-5699.585753,-2145.067394
1475.838643,7328.038826,-4293.194464,-2757.943793
1475.838972,4663.297435,-6365.771101,-2757.943793
1475.839301,5551.544565,-8142.265362,-2757.943793
1475.839630,6439.791695,-7254.018232,-3064.381992
1475.839960,6439.791695,-7994.224174,-2604.724693
1475.840289,7550.100608,-8364.327145,-2068.457845
1475.840618,8660.409521,-7698.141797,-229.828649
1475.840947,7624.121203,-6809.894666,-1991.848295
1475.841276,6069.688724,-6217.729913,-2528.115143
1475.841606,6217.729913,-6291.750507,-1608.800546
1475.841935,7624.121203,-6587.832884,-1762.019645
1475.842264,8586.388927,-5181.441594,-612.876398
1475.842593,8660.409521,-4737.318029,0.000000
1475.842922,7994.224174,-4515.256246,-2681.334243
1475.843252,5773.606348,-5033.400406,-3600.648841
1475.843581,4737.318029,-5995.668130,-3753.867940
1475.843910,5255.462188,-8956.491898,-3447.429741
1475.844239,5625.565159,-8586.388927,-3447.429741
1475.844568,5847.626942,-8216.285956,-2221.676944
1475.844897,7402.059420,-9178.553681,-1532.190996
1475.845227,8438.347739,-7920.203579,-1302.362347
1475.845556,7105.977043,-7476.080014,-1149.143247
1475.845885,7476.080014,-6883.915261,-1455.581446
1475.846214,8438.347739,-5107.421000,-1378.971896
