#time,accel_x,accel_y,accel_z
1094.507797,9770.718434,-2738.761985,2374.896044
1094.508127,9400.615463,-3701.029710,2451.505594
1094.508456,9696.697840,-4293.194464,2834.553343
1094.508786,9548.656652,-5477.523971,3370.820191
1094.509115,9696.697840,-6587.832884,2757.943793
1094.509445,8882.471304,-5625.565159,1991.848295
1094.509774,8364.327145,-6661.853478,1838.629195
1094.510103,7994.224174,-6883.915261,2374.896044
1094.510433,7328.038826,-6291.750507,1149.143247
1094.510762,6957.935855,-5329.482782,612.876398
1094.511092,6587.832884,-4367.215058,0.000000
1094.511421,7846.182985,-4515.256246,919.314598
1094.511751,8142.265362,-4589.276840,1991.848295
1094.512080,9326.594869,-3849.070898,2374.896044
1094.512410,8586.388927,-3627.009116,1762.019645
1094.512739,9178.553681,-2812.782580,1608.800546
1094.513069,9474.636058,-5107.421000,2145.067394
1094.513398,9992.780217,-5329.482782,2528.115143
1094.513728,8660.409521,-5625.565159,2068.457845
1094.514057,7550.100608,-6069.688724,995.924147
1094.514386,7402.059420,-6069.688724,612.876398
1094.514716,7772.162391,-7846.182985,1225.752797
1094.515045,7254.018232,-7772.162391,459.657299
1094.515375,6291.750507,-7105.977043,306.438199
1094.515704,6439.791695,-6365.771101,0.000000
1094.516034,6957.935855,-5329.482782,0.000000
1094.516363,7550.100608,-6217.729913,919.314598
1094.516693,7698.141797,-5625.565159,1149.143247
1094.517022,7402.059420,-5107.421000,1072.533697
1094.517352,7328.038826,-4737.318029,612.876398
1094.517681,7772.162391,-5403.503377,1455.581446
1094.518010,8660.409521,-5625.565159,1991.848295
1094.518340,8068.244768,-5477.523971,1991.848295
1094.518669,8216.285956,-6217.729913,1685.410096
1094.518999,8068.244768,-5699.585753,1378.971896
1094.519328,8290.306550,-6069.688724,1532.190996
1094.519658,7772.162391,-6735.874072,1455.581446
1094.519987,7031.956449,-6735.874072,919.314598
1094.520317,6143.709319,-6809.894666,459.657299
1094.520646,6291.750507,-6143.709319,0.000000
1094.520976,6513.812290,-6291.750507,383.047749
1094.521305,6809.894666,-6291.750507,842.705048
1094.521634,7105.977043,-5699.585753,383.047749
1094.521964,7254.018232,-5995.668130,995.924147
1094.522293,7846.182985,-5921.647536,1378.971896
1094.522623,8512.368333,-5921.647536,1532.190996
1094.522952,8142.265362,-6291.750507,1302.362347
1094.523282,7624.121203,-5921.647536,1225.752797
1094.523611,7476.080014,-6439.791695,1302.362347
1094.523941,7994.224174,-6439.791695,1455.581446
1094.524270,8216.285956,-6365.771101,1225.752797
1094.524600,7254.018232,-6439.791695,1225.752797
1094.524929,6957.935855,-5847.626942,1072.533697
1094.525259,6513.812290,-6513.812290,612.876398
1094.525588,6587.832884,-5995.668130,306.438199
1094.525917,6291.750507,-6365.771101,459.657299
1094.526247,6217.729913,-6291.750507,689.485948
1094.526576,5921.647536,-6143.709319,919.314598
1094.526906,6735.874072,-7105.977043,1378.971896
1094.527235,7179.997637,-6883.915261,1608.800546
1094.527565,7105.977043,-6883.915261,1302.362347
1094.527894,7476.080014,-6661.853478,1149.143247
1094.528224,7624.121203,-7179.997637,1608.800546
1094.528553,7698.141797,-7031.956449,1608.800546
1094.528883,7550.100608,-6883.915261,1608.800546
1094.529212,7031.956449,-6217.729913,1762.019645
1094.529541,7105.977043,-5699.585753,1838.629195
1094.529871,7328.038826,-6217.729913,1991.848295
1094.530200,7105.977043,-5403.503377,1532.190996
1094.530530,6587.832884,-5329.482782,1072.533697
1094.530859,5847.626942,-5551.544565,0.000000
1094.531189,6069.688724,-5921.647536,459.657299
1094.531518,6809.894666,-7328.038826,1072.533697
1094.531848,6883.915261,-7179.997637,459.657299
1094.532177,5847.626942,-7254.018232,306.438199
1094.532507,6143.709319,-7550.100608,306.438199
1094.532836,7105.977043,-7624.121203,842.705048
1094.533165,7772.162391,-7402.059420,1685.410096
1094.533495,7105.977043,-6513.812290,689.485948
1094.533824,6809.894666,-6661.853478,612.876398
1094.534154,6735.874072,-7031.956449,919.314598
1094.534483,6883.915261,-7105.977043,1149.143247
1094.534813,6587.832884,-6439.791695,1455.581446
1094.535142,6513.812290,-6439.791695,842.705048
1094.535472,6217.729913,-6291.750507,689.485948
1094.535801,6291.750507,-6735.874072,612.876398
1094.536131,6513.812290,-7031.956449,1072.533697
1094.536460,6365.771101,-6291.750507,689.485948
1094.536790,6661.853478,-7031.956449,842.705048
1094.537119,6957.935855,-6661.853478,1378.971896
1094.537448,7105.977043,-6735.874072,1455.581446
1094.537778,7772.162391,-6809.894666,995.924147
1094.538107,7550.100608,-5995.668130,1608.800546
1094.538437,7550.100608,-5921.647536,1378.971896
1094.538766,7328.038826,-6365.771101,1149.143247
1094.539096,6957.935855,-6217.729913,995.924147
1094.539425,6883.915261,-6735.874072,306.438199
1094.539755,6587.832884,-6513.812290,842.705048
1094.540084,6809.894666,-6735.874072,995.924147
1094.540414,6809.894666,-6587.832884,612.876398
1094.540743,6957.935855,-6587.832884,536.266849
1094.541072,6957.935855,-7105.977043,766.095498
1094.541402,6809.894666,-6809.894666,919.314598
1094.541731,7105.977043,-6587.832884,689.485948
1094.542061,7105.977043,-5847.626942,612.876398
1094.542390,7105.977043,-5551.544565,1455.581446
1094.542720,7920.203579,-5773.606348,1762.019645
1094.543049,7624.121203,-5255.462188,1532.190996
1094.543379,7772.162391,-5255.462188,1149.143247
1094.543708,7254.018232,-5329.482782,1378.971896
1094.544038,7179.997637,-6069.688724,919.314598
1094.544367,7031.956449,-6365.771101,766.095498
1094.544696,7179.997637,-7031.956449,995.924147
1094.545026,7031.956449,-7105.977043,689.485948
1094.545355,7179.997637,-7105.977043,1149.143247
1094.545685,7179.997637,-7476.080014,689.485948
1094.546014,6661.853478,-7476.080014,766.095498
1094.546344,6439.791695,-7846.182985,919.314598
1094.546673,6661.853478,-7105.977043,1608.800546
1094.547003,7105.977043,-6661.853478,536.266849
1094.547332,6957.935855,-6587.832884,1608.800546
1094.547662,7105.977043,-5995.668130,1455.581446
1094.547991,7031.956449,-5847.626942,1302.362347
1094.548321,7179.997637,-5477.523971,2374.896044
1094.548650,7105.977043,-5403.503377,1838.629195
1094.548979,7105.977043,-6069.688724,1225.752797
1094.549309,6957.935855,-6809.894666,1378.971896
1094.549638,6809.894666,-7254.018232,766.095498
1094.549968,6735.874072,-6957.935855,1608.800546
1094.550297,6069.688724,-7402.059420,612.876398
1094.550627,6069.688724,-7328.038826,612.876398
1094.550956,6069.688724,-7624.121203,612.876398
1094.551286,6735.874072,-7550.100608,536.266849
1094.551615,6587.832884,-6439.791695,1072.533697
1094.551945,6439.791695,-6587.832884,689.485948
1094.552274,6513.812290,-6069.688724,689.485948
1094.552603,6365.771101,-6365.771101,536.266849
1094.552933,7105.977043,-6291.750507,2068.457845
1094.553262,7105.977043,-6587.832884,995.924147
1094.553592,7105.977043,-6735.874072,1149.143247
1094.553921,7031.956449,-7254.018232,919.314598
1094.554251,6809.894666,-7772.162391,919.314598
1094.554580,6513.812290,-7550.100608,383.047749
1094.554910,6143.709319,-7698.141797,536.266849
1094.555239,6143.709319,-7772.162391,459.657299
1094.555569,6587.832884,-7031.956449,842.705048
1094.555898,6291.750507,-6143.709319,1455.581446
1094.556227,7105.977043,-5847.626942,842.705048
1094.556557,6957.935855,-5329.482782,1532.190996
1094.556886,6957.935855,-5551.544565,1149.143247
1094.557216,7031.956449,-5403.503377,1225.752797
1094.557545,7550.100608,-4959.379811,1455.581446
1094.557875,7772.162391,-5329.482782,1532.190996
1094.558204,7772.162391,-5847.626942,1532.190996
1094.558534,7476.080014,-6513.812290,1455.581446
1094.558863,7698.141797,-6587.832884,1149.143247
1094.559193,7698.141797,-6957.935855,1225.752797
1094.559522,7105.977043,-7179.997637,1455.581446
1094.559851,7031.956449,-7328.038826,1149.143247
1094.560181,6883.915261,-6217.729913,536.266849
1094.560510,7105.977043,-5995.668130,306.438199
1094.560840,6883.915261,-6143.709319,612.876398
1094.561169,6883.915261,-6513.812290,766.095498
1094.561499,6587.832884,-5921.647536,536.266849
1094.561828,7031.956449,-5329.482782,306.438199
1094.562158,7254.018232,-5181.441594,229.828649
1094.562487,7476.080014,-5921.647536,1072.533697
1094.562817,7846.182985,-6439.791695,1455.581446
1094.563146,7476.080014,-6365.771101,766.095498
1094.563476,8734.430116,-5625.565159,1838.629195
1094.563805,8216.285956,-6661.853478,1225.752797
1094.564134,7846.182985,-7328.038826,1072.533697
1094.564464,7254.018232,-7254.018232,1149.143247
1094.564793,6513.812290,-6957.935855,612.876398
1094.565123,6217.729913,-6365.771101,459.657299
1094.565452,6439.791695,-6883.915261,612.876398
1094.565782,6587.832884,-7254.018232,919.314598
1094.566111,6069.688724,-7179.997637,766.095498
1094.566441,5847.626942,-7179.997637,766.095498
1094.566770,5551.544565,-6439.791695,1072.533697
1094.567100,5995.668130,-7328.038826,689.485948
1094.567429,6809.894666,-6661.853478,1532.190996
1094.567758,6957.935855,-7031.956449,1608.800546
1094.568088,7476.080014,-6587.832884,2068.457845
1094.568417,8290.306550,-5921.647536,2451.505594
1094.568747,8290.306550,-5329.482782,1838.629195
1094.569076,7698.141797,-5181.441594,1608.800546
1094.569406,7179.997637,-5255.462188,1455.581446
1094.569735,6735.874072,-6143.709319,1532.190996
1094.570065,7031.956449,-6809.894666,1378.971896
1094.570394,6069.688724,-6957.935855,689.485948
1094.570724,5329.482782,-6365.771101,306.438199
1094.571053,5255.462188,-7476.080014,0.000000
1094.571382,5329.482782,-8364.327145,383.047749
1094.571712,5699.585753,-7994.224174,919.314598
1094.572041,6365.771101,-7328.038826,919.314598
1094.572371,6957.935855,-6513.812290,612.876398
1094.572700,7328.038826,-6809.894666,919.314598
1094.573030,7550.100608,-6883.915261,1608.800546
1094.573359,7402.059420,-6217.729913,1608.800546
1094.573689,7550.100608,-6439.791695,1302.362347
1094.574018,7105.977043,-5699.585753,1302.362347
1094.574348,7254.018232,-6513.812290,919.314598
1094.574677,6587.832884,-6587.832884,612.876398
1094.575007,6439.791695,-7031.956449,459.657299
1094.575336,6513.812290,-7105.977043,536.266849
1094.575665,7031.956449,-6735.874072,689.485948
1094.575995,6661.853478,-6809.894666,766.095498
1094.576324,6513.812290,-7031.956449,459.657299
1094.576654,6439.791695,-6735.874072,1149.143247
1094.576983,7179.997637,-7179.997637,919.314598
1094.577313,7328.038826,-6365.771101,1762.019645
1094.577642,7550.100608,-5921.647536,1685.410096
1094.577971,7328.038826,-5107.421000,1225.752797
1094.578300,7105.977043,-5625.565159,1225.752797
1094.578629,7920.203579,-6513.812290,1762.019645
1094.578958,7550.100608,-5625.565159,1455.581446
1094.579288,7402.059420,-5477.523971,842.705048
1094.579617,6957.935855,-5847.626942,612.876398
1094.579946,6661.853478,-6513.812290,536.266849
1094.580275,7179.997637,-7254.018232,0.000000
1094.580604,7105.977043,-6587.832884,612.876398
1094.580933,7105.977043,-6661.853478,842.705048
1094.581262,7105.977043,-6735.874072,842.705048
1094.581591,6735.874072,-6069.688724,842.705048
1094.581920,6957.935855,-6735.874072,689.485948
1094.582249,6587.832884,-6217.729913,766.095498
1094.582578,7105.977043,-5995.668130,919.314598
1094.582907,7550.100608,-5551.544565,536.266849
1094.583236,7994.224174,-5181.441594,842.705048
1094.583565,7994.224174,-5625.565159,995.924147
1094.583895,7698.141797,-6513.812290,995.924147
1094.584224,7402.059420,-6439.791695,995.924147
1094.584553,7328.038826,-6809.894666,766.095498
1094.584882,7254.018232,-6735.874072,1149.143247
1094.585211,7254.018232,-7476.080014,612.876398
1094.585540,6735.874072,-7698.141797,766.095498
1094.585869,6143.709319,-7624.121203,919.314598
1094.586198,6143.709319,-7402.059420,1149.143247
1094.586527,6069.688724,-6883.915261,612.876398
1094.586856,6143.709319,-6661.853478,919.314598
1094.587185,6217.729913,-6957.935855,1378.971896
1094.587514,6439.791695,-6143.709319,1685.410096
1094.587843,6883.915261,-5773.606348,995.924147
1094.588172,6883.915261,-5847.626942,1455.581446
1094.588502,7254.018232,-5921.647536,1685.410096
1094.588831,7550.100608,-6439.791695,1685.410096
1094.589160,7402.059420,-6365.771101,1991.848295
1094.589489,7402.059420,-6661.853478,995.924147
1094.589818,6883.915261,-6883.915261,1149.143247
1094.590147,6957.935855,-7031.956449,1225.752797
1094.590476,6217.729913,-7402.059420,995.924147
1094.590805,6217.729913,-6661.853478,1149.143247
1094.591134,5773.606348,-6883.915261,842.705048
1094.591463,6069.688724,-7031.956449,995.924147
1094.591792,6365.771101,-6143.709319,536.266849
1094.592121,6291.750507,-6735.874072,995.924147
1094.592450,6587.832884,-5847.626942,842.705048
1094.592779,6735.874072,-6217.729913,536.266849
1094.593109,7402.059420,-6735.874072,766.095498
1094.593438,7328.038826,-6735.874072,919.314598
1094.593767,7402.059420,-7105.977043,536.266849
1094.594096,7105.977043,-7994.224174,766.095498
1094.594425,7105.977043,-8068.244768,689.485948
1094.594754,6957.935855,-7846.182985,536.266849
1094.595083,7031.956449,-7476.080014,919.314598
1094.595412,7031.956449,-7698.141797,1915.238745
1094.595741,6809.894666,-6735.874072,919.314598
1094.596070,6587.832884,-5995.668130,383.047749
1094.596399,6291.750507,-5181.441594,459.657299
1094.596728,6957.935855,-5181.441594,1149.143247
1094.597057,7846.182985,-5329.482782,1838.629195
1094.597386,8290.306550,-5033.400406,1532.190996
1094.597716,7920.203579,-4589.276840,1532.190996
1094.598045,7772.162391,-5033.400406,1378.971896
1094.598374,7550.100608,-5551.544565,1991.848295
1094.598703,7698.141797,-6439.791695,2374.896044
1094.599032,7402.059420,-6809.894666,1455.581446
1094.599361,7328.038826,-6217.729913,689.485948
1094.599690,6735.874072,-6735.874072,0.000000
1094.600019,6439.791695,-7846.182985,842.705048
1094.600348,6439.791695,-7476.080014,919.314598
1094.600677,6291.750507,-6217.729913,306.438199
1094.601006,6439.791695,-5773.606348,229.828649
1094.601335,6365.771101,-5699.585753,1378.971896
1094.601664,6809.894666,-6957.935855,1072.533697
1094.601993,7254.018232,-5995.668130,995.924147
1094.602323,7402.059420,-5107.421000,306.438199
1094.602652,7698.141797,-5847.626942,919.314598
1094.602981,7624.121203,-6365.771101,1072.533697
1094.603310,7772.162391,-7105.977043,995.924147
1094.603639,7550.100608,-6809.894666,842.705048
1094.603968,7328.038826,-7550.100608,919.314598
1094.604297,7698.141797,-7994.224174,1149.143247
1094.604626,7254.018232,-7920.203579,1072.533697
1094.604955,6143.709319,-7402.059420,229.828649
1094.605284,5921.647536,-6883.915261,612.876398
1094.605613,6143.709319,-6809.894666,536.266849
1094.605942,6735.874072,-6661.853478,689.485948
1094.606271,6735.874072,-6365.771101,1072.533697
1094.606600,6513.812290,-5847.626942,842.705048
1094.606930,5995.668130,-5921.647536,459.657299
1094.607259,6217.729913,-6143.709319,1608.800546
1094.607588,6883.915261,-6661.853478,1455.581446
1094.607917,7476.080014,-6809.894666,1378.971896
1094.608246,7402.059420,-6069.688724,1302.362347
1094.608575,7550.100608,-6439.791695,1685.410096
1094.608904,7402.059420,-7105.977043,2068.457845
1094.609233,7402.059420,-6883.915261,1608.800546
1094.609562,6809.894666,-6217.729913,1072.533697
1094.609891,6883.915261,-6069.688724,1225.752797
1094.610220,6439.791695,-6587.832884,1225.752797
1094.610549,6513.812290,-6587.832884,1225.752797
1094.610878,6291.750507,-5847.626942,842.705048
1094.611207,6143.709319,-5921.647536,306.438199
1094.611537,6291.750507,-6513.812290,306.438199
1094.611866,6291.750507,-7402.059420,536.266849
1094.612195,6439.791695,-6661.853478,153.219100
1094.612524,6735.874072,-6809.894666,153.219100
1094.612853,7179.997637,-7402.059420,842.705048
1094.613182,8068.244768,-7624.121203,1072.533697
1094.613511,8216.285956,-7550.100608,1991.848295
1094.613840,8068.244768,-7179.997637,1608.800546
1094.614169,7254.018232,-6883.915261,919.314598
1094.614498,6883.915261,-6883.915261,919.314598
1094.614827,6809.894666,-6883.915261,689.485948
1094.615156,7031.956449,-6439.791695,919.314598
1094.615485,6513.812290,-5921.647536,536.266849
1094.615814,6291.750507,-5921.647536,459.657299
1094.616144,6291.750507,-6143.709319,766.095498
1094.616473,6809.894666,-5921.647536,766.095498
1094.616802,6883.915261,-6513.812290,842.705048
1094.617131,6957.935855,-6661.853478,1149.143247
1094.617460,7402.059420,-6661.853478,1149.143247
1094.617789,7402.059420,-6587.832884,1455.581446
1094.618118,7105.977043,-6587.832884,1608.800546
1094.618447,7105.977043,-6365.771101,1378.971896
1094.618776,7328.038826,-6217.729913,1915.238745
1094.619105,7328.038826,-6291.750507,1532.190996
1094.619434,6587.832884,-5773.606348,766.095498
1094.619763,6439.791695,-5625.565159,1072.533697
1094.620092,6661.853478,-5995.668130,766.095498
1094.620421,6587.832884,-6291.750507,766.095498
1094.620751,6365.771101,-6365.771101,612.876398
1094.621080,7105.977043,-6439.791695,459.657299
1094.621409,7105.977043,-6291.750507,842.705048
1094.621738,7105.977043,-6735.874072,766.095498
1094.622067,6957.935855,-6883.915261,689.485948
1094.622396,7624.121203,-6809.894666,919.314598
1094.622725,7624.121203,-6735.874072,612.876398
1094.623054,7550.100608,-6587.832884,1225.752797
1094.623383,7476.080014,-6661.853478,1302.362347
1094.623712,7476.080014,-6365.771101,1072.533697
1094.624041,7179.997637,-6291.750507,1225.752797
1094.624370,7031.956449,-6513.812290,1149.143247
1094.624699,6291.750507,-6439.791695,689.485948
1094.625028,6883.915261,-6365.771101,995.924147
1094.625358,6809.894666,-6365.771101,766.095498
1094.625687,6661.853478,-6439.791695,995.924147
1094.626016,6735.874072,-7476.080014,1149.143247
1094.626345,6587.832884,-7402.059420,995.924147
1094.626674,6735.874072,-7550.100608,1302.362347
1094.627003,7105.977043,-6957.935855,229.828649
1094.627332,6661.853478,-6661.853478,1149.143247
1094.627661,6883.915261,-6809.894666,1455.581446
1094.627990,7105.977043,-6587.832884,1532.190996
1094.628319,7105.977043,-5773.606348,1225.752797
1094.628648,7105.977043,-5847.626942,995.924147
1094.628977,6883.915261,-6217.729913,1378.971896
1094.629306,6513.812290,-6513.812290,1685.410096
1094.629635,6661.853478,-6513.812290,1225.752797
1094.629965,5995.668130,-5625.565159,689.485948
1094.630294,5921.647536,-6809.894666,1072.533697
1094.630623,6365.771101,-6957.935855,1149.143247
1094.630952,6735.874072,-7476.080014,1149.143247
1094.631281,6957.935855,-6809.894666,842.705048
1094.631610,6809.894666,-6587.832884,229.828649
1094.631939,6217.729913,-6513.812290,229.828649
1094.632268,6735.874072,-6513.812290,612.876398
1094.632597,7254.018232,-7105.977043,919.314598
1094.632926,7476.080014,-6735.874072,1302.362347
1094.633255,7624.121203,-6439.791695,842.705048
1094.633584,7105.977043,-6661.853478,689.485948
1094.633913,6957.935855,-7031.956449,766.095498
1094.634242,7105.977043,-7402.059420,689.485948
1094.634572,7105.977043,-7031.956449,1455.581446
1094.634901,7105.977043,-7105.977043,919.314598
1094.635230,6365.771101,-7105.977043,459.657299
1094.635559,6735.874072,-6957.935855,919.314598
1094.635888,6957.935855,-6883.915261,995.924147
1094.636217,6513.812290,-6069.688724,1762.019645
1094.636546,6661.853478,-5625.565159,842.705048
1094.636875,7179.997637,-5329.482782,1149.143247
1094.637204,7698.141797,-5551.544565,1915.238745
1094.637533,8068.244768,-5255.462188,2145.067394
1094.637862,7698.141797,-5107.421000,1608.800546
1094.638191,7402.059420,-5551.544565,1455.581446
1094.638520,7105.977043,-6661.853478,1455.581446
1094.638849,6957.935855,-6809.894666,1532.190996
1094.639179,7031.956449,-6661.853478,1608.800546
1094.639508,6661.853478,-6587.832884,612.876398
1094.639837,6735.874072,-7328.038826,536.266849
1094.640166,6365.771101,-7179.997637,766.095498
1094.640495,6291.750507,-7031.956449,1072.533697
1094.640824,6143.709319,-6587.832884,919.314598
1094.641153,6513.812290,-6883.915261,459.657299
1094.641482,6587.832884,-6513.812290,766.095498
1094.641811,7031.956449,-5847.626942,766.095498
1094.642140,7550.100608,-5995.668130,842.705048
1094.642469,7846.182985,-6069.688724,1149.143247
1094.642798,7624.121203,-6143.709319,689.485948
1094.643127,7550.100608,-5995.668130,919.314598
1094.643456,8068.244768,-6069.688724,995.924147
1094.643786,8290.306550,-6957.935855,766.095498
1094.644115,7402.059420,-6957.935855,1225.752797
1094.644444,7105.977043,-7179.997637,919.314598
1094.644773,6957.935855,-6883.915261,766.095498
1094.645102,6513.812290,-6883.915261,842.705048
1094.645431,6513.812290,-7476.080014,1225.752797
1094.645760,6513.812290,-7698.141797,995.924147
1094.646089,6365.771101,-7402.059420,919.314598
1094.646418,6291.750507,-6957.935855,766.095498
1094.646747,6217.729913,-6143.709319,766.095498
1094.647076,6069.688724,-7254.018232,1149.143247
1094.647405,6587.832884,-6513.812290,1302.362347
1094.647734,7254.018232,-5403.503377,1455.581446
1094.648063,8142.265362,-5403.503377,2145.067394
1094.648393,8512.368333,-4811.338623,2374.896044
1094.648722,6661.853478,-5773.606348,1685.410096
1094.649051,6809.894666,-5699.585753,1455.581446
1094.649380,6587.832884,-6143.709319,842.705048
1094.649709,6735.874072,-7179.997637,1685.410096
1094.650038,6587.832884,-7328.038826,1455.581446
1094.650367,6587.832884,-7105.977043,995.924147
1094.650696,6735.874072,-6661.853478,1149.143247
1094.651025,6143.709319,-7105.977043,612.876398
1094.651354,5995.668130,-6883.915261,766.095498
1094.651683,6143.709319,-7105.977043,842.705048
1094.652012,6587.832884,-6809.894666,229.828649
1094.652341,6957.935855,-6439.791695,383.047749
1094.652670,7328.038826,-6809.894666,1072.533697
1094.653000,7254.018232,-6957.935855,1149.143247
1094.653329,7772.162391,-6735.874072,1225.752797
1094.653658,7624.121203,-6513.812290,1149.143247
1094.653987,7402.059420,-6217.729913,766.095498
1094.654316,7254.018232,-7105.977043,919.314598
1094.654645,7031.956449,-7254.018232,1149.143247
1094.654974,6883.915261,-7179.997637,612.876398
1094.655303,6809.894666,-7105.977043,766.095498
1094.655632,6735.874072,-6439.791695,842.705048
1094.655961,6587.832884,-6883.915261,1225.752797
1094.656290,6365.771101,-6809.894666,689.485948
1094.656619,6587.832884,-7031.956449,1149.143247
1094.656948,6957.935855,-6365.771101,1378.971896
1094.657277,7550.100608,-5847.626942,1608.800546
1094.657607,7105.977043,-5699.585753,1302.362347
1094.657936,7105.977043,-5847.626942,1608.800546
1094.658265,7328.038826,-6143.709319,1455.581446
1094.658594,7328.038826,-6291.750507,1455.581446
1094.658923,7624.121203,-6513.812290,1608.800546
1094.659252,7328.038826,-6513.812290,1225.752797
1094.659581,7031.956449,-6957.935855,1072.533697
1094.659910,6513.812290,-6883.915261,1378.971896
1094.660239,6661.853478,-6587.832884,995.924147
1094.660568,6661.853478,-5995.668130,536.266849
1094.660897,7031.956449,-6365.771101,995.924147
1094.661226,6809.894666,-6365.771101,612.876398
1094.661555,6957.935855,-6217.729913,919.314598
1094.661884,6587.832884,-5847.626942,842.705048
1094.662214,7105.977043,-5995.668130,995.924147
1094.662543,7179.997637,-5921.647536,1072.533697
1094.662872,7698.141797,-5995.668130,1302.362347
1094.663201,7846.182985,-6365.771101,1762.019645
1094.663530,8142.265362,-5847.626942,1302.362347
1094.663859,7698.141797,-6809.894666,1225.752797
1094.664188,7476.080014,-7328.038826,1149.143247
1094.664517,7105.977043,-7476.080014,995.924147
1094.664846,6957.935855,-6883.915261,612.876398
1094.665175,6143.709319,-6957.935855,306.438199
1094.665504,6365.771101,-7179.997637,306.438199
1094.665833,6513.812290,-7624.121203,995.924147
1094.666162,7105.977043,-6809.894666,1072.533697
1094.666491,7402.059420,-5995.668130,842.705048
1094.666821,6587.832884,-5921.647536,1072.533697
1094.667150,6957.935855,-6143.709319,1072.533697
1094.667479,7328.038826,-6513.812290,1455.581446
1094.667808,7105.977043,-5403.503377,1608.800546
1094.668137,7105.977043,-6143.709319,1685.410096
1094.668466,6957.935855,-6143.709319,1455.581446
1094.668795,6661.853478,-6883.915261,1302.362347
1094.669124,7031.956449,-7179.997637,1608.800546
1094.669453,6809.894666,-6883.915261,1455.581446
1094.669782,6365.771101,-6735.874072,995.924147
1094.670111,6217.729913,-6587.832884,766.095498
1094.670440,6291.750507,-6883.915261,536.266849
1094.670769,6217.729913,-7105.977043,153.219100
1094.671098,5921.647536,-7031.956449,383.047749
1094.671428,6365.771101,-7254.018232,536.266849
1094.671757,6809.894666,-7105.977043,1072.533697
1094.672086,6809.894666,-6957.935855,1149.143247
1094.672415,7179.997637,-6883.915261,612.876398
1094.672744,7550.100608,-6069.688724,1149.143247
1094.673073,7624.121203,-6735.874072,1149.143247
1094.673402,7550.100608,-6513.812290,1225.752797
1094.673731,7402.059420,-6513.812290,842.705048
1094.674060,7550.100608,-7105.977043,536.266849
1094.674389,6957.935855,-7105.977043,766.095498
1094.674718,6809.894666,-7476.080014,919.314598
1094.675047,6291.750507,-7031.956449,689.485948
1094.675376,6069.688724,-6957.935855,1072.533697
1094.675705,6439.791695,-6957.935855,995.924147
1094.676035,6661.853478,-6513.812290,1302.362347
1094.676364,6735.874072,-6291.750507,1072.533697
1094.676693,7105.977043,-5773.606348,1378.971896
1094.677022,7550.100608,-5921.647536,2068.457845
1094.677351,7624.121203,-5625.565159,1608.800546
1094.677680,7624.121203,-5625.565159,1915.238745
1094.678009,7846.182985,-5329.482782,1991.848295
1094.678338,7846.182985,-5551.544565,1532.190996
1094.678667,7476.080014,-5995.668130,1762.019645
1094.678996,7402.059420,-5921.647536,1225.752797
1094.679325,6957.935855,-6217.729913,995.924147
1094.679654,6735.874072,-6661.853478,842.705048
1094.679984,6143.709319,-7179.997637,689.485948
1094.680313,5995.668130,-6957.935855,612.876398
1094.680642,6143.709319,-6661.853478,383.047749
1094.680971,6365.771101,-6957.935855,536.266849
1094.681300,6809.894666,-6809.894666,995.924147
1094.681630,6809.894666,-7402.059420,995.924147
1094.681959,6883.915261,-6661.853478,919.314598
1094.682288,7328.038826,-5773.606348,1072.533697
1094.682617,7105.977043,-5921.647536,1149.143247
1094.682946,7550.100608,-6069.688724,1915.238745
1094.683276,8142.265362,-6217.729913,1149.143247
1094.683605,7698.141797,-6217.729913,1072.533697
1094.683934,7846.182985,-6513.812290,1072.533697
1094.684263,7624.121203,-7031.956449,1225.752797
1094.684593,7476.080014,-7105.977043,1532.190996
1094.684922,6661.853478,-7476.080014,766.095498
1094.685251,6291.750507,-7179.997637,153.219100
1094.685580,5625.565159,-7328.038826,383.047749
1094.685909,6143.709319,-7328.038826,842.705048
1094.686239,6069.688724,-7698.141797,1149.143247
1094.686568,6365.771101,-7179.997637,842.705048
1094.686897,5921.647536,-6735.874072,995.924147
1094.687226,6217.729913,-6661.853478,1378.971896
1094.687555,7105.977043,-6365.771101,1378.971896
1094.687885,7624.121203,-5847.626942,1915.238745
1094.688214,8586.388927,-5477.523971,2451.505594
1094.688543,7994.224174,-4959.379811,1762.019645
1094.688872,7105.977043,-5477.523971,1149.143247
1094.689202,7105.977043,-5477.523971,1225.752797
1094.689531,6883.915261,-6587.832884,995.924147
1094.689860,6957.935855,-7105.977043,1302.362347
1094.690189,6587.832884,-7328.038826,1149.143247
1094.690518,5847.626942,-7698.141797,1072.533697
1094.690848,5921.647536,-7105.977043,842.705048
1094.691177,5995.668130,-7402.059420,459.657299
1094.691506,6439.791695,-7254.018232,919.314598
1094.691835,6809.894666,-6957.935855,689.485948
1094.692164,6587.832884,-6439.791695,995.924147
1094.692494,7105.977043,-5847.626942,459.657299
1094.692823,7624.121203,-5921.647536,1302.362347
1094.693152,8290.306550,-6365.771101,1302.362347
1094.693481,8290.306550,-6735.874072,1762.019645
1094.693811,7402.059420,-6883.915261,995.924147
1094.694140,7105.977043,-6883.915261,612.876398
1094.694469,7105.977043,-7179.997637,536.266849
1094.694798,6513.812290,-7179.997637,459.657299
1094.695127,5995.668130,-7772.162391,995.924147
1094.695457,6217.729913,-7179.997637,612.876398
1094.695786,6735.874072,-7105.977043,919.314598
1094.696115,6809.894666,-6883.915261,1149.143247
1094.696444,6661.853478,-6513.812290,995.924147
1094.696773,6513.812290,-6439.791695,1072.533697
1094.697103,6883.915261,-6217.729913,1225.752797
1094.697432,7402.059420,-5773.606348,1455.581446
1094.697761,7624.121203,-5477.523971,1838.629195
1094.698090,7476.080014,-5699.585753,1685.410096
1094.698420,7328.038826,-5847.626942,1302.362347
1094.698749,7328.038826,-6513.812290,1149.143247
1094.699078,7105.977043,-6661.853478,995.924147
1094.699407,6735.874072,-6809.894666,1225.752797
1094.699736,6661.853478,-6883.915261,995.924147
1094.700066,6365.771101,-6883.915261,689.485948
1094.700395,6587.832884,-6735.874072,766.095498
1094.700724,6735.874072,-6587.832884,536.266849
1094.701053,6513.812290,-6365.771101,1225.752797
1094.701382,7105.977043,-6957.935855,1225.752797
1094.701712,7031.956449,-6217.729913,1302.362347
1094.702041,7179.997637,-5921.647536,1072.533697
1094.702370,7402.059420,-5847.626942,1455.581446
1094.702699,7550.100608,-5847.626942,1072.533697
1094.703029,7624.121203,-6291.750507,1302.362347
1094.703358,7624.121203,-6513.812290,1302.362347
1094.703687,7402.059420,-6735.874072,1149.143247
1094.704016,7031.956449,-7254.018232,995.924147
1094.704345,6957.935855,-7402.059420,919.314598
1094.704675,6883.915261,-6809.894666,1072.533697
1094.705004,7105.977043,-6439.791695,842.705048
1094.705333,7105.977043,-6661.853478,1225.752797
1094.705662,7254.018232,-6439.791695,1608.800546
1094.705991,6217.729913,-6365.771101,995.924147
1094.706321,6365.771101,-6661.853478,842.705048
1094.706650,6513.812290,-6587.832884,1302.362347
1094.706979,6809.894666,-6587.832884,1072.533697
1094.707308,7031.956449,-6587.832884,1838.629195
1094.707637,6809.894666,-6217.729913,1378.971896
1094.707967,7254.018232,-6365.771101,1455.581446
1094.708296,7698.141797,-6587.832884,1915.238745
1094.708625,7624.121203,-6439.791695,1762.019645
1094.708954,7179.997637,-6513.812290,1455.581446
1094.709284,6809.894666,-6217.729913,1225.752797
1094.709613,6439.791695,-6883.915261,995.924147
1094.709942,6365.771101,-6883.915261,1225.752797
1094.710271,6143.709319,-6439.791695,766.095498
1094.710600,6069.688724,-6661.853478,612.876398
1094.710930,6217.729913,-7105.977043,919.314598
1094.711259,6587.832884,-6957.935855,766.095498
1094.711588,6513.812290,-6661.853478,459.657299
1094.711917,6883.915261,-6217.729913,919.314598
1094.712246,7031.956449,-6735.874072,459.657299
1094.712576,7402.059420,-6883.915261,766.095498
1094.712905,7476.080014,-7031.956449,995.924147
1094.713234,7624.121203,-7402.059420,1532.190996
1094.713563,7179.997637,-7105.977043,689.485948
1094.713893,6957.935855,-7179.997637,536.266849
1094.714222,6957.935855,-7476.080014,1072.533697
1094.714551,7031.956449,-7105.977043,919.314598
1094.714880,6957.935855,-6883.915261,1608.800546
1094.715209,6439.791695,-6513.812290,689.485948
1094.715539,6439.791695,-6513.812290,842.705048
1094.715868,6809.894666,-6735.874072,1302.362347
1094.716197,7254.018232,-5995.668130,1455.581446
1094.716526,7179.997637,-5255.462188,1072.533697
1094.716855,7328.038826,-5699.585753,1225.752797
1094.717185,7402.059420,-6069.688724,1455.581446
1094.717514,7550.100608,-6365.771101,1532.190996
1094.717843,7254.018232,-5477.523971,1378.971896
1094.718172,7105.977043,-6217.729913,1149.143247
1094.718502,6587.832884,-7031.956449,1302.362347
1094.718831,6957.935855,-7105.977043,1532.190996
1094.719160,6661.853478,-7105.977043,1378.971896
1094.719489,6735.874072,-6587.832884,689.485948
1094.719818,6735.874072,-6365.771101,766.095498
1094.720148,6661.853478,-6439.791695,1149.143247
1094.720477,6957.935855,-6217.729913,995.924147
1094.720806,7105.977043,-5699.585753,919.314598
1094.721135,7105.977043,-5995.668130,1225.752797
1094.721464,6957.935855,-5551.544565,842.705048
1094.721794,6661.853478,-6291.750507,612.876398
1094.722123,7105.977043,-6291.750507,689.485948
1094.722452,7846.182985,-6365.771101,612.876398
1094.722781,7402.059420,-6957.935855,1149.143247
1094.723111,7624.121203,-6735.874072,1149.143247
1094.723440,7698.141797,-6735.874072,766.095498
1094.723769,7550.100608,-6587.832884,766.095498
1094.724098,7105.977043,-7105.977043,766.095498
1094.724427,7179.997637,-6957.935855,995.924147
1094.724757,7031.956449,-7254.018232,1072.533697
1094.725086,6883.915261,-6587.832884,612.876398
1094.725415,6365.771101,-6587.832884,919.314598
1094.725744,6735.874072,-6661.853478,1302.362347
1094.726073,7105.977043,-7105.977043,1149.143247
1094.726403,7105.977043,-6809.894666,1608.800546
1094.726732,7254.018232,-6735.874072,919.314598
1094.727061,6513.812290,-6735.874072,995.924147
1094.727390,6513.812290,-6735.874072,1225.752797
1094.727720,6957.935855,-6735.874072,1455.581446
1094.728049,7402.059420,-6735.874072,1762.019645
1094.728378,7402.059420,-6217.729913,1532.190996
1094.728707,7105.977043,-5477.523971,1302.362347
1094.729036,6587.832884,-5995.668130,1302.362347
1094.729366,6513.812290,-6143.709319,1149.143247
1094.729695,6587.832884,-6143.709319,1225.752797
1094.730024,6809.894666,-6661.853478,1378.971896
1094.730353,6587.832884,-6291.750507,842.705048
1094.730682,6661.853478,-6661.853478,1072.533697
1094.731012,6513.812290,-6883.915261,1072.533697
1094.731341,6143.709319,-6883.915261,995.924147
1094.731670,6735.874072,-6957.935855,1072.533697
1094.731999,7105.977043,-6883.915261,689.485948
1094.732328,6957.935855,-7031.956449,536.266849
1094.732658,6957.935855,-6587.832884,842.705048
1094.732987,7624.121203,-6809.894666,1455.581446
1094.733316,7328.038826,-7031.956449,1072.533697
1094.733645,7254.018232,-6957.935855,1072.533697
1094.733975,6957.935855,-6957.935855,919.314598
1094.734304,6439.791695,-6291.750507,689.485948
1094.734633,6365.771101,-6809.894666,766.095498
1094.734962,6439.791695,-7031.956449,612.876398
1094.735291,6735.874072,-7179.997637,689.485948
1094.735621,6809.894666,-6883.915261,1072.533697
1094.735950,7031.956449,-6809.894666,842.705048
1094.736279,6883.915261,-6587.832884,1072.533697
1094.736608,7179.997637,-6291.750507,995.924147
1094.736937,7402.059420,-6365.771101,1302.362347
1094.737267,7550.100608,-6217.729913,1685.410096
1094.737596,7624.121203,-6069.688724,995.924147
1094.737925,7624.121203,-5699.585753,1302.362347
1094.738254,7254.018232,-5921.647536,1225.752797
1094.738584,7031.956449,-6513.812290,1225.752797
1094.738913,6809.894666,-5995.668130,1608.800546
1094.739242,6883.915261,-6291.750507,842.705048
1094.739571,6513.812290,-6439.791695,689.485948
1094.739900,6439.791695,-6439.791695,536.266849
1094.740230,6587.832884,-6883.915261,536.266849
1094.740559,6809.894666,-6439.791695,536.266849
1094.740888,6957.935855,-6439.791695,842.705048
1094.741217,7105.977043,-6291.750507,919.314598
1094.741546,7254.018232,-6217.729913,919.314598
1094.741876,7328.038826,-6217.729913,689.485948
1094.742205,7328.038826,-6069.688724,1149.143247
1094.742534,7698.141797,-6217.729913,1455.581446
1094.742863,7476.080014,-6069.688724,1225.752797
1094.743193,7328.038826,-5551.544565,919.314598
1094.743522,7402.059420,-6217.729913,842.705048
1094.743851,7179.997637,-6587.832884,1302.362347
1094.744180,7254.018232,-6957.935855,1455.581446
1094.744509,7179.997637,-7105.977043,1225.752797
1094.744839,6883.915261,-6883.915261,536.266849
1094.745168,6883.915261,-6809.894666,536.266849
1094.745497,6957.935855,-7179.997637,766.095498
1094.745826,6587.832884,-7031.956449,842.705048
1094.746155,6217.729913,-6735.874072,459.657299
1094.746485,6069.688724,-6291.750507,1685.410096
1094.746814,6587.832884,-7105.977043,1149.143247
1094.747143,7031.956449,-7328.038826,1378.971896
1094.747472,6735.874072,-6735.874072,1762.019645
1094.747802,6735.874072,-6143.709319,1072.533697
1094.748131,6661.853478,-6069.688724,1838.629195
1094.748460,7179.997637,-6513.812290,1915.238745
1094.748789,7550.100608,-6365.771101,1532.190996
1094.749118,7105.977043,-6069.688724,1455.581446
1094.749448,6587.832884,-6513.812290,995.924147
1094.749777,6587.832884,-7031.956449,1072.533697
1094.750106,6291.750507,-7105.977043,1225.752797
1094.750435,6439.791695,-7105.977043,766.095498
1094.750764,6365.771101,-6661.853478,766.095498
1094.751094,6291.750507,-6439.791695,1302.362347
1094.751423,6365.771101,-6513.812290,383.047749
1094.751752,6735.874072,-6587.832884,459.657299
1094.752081,6957.935855,-6513.812290,842.705048
1094.752411,7105.977043,-6661.853478,689.485948
1094.752740,6883.915261,-6513.812290,842.705048
1094.753069,7254.018232,-6957.935855,919.314598
1094.753398,7328.038826,-6587.832884,612.876398
1094.753727,7254.018232,-7105.977043,689.485948
1094.754057,7476.080014,-7105.977043,1302.362347
1094.754386,7402.059420,-7105.977043,766.095498
1094.754715,7476.080014,-6883.915261,995.924147
1094.755044,6957.935855,-6587.832884,612.876398
1094.755373,6365.771101,-6513.812290,612.876398
1094.755703,6365.771101,-7105.977043,689.485948
1094.756032,6439.791695,-6439.791695,536.266849
1094.756361,6957.935855,-6143.709319,919.314598
1094.756690,6513.812290,-5995.668130,1149.143247
1094.757020,7179.997637,-5847.626942,1915.238745
1094.757349,7624.121203,-5625.565159,689.485948
1094.757678,7772.162391,-5551.544565,1378.971896
1094.758007,7772.162391,-5699.585753,1378.971896
1094.758336,7772.162391,-5773.606348,1685.410096
1094.758666,7476.080014,-5625.565159,1378.971896
1094.758995,7105.977043,-5921.647536,995.924147
1094.759324,7031.956449,-6513.812290,995.924147
1094.759653,6883.915261,-7105.977043,1225.752797
1094.759982,6513.812290,-7550.100608,1378.971896
1094.760312,6143.709319,-7179.997637,842.705048
1094.760641,6069.688724,-6809.894666,766.095498
1094.760970,6513.812290,-6439.791695,229.828649
1094.761299,6957.935855,-6291.750507,689.485948
1094.761628,7179.997637,-6069.688724,766.095498
1094.761958,7328.038826,-5921.647536,842.705048
1094.762287,7698.141797,-5477.523971,766.095498
1094.762616,7846.182985,-5329.482782,842.705048
1094.762945,7994.224174,-6587.832884,1225.752797
1094.763275,8216.285956,-6883.915261,1532.190996
1094.763604,7476.080014,-6735.874072,766.095498
1094.763933,7105.977043,-6735.874072,842.705048
1094.764262,7105.977043,-7254.018232,919.314598
1094.764591,7550.100608,-7402.059420,1302.362347
1094.764921,6957.935855,-7105.977043,1149.143247
1094.765250,6365.771101,-7402.059420,536.266849
1094.765579,6143.709319,-7105.977043,689.485948
1094.765908,6513.812290,-6735.874072,995.924147
1094.766237,6809.894666,-7031.956449,842.705048
1094.766567,6365.771101,-6587.832884,1302.362347
1094.766896,6439.791695,-6587.832884,1225.752797
1094.767225,6513.812290,-6217.729913,919.314598
1094.767554,7105.977043,-5921.647536,1838.629195
1094.767884,7402.059420,-6143.709319,1838.629195
1094.768213,7550.100608,-5921.647536,1838.629195
1094.768542,7402.059420,-6217.729913,1915.238745
1094.768871,6883.915261,-6143.709319,1455.581446
1094.769200,6735.874072,-6291.750507,2068.457845
1094.769530,6513.812290,-6809.894666,1149.143247
1094.769859,6809.894666,-7031.956449,1685.410096
1094.770188,6957.935855,-6661.853478,1225.752797
1094.770517,6809.894666,-6513.812290,842.705048
1094.770846,6587.832884,-6439.791695,766.095498
1094.771176,6365.771101,-6661.853478,459.657299
1094.771505,6365.771101,-6291.750507,612.876398
1094.771834,6365.771101,-6291.750507,612.876398
1094.772163,6957.935855,-6143.709319,766.095498
1094.772493,6883.915261,-6587.832884,689.485948
1094.772822,7254.018232,-7031.956449,842.705048
1094.773151,7624.121203,-6883.915261,1072.533697
1094.773480,7994.224174,-6883.915261,1302.362347
1094.773809,7920.203579,-6513.812290,1302.362347
1094.774139,7328.038826,-6809.894666,995.924147
1094.774468,7031.956449,-7105.977043,766.095498
1094.774797,6883.915261,-7031.956449,383.047749
1094.775126,6513.812290,-6957.935855,0.000000
1094.775455,6587.832884,-7105.977043,536.266849
1094.775785,6587.832884,-6587.832884,612.876398
1094.776114,6587.832884,-6587.832884,766.095498
1094.776443,6809.894666,-6587.832884,766.095498
1094.776772,7031.956449,-5847.626942,995.924147
1094.777102,7328.038826,-6069.688724,1149.143247
1094.777431,7105.977043,-5995.668130,1378.971896
1094.777760,7402.059420,-6069.688724,1149.143247
1094.778089,7328.038826,-5921.647536,1455.581446
1094.778418,7402.059420,-5847.626942,2298.286494
1094.778746,7476.080014,-6587.832884,1915.238745
1094.779075,7328.038826,-6069.688724,1225.752797
1094.779405,7031.956449,-6439.791695,1072.533697
1094.779734,7031.956449,-6217.729913,766.095498
1094.780063,6513.812290,-6291.750507,153.219100
1094.780392,6365.771101,-6513.812290,612.876398
1094.780722,5995.668130,-6439.791695,612.876398
1094.781051,6735.874072,-5995.668130,689.485948
1094.781380,6661.853478,-6143.709319,919.314598
1094.781709,7105.977043,-6883.915261,842.705048
1094.782039,7105.977043,-7105.977043,1072.533697
1094.782368,7624.121203,-6217.729913,1532.190996
1094.782697,7994.224174,-6365.771101,1378.971896
1094.783026,7624.121203,-6217.729913,1302.362347
1094.783356,8216.285956,-6661.853478,1149.143247
1094.783685,7550.100608,-6587.832884,919.314598
1094.784014,7254.018232,-6513.812290,766.095498
1094.784343,7476.080014,-6735.874072,1072.533697
1094.784673,7328.038826,-6957.935855,842.705048
1094.785002,7031.956449,-6883.915261,842.705048
1094.785331,6957.935855,-6661.853478,689.485948
1094.785660,6735.874072,-6217.729913,842.705048
1094.785990,7105.977043,-6439.791695,459.657299
1094.786319,6883.915261,-6587.832884,919.314598
1094.786648,6661.853478,-7031.956449,1149.143247
1094.786977,7105.977043,-6735.874072,1072.533697
1094.787306,6365.771101,-7031.956449,1991.848295
1094.787636,6735.874072,-6735.874072,1302.362347
1094.787965,7105.977043,-6957.935855,1225.752797
1094.788294,7254.018232,-6587.832884,1685.410096
1094.788623,7476.080014,-6365.771101,1608.800546
1094.788953,7624.121203,-5847.626942,2221.676944
1094.789282,6957.935855,-6217.729913,1302.362347
1094.789611,6809.894666,-6143.709319,1149.143247
1094.789940,6365.771101,-6735.874072,1072.533697
1094.790270,6439.791695,-6513.812290,919.314598
1094.790599,5921.647536,-6587.832884,766.095498
1094.790928,6143.709319,-7105.977043,689.485948
1094.791257,6513.812290,-7031.956449,612.876398
1094.791587,6587.832884,-7179.997637,766.095498
1094.791916,7031.956449,-7179.997637,306.438199
1094.792245,6957.935855,-6957.935855,689.485948
1094.792574,7105.977043,-6809.894666,689.485948
1094.792904,7402.059420,-7031.956449,1072.533697
1094.793233,7179.997637,-6809.894666,1302.362347
1094.793562,7402.059420,-7105.977043,536.266849
1094.793891,7031.956449,-7105.977043,842.705048
1094.794221,7105.977043,-6883.915261,995.924147
1094.794550,6957.935855,-6587.832884,842.705048
1094.794879,6587.832884,-6809.894666,1532.190996
1094.795208,6735.874072,-7105.977043,842.705048
1094.795537,6735.874072,-6809.894666,689.485948
1094.795867,6291.750507,-6587.832884,612.876398
1094.796196,6291.750507,-6143.709319,536.266849
1094.796525,7031.956449,-5773.606348,536.266849
1094.796854,7254.018232,-5995.668130,1302.362347
1094.797184,7402.059420,-5921.647536,1455.581446
1094.797513,7624.121203,-5625.565159,1455.581446
1094.797842,7920.203579,-5255.462188,1378.971896
1094.798171,7772.162391,-5477.523971,1838.629195
1094.798501,7402.059420,-5921.647536,1991.848295
1094.798830,6957.935855,-5995.668130,1149.143247
1094.799159,6735.874072,-6143.709319,995.924147
1094.799488,7105.977043,-6587.832884,1072.533697
1094.799818,6957.935855,-6809.894666,1149.143247
1094.800147,6587.832884,-7179.997637,1149.143247
1094.800476,5847.626942,-6291.750507,689.485948
1094.800805,5847.626942,-7105.977043,153.219100
1094.801135,6217.729913,-6883.915261,459.657299
1094.801464,6513.812290,-6957.935855,995.924147
1094.801793,6809.894666,-6513.812290,919.314598
1094.802122,7254.018232,-5699.585753,919.314598
1094.802452,7402.059420,-5625.565159,1685.410096
1094.802781,7994.224174,-5847.626942,1455.581446
1094.803110,8216.285956,-5847.626942,1149.143247
1094.803439,8068.244768,-6069.688724,1455.581446
1094.803768,7698.141797,-5995.668130,919.314598
1094.804098,7179.997637,-6957.935855,1302.362347
1094.804427,7328.038826,-7105.977043,1072.533697
1094.804756,7105.977043,-7402.059420,689.485948
1094.805085,6439.791695,-7328.038826,383.047749
1094.805415,6143.709319,-7402.059420,536.266849
1094.805744,6365.771101,-7476.080014,536.266849
1094.806073,6217.729913,-7698.141797,766.095498
1094.806402,6439.791695,-7994.224174,1072.533697
1094.806732,6143.709319,-6809.894666,1072.533697
1094.807061,6587.832884,-6957.935855,1149.143247
1094.807390,6661.853478,-6365.771101,1149.143247
1094.807719,7179.997637,-5995.668130,1608.800546
1094.808049,8068.244768,-5921.647536,1991.848295
1094.808378,8216.285956,-5477.523971,2221.676944
1094.808707,7328.038826,-5403.503377,2145.067394
1094.809036,6957.935855,-5847.626942,1455.581446
1094.809366,6809.894666,-6291.750507,1072.533697
1094.809695,6587.832884,-6957.935855,1532.190996
1094.810024,6661.853478,-6809.894666,1838.629195
1094.810353,6439.791695,-6883.915261,1072.533697
1094.810682,6217.729913,-6143.709319,842.705048
1094.811012,6439.791695,-6587.832884,612.876398
1094.811341,6291.750507,-6883.915261,689.485948
1094.811670,6809.894666,-6513.812290,459.657299
1094.811999,6291.750507,-6217.729913,306.438199
1094.812329,6661.853478,-5995.668130,306.438199
1094.812658,7254.018232,-6957.935855,995.924147
1094.812987,8068.244768,-7105.977043,1072.533697
1094.813316,8068.244768,-6883.915261,1378.971896
1094.813646,7772.162391,-6143.709319,919.314598
1094.813975,7550.100608,-6587.832884,1225.752797
1094.814304,7550.100608,-7254.018232,842.705048
1094.814633,7179.997637,-7772.162391,1685.410096
1094.814963,6587.832884,-7402.059420,612.876398
1094.815292,5847.626942,-6809.894666,306.438199
1094.815621,6143.709319,-7105.977043,689.485948
1094.815950,6217.729913,-6883.915261,306.438199
1094.816280,6365.771101,-6143.709319,1302.362347
1094.816609,6661.853478,-6069.688724,459.657299
1094.816938,7179.997637,-5921.647536,1149.143247
1094.817267,7328.038826,-5551.544565,1225.752797
1094.817597,7402.059420,-5995.668130,1378.971896
1094.817926,7254.018232,-5847.626942,1302.362347
1094.818255,7328.038826,-5921.647536,1455.581446
1094.818584,7698.141797,-6439.791695,1762.019645
1094.818913,7550.100608,-6513.812290,1762.019645
1094.819243,7402.059420,-6069.688724,1532.190996
1094.819572,7031.956449,-6291.750507,1072.533697
1094.819901,6513.812290,-6809.894666,1072.533697
1094.820230,6439.791695,-7105.977043,842.705048
1094.820560,5625.565159,-6735.874072,1072.533697
1094.820889,6365.771101,-6439.791695,459.657299
1094.821218,5995.668130,-6587.832884,459.657299
1094.821547,6587.832884,-6661.853478,842.705048
1094.821877,7031.956449,-6957.935855,1302.362347
1094.822206,7476.080014,-6439.791695,1302.362347
1094.822535,7476.080014,-5921.647536,1225.752797
1094.822864,7994.224174,-5847.626942,1149.143247
1094.823194,8142.265362,-6069.688724,1532.190996
1094.823523,7994.224174,-6217.729913,1149.143247
1094.823852,7105.977043,-6143.709319,995.924147
1094.824181,7179.997637,-6069.688724,919.314598
1094.824511,7476.080014,-6883.915261,919.314598
1094.824840,7328.038826,-6957.935855,995.924147
1094.825169,6883.915261,-6661.853478,689.485948
1094.825498,6439.791695,-7179.997637,919.314598
1094.825828,6587.832884,-6291.750507,1302.362347
1094.826157,6217.729913,-7179.997637,766.095498
1094.826486,6217.729913,-7105.977043,766.095498
1094.826815,6365.771101,-6661.853478,995.924147
1094.827144,6661.853478,-6883.915261,1225.752797
1094.827474,7105.977043,-6513.812290,1762.019645
1094.827803,7402.059420,-6365.771101,1532.190996
1094.828132,7402.059420,-6587.832884,1072.533697
1094.828461,7179.997637,-5995.668130,1608.800546
1094.828791,6883.915261,-6439.791695,1685.410096
1094.829120,6957.935855,-6291.750507,1532.190996
1094.829449,6439.791695,-6661.853478,919.314598
1094.829778,6439.791695,-6587.832884,995.924147
1094.830108,6291.750507,-6735.874072,842.705048
1094.830437,6217.729913,-6883.915261,919.314598
1094.830766,6069.688724,-6661.853478,306.438199
1094.831095,6143.709319,-7179.997637,842.705048
1094.831425,6513.812290,-7105.977043,919.314598
1094.831754,6513.812290,-6809.894666,842.705048
1094.832083,6661.853478,-6957.935855,919.314598
1094.832412,6883.915261,-6217.729913,1072.533697
1094.832742,7328.038826,-6883.915261,1225.752797
1094.833071,7476.080014,-6365.771101,1302.362347
1094.833400,7328.038826,-6439.791695,612.876398
1094.833729,7476.080014,-6735.874072,919.314598
1094.834059,7179.997637,-6735.874072,1149.143247
1094.834388,7105.977043,-6661.853478,1302.362347
1094.834717,7105.977043,-7105.977043,995.924147
1094.835046,6661.853478,-7105.977043,689.485948
1094.835375,5995.668130,-6883.915261,612.876398
1094.835705,6809.894666,-6957.935855,306.438199
1094.836034,6513.812290,-6957.935855,995.924147
1094.836363,7105.977043,-6513.812290,1149.143247
1094.836692,7624.121203,-5625.565159,1378.971896
1094.837022,7105.977043,-5921.647536,1225.752797
1094.837351,7476.080014,-5921.647536,1302.362347
1094.837680,7402.059420,-5847.626942,1762.019645
1094.838009,7772.162391,-5847.626942,1685.410096
1094.838339,7624.121203,-5921.647536,1915.238745
1094.838668,7031.956449,-6143.709319,1838.629195
1094.838997,6439.791695,-6513.812290,1225.752797
1094.839326,6439.791695,-6883.915261,919.314598
1094.839656,6883.915261,-6957.935855,766.095498
1094.839985,6513.812290,-7105.977043,995.924147
1094.840314,6513.812290,-6735.874072,1455.581446
1094.840643,6513.812290,-6217.729913,536.266849
1094.840973,6957.935855,-5699.585753,536.266849
1094.841302,7105.977043,-5847.626942,842.705048
1094.841631,7328.038826,-6439.791695,1072.533697
1094.841960,7624.121203,-5847.626942,919.314598
1094.842290,7772.162391,-5477.523971,689.485948
1094.842619,7624.121203,-5847.626942,995.924147
1094.842948,7920.203579,-6513.812290,995.924147
1094.843277,7105.977043,-6587.832884,1685.410096
1094.843606,7328.038826,-6291.750507,766.095498
1094.843936,7105.977043,-7328.038826,919.314598
1094.844265,7476.080014,-7698.141797,1072.533697
1094.844594,7031.956449,-7476.080014,1072.533697
1094.844923,6439.791695,-7550.100608,1072.533697
1094.845253,6143.709319,-7105.977043,306.438199
1094.845582,6439.791695,-7031.956449,689.485948
1094.845911,6735.874072,-7105.977043,919.314598
1094.846240,6809.894666,-6587.832884,1225.752797
1094.846570,6513.812290,-6587.832884,995.924147
1094.846899,6587.832884,-6217.729913,919.314598
1094.847228,6735.874072,-6587.832884,1302.362347
1094.847557,7105.977043,-6291.750507,1149.143247
1094.847887,7624.121203,-6143.709319,1532.190996
1094.848216,7624.121203,-6217.729913,1838.629195
1094.848545,7624.121203,-6291.750507,1762.019645
1094.848874,7105.977043,-6735.874072,1915.238745
1094.849204,6883.915261,-6883.915261,1455.581446
1094.849533,6883.915261,-6291.750507,536.266849
1094.849862,6661.853478,-6809.894666,1302.362347
1094.850191,6735.874072,-7031.956449,1225.752797
1094.850521,6291.750507,-6587.832884,842.705048
1094.850850,6291.750507,-6069.688724,842.705048
1094.851179,6143.709319,-5921.647536,306.438199
1094.851508,6513.812290,-6513.812290,689.485948
1094.851837,6883.915261,-6883.915261,1072.533697
1094.852167,7105.977043,-6365.771101,919.314598
1094.852496,7105.977043,-6365.771101,919.314598
1094.852825,7476.080014,-6439.791695,995.924147
1094.853154,7179.997637,-7105.977043,1302.362347
1094.853484,7624.121203,-7105.977043,1302.362347
1094.853813,7698.141797,-7476.080014,1072.533697
1094.854142,7105.977043,-7105.977043,536.266849
1094.854471,6587.832884,-7328.038826,383.047749
1094.854801,6735.874072,-7031.956449,612.876398
1094.855130,6809.894666,-7031.956449,919.314598
1094.855459,7328.038826,-6513.812290,919.314598
1094.855788,6513.812290,-6069.688724,919.314598
1094.856118,6513.812290,-6069.688724,689.485948
1094.856447,6513.812290,-5773.606348,536.266849
1094.856776,6883.915261,-6291.750507,919.314598
1094.857105,7179.997637,-6809.894666,919.314598
1094.857435,7402.059420,-6291.750507,1225.752797
1094.857764,7402.059420,-6217.729913,1455.581446
1094.858093,7105.977043,-6217.729913,1225.752797
1094.858422,7476.080014,-6439.791695,1608.800546
1094.858752,7105.977043,-7105.977043,1455.581446
1094.859081,6809.894666,-6809.894666,1149.143247
1094.859410,6661.853478,-6143.709319,536.266849
1094.859739,6439.791695,-6069.688724,766.095498
1094.860068,6513.812290,-6143.709319,1455.581446
1094.860398,6883.915261,-6439.791695,919.314598
1094.860727,6883.915261,-5847.626942,306.438199
1094.861056,6883.915261,-5699.585753,536.266849
1094.861385,7179.997637,-6069.688724,1225.752797
1094.861715,7179.997637,-6217.729913,842.705048
1094.862044,7254.018232,-6957.935855,689.485948
1094.862373,7550.100608,-6291.750507,612.876398
1094.862702,7105.977043,-6513.812290,1149.143247
1094.863032,7328.038826,-6587.832884,1915.238745
1094.863361,7920.203579,-6439.791695,1378.971896
1094.863690,7772.162391,-6957.935855,1072.533697
1094.864019,7476.080014,-7402.059420,1225.752797
1094.864349,6735.874072,-7402.059420,1378.971896
1094.864678,6291.750507,-6513.812290,229.828649
1094.865007,6143.709319,-6587.832884,229.828649
1094.865336,6513.812290,-6735.874072,689.485948
1094.865666,6883.915261,-7179.997637,1225.752797
1094.865995,7179.997637,-6957.935855,2145.067394
1094.866324,7031.956449,-6143.709319,995.924147
1094.866653,6661.853478,-6587.832884,612.876398
1094.866983,6735.874072,-6809.894666,995.924147
1094.867312,6809.894666,-7031.956449,1149.143247
1094.867641,7031.956449,-6735.874072,1225.752797
1094.867970,7105.977043,-6291.750507,1378.971896
1094.868299,7105.977043,-6439.791695,1302.362347
1094.868629,6957.935855,-6513.812290,1685.410096
1094.868958,6957.935855,-6365.771101,1532.190996
1094.869287,5995.668130,-6069.688724,1302.362347
1094.869616,6439.791695,-6587.832884,1378.971896
1094.869946,6439.791695,-6587.832884,842.705048
1094.870275,6587.832884,-5921.647536,1225.752797
1094.870604,6735.874072,-6661.853478,1225.752797
1094.870933,6809.894666,-6587.832884,612.876398
1094.871263,6661.853478,-6587.832884,766.095498
1094.871592,6957.935855,-6513.812290,919.314598
1094.871921,7254.018232,-6513.812290,536.266849
1094.872250,7105.977043,-6809.894666,383.047749
1094.872580,7254.018232,-6883.915261,919.314598
1094.872909,7179.997637,-6883.915261,1072.533697
1094.873238,7550.100608,-7031.956449,1149.143247
1094.873567,7476.080014,-6587.832884,919.314598
1094.873897,7179.997637,-6883.915261,1149.143247
1094.874226,7105.977043,-7179.997637,1072.533697
1094.874555,6809.894666,-7624.121203,995.924147
1094.874884,6735.874072,-7105.977043,842.705048
1094.875214,6587.832884,-6661.853478,1149.143247
1094.875543,6291.750507,-6513.812290,306.438199
1094.875872,6439.791695,-6735.874072,383.047749
1094.876201,6513.812290,-6809.894666,842.705048
1094.876530,7105.977043,-6143.709319,1149.143247
1094.876860,7105.977043,-5921.647536,1149.143247
1094.877189,7328.038826,-5699.585753,1455.581446
1094.877518,7550.100608,-5699.585753,1685.410096
1094.877847,7846.182985,-6069.688724,1838.629195
1094.878177,7920.203579,-5403.503377,766.095498
1094.878506,7105.977043,-6513.812290,1685.410096
1094.878835,7105.977043,-6439.791695,1455.581446
1094.879164,7105.977043,-6587.832884,1455.581446
1094.879494,6513.812290,-6365.771101,842.705048
1094.879823,6365.771101,-6587.832884,1225.752797
1094.880152,5995.668130,-6957.935855,995.924147
1094.880481,6291.750507,-5921.647536,306.438199
1094.880811,6735.874072,-6291.750507,229.828649
1094.881140,7105.977043,-6143.709319,919.314598
1094.881469,6735.874072,-6661.853478,536.266849
1094.881798,6883.915261,-6809.894666,459.657299
1094.882128,7105.977043,-5551.544565,689.485948
1094.882457,7698.141797,-6143.709319,842.705048
1094.882786,7846.182985,-5995.668130,1149.143247
1094.883115,7624.121203,-6513.812290,1378.971896
1094.883445,7402.059420,-6735.874072,1149.143247
1094.883774,7476.080014,-6069.688724,919.314598
1094.884103,7550.100608,-7031.956449,536.266849
1094.884432,7328.038826,-7402.059420,1455.581446
1094.884761,6809.894666,-7550.100608,995.924147
1094.885090,6365.771101,-7031.956449,612.876398
1094.885419,6143.709319,-6439.791695,536.266849
1094.885748,6439.791695,-7105.977043,995.924147
1094.886077,6883.915261,-7254.018232,612.876398
1094.886406,6661.853478,-7254.018232,842.705048
1094.886735,6365.771101,-6957.935855,766.095498
1094.887064,6513.812290,-6365.771101,766.095498
1094.887393,6957.935855,-6661.853478,1532.190996
1094.887723,7105.977043,-6587.832884,1685.410096
1094.888052,7179.997637,-6291.750507,1378.971896
1094.888381,7254.018232,-5551.544565,1532.190996
1094.888710,7179.997637,-5921.647536,1455.581446
1094.889039,7254.018232,-5699.585753,1608.800546
1094.889368,7476.080014,-5625.565159,1302.362347
1094.889697,7179.997637,-5921.647536,1532.190996
1094.890026,7328.038826,-5773.606348,1455.581446
1094.890355,6957.935855,-6439.791695,1378.971896
1094.890684,6217.729913,-7105.977043,689.485948
1094.891013,6069.688724,-7105.977043,536.266849
1094.891342,6217.729913,-7254.018232,689.485948
1094.891671,6217.729913,-7031.956449,842.705048
1094.892000,6365.771101,-7402.059420,842.705048
1094.892329,6587.832884,-7105.977043,383.047749
1094.892658,7031.956449,-6957.935855,229.828649
1094.892987,7328.038826,-7105.977043,1225.752797
1094.893317,7105.977043,-6661.853478,1378.971896
1094.893646,7402.059420,-7105.977043,919.314598
1094.893975,7031.956449,-6291.750507,1072.533697
1094.894304,6957.935855,-6587.832884,536.266849
1094.894633,6883.915261,-6809.894666,919.314598
1094.894962,6883.915261,-6439.791695,689.485948
1094.895291,6957.935855,-7402.059420,1225.752797
1094.895620,7031.956449,-6439.791695,1072.533697
1094.895949,6661.853478,-6883.915261,612.876398
1094.896278,5847.626942,-6365.771101,1302.362347
1094.896607,6439.791695,-6439.791695,1072.533697
1094.896936,6957.935855,-6513.812290,1302.362347
1094.897265,7105.977043,-6069.688724,1532.190996
1094.897594,7105.977043,-5921.647536,1378.971896
1094.897923,7402.059420,-5773.606348,1455.581446
1094.898252,7550.100608,-5921.647536,1455.581446
1094.898582,7179.997637,-6069.688724,1378.971896
1094.898911,7476.080014,-5699.585753,1225.752797
1094.899240,6883.915261,-6143.709319,1838.629195
1094.899569,6809.894666,-6143.709319,842.705048
1094.899898,6661.853478,-6291.750507,842.705048
1094.900227,6809.894666,-6661.853478,842.705048
1094.900556,6661.853478,-6661.853478,842.705048
1094.900885,6439.791695,-6809.894666,995.924147
1094.901214,6809.894666,-6883.915261,689.485948
1094.901543,6883.915261,-6735.874072,842.705048
1094.901872,7105.977043,-6513.812290,842.705048
1094.902201,7624.121203,-6883.915261,919.314598
1094.902530,7550.100608,-5995.668130,1149.143247
1094.902859,7772.162391,-5921.647536,1149.143247
1094.903188,7772.162391,-5847.626942,1149.143247
1094.903517,7698.141797,-5921.647536,995.924147
1094.903847,7846.182985,-6291.750507,383.047749
1094.904176,7402.059420,-7031.956449,919.314598
1094.904505,6883.915261,-7179.997637,919.314598
1094.904834,6217.729913,-6883.915261,459.657299
1094.905163,6291.750507,-6883.915261,919.314598
1094.905492,6661.853478,-7105.977043,306.438199
1094.905821,7105.977043,-7179.997637,995.924147
1094.906150,7254.018232,-6883.915261,1149.143247
1094.906479,7179.997637,-6365.771101,995.924147
1094.906808,7179.997637,-5921.647536,1532.190996
1094.907137,7031.956449,-6143.709319,1532.190996
1094.907466,7328.038826,-6587.832884,1532.190996
1094.907795,7328.038826,-5921.647536,2145.067394
1094.908124,7105.977043,-5699.585753,1455.581446
1094.908453,6735.874072,-5403.503377,1838.629195
1094.908782,7105.977043,-6069.688724,842.705048
1094.909112,6883.915261,-7105.977043,1302.362347
1094.909441,6439.791695,-7105.977043,1225.752797
1094.909770,5847.626942,-7402.059420,766.095498
1094.910099,5551.544565,-7550.100608,689.485948
1094.910428,5699.585753,-7254.018232,612.876398
1094.910757,6587.832884,-7179.997637,919.314598
1094.911086,6661.853478,-6661.853478,919.314598
1094.911415,6957.935855,-6661.853478,689.485948
1094.911744,6513.812290,-6735.874072,1149.143247
1094.912073,7031.956449,-5551.544565,536.266849
1094.912402,7254.018232,-6291.750507,689.485948
1094.912731,7920.203579,-6439.791695,1608.800546
1094.913060,8290.306550,-6809.894666,1532.190996
1094.913389,7476.080014,-6513.812290,842.705048
1094.913718,7031.956449,-6291.750507,76.609550
1094.914047,6809.894666,-7105.977043,536.266849
1094.914377,7179.997637,-7994.224174,1225.752797
1094.914706,6735.874072,-7994.224174,995.924147
1094.915035,6291.750507,-7476.080014,383.047749
1094.915364,6291.750507,-6957.935855,612.876398
1094.915693,6661.853478,-6809.894666,689.485948
1094.916022,6735.874072,-6809.894666,1608.800546
1094.916351,6735.874072,-5921.647536,1149.143247
1094.916680,6809.894666,-5107.421000,842.705048
1094.917009,7105.977043,-5403.503377,1302.362347
1094.917338,8216.285956,-5625.565159,2374.896044
1094.917667,7920.203579,-5477.523971,2068.457845
1094.917996,8142.265362,-5403.503377,1685.410096
1094.918325,7772.162391,-5625.565159,1455.581446
1094.918654,7105.977043,-6291.750507,1608.800546
1094.918983,6661.853478,-6661.853478,995.924147
1094.919312,6661.853478,-7105.977043,995.924147
1094.919641,6587.832884,-7031.956449,459.657299
1094.919971,6143.709319,-7476.080014,536.266849
1094.920300,5921.647536,-7254.018232,689.485948
1094.920629,5625.565159,-7105.977043,612.876398
1094.920958,6291.750507,-6809.894666,459.657299
1094.921287,6735.874072,-6143.709319,689.485948
1094.921616,7179.997637,-6217.729913,1149.143247
1094.921945,7402.059420,-5107.421000,1072.533697
1094.922274,7920.203579,-5033.400406,842.705048
1094.922603,7994.224174,-5329.482782,919.314598
1094.922932,7920.203579,-5847.626942,1072.533697
1094.923261,8142.265362,-6291.750507,1072.533697
1094.923590,8364.327145,-6365.771101,1302.362347
1094.923919,7402.059420,-7179.997637,842.705048
1094.924248,7254.018232,-7698.141797,919.314598
1094.924577,6957.935855,-7698.141797,842.705048
1094.924906,6439.791695,-7328.038826,612.876398
1094.925236,5625.565159,-7550.100608,229.828649
1094.925565,6143.709319,-7550.100608,689.485948
1094.925894,6439.791695,-7179.997637,306.438199
1094.926223,6513.812290,-7105.977043,689.485948
1094.926552,6439.791695,-6365.771101,1608.800546
1094.926881,6661.853478,-6217.729913,1072.533697
1094.927210,6587.832884,-6513.812290,1302.362347
1094.927539,6957.935855,-6069.688724,1455.581446
1094.927868,7624.121203,-5773.606348,1378.971896
1094.928197,8068.244768,-5921.647536,1608.800546
1094.928526,7624.121203,-5995.668130,1762.019645
1094.928855,7179.997637,-6661.853478,1532.190996
1094.929184,6809.894666,-6587.832884,1225.752797
1094.929513,6439.791695,-6957.935855,1532.190996
1094.929842,6069.688724,-7105.977043,1378.971896
1094.930171,6143.709319,-7105.977043,1149.143247
1094.930501,6365.771101,-6883.915261,1149.143247
1094.930830,6365.771101,-5699.585753,919.314598
1094.931159,6661.853478,-5551.544565,153.219100
1094.931488,6439.791695,-5995.668130,766.095498
1094.931817,6735.874072,-6513.812290,1072.533697
1094.932146,7254.018232,-6143.709319,612.876398
1094.932475,7772.162391,-5773.606348,383.047749
1094.932804,7846.182985,-6365.771101,612.876398
1094.933133,7624.121203,-6883.915261,842.705048
1094.933462,7772.162391,-7254.018232,1072.533697
1094.933791,7402.059420,-7402.059420,919.314598
1094.934120,7105.977043,-6883.915261,842.705048
1094.934449,7105.977043,-7179.997637,689.485948
1094.934778,6513.812290,-7550.100608,842.705048
1094.935107,6365.771101,-7402.059420,919.314598
1094.935436,6365.771101,-7105.977043,919.314598
1094.935766,6217.729913,-6365.771101,383.047749
1094.936095,6439.791695,-6069.688724,842.705048
1094.936424,6661.853478,-5625.565159,766.095498
1094.936753,7328.038826,-5847.626942,766.095498
1094.937082,8142.265362,-5847.626942,1532.190996
1094.937411,7846.182985,-5921.647536,1455.581446
1094.937740,7772.162391,-6217.729913,1302.362347
1094.938069,7254.018232,-5921.647536,1149.143247
1094.938398,7254.018232,-6883.915261,1455.581446
1094.938727,7698.141797,-7476.080014,1762.019645
1094.939056,7179.997637,-7105.977043,1685.410096
1094.939385,6809.894666,-6661.853478,1072.533697
1094.939714,5921.647536,-6365.771101,229.828649
1094.940043,5847.626942,-6365.771101,842.705048
1094.940372,6513.812290,-6365.771101,995.924147
1094.940701,6513.812290,-6069.688724,995.924147
1094.941031,6587.832884,-5921.647536,842.705048
1094.941360,6809.894666,-6143.709319,842.705048
1094.941689,7328.038826,-6143.709319,1225.752797
1094.942018,7254.018232,-6587.832884,1455.581446
1094.942347,7550.100608,-6809.894666,1072.533697
1094.942676,7920.203579,-6513.812290,1378.971896
1094.943005,8068.244768,-6809.894666,1302.362347
1094.943334,7698.141797,-6587.832884,1149.143247
1094.943663,7179.997637,-6661.853478,689.485948
1094.943992,6957.935855,-7105.977043,612.876398
1094.944321,6957.935855,-7105.977043,995.924147
1094.944650,6809.894666,-6735.874072,995.924147
1094.944979,6957.935855,-5921.647536,689.485948
1094.945308,6587.832884,-6143.709319,842.705048
1094.945637,6883.915261,-6291.750507,1225.752797
1094.945966,6439.791695,-6809.894666,1072.533697
1094.946295,6661.853478,-6661.853478,842.705048
1094.946625,6587.832884,-6365.771101,1149.143247
1094.946954,6957.935855,-6957.935855,1378.971896
1094.947283,6957.935855,-7328.038826,1608.800546
1094.947612,7105.977043,-6883.915261,2145.067394
1094.947941,7105.977043,-6513.812290,766.095498
1094.948270,7328.038826,-6217.729913,1455.581446
1094.948599,7402.059420,-6513.812290,1532.190996
1094.948928,7179.997637,-6365.771101,1991.848295
1094.949257,6735.874072,-6143.709319,919.314598
1094.949586,6513.812290,-5921.647536,842.705048
1094.949915,6513.812290,-6439.791695,842.705048
1094.950244,6513.812290,-6661.853478,1149.143247
1094.950573,5921.647536,-5995.668130,1608.800546
1094.950902,6587.832884,-5921.647536,1072.533697
1094.951231,7031.956449,-6217.729913,383.047749
1094.951560,6513.812290,-6883.915261,383.047749
1094.951890,7105.977043,-7179.997637,842.705048
1094.952219,7328.038826,-6661.853478,0.000000
1094.952548,7254.018232,-7179.997637,919.314598
1094.952877,7328.038826,-7179.997637,1072.533697
1094.953206,7476.080014,-7254.018232,1072.533697
1094.953535,7105.977043,-6735.874072,919.314598
1094.953864,7105.977043,-6365.771101,1225.752797
1094.954193,6883.915261,-6809.894666,842.705048
1094.954522,6735.874072,-7031.956449,1149.143247
1094.954851,6883.915261,-7031.956449,919.314598
1094.955180,6439.791695,-7031.956449,536.266849
1094.955509,6143.709319,-6439.791695,919.314598
1094.955838,6587.832884,-6883.915261,766.095498
1094.956167,7105.977043,-6735.874072,1072.533697
1094.956496,6883.915261,-6439.791695,842.705048
1094.956825,6883.915261,-5329.482782,842.705048
1094.957155,7402.059420,-5995.668130,995.924147
1094.957484,7624.121203,-6587.832884,1685.410096
1094.957813,7698.141797,-6217.729913,2068.457845
1094.958142,7476.080014,-5847.626942,1378.971896
1094.958471,7550.100608,-5847.626942,1302.362347
1094.958800,6957.935855,-6365.771101,1762.019645
1094.959129,7031.956449,-6439.791695,1378.971896
1094.959458,6809.894666,-6291.750507,1072.533697
1094.959787,6809.894666,-5995.668130,689.485948
1094.960116,6143.709319,-7031.956449,842.705048
1094.960445,6143.709319,-6735.874072,766.095498
1094.960774,6365.771101,-6957.935855,766.095498
1094.961103,6217.729913,-7105.977043,612.876398
1094.961432,6587.832884,-6809.894666,919.314598
1094.961761,7105.977043,-6217.729913,1302.362347
1094.962090,7698.141797,-6069.688724,1072.533697
1094.962420,7698.141797,-5773.606348,1149.143247
1094.962749,7476.080014,-5995.668130,995.924147
1094.963078,7624.121203,-5625.565159,1225.752797
1094.963407,7772.162391,-6069.688724,1225.752797
1094.963736,7920.203579,-6069.688724,1608.800546
1094.964065,7550.100608,-6735.874072,1072.533697
1094.964394,7624.121203,-7105.977043,1149.143247
1094.964723,6735.874072,-7105.977043,1072.533697
1094.965052,6809.894666,-7105.977043,612.876398
1094.965381,6809.894666,-7105.977043,842.705048
1094.965710,6439.791695,-7031.956449,612.876398
1094.966039,6957.935855,-7179.997637,766.095498
1094.966368,6439.791695,-7402.059420,1225.752797
1094.966697,6661.853478,-7402.059420,536.266849
1094.967026,6587.832884,-6809.894666,1378.971896
1094.967355,6735.874072,-5921.647536,995.924147
1094.967685,6735.874072,-6069.688724,1225.752797
1094.968014,7624.121203,-5773.606348,1685.410096
1094.968343,7698.141797,-5773.606348,1685.410096
1094.968672,7105.977043,-6217.729913,1685.410096
1094.969001,7105.977043,-5921.647536,1302.362347
1094.969330,6587.832884,-5921.647536,995.924147
1094.969659,6143.709319,-7105.977043,919.314598
1094.969988,6513.812290,-7179.997637,995.924147
1094.970317,6587.832884,-7550.100608,1455.581446
1094.970646,5995.668130,-6809.894666,766.095498
1094.970975,6143.709319,-6661.853478,229.828649
1094.971304,6587.832884,-7254.018232,689.485948
1094.971633,6957.935855,-7105.977043,995.924147
1094.971962,6809.894666,-6439.791695,1378.971896
1094.972291,7254.018232,-6291.750507,1149.143247
1094.972620,7328.038826,-5847.626942,612.876398
1094.972949,7179.997637,-6513.812290,919.314598
1094.973279,7550.100608,-6439.791695,1149.143247
1094.973608,7698.141797,-6587.832884,919.314598
1094.973937,7105.977043,-6735.874072,766.095498
1094.974266,6883.915261,-7254.018232,919.314598
1094.974595,6217.729913,-7624.121203,689.485948
1094.974924,6883.915261,-7105.977043,689.485948
1094.975253,6809.894666,-7698.141797,766.095498
1094.975582,6661.853478,-7105.977043,842.705048
1094.975911,6735.874072,-7254.018232,1302.362347
1094.976240,6735.874072,-6809.894666,1072.533697
1094.976569,6735.874072,-5847.626942,1225.752797
1094.976898,7105.977043,-5847.626942,1225.752797
1094.977227,7254.018232,-5551.544565,1302.362347
1094.977556,7254.018232,-5847.626942,1838.629195
1094.977885,7254.018232,-5477.523971,1378.971896
1094.978214,7105.977043,-5255.462188,1608.800546
1094.978544,7105.977043,-6143.709319,1685.410096
1094.978873,7105.977043,-6735.874072,1532.190996
1094.979202,7254.018232,-6809.894666,1302.362347
1094.979531,6735.874072,-6439.791695,919.314598
1094.979860,6439.791695,-6809.894666,842.705048
1094.980189,6291.750507,-6883.915261,689.485948
1094.980518,6809.894666,-6957.935855,919.314598
1094.980847,6957.935855,-6735.874072,1149.143247
1094.981176,7476.080014,-6291.750507,306.438199
1094.981505,6883.915261,-6069.688724,919.314598
1094.981834,6735.874072,-6291.750507,995.924147
1094.982163,7328.038826,-5995.668130,1072.533697
1094.982492,7105.977043,-6069.688724,1685.410096
1094.982821,7846.182985,-5699.585753,1149.143247
1094.983151,8068.244768,-5773.606348,1455.581446
1094.983480,7920.203579,-5995.668130,1149.143247
1094.983809,7550.100608,-6513.812290,842.705048
1094.984138,7328.038826,-6217.729913,1072.533697
1094.984467,7624.121203,-7031.956449,766.095498
1094.984797,7624.121203,-7105.977043,842.705048
1094.985126,7254.018232,-7105.977043,766.095498
1094.985455,6365.771101,-7031.956449,1149.143247
1094.985784,5847.626942,-7105.977043,689.485948
1094.986113,6143.709319,-7179.997637,842.705048
1094.986442,6365.771101,-7328.038826,1149.143247
1094.986772,6513.812290,-6587.832884,612.876398
1094.987101,6661.853478,-6587.832884,689.485948
1094.987430,6587.832884,-6809.894666,1302.362347
1094.987759,7031.956449,-6735.874072,1302.362347
1094.988088,7402.059420,-6291.750507,1838.629195
1094.988418,7105.977043,-6365.771101,1302.362347
1094.988747,7328.038826,-5995.668130,1532.190996
1094.989076,7105.977043,-6439.791695,1608.800546
1094.989405,7328.038826,-6365.771101,1455.581446
1094.989734,7179.997637,-6365.771101,1225.752797
1094.990063,7031.956449,-5847.626942,919.314598
1094.990393,6439.791695,-6513.812290,766.095498
1094.990722,6439.791695,-6809.894666,1072.533697
1094.991051,6143.709319,-7105.977043,842.705048
1094.991380,6069.688724,-7105.977043,612.876398
1094.991709,6587.832884,-6809.894666,153.219100
1094.992038,6587.832884,-7105.977043,612.876398
1094.992368,6809.894666,-7254.018232,919.314598
1094.992697,7031.956449,-7254.018232,1225.752797
1094.993026,7846.182985,-6661.853478,1149.143247
1094.993355,7402.059420,-6513.812290,612.876398
1094.993684,7476.080014,-6291.750507,995.924147
1094.994014,7994.224174,-6587.832884,1149.143247
1094.994343,7624.121203,-6883.915261,1302.362347
1094.994672,7402.059420,-6217.729913,919.314598
1094.995001,6809.894666,-6365.771101,459.657299
1094.995330,6809.894666,-6439.791695,842.705048
1094.995659,6661.853478,-7031.956449,842.705048
1094.995989,6735.874072,-7254.018232,995.924147
1094.996318,6439.791695,-6661.853478,459.657299
1094.996647,6143.709319,-5995.668130,306.438199
1094.996976,6661.853478,-6217.729913,1225.752797
1094.997305,7179.997637,-6439.791695,1838.629195
1094.997635,7698.141797,-5847.626942,2068.457845
1094.997964,7476.080014,-5551.544565,1532.190996
1094.998293,7254.018232,-5477.523971,1378.971896
1094.998622,7179.997637,-5773.606348,1455.581446
1094.998951,7328.038826,-6143.709319,1532.190996
1094.999280,6809.894666,-5995.668130,1455.581446
1094.999610,6883.915261,-6735.874072,919.314598
1094.999939,6587.832884,-6735.874072,919.314598
1095.000268,6513.812290,-6883.915261,919.314598
1095.000597,6883.915261,-6735.874072,1149.143247
1095.000926,6069.688724,-6661.853478,919.314598
1095.001256,6735.874072,-7105.977043,689.485948
1095.001585,6661.853478,-6513.812290,842.705048
1095.001914,6957.935855,-5995.668130,919.314598
1095.002243,7772.162391,-6735.874072,1072.533697
1095.002572,7698.141797,-6365.771101,995.924147
1095.002901,7550.100608,-6439.791695,1072.533697
1095.003231,7624.121203,-5847.626942,1149.143247
1095.003560,7994.224174,-5773.606348,1149.143247
1095.003889,7550.100608,-6809.894666,1072.533697
1095.004218,7624.121203,-6883.915261,1072.533697
1095.004547,7254.018232,-7105.977043,919.314598
1095.004876,7031.956449,-6587.832884,612.876398
1095.005206,6735.874072,-6735.874072,1608.800546
1095.005535,7031.956449,-7402.059420,1072.533697
1095.005864,6587.832884,-7698.141797,1072.533697
1095.006193,6291.750507,-7476.080014,995.924147
1095.006522,5847.626942,-6957.935855,612.876398
1095.006852,5551.544565,-6587.832884,766.095498
1095.007181,6291.750507,-7328.038826,1072.533697
1095.007510,7031.956449,-6587.832884,919.314598
1095.007839,7328.038826,-5847.626942,1455.581446
1095.008168,7476.080014,-5329.482782,1608.800546
1095.008497,7550.100608,-5921.647536,1608.800546
1095.008827,7476.080014,-6291.750507,1762.019645
1095.009156,7105.977043,-6291.750507,1378.971896
1095.009485,6957.935855,-6143.709319,1302.362347
1095.009814,6809.894666,-6069.688724,1532.190996
1095.010143,6809.894666,-6735.874072,1225.752797
1095.010473,6957.935855,-6809.894666,1072.533697
1095.010802,6735.874072,-6439.791695,919.314598
1095.011131,6143.709319,-6587.832884,459.657299
1095.011460,6587.832884,-6883.915261,383.047749
1095.011789,6143.709319,-6883.915261,383.047749
1095.012118,6439.791695,-6661.853478,459.657299
1095.012448,6809.894666,-6513.812290,612.876398
1095.012777,7105.977043,-6217.729913,383.047749
1095.013106,7476.080014,-6809.894666,995.924147
1095.013435,7846.182985,-7031.956449,1072.533697
1095.013764,7402.059420,-7105.977043,919.314598
1095.014094,7105.977043,-7031.956449,842.705048
1095.014423,6291.750507,-6957.935855,766.095498
1095.014752,6735.874072,-7402.059420,229.828649
1095.015081,6883.915261,-7105.977043,842.705048
1095.015410,7105.977043,-6957.935855,1225.752797
1095.015739,7328.038826,-6069.688724,995.924147
1095.016069,6661.853478,-6143.709319,995.924147
1095.016398,6809.894666,-6291.750507,612.876398
1095.016727,7105.977043,-5921.647536,1072.533697
1095.017056,7105.977043,-6217.729913,1149.143247
1095.017385,7476.080014,-6143.709319,1762.019645
1095.017714,6957.935855,-5847.626942,1378.971896
1095.018044,6957.935855,-5995.668130,1149.143247
1095.018373,7105.977043,-6365.771101,1378.971896
1095.018702,7328.038826,-6365.771101,2068.457845
1095.019031,7402.059420,-6883.915261,1532.190996
1095.019360,6809.894666,-6513.812290,919.314598
1095.019690,6661.853478,-6735.874072,766.095498
1095.020019,6661.853478,-6809.894666,766.095498
1095.020348,6883.915261,-7031.956449,1608.800546
1095.020677,7105.977043,-6661.853478,1302.362347
1095.021006,7031.956449,-6069.688724,1149.143247
1095.021335,7105.977043,-5921.647536,919.314598
1095.021665,7105.977043,-5773.606348,766.095498
1095.021994,7105.977043,-6365.771101,1072.533697
1095.022323,7254.018232,-6291.750507,919.314598
1095.022652,7550.100608,-5699.585753,919.314598
1095.022981,7698.141797,-5921.647536,1149.143247
1095.023311,7846.182985,-5921.647536,383.047749
1095.023640,7179.997637,-6957.935855,995.924147
1095.023969,7105.977043,-8068.244768,919.314598
1095.024298,6883.915261,-7698.141797,689.485948
1095.024627,6883.915261,-7105.977043,842.705048
1095.024956,7105.977043,-6883.915261,689.485948
1095.025286,6661.853478,-7105.977043,612.876398
1095.025615,6809.894666,-7105.977043,1225.752797
1095.025944,7105.977043,-6365.771101,1149.143247
1095.026273,7328.038826,-5477.523971,1455.581446
1095.026602,6809.894666,-6069.688724,1378.971896
1095.026932,6957.935855,-6143.709319,919.314598
1095.027261,7105.977043,-6587.832884,1685.410096
1095.027590,7105.977043,-6513.812290,1685.410096
1095.027919,6661.853478,-5847.626942,1685.410096
1095.028248,6735.874072,-6587.832884,1149.143247
1095.028577,6439.791695,-6957.935855,1302.362347
1095.028907,6587.832884,-7254.018232,1149.143247
1095.029236,6587.832884,-7031.956449,919.314598
1095.029565,6143.709319,-6957.935855,1072.533697
1095.029894,6365.771101,-6957.935855,536.266849
1095.030223,6143.709319,-6883.915261,842.705048
1095.030553,6439.791695,-6809.894666,919.314598
1095.030882,6143.709319,-6587.832884,1378.971896
1095.031211,6809.894666,-6439.791695,919.314598
1095.031540,7105.977043,-6217.729913,842.705048
1095.031869,7402.059420,-6291.750507,1072.533697
1095.032198,7624.121203,-6069.688724,919.314598
1095.032528,7328.038826,-5699.585753,766.095498
1095.032857,7254.018232,-6587.832884,1072.533697
1095.033186,7402.059420,-6809.894666,689.485948
1095.033515,7179.997637,-6883.915261,383.047749
1095.033844,6809.894666,-7105.977043,153.219100
1095.034173,6809.894666,-7994.224174,1149.143247
1095.034503,7402.059420,-7624.121203,1225.752797
1095.034832,7254.018232,-7105.977043,995.924147
1095.035161,7031.956449,-6439.791695,689.485948
1095.035490,7105.977043,-6735.874072,995.924147
1095.035819,6661.853478,-6809.894666,842.705048
1095.036149,6809.894666,-6513.812290,1072.533697
1095.036478,7031.956449,-6069.688724,1225.752797
1095.036807,7254.018232,-5329.482782,689.485948
1095.037136,7476.080014,-5847.626942,1762.019645
1095.037465,7624.121203,-5995.668130,1608.800546
1095.037794,7624.121203,-5847.626942,1225.752797
1095.038124,7550.100608,-5921.647536,1302.362347
1095.038453,7550.100608,-6069.688724,1685.410096
1095.038782,7105.977043,-6513.812290,1225.752797
1095.039111,6661.853478,-6957.935855,1225.752797
1095.039440,6365.771101,-6883.915261,1072.533697
1095.039770,6217.729913,-6957.935855,842.705048
1095.040099,6365.771101,-6587.832884,919.314598
1095.040428,6365.771101,-6809.894666,919.314598
1095.040757,6439.791695,-6439.791695,919.314598
1095.041086,6587.832884,-5995.668130,842.705048
1095.041415,6883.915261,-6291.750507,995.924147
1095.041745,7031.956449,-6217.729913,1225.752797
1095.042074,7846.182985,-5107.421000,766.095498
1095.042403,8068.244768,-5551.544565,842.705048
1095.042732,7846.182985,-6513.812290,919.314598
1095.043061,8512.368333,-7179.997637,995.924147
1095.043391,7402.059420,-6735.874072,1149.143247
1095.043720,7254.018232,-6217.729913,766.095498
1095.044049,7105.977043,-7105.977043,919.314598
1095.044378,7105.977043,-7698.141797,1378.971896
1095.044707,6587.832884,-7624.121203,766.095498
1095.045036,6217.729913,-7179.997637,536.266849
1095.045366,6291.750507,-6513.812290,459.657299
1095.045695,6365.771101,-6587.832884,766.095498
1095.046024,7031.956449,-7550.100608,1072.533697
1095.046353,6661.853478,-6661.853478,1072.533697
1095.046682,6587.832884,-6069.688724,1302.362347
1095.047011,6957.935855,-6291.750507,1378.971896
1095.047341,6809.894666,-6291.750507,1149.143247
1095.047670,7254.018232,-6883.915261,1455.581446
1095.047999,7254.018232,-6513.812290,1302.362347
1095.048328,7179.997637,-6439.791695,1225.752797
1095.048657,7550.100608,-6513.812290,1685.410096
1095.048987,7105.977043,-6217.729913,1915.238745
1095.049316,7105.977043,-6143.709319,1072.533697
1095.049645,6809.894666,-5995.668130,1072.533697
1095.049974,6661.853478,-6661.853478,1302.362347
1095.050303,6661.853478,-6735.874072,1302.362347
1095.050632,6957.935855,-6217.729913,995.924147
1095.050962,6513.812290,-5847.626942,689.485948
1095.051291,6365.771101,-6513.812290,536.266849
1095.051620,6661.853478,-7105.977043,995.924147
1095.051949,6735.874072,-7254.018232,1302.362347
1095.052278,7031.956449,-6439.791695,995.924147
1095.052608,7031.956449,-6291.750507,1149.143247
1095.052937,7550.100608,-6735.874072,842.705048
1095.053266,7772.162391,-7179.997637,1378.971896
1095.053595,7994.224174,-6957.935855,1455.581446
1095.053924,7328.038826,-6439.791695,536.266849
1095.054253,7105.977043,-6069.688724,0.000000
1095.054583,6883.915261,-6883.915261,612.876398
1095.054912,6883.915261,-7402.059420,766.095498
1095.055241,6735.874072,-7105.977043,612.876398
1095.055570,6513.812290,-6587.832884,919.314598
1095.055899,6587.832884,-6735.874072,919.314598
1095.056229,6735.874072,-6883.915261,919.314598
1095.056558,6735.874072,-7031.956449,689.485948
1095.056887,6365.771101,-6735.874072,995.924147
1095.057216,6883.915261,-6365.771101,1225.752797
1095.057545,7179.997637,-5995.668130,1072.533697
1095.057874,7179.997637,-6143.709319,1225.752797
1095.058204,7328.038826,-6069.688724,1378.971896
1095.058533,7179.997637,-6291.750507,1455.581446
1095.058862,7105.977043,-6143.709319,1685.410096
1095.059191,6809.894666,-6069.688724,1072.533697
1095.059520,7031.956449,-5847.626942,1302.362347
1095.059849,7031.956449,-6735.874072,919.314598
1095.060179,6513.812290,-6809.894666,919.314598
1095.060508,6365.771101,-6735.874072,919.314598
1095.060837,6883.915261,-6513.812290,995.924147
1095.061166,7031.956449,-6513.812290,1225.752797
1095.061495,7179.997637,-6439.791695,995.924147
1095.061825,6957.935855,-6513.812290,995.924147
1095.062154,7254.018232,-6513.812290,1072.533697
1095.062483,7476.080014,-6661.853478,842.705048
1095.062812,7550.100608,-6439.791695,1378.971896
1095.063141,7698.141797,-6217.729913,1149.143247
1095.063470,7624.121203,-5995.668130,459.657299
1095.063800,7402.059420,-6809.894666,689.485948
1095.064129,6957.935855,-7105.977043,1072.533697
1095.064458,6809.894666,-7402.059420,536.266849
1095.064787,6513.812290,-6661.853478,383.047749
1095.065116,6439.791695,-6809.894666,306.438199
1095.065446,6587.832884,-6587.832884,536.266849
1095.065775,6809.894666,-6957.935855,995.924147
1095.066104,7402.059420,-6587.832884,1072.533697
1095.066433,7328.038826,-5847.626942,1225.752797
1095.066762,7328.038826,-6143.709319,1762.019645
1095.067091,7254.018232,-6809.894666,2374.896044
1095.067421,7328.038826,-6661.853478,1608.800546
1095.067750,7254.018232,-6217.729913,1838.629195
1095.068079,7105.977043,-5995.668130,1532.190996
1095.068408,7031.956449,-5699.585753,1225.752797
1095.068737,6439.791695,-6439.791695,1838.629195
1095.069067,6809.894666,-6883.915261,1302.362347
1095.069396,6587.832884,-6957.935855,1149.143247
1095.069725,6217.729913,-7031.956449,766.095498
1095.070054,5847.626942,-7105.977043,1149.143247
1095.070383,6143.709319,-6587.832884,995.924147
1095.070712,6513.812290,-7254.018232,612.876398
1095.071042,6883.915261,-6661.853478,1072.533697
1095.071371,7031.956449,-7031.956449,919.314598
1095.071700,6957.935855,-5995.668130,1149.143247
1095.072029,7105.977043,-6217.729913,919.314598
1095.072358,7105.977043,-6587.832884,766.095498
1095.072687,7402.059420,-6291.750507,459.657299
1095.073017,7179.997637,-6809.894666,919.314598
1095.073346,7624.121203,-6143.709319,1608.800546
1095.073675,7254.018232,-6735.874072,1072.533697
1095.074004,7179.997637,-7105.977043,536.266849
1095.074333,6957.935855,-7476.080014,766.095498
1095.074663,6439.791695,-7624.121203,995.924147
1095.074992,6957.935855,-6957.935855,766.095498
1095.075321,6513.812290,-6735.874072,536.266849
1095.075650,6365.771101,-6809.894666,459.657299
1095.075979,6735.874072,-6661.853478,1072.533697
1095.076308,6661.853478,-6661.853478,1455.581446
1095.076638,7254.018232,-6365.771101,1455.581446
1095.076967,7105.977043,-5625.565159,1302.362347
1095.077296,7179.997637,-5329.482782,1455.581446
1095.077625,7550.100608,-5329.482782,1762.019645
1095.077954,7105.977043,-5699.585753,1225.752797
1095.078284,7328.038826,-5995.668130,1455.581446
1095.078613,6661.853478,-6217.729913,612.876398
1095.078942,6365.771101,-6587.832884,919.314598
1095.079271,6439.791695,-7105.977043,995.924147
1095.079600,7105.977043,-6883.915261,1149.143247
1095.079929,6735.874072,-6883.915261,1072.533697
1095.080259,6735.874072,-5995.668130,842.705048
1095.080588,6439.791695,-5995.668130,0.000000
1095.080917,7031.956449,-5699.585753,1532.190996
1095.081246,6957.935855,-6587.832884,766.095498
1095.081575,7031.956449,-6513.812290,995.924147
1095.081904,7105.977043,-6143.709319,995.924147
1095.082233,7550.100608,-5625.565159,842.705048
1095.082562,7254.018232,-6291.750507,1149.143247
1095.082891,7920.203579,-6365.771101,1762.019645
1095.083221,7772.162391,-6809.894666,1149.143247
1095.083550,7698.141797,-6069.688724,1072.533697
1095.083879,7994.224174,-7031.956449,766.095498
1095.084208,7698.141797,-7031.956449,612.876398
1095.084537,7179.997637,-7179.997637,1072.533697
1095.084866,6513.812290,-7328.038826,842.705048
1095.085195,6513.812290,-6587.832884,689.485948
1095.085524,6735.874072,-7031.956449,842.705048
1095.085853,6735.874072,-7105.977043,612.876398
1095.086182,6809.894666,-7031.956449,612.876398
1095.086511,6735.874072,-7031.956449,1149.143247
1095.086840,6809.894666,-6291.750507,459.657299
1095.087169,5847.626942,-6883.915261,995.924147
1095.087498,6661.853478,-6365.771101,1072.533697
1095.087827,7105.977043,-6661.853478,1685.410096
1095.088156,7624.121203,-6365.771101,1915.238745
1095.088486,7846.182985,-6143.709319,1378.971896
1095.088815,7254.018232,-5995.668130,1685.410096
1095.089144,7179.997637,-6069.688724,1455.581446
1095.089473,6883.915261,-6143.709319,1225.752797
1095.089802,6809.894666,-6217.729913,1532.190996
1095.090131,6809.894666,-6735.874072,1149.143247
1095.090460,6513.812290,-6217.729913,689.485948
1095.090789,6291.750507,-6513.812290,689.485948
1095.091118,6365.771101,-6883.915261,689.485948
1095.091447,6143.709319,-6809.894666,1225.752797
1095.091776,6143.709319,-6883.915261,689.485948
1095.092105,6439.791695,-6513.812290,536.266849
1095.092434,6735.874072,-6957.935855,612.876398
1095.092763,7328.038826,-7402.059420,1302.362347
1095.093092,7254.018232,-7105.977043,1532.190996
1095.093421,7328.038826,-6957.935855,1072.533697
1095.093751,6957.935855,-6587.832884,766.095498
1095.094080,6957.935855,-6809.894666,459.657299
1095.094409,7031.956449,-7031.956449,1072.533697
1095.094738,6957.935855,-7179.997637,919.314598
1095.095067,6439.791695,-7179.997637,536.266849
1095.095396,6143.709319,-6809.894666,383.047749
1095.095725,6143.709319,-6735.874072,766.095498
1095.096054,6809.894666,-6587.832884,1302.362347
1095.096383,6735.874072,-6587.832884,612.876398
1095.096712,7105.977043,-5847.626942,1455.581446
1095.097041,7105.977043,-5995.668130,1685.410096
1095.097370,7846.182985,-5699.585753,2068.457845
1095.097699,7624.121203,-5255.462188,1378.971896
1095.098028,7402.059420,-5699.585753,1455.581446
1095.098357,7402.059420,-5847.626942,1685.410096
1095.098686,7179.997637,-6513.812290,1762.019645
1095.099015,7105.977043,-6439.791695,1685.410096
1095.099345,7105.977043,-6365.771101,995.924147
1095.099674,6661.853478,-5995.668130,766.095498
1095.100003,6513.812290,-6069.688724,1149.143247
1095.100332,6809.894666,-6513.812290,689.485948
1095.100661,7105.977043,-6365.771101,459.657299
1095.100990,6735.874072,-6661.853478,306.438199
1095.101319,6809.894666,-6735.874072,842.705048
1095.101648,6883.915261,-6809.894666,766.095498
1095.101977,7328.038826,-7105.977043,459.657299
1095.102306,7402.059420,-6513.812290,1072.533697
1095.102635,7402.059420,-6143.709319,459.657299
1095.102964,7624.121203,-6291.750507,1149.143247
1095.103293,7624.121203,-6217.729913,689.485948
1095.103622,7920.203579,-6513.812290,76.609550
1095.103951,7402.059420,-6883.915261,995.924147
1095.104280,7105.977043,-6957.935855,766.095498
1095.104610,7105.977043,-6661.853478,1149.143247
1095.104939,7402.059420,-6217.729913,1302.362347
1095.105268,7698.141797,-6809.894666,1072.533697
1095.105597,7105.977043,-6735.874072,1072.533697
1095.105926,6513.812290,-6587.832884,459.657299
1095.106255,5995.668130,-6957.935855,459.657299
1095.106584,6143.709319,-6661.853478,842.705048
1095.106913,6291.750507,-7254.018232,919.314598
1095.107242,6513.812290,-7105.977043,1378.971896
1095.107571,6735.874072,-6291.750507,1455.581446
1095.107900,6809.894666,-6439.791695,1225.752797
1095.108229,7105.977043,-6735.874072,1838.629195
1095.108558,7105.977043,-6957.935855,1532.190996
1095.108887,7105.977043,-6291.750507,1762.019645
1095.109216,6957.935855,-5773.606348,1378.971896
1095.109545,6957.935855,-6143.709319,1378.971896
1095.109875,7031.956449,-5699.585753,1225.752797
1095.110204,7105.977043,-6143.709319,1455.581446
1095.110533,6883.915261,-5995.668130,842.705048
1095.110862,6661.853478,-6365.771101,689.485948
1095.111191,6513.812290,-6661.853478,919.314598
1095.111520,6439.791695,-7179.997637,612.876398
1095.111849,6143.709319,-7550.100608,612.876398
1095.112178,6513.812290,-7179.997637,919.314598
1095.112507,6883.915261,-7179.997637,76.609550
1095.112836,7624.121203,-7550.100608,1378.971896
1095.113165,7476.080014,-7031.956449,1378.971896
1095.113494,7402.059420,-6883.915261,919.314598
1095.113823,7179.997637,-6883.915261,1225.752797
1095.114152,7402.059420,-7031.956449,1149.143247
1095.114481,7402.059420,-6661.853478,1072.533697
1095.114810,7105.977043,-6291.750507,919.314598
1095.115140,6809.894666,-6661.853478,536.266849
1095.115469,6661.853478,-6587.832884,919.314598
1095.115798,7105.977043,-6883.915261,766.095498
1095.116127,6661.853478,-6661.853478,612.876398
1095.116456,6661.853478,-6439.791695,612.876398
1095.116785,6735.874072,-6587.832884,1072.533697
1095.117114,6957.935855,-6587.832884,1762.019645
1095.117443,7105.977043,-6661.853478,1532.190996
1095.117772,7105.977043,-5477.523971,1302.362347
1095.118101,7179.997637,-5847.626942,1685.410096
1095.118430,7476.080014,-6291.750507,1608.800546
1095.118759,7550.100608,-6069.688724,1991.848295
1095.119088,7105.977043,-5477.523971,1302.362347
1095.119417,7105.977043,-5847.626942,1225.752797
1095.119746,6735.874072,-6513.812290,919.314598
1095.120075,6069.688724,-6661.853478,1149.143247
1095.120405,6439.791695,-6513.812290,383.047749
1095.120734,6661.853478,-6587.832884,306.438199
1095.121063,6439.791695,-6883.915261,536.266849
1095.121392,6809.894666,-6957.935855,612.876398
1095.121721,7031.956449,-6143.709319,612.876398
1095.122050,7476.080014,-6217.729913,842.705048
1095.122379,7476.080014,-6439.791695,919.314598
1095.122708,7476.080014,-6217.729913,919.314598
1095.123037,7772.162391,-5921.647536,1149.143247
1095.123366,7698.141797,-5625.565159,1072.533697
1095.123695,7920.203579,-6217.729913,1225.752797
1095.124024,8068.244768,-6957.935855,1685.410096
1095.124353,7698.141797,-6883.915261,1378.971896
1095.124682,6809.894666,-6365.771101,1378.971896
1095.125011,6587.832884,-7031.956449,306.438199
1095.125340,6587.832884,-7772.162391,459.657299
1095.125670,6513.812290,-7994.224174,919.314598
1095.125999,6365.771101,-7476.080014,919.314598
1095.126328,5921.647536,-7254.018232,919.314598
1095.126657,6439.791695,-6513.812290,1072.533697
1095.126986,6513.812290,-7402.059420,1532.190996
1095.127315,6809.894666,-6957.935855,1838.629195
1095.127644,6957.935855,-6069.688724,1302.362347
1095.127973,7105.977043,-5255.462188,1149.143247
1095.128302,7105.977043,-5181.441594,1608.800546
1095.128631,7254.018232,-5773.606348,1991.848295
1095.128960,7624.121203,-6217.729913,1685.410096
1095.129289,7105.977043,-5625.565159,766.095498
1095.129618,6809.894666,-5921.647536,766.095498
1095.129947,6735.874072,-6661.853478,1378.971896
1095.130276,6957.935855,-7254.018232,1149.143247
1095.130605,6587.832884,-6439.791695,919.314598
1095.130934,5773.606348,-7105.977043,536.266849
1095.131264,5551.544565,-7179.997637,306.438199
1095.131593,6069.688724,-7624.121203,612.876398
1095.131922,6661.853478,-7328.038826,842.705048
1095.132251,6809.894666,-6661.853478,459.657299
1095.132580,6957.935855,-6883.915261,689.485948
1095.132909,7105.977043,-6587.832884,842.705048
1095.133238,7920.203579,-6661.853478,1302.362347
1095.133567,7550.100608,-6439.791695,1149.143247
1095.133896,7624.121203,-6513.812290,919.314598
1095.134225,7179.997637,-7031.956449,995.924147
1095.134554,7179.997637,-7254.018232,1072.533697
1095.134883,7105.977043,-7179.997637,842.705048
1095.135212,6957.935855,-6661.853478,1915.238745
1095.135541,6661.853478,-7254.018232,612.876398
1095.135870,6513.812290,-7031.956449,919.314598
1095.136199,6365.771101,-6957.935855,995.924147
1095.136529,6217.729913,-6661.853478,536.266849
1095.136858,6439.791695,-6069.688724,1991.848295
1095.137187,6957.935855,-5773.606348,1455.581446
1095.137516,7179.997637,-5847.626942,1455.581446
1095.137845,7105.977043,-5699.585753,1762.019645
1095.138174,7476.080014,-6217.729913,1302.362347
1095.138503,7772.162391,-5847.626942,1762.019645
1095.138832,7476.080014,-6217.729913,2068.457845
1095.139161,6957.935855,-6069.688724,1225.752797
1095.139490,6809.894666,-6587.832884,919.314598
1095.139819,7031.956449,-6957.935855,842.705048
1095.140148,6809.894666,-6735.874072,842.705048
1095.140477,6957.935855,-6661.853478,612.876398
1095.140806,6809.894666,-6587.832884,459.657299
1095.141135,6513.812290,-6809.894666,612.876398
1095.141464,7105.977043,-6661.853478,919.314598
1095.141794,6809.894666,-6143.709319,842.705048
1095.142123,6957.935855,-6217.729913,1072.533697
1095.142452,7105.977043,-5699.585753,842.705048
1095.142781,7550.100608,-5551.544565,766.095498
1095.143110,7476.080014,-5699.585753,1302.362347
1095.143439,7550.100608,-5847.626942,1225.752797
1095.143768,7624.121203,-6735.874072,919.314598
1095.144097,7328.038826,-6883.915261,1225.752797
1095.144426,7624.121203,-7402.059420,1149.143247
1095.144755,7105.977043,-6809.894666,842.705048
1095.145084,6883.915261,-7105.977043,536.266849
1095.145413,6439.791695,-7105.977043,306.438199
1095.145742,6735.874072,-7031.956449,1149.143247
1095.146071,6957.935855,-7105.977043,995.924147
1095.146400,6883.915261,-6439.791695,995.924147
1095.146729,6291.750507,-7105.977043,1149.143247
1095.147059,6661.853478,-6513.812290,1762.019645
1095.147388,6587.832884,-6365.771101,1991.848295
1095.147717,6957.935855,-6439.791695,1608.800546
1095.148046,6809.894666,-6217.729913,1378.971896
1095.148375,6957.935855,-6365.771101,1225.752797
1095.148704,6809.894666,-7031.956449,1532.190996
1095.149033,6883.915261,-6439.791695,1455.581446
1095.149362,7105.977043,-6365.771101,1378.971896
1095.149691,6735.874072,-6661.853478,1072.533697
1095.150020,6365.771101,-5995.668130,1072.533697
1095.150349,6365.771101,-5699.585753,383.047749
1095.150678,7031.956449,-6365.771101,229.828649
1095.151007,6957.935855,-6735.874072,919.314598
1095.151336,6661.853478,-7031.956449,766.095498
1095.151665,6661.853478,-6809.894666,842.705048
1095.151994,6735.874072,-6513.812290,536.266849
1095.152324,6587.832884,-6661.853478,689.485948
1095.152653,6217.729913,-6513.812290,995.924147
1095.152982,7179.997637,-7402.059420,919.314598
1095.153311,7179.997637,-6661.853478,1378.971896
1095.153640,7624.121203,-6957.935855,995.924147
1095.153969,7550.100608,-6957.935855,1149.143247
1095.154298,7031.956449,-7402.059420,919.314598
1095.154627,7031.956449,-7402.059420,919.314598
1095.154956,6957.935855,-6513.812290,842.705048
1095.155285,6957.935855,-6513.812290,689.485948
1095.155614,6957.935855,-6365.771101,919.314598
1095.155943,6883.915261,-6661.853478,1072.533697
1095.156272,6513.812290,-6069.688724,842.705048
1095.156601,6883.915261,-5995.668130,1378.971896
1095.156930,7105.977043,-6291.750507,1532.190996
1095.157259,7550.100608,-6143.709319,1762.019645
1095.157589,7105.977043,-5921.647536,1608.800546
1095.157918,7476.080014,-5995.668130,2145.067394
1095.158247,7328.038826,-6365.771101,1532.190996
1095.158576,7402.059420,-7031.956449,2068.457845
1095.158905,6957.935855,-6883.915261,1302.362347
1095.159234,6365.771101,-6513.812290,612.876398
1095.159563,5995.668130,-6069.688724,306.438199
1095.159892,6143.709319,-7254.018232,919.314598
1095.160221,6735.874072,-6883.915261,1149.143247
1095.160550,6661.853478,-5995.668130,612.876398
1095.160879,6735.874072,-5329.482782,612.876398
1095.161208,7105.977043,-5921.647536,995.924147
1095.161537,7254.018232,-6513.812290,842.705048
1095.161866,7550.100608,-6143.709319,1149.143247
1095.162195,7328.038826,-5995.668130,612.876398
1095.162524,7402.059420,-6587.832884,842.705048
1095.162853,7402.059420,-6291.750507,1302.362347
1095.163183,7328.038826,-6883.915261,1225.752797
1095.163512,7476.080014,-6513.812290,1149.143247
1095.163841,7624.121203,-7402.059420,919.314598
1095.164170,7624.121203,-7105.977043,612.876398
1095.164499,7402.059420,-6957.935855,1302.362347
1095.164828,7179.997637,-6809.894666,842.705048
1095.165157,6957.935855,-6439.791695,536.266849
1095.165486,6365.771101,-6587.832884,689.485948
1095.165815,6587.832884,-7031.956449,766.095498
1095.166144,6809.894666,-6809.894666,1072.533697
1095.166473,6587.832884,-6661.853478,1455.581446
1095.166802,6513.812290,-6809.894666,1149.143247
1095.167131,6809.894666,-6883.915261,1685.410096
1095.167460,6661.853478,-6587.832884,1378.971896
1095.167789,6809.894666,-6365.771101,1455.581446
1095.168118,7105.977043,-6143.709319,1762.019645
1095.168448,7476.080014,-5921.647536,1532.190996
1095.168777,7105.977043,-6291.750507,1455.581446
1095.169106,7031.956449,-5995.668130,1302.362347
1095.169435,6735.874072,-6069.688724,1225.752797
1095.169764,6735.874072,-6217.729913,919.314598
1095.170093,6957.935855,-7105.977043,1302.362347
1095.170422,6513.812290,-6587.832884,1149.143247
1095.170751,6217.729913,-6661.853478,536.266849
1095.171080,5551.544565,-7328.038826,459.657299
1095.171409,6439.791695,-7624.121203,766.095498
1095.171738,6513.812290,-7550.100608,1149.143247
1095.172067,7031.956449,-6587.832884,536.266849
1095.172396,7031.956449,-6439.791695,842.705048
1095.172725,7105.977043,-6069.688724,919.314598
1095.173054,7179.997637,-6809.894666,1838.629195
1095.173383,7550.100608,-6661.853478,1532.190996
1095.173713,7550.100608,-6291.750507,842.705048
1095.174042,6957.935855,-6513.812290,689.485948
1095.174371,6661.853478,-6661.853478,842.705048
1095.174700,6809.894666,-7031.956449,1302.362347
1095.175029,6809.894666,-6957.935855,689.485948
1095.175358,6809.894666,-6587.832884,689.485948
1095.175687,6809.894666,-7105.977043,1225.752797
1095.176016,7031.956449,-7105.977043,1225.752797
1095.176345,6809.894666,-6587.832884,1225.752797
1095.176674,6291.750507,-6883.915261,995.924147
1095.177003,6735.874072,-6587.832884,1225.752797
1095.177332,7254.018232,-6069.688724,1455.581446
1095.177661,7846.182985,-5625.565159,1225.752797
1095.177990,7328.038826,-5625.565159,1149.143247
1095.178319,7105.977043,-5625.565159,995.924147
1095.178648,7105.977043,-6069.688724,1072.533697
1095.178978,7179.997637,-6365.771101,1838.629195
1095.179307,7031.956449,-6217.729913,1149.143247
1095.179636,6661.853478,-6513.812290,842.705048
1095.179965,6587.832884,-6513.812290,689.485948
1095.180294,6587.832884,-6661.853478,536.266849
1095.180623,6957.935855,-6957.935855,536.266849
1095.180952,7031.956449,-6809.894666,919.314598
1095.181281,7179.997637,-7105.977043,1072.533697
1095.181610,7254.018232,-6365.771101,689.485948
1095.181940,7105.977043,-6291.750507,766.095498
1095.182269,7254.018232,-6069.688724,1532.190996
1095.182598,7328.038826,-6809.894666,1149.143247
1095.182927,7476.080014,-5995.668130,1225.752797
1095.183256,7550.100608,-5773.606348,995.924147
1095.183585,7846.182985,-5995.668130,689.485948
1095.183914,7698.141797,-6883.915261,1225.752797
1095.184244,7328.038826,-7031.956449,919.314598
1095.184573,7179.997637,-6957.935855,306.438199
1095.184902,7105.977043,-6735.874072,1455.581446
1095.185231,7254.018232,-7179.997637,1149.143247
1095.185560,6883.915261,-7031.956449,919.314598
1095.185889,6735.874072,-6883.915261,689.485948
1095.186219,6587.832884,-6809.894666,766.095498
1095.186548,6217.729913,-6439.791695,1532.190996
1095.186877,6439.791695,-6291.750507,1302.362347
1095.187206,6513.812290,-6883.915261,1072.533697
1095.187535,6365.771101,-6439.791695,1072.533697
1095.187864,6587.832884,-6439.791695,1302.362347
1095.188193,6661.853478,-6217.729913,1072.533697
1095.188523,7105.977043,-6661.853478,1685.410096
1095.188852,7031.956449,-6661.853478,1455.581446
1095.189181,7031.956449,-6291.750507,1455.581446
1095.189510,6735.874072,-6809.894666,1302.362347
1095.189839,7179.997637,-6513.812290,1532.190996
1095.190168,6883.915261,-6513.812290,1302.362347
1095.190497,6735.874072,-6143.709319,612.876398
1095.190827,6365.771101,-6217.729913,766.095498
1095.191156,6809.894666,-6217.729913,919.314598
1095.191485,6291.750507,-6735.874072,995.924147
1095.191814,6661.853478,-6735.874072,536.266849
1095.192143,6809.894666,-6735.874072,612.876398
1095.192472,6883.915261,-7105.977043,536.266849
1095.192801,7402.059420,-7402.059420,1608.800546
1095.193131,7328.038826,-7328.038826,842.705048
1095.193460,7105.977043,-6809.894666,766.095498
1095.193789,7254.018232,-7105.977043,689.485948
1095.194118,7846.182985,-7550.100608,1455.581446
1095.194447,7624.121203,-7105.977043,1302.362347
1095.194776,7179.997637,-6439.791695,995.924147
1095.195105,6365.771101,-6069.688724,306.438199
1095.195435,6439.791695,-6587.832884,536.266849
1095.195764,6513.812290,-6883.915261,1378.971896
1095.196093,6735.874072,-6587.832884,766.095498
1095.196422,6587.832884,-5699.585753,689.485948
1095.196751,6439.791695,-6217.729913,919.314598
1095.197080,7179.997637,-6513.812290,1302.362347
1095.197410,8142.265362,-6439.791695,1762.019645
1095.197739,7476.080014,-5921.647536,1532.190996
1095.198068,7179.997637,-5625.565159,1225.752797
1095.198397,6439.791695,-6587.832884,1378.971896
1095.198726,7031.956449,-6513.812290,2068.457845
1095.199055,6809.894666,-6217.729913,1072.533697
1095.199384,6809.894666,-6217.729913,1149.143247
1095.199714,6809.894666,-6365.771101,1072.533697
1095.200043,6809.894666,-6439.791695,1225.752797
1095.200372,7254.018232,-5551.544565,766.095498
1095.200701,6957.935855,-5403.503377,459.657299
1095.201030,6735.874072,-6291.750507,766.095498
1095.201359,6661.853478,-6365.771101,459.657299
1095.201688,6809.894666,-6217.729913,612.876398
1095.202018,7328.038826,-6513.812290,1149.143247
1095.202347,7698.141797,-6957.935855,1072.533697
1095.202676,7550.100608,-7254.018232,1225.752797
1095.203005,7328.038826,-6661.853478,1149.143247
1095.203334,7328.038826,-6587.832884,1072.533697
1095.203663,7550.100608,-6365.771101,1225.752797
1095.203992,7550.100608,-6661.853478,1149.143247
1095.204322,7179.997637,-6957.935855,1225.752797
1095.204651,6587.832884,-6439.791695,1378.971896
1095.204980,6809.894666,-6365.771101,383.047749
1095.205309,6735.874072,-6735.874072,536.266849
1095.205638,6661.853478,-7328.038826,842.705048
1095.205967,6883.915261,-6809.894666,919.314598
1095.206296,6809.894666,-6883.915261,1302.362347
1095.206626,6735.874072,-7105.977043,1225.752797
1095.206955,6735.874072,-7254.018232,1225.752797
1095.207284,6587.832884,-7105.977043,1455.581446
1095.207613,6513.812290,-6809.894666,1455.581446
1095.207942,7105.977043,-5995.668130,1378.971896
1095.208271,7105.977043,-6291.750507,1838.629195
1095.208600,7328.038826,-5699.585753,536.266849
1095.208930,7179.997637,-5847.626942,1455.581446
1095.209259,6587.832884,-4737.318029,612.876398
1095.209588,6735.874072,-6143.709319,1072.533697
1095.209917,6439.791695,-6809.894666,1225.752797
1095.210246,6587.832884,-6883.915261,995.924147
1095.210575,6661.853478,-6661.853478,995.924147
1095.210905,6291.750507,-6883.915261,766.095498
1095.211234,6143.709319,-7328.038826,536.266849
1095.211563,6513.812290,-7402.059420,919.314598
1095.211892,6957.935855,-7105.977043,612.876398
1095.212221,6809.894666,-6883.915261,612.876398
1095.212550,7624.121203,-6735.874072,842.705048
1095.212879,7179.997637,-6587.832884,1225.752797
1095.213209,7328.038826,-6439.791695,842.705048
1095.213538,7402.059420,-6217.729913,1225.752797
1095.213867,7254.018232,-6143.709319,1608.800546
1095.214196,7105.977043,-6661.853478,1072.533697
1095.214525,6809.894666,-7179.997637,766.095498
1095.214854,6587.832884,-7105.977043,766.095498
1095.215183,6883.915261,-6809.894666,536.266849
1095.215513,7105.977043,-6587.832884,612.876398
1095.215842,6957.935855,-7031.956449,842.705048
1095.216171,6809.894666,-7105.977043,842.705048
1095.216500,6735.874072,-6735.874072,919.314598
1095.216829,7031.956449,-6735.874072,1608.800546
1095.217158,7254.018232,-6365.771101,1685.410096
1095.217487,7328.038826,-5847.626942,1302.362347
1095.217817,7031.956449,-5699.585753,1149.143247
1095.218146,7105.977043,-5625.565159,1455.581446
1095.218475,7328.038826,-5921.647536,1072.533697
1095.218804,7550.100608,-6069.688724,1532.190996
1095.219133,7179.997637,-6069.688724,1072.533697
1095.219462,6735.874072,-6143.709319,612.876398
1095.219791,6735.874072,-7105.977043,1302.362347
1095.220121,7105.977043,-7105.977043,689.485948
1095.220450,6809.894666,-7105.977043,689.485948
1095.220779,6809.894666,-6809.894666,536.266849
1095.221108,6809.894666,-7105.977043,612.876398
1095.221437,6957.935855,-6883.915261,766.095498
1095.221766,6883.915261,-6809.894666,842.705048
1095.222096,7105.977043,-6957.935855,1225.752797
1095.222425,7105.977043,-5551.544565,919.314598
1095.222754,7402.059420,-5699.585753,1455.581446
1095.223083,7476.080014,-5181.441594,1072.533697
1095.223412,7624.121203,-5773.606348,842.705048
1095.223741,7254.018232,-6365.771101,766.095498
1095.224070,7402.059420,-6735.874072,919.314598
1095.224400,7624.121203,-6957.935855,1072.533697
1095.224729,7328.038826,-7031.956449,995.924147
1095.225058,6957.935855,-7254.018232,995.924147
1095.225387,6661.853478,-7105.977043,919.314598
1095.225716,6735.874072,-7031.956449,842.705048
1095.226045,6365.771101,-6513.812290,1149.143247
1095.226374,6809.894666,-6735.874072,1225.752797
1095.226704,6661.853478,-6883.915261,995.924147
1095.227033,6439.791695,-6439.791695,1302.362347
1095.227362,6365.771101,-5921.647536,1072.533697
1095.227691,6809.894666,-5921.647536,1991.848295
1095.228020,7179.997637,-5847.626942,1762.019645
1095.228349,7254.018232,-5921.647536,1532.190996
1095.228678,7179.997637,-5773.606348,1072.533697
1095.229008,7254.018232,-6291.750507,1149.143247
1095.229337,6883.915261,-6957.935855,1225.752797
1095.229666,6587.832884,-7031.956449,1149.143247
1095.229995,6513.812290,-7105.977043,1225.752797
1095.230324,6439.791695,-7105.977043,919.314598
1095.230653,6513.812290,-6661.853478,612.876398
1095.230982,6365.771101,-6809.894666,1072.533697
1095.231312,7031.956449,-6809.894666,919.314598
1095.231641,6809.894666,-7031.956449,459.657299
1095.231970,6809.894666,-6217.729913,229.828649
1095.232299,6809.894666,-5995.668130,383.047749
1095.232628,7254.018232,-6291.750507,919.314598
1095.232957,7476.080014,-6883.915261,1149.143247
1095.233287,7550.100608,-7254.018232,1149.143247
1095.233616,7328.038826,-6661.853478,1302.362347
1095.233945,7328.038826,-7105.977043,919.314598
1095.234274,7179.997637,-7328.038826,919.314598
1095.234603,7105.977043,-7476.080014,766.095498
1095.234932,7105.977043,-8068.244768,842.705048
1095.235261,6957.935855,-7105.977043,1149.143247
1095.235591,6217.729913,-6735.874072,766.095498
1095.235920,6217.729913,-6513.812290,612.876398
1095.236249,6365.771101,-6291.750507,919.314598
1095.236578,6957.935855,-6291.750507,1762.019645
1095.236907,7550.100608,-5255.462188,1302.362347
1095.237236,7550.100608,-5329.482782,1532.190996
1095.237565,7179.997637,-4737.318029,1532.190996
1095.237895,7402.059420,-5477.523971,1225.752797
1095.238224,7698.141797,-5995.668130,1532.190996
1095.238553,7328.038826,-5995.668130,1608.800546
1095.238882,7105.977043,-6291.750507,995.924147
1095.239211,7179.997637,-6735.874072,1149.143247
1095.239540,7105.977043,-6365.771101,995.924147
1095.239869,6513.812290,-7550.100608,842.705048
1095.240199,5921.647536,-7328.038826,766.095498
1095.240528,5847.626942,-7254.018232,229.828649
1095.240857,6069.688724,-6661.853478,612.876398
1095.241186,6513.812290,-6291.750507,1302.362347
1095.241515,6735.874072,-6957.935855,995.924147
1095.241844,7476.080014,-5625.565159,919.314598
1095.242173,7698.141797,-5255.462188,919.314598
1095.242503,8142.265362,-5551.544565,1149.143247
1095.242832,8142.265362,-5773.606348,1225.752797
1095.243161,8068.244768,-6365.771101,1149.143247
1095.243490,7772.162391,-6365.771101,1072.533697
1095.243819,7402.059420,-7031.956449,1149.143247
1095.244148,7846.182985,-7476.080014,1225.752797
1095.244478,7476.080014,-7476.080014,919.314598
1095.244807,6661.853478,-7402.059420,842.705048
1095.245136,6291.750507,-7624.121203,383.047749
1095.245465,6439.791695,-7550.100608,459.657299
1095.245794,6365.771101,-6735.874072,689.485948
1095.246123,6217.729913,-7179.997637,766.095498
1095.246452,6069.688724,-6661.853478,689.485948
1095.246782,5921.647536,-6291.750507,766.095498
1095.247111,6587.832884,-6365.771101,1225.752797
1095.247440,7402.059420,-5921.647536,1532.190996
1095.247769,7994.224174,-5773.606348,1608.800546
1095.248098,8068.244768,-5699.585753,1915.238745
1095.248427,7994.224174,-5921.647536,1762.019645
1095.248756,8142.265362,-6291.750507,1608.800546
1095.249086,7179.997637,-5921.647536,1149.143247
1095.249415,6735.874072,-6291.750507,995.924147
1095.249744,6513.812290,-6957.935855,1302.362347
1095.250073,6661.853478,-7624.121203,1455.581446
1095.250402,6365.771101,-6735.874072,0.000000
1095.250731,5995.668130,-6587.832884,536.266849
1095.251060,5699.585753,-6883.915261,0.000000
1095.251390,6069.688724,-7105.977043,536.266849
1095.251719,6513.812290,-7920.203579,536.266849
1095.252048,6735.874072,-6809.894666,842.705048
1095.252377,6809.894666,-6439.791695,536.266849
1095.252706,7402.059420,-6661.853478,995.924147
1095.253035,8068.244768,-6587.832884,1685.410096
1095.253364,8660.409521,-6661.853478,1685.410096
1095.253694,7698.141797,-5699.585753,1532.190996
1095.254023,7254.018232,-6291.750507,919.314598
1095.254352,7105.977043,-6883.915261,766.095498
1095.254681,6883.915261,-7476.080014,766.095498
1095.255010,6365.771101,-7179.997637,306.438199
1095.255339,5773.606348,-7328.038826,459.657299
1095.255669,6069.688724,-6957.935855,459.657299
1095.255998,6143.709319,-7254.018232,919.314598
1095.256327,6809.894666,-6661.853478,689.485948
1095.256656,7105.977043,-6217.729913,919.314598
1095.256985,7105.977043,-6069.688724,1378.971896
1095.257314,7328.038826,-5773.606348,1378.971896
1095.257643,6735.874072,-5329.482782,1762.019645
1095.257973,7920.203579,-5551.544565,1685.410096
1095.258302,7624.121203,-5847.626942,1685.410096
1095.258631,7402.059420,-6143.709319,1532.190996
1095.258960,7698.141797,-6365.771101,919.314598
1095.259289,7179.997637,-6439.791695,1378.971896
1095.259618,6513.812290,-6883.915261,842.705048
1095.259947,6439.791695,-7031.956449,689.485948
1095.260277,6217.729913,-6809.894666,612.876398
1095.260606,6513.812290,-6809.894666,689.485948
1095.260935,6365.771101,-6513.812290,842.705048
1095.261264,6883.915261,-6809.894666,689.485948
1095.261593,7105.977043,-6143.709319,919.314598
1095.261922,7550.100608,-6735.874072,919.314598
1095.262251,7328.038826,-5995.668130,1532.190996
1095.262581,8142.265362,-5773.606348,766.095498
1095.262910,7920.203579,-5403.503377,1225.752797
1095.263239,8142.265362,-5699.585753,1378.971896
1095.263568,7994.224174,-5847.626942,1149.143247
1095.263897,7402.059420,-6809.894666,383.047749
1095.264226,7254.018232,-6735.874072,689.485948
1095.264555,7105.977043,-7031.956449,919.314598
1095.264885,7105.977043,-7550.100608,689.485948
1095.265214,6587.832884,-6957.935855,689.485948
1095.265543,6143.709319,-7402.059420,612.876398
1095.265872,6291.750507,-7179.997637,689.485948
1095.266201,6365.771101,-6883.915261,1072.533697
1095.266530,6143.709319,-7105.977043,842.705048
1095.266860,7254.018232,-6217.729913,766.095498
1095.267189,7031.956449,-6291.750507,1225.752797
1095.267518,7179.997637,-5995.668130,1685.410096
1095.267847,7179.997637,-5847.626942,1762.019645
1095.268176,7179.997637,-5773.606348,1838.629195
1095.268505,7105.977043,-5477.523971,2068.457845
1095.268834,7254.018232,-6365.771101,1378.971896
1095.269164,6957.935855,-6291.750507,1378.971896
1095.269493,6439.791695,-6883.915261,1072.533697
1095.269822,6217.729913,-6809.894666,766.095498
1095.270151,6143.709319,-6883.915261,689.485948
1095.270480,5847.626942,-6957.935855,689.485948
1095.270809,6069.688724,-6883.915261,766.095498
1095.271138,6217.729913,-6883.915261,536.266849
1095.271468,6883.915261,-6661.853478,689.485948
1095.271797,6587.832884,-6513.812290,536.266849
1095.272126,6735.874072,-6365.771101,995.924147
1095.272455,7254.018232,-6513.812290,919.314598
1095.272784,7476.080014,-7105.977043,1762.019645
1095.273113,7772.162391,-7105.977043,1685.410096
1095.273442,7476.080014,-6735.874072,919.314598
1095.273772,7328.038826,-7328.038826,995.924147
1095.274101,7105.977043,-7624.121203,919.314598
1095.274430,7105.977043,-8068.244768,536.266849
1095.274759,6587.832884,-7328.038826,995.924147
1095.275088,6735.874072,-7105.977043,612.876398
1095.275417,6957.935855,-6661.853478,995.924147
1095.275746,7031.956449,-6587.832884,1225.752797
1095.276076,6809.894666,-5699.585753,995.924147
1095.276405,6957.935855,-5181.441594,995.924147
1095.276734,7105.977043,-5699.585753,689.485948
1095.277063,7179.997637,-5995.668130,1455.581446
1095.277392,7476.080014,-5995.668130,1991.848295
1095.277721,7698.141797,-5477.523971,1762.019645
1095.278051,7550.100608,-5477.523971,1608.800546
1095.278380,7402.059420,-6069.688724,1532.190996
1095.278709,7105.977043,-6365.771101,1378.971896
1095.279038,7402.059420,-6587.832884,1455.581446
1095.279367,7031.956449,-6661.853478,842.705048
1095.279696,6365.771101,-6439.791695,536.266849
1095.280025,5847.626942,-7254.018232,306.438199
1095.280355,6069.688724,-6735.874072,842.705048
1095.280684,6439.791695,-7105.977043,842.705048
1095.281013,6069.688724,-6883.915261,689.485948
1095.281342,6513.812290,-6587.832884,689.485948
1095.281671,6661.853478,-6587.832884,842.705048
1095.282000,7550.100608,-5255.462188,1072.533697
1095.282329,7624.121203,-5477.523971,1149.143247
1095.282659,7476.080014,-5847.626942,1378.971896
1095.282988,7698.141797,-5699.585753,995.924147
1095.283317,7624.121203,-6217.729913,919.314598
1095.283646,7624.121203,-6735.874072,995.924147
1095.283975,7846.182985,-7328.038826,1378.971896
1095.284305,7254.018232,-7698.141797,1225.752797
1095.284634,6883.915261,-7550.100608,842.705048
1095.284963,6957.935855,-7402.059420,766.095498
1095.285292,6513.812290,-7105.977043,612.876398
1095.285621,6661.853478,-7550.100608,1685.410096
1095.285951,6439.791695,-7698.141797,1072.533697
1095.286280,6217.729913,-6883.915261,1072.533697
1095.286609,6143.709319,-6365.771101,536.266849
1095.286938,6291.750507,-6513.812290,919.314598
1095.287267,6957.935855,-6291.750507,1532.190996
1095.287597,7254.018232,-5921.647536,1532.190996
1095.287926,7476.080014,-5773.606348,1762.019645
1095.288255,7846.182985,-5107.421000,1762.019645
1095.288584,7550.100608,-6587.832884,1838.629195
1095.288913,7105.977043,-6069.688724,1762.019645
1095.289243,6883.915261,-5921.647536,1149.143247
1095.289572,6513.812290,-5847.626942,1302.362347
1095.289901,6661.853478,-6883.915261,1532.190996
1095.290230,6513.812290,-7550.100608,1149.143247
1095.290560,6217.729913,-6513.812290,459.657299
1095.290889,5921.647536,-6365.771101,229.828649
1095.291218,6513.812290,-6957.935855,919.314598
1095.291547,6513.812290,-6957.935855,995.924147
1095.291876,6809.894666,-6365.771101,689.485948
1095.292206,6883.915261,-6291.750507,919.314598
1095.292535,6883.915261,-5921.647536,612.876398
1095.292864,7624.121203,-6661.853478,1072.533697
1095.293193,7920.203579,-6661.853478,1455.581446
1095.293522,7772.162391,-6957.935855,1225.752797
1095.293852,7772.162391,-6439.791695,612.876398
1095.294181,6809.894666,-6587.832884,919.314598
1095.294510,6513.812290,-7402.059420,536.266849
1095.294839,6587.832884,-7476.080014,612.876398
1095.295168,6587.832884,-7402.059420,536.266849
1095.295498,6513.812290,-6957.935855,995.924147
1095.295827,6513.812290,-7105.977043,459.657299
1095.296156,6513.812290,-6809.894666,842.705048
1095.296485,6883.915261,-6365.771101,995.924147
1095.296814,7179.997637,-6439.791695,1302.362347
1095.297144,7328.038826,-5921.647536,1149.143247
1095.297473,7105.977043,-5699.585753,1378.971896
1095.297802,7031.956449,-6143.709319,1072.533697
1095.298131,7179.997637,-6069.688724,1532.190996
1095.298460,7328.038826,-6217.729913,1378.971896
1095.298790,7105.977043,-6291.750507,1378.971896
1095.299119,7105.977043,-6957.935855,1225.752797
1095.299448,6661.853478,-6513.812290,612.876398
1095.299777,6365.771101,-6587.832884,383.047749
1095.300106,6809.894666,-6957.935855,612.876398
1095.300436,7105.977043,-7031.956449,766.095498
1095.300765,6883.915261,-6291.750507,536.266849
1095.301094,6587.832884,-5995.668130,76.609550
1095.301423,6957.935855,-6291.750507,995.924147
1095.301752,7476.080014,-6883.915261,919.314598
1095.302082,7402.059420,-6587.832884,1225.752797
1095.302411,7105.977043,-6143.709319,1302.362347
1095.302740,7179.997637,-6143.709319,1149.143247
1095.303069,7402.059420,-6291.750507,1532.190996
1095.303398,7254.018232,-6439.791695,689.485948
1095.303728,7105.977043,-6735.874072,919.314598
1095.304057,7254.018232,-7254.018232,842.705048
1095.304386,7105.977043,-6809.894666,612.876398
1095.304715,6809.894666,-6513.812290,919.314598
1095.305044,7105.977043,-6661.853478,919.314598
1095.305374,7402.059420,-6291.750507,1072.533697
1095.305703,7402.059420,-6587.832884,1378.971896
1095.306032,7105.977043,-5773.606348,1225.752797
1095.306361,6587.832884,-5329.482782,1455.581446
1095.306690,6661.853478,-5921.647536,1072.533697
1095.307020,6883.915261,-6439.791695,1302.362347
1095.307349,7105.977043,-6513.812290,1762.019645
1095.307678,7179.997637,-5625.565159,1225.752797
1095.308007,6957.935855,-6143.709319,842.705048
1095.308336,6735.874072,-6883.915261,1225.752797
1095.308666,6883.915261,-7254.018232,1532.190996
1095.308995,6735.874072,-7179.997637,1225.752797
1095.309324,6513.812290,-6883.915261,1608.800546
1095.309653,5995.668130,-7031.956449,689.485948
1095.309982,6587.832884,-6661.853478,919.314598
1095.310312,6513.812290,-6587.832884,919.314598
1095.310641,7031.956449,-6735.874072,1072.533697
1095.310970,6883.915261,-5995.668130,766.095498
1095.311299,6735.874072,-6513.812290,612.876398
1095.311628,6661.853478,-6291.750507,995.924147
1095.311958,6809.894666,-6513.812290,995.924147
1095.312287,7624.121203,-7105.977043,1455.581446
1095.312616,7179.997637,-6661.853478,1225.752797
1095.312945,7105.977043,-7476.080014,995.924147
1095.313274,7254.018232,-7402.059420,919.314598
1095.313604,7105.977043,-7476.080014,229.828649
1095.313933,6735.874072,-7624.121203,842.705048
1095.314262,6957.935855,-8068.244768,842.705048
1095.314591,6957.935855,-7328.038826,1072.533697
1095.314920,6661.853478,-6513.812290,766.095498
1095.315250,6439.791695,-6143.709319,766.095498
1095.315579,6809.894666,-6439.791695,1072.533697
1095.315908,7031.956449,-6365.771101,1302.362347
1095.316237,7031.956449,-5847.626942,689.485948
1095.316566,6735.874072,-5921.647536,919.314598
1095.316896,7031.956449,-5773.606348,1685.410096
1095.317225,7328.038826,-6809.894666,1915.238745
1095.317554,7772.162391,-6661.853478,2068.457845
1095.317883,7402.059420,-5921.647536,1532.190996
1095.318212,7328.038826,-6217.729913,1072.533697
1095.318542,6735.874072,-6883.915261,1455.581446
1095.318871,6957.935855,-7031.956449,1378.971896
1095.319200,6809.894666,-6439.791695,1072.533697
1095.319529,6513.812290,-5773.606348,919.314598
1095.319858,6143.709319,-6217.729913,1072.533697
1095.320188,6735.874072,-5995.668130,1378.971896
1095.320517,6883.915261,-5329.482782,842.705048
1095.320846,7179.997637,-5107.421000,689.485948
1095.321175,7328.038826,-5329.482782,842.705048
1095.321504,7179.997637,-6661.853478,612.876398
1095.321834,7328.038826,-6587.832884,919.314598
