#time,accel_x,accel_y,accel_z
1325.946797,6957.935855,-7105.977043,766.095498
1325.947127,7105.977043,-6661.853478,842.705048
1325.947458,6735.874072,-6513.812290,459.657299
1325.947789,7031.956449,-6587.832884,1149.143247
1325.948119,7031.956449,-6883.915261,1455.581446
1325.948450,6957.935855,-6661.853478,919.314598
1325.948780,7254.018232,-6217.729913,1455.581446
1325.949111,7105.977043,-5773.606348,1072.533697
1325.949441,7105.977043,-6513.812290,1072.533697
1325.949772,7105.977043,-6365.771101,1149.143247
1325.950102,7105.977043,-6291.750507,1072.533697
1325.950433,7031.956449,-6513.812290,1378.971896
1325.950763,6883.915261,-6217.729913,689.485948
1325.951094,6661.853478,-6661.853478,842.705048
1325.951425,6661.853478,-6809.894666,306.438199
1325.951755,7105.977043,-6587.832884,1149.143247
1325.952086,7031.956449,-6809.894666,689.485948
1325.952416,7031.956449,-6883.915261,919.314598
1325.952747,6809.894666,-6587.832884,1149.143247
1325.953077,7031.956449,-6661.853478,1072.533697
1325.953408,7031.956449,-6883.915261,689.485948
1325.953738,6809.894666,-6883.915261,995.924147
1325.954069,6957.935855,-6883.915261,842.705048
1325.954400,7402.059420,-6661.853478,1072.533697
1325.954730,7105.977043,-6291.750507,995.924147
1325.955061,7624.121203,-6365.771101,842.705048
1325.955391,7254.018232,-6661.853478,1225.752797
1325.955722,7031.956449,-6513.812290,919.314598
1325.956052,7105.977043,-6587.832884,919.314598
1325.956383,7550.100608,-5699.585753,842.705048
1325.956713,7624.121203,-6587.832884,919.314598
1325.957044,7105.977043,-5995.668130,1149.143247
1325.957374,7105.977043,-6143.709319,1302.362347
1325.957705,6957.935855,-5995.668130,919.314598
1325.958036,7105.977043,-6365.771101,995.924147
1325.958366,6513.812290,-6439.791695,995.924147
1325.958697,6587.832884,-6661.853478,842.705048
1325.959027,6883.915261,-7105.977043,1225.752797
1325.959358,7031.956449,-6883.915261,1149.143247
1325.959688,7031.956449,-6439.791695,1149.143247
1325.960019,6587.832884,-6735.874072,1149.143247
1325.960349,6365.771101,-7031.956449,766.095498
1325.960680,6365.771101,-7105.977043,536.266849
1325.961011,6587.832884,-6883.915261,1225.752797
1325.961341,6957.935855,-7105.977043,919.314598
1325.961672,7105.977043,-6661.853478,689.485948
1325.962002,7031.956449,-6587.832884,919.314598
1325.962333,7179.997637,-6957.935855,842.705048
1325.962663,7105.977043,-6883.915261,1225.752797
1325.962994,6957.935855,-6809.894666,766.095498
1325.963324,7105.977043,-6661.853478,1072.533697
1325.963655,7328.038826,-6439.791695,1072.533697
1325.963985,7476.080014,-6291.750507,1608.800546
1325.964316,7476.080014,-6883.915261,1225.752797
1325.964647,6957.935855,-6587.832884,1378.971896
1325.964977,6957.935855,-6439.791695,842.705048
1325.965308,6735.874072,-6587.832884,919.314598
1325.965638,6439.791695,-6513.812290,536.266849
1325.965969,6735.874072,-6587.832884,766.095498
1325.966299,7105.977043,-6809.894666,1149.143247
1325.966630,6957.935855,-6291.750507,1149.143247
1325.966960,7031.956449,-7105.977043,1378.971896
1325.967291,7031.956449,-6587.832884,842.705048
1325.967621,6661.853478,-6587.832884,689.485948
1325.967952,6957.935855,-7105.977043,536.266849
1325.968283,6735.874072,-6661.853478,1072.533697
1325.968613,6883.915261,-6217.729913,842.705048
1325.968944,7179.997637,-6661.853478,919.314598
1325.969274,7105.977043,-5995.668130,1149.143247
1325.969605,7105.977043,-6365.771101,766.095498
1325.969935,7105.977043,-6365.771101,1072.533697
1325.970266,7105.977043,-6217.729913,1072.533697
1325.970596,7254.018232,-6439.791695,766.095498
1325.970927,7254.018232,-6217.729913,766.095498
1325.971258,7476.080014,-5995.668130,1149.143247
1325.971588,7105.977043,-6291.750507,1532.190996
1325.971919,7105.977043,-6365.771101,1149.143247
1325.972249,7105.977043,-6365.771101,766.095498
1325.972580,6809.894666,-6735.874072,919.314598
1325.972910,6439.791695,-6513.812290,1072.533697
1325.973241,6883.915261,-6439.791695,612.876398
1325.973571,7179.997637,-7179.997637,1072.533697
1325.973902,6809.894666,-6809.894666,1149.143247
1325.974232,6587.832884,-6513.812290,1072.533697
1325.974563,6661.853478,-6661.853478,1225.752797
1325.974894,6809.894666,-6957.935855,995.924147
1325.975224,6957.935855,-6957.935855,766.095498
1325.975555,6587.832884,-7179.997637,842.705048
1325.975885,6957.935855,-7031.956449,919.314598
1325.976216,7105.977043,-7254.018232,383.047749
1325.976546,7105.977043,-6439.791695,1302.362347
1325.976877,7105.977043,-6957.935855,842.705048
1325.977207,7105.977043,-6809.894666,995.924147
1325.977538,6809.894666,-6809.894666,1302.362347
1325.977869,7031.956449,-6883.915261,1149.143247
1325.978199,7105.977043,-6291.750507,842.705048
1325.978530,7105.977043,-6291.750507,1149.143247
1325.978860,7254.018232,-6365.771101,1378.971896
1325.979191,7476.080014,-5995.668130,1149.143247
1325.979521,7254.018232,-6439.791695,842.705048
1325.979852,6957.935855,-6365.771101,995.924147
1325.980182,6661.853478,-6439.791695,919.314598
1325.980513,6661.853478,-6661.853478,919.314598
1325.980843,7105.977043,-7031.956449,1149.143247
1325.981174,7031.956449,-6735.874072,1072.533697
1325.981505,7105.977043,-6883.915261,1225.752797
1325.981835,6883.915261,-6809.894666,842.705048
1325.982166,7179.997637,-6439.791695,1455.581446
1325.982496,6809.894666,-6735.874072,842.705048
1325.982827,6513.812290,-6513.812290,919.314598
1325.983157,6661.853478,-6587.832884,919.314598
1325.983488,7105.977043,-6735.874072,842.705048
1325.983818,7179.997637,-6217.729913,1225.752797
1325.984149,7105.977043,-6365.771101,1149.143247
1325.984479,7179.997637,-6587.832884,995.924147
1325.984810,7105.977043,-6735.874072,1149.143247
1325.985141,6735.874072,-6661.853478,612.876398
1325.985471,6883.915261,-6291.750507,1072.533697
1325.985802,7179.997637,-5847.626942,1072.533697
1325.986132,7328.038826,-6291.750507,1149.143247
1325.986463,7105.977043,-6439.791695,1149.143247
1325.986793,7105.977043,-6069.688724,689.485948
1325.987124,6809.894666,-5921.647536,1302.362347
1325.987454,6587.832884,-6291.750507,1072.533697
1325.987785,6587.832884,-6217.729913,1072.533697
1325.988116,6735.874072,-6957.935855,1149.143247
1325.988446,7105.977043,-6883.915261,995.924147
1325.988777,6661.853478,-6513.812290,766.095498
1325.989107,6661.853478,-7105.977043,766.095498
1325.989438,6587.832884,-7105.977043,1149.143247
1325.989768,6513.812290,-7105.977043,1225.752797
1325.990099,6217.729913,-7105.977043,842.705048
1325.990429,6439.791695,-6957.935855,1378.971896
1325.990760,7179.997637,-6957.935855,919.314598
1325.991090,7476.080014,-6661.853478,1225.752797
1325.991421,7105.977043,-6143.709319,1072.533697
1325.991752,7031.956449,-6513.812290,612.876398
1325.992082,7105.977043,-6513.812290,1072.533697
1325.992413,7105.977043,-6439.791695,689.485948
1325.992743,7105.977043,-6587.832884,919.314598
1325.993074,7624.121203,-6587.832884,842.705048
1325.993404,7550.100608,-6587.832884,842.705048
1325.993735,7105.977043,-6365.771101,1072.533697
1325.994065,7105.977043,-6365.771101,1072.533697
1325.994396,6587.832884,-5995.668130,1378.971896
1325.994727,6883.915261,-6587.832884,1072.533697
1325.995057,6587.832884,-6587.832884,1072.533697
1325.995388,6661.853478,-6513.812290,1072.533697
1325.995718,7105.977043,-6439.791695,1532.190996
1325.996049,7402.059420,-6587.832884,842.705048
1325.996379,6809.894666,-6291.750507,1072.533697
1325.996710,6883.915261,-6439.791695,1455.581446
1325.997040,6809.894666,-6883.915261,1149.143247
1325.997371,6661.853478,-6439.791695,995.924147
1325.997701,6587.832884,-6809.894666,842.705048
1325.998032,7031.956449,-6809.894666,919.314598
1325.998363,7105.977043,-6513.812290,919.314598
1325.998693,7328.038826,-6291.750507,1302.362347
1325.999024,7105.977043,-5995.668130,1532.190996
1325.999354,7328.038826,-6365.771101,1225.752797
1325.999685,7031.956449,-6513.812290,919.314598
1326.000015,7031.956449,-6365.771101,1072.533697
1326.000346,7402.059420,-6143.709319,1149.143247
1326.000676,7328.038826,-6143.709319,1149.143247
1326.001007,7328.038826,-6365.771101,1149.143247
1326.001337,7105.977043,-6439.791695,1225.752797
1326.001668,6587.832884,-5995.668130,919.314598
1326.001999,7031.956449,-6661.853478,612.876398
1326.002329,6587.832884,-6513.812290,995.924147
1326.002660,6661.853478,-6883.915261,689.485948
1326.002990,7031.956449,-6365.771101,1149.143247
1326.003321,7105.977043,-6439.791695,1149.143247
1326.003651,7402.059420,-6957.935855,1302.362347
1326.003982,6661.853478,-6587.832884,1149.143247
1326.004312,6883.915261,-6883.915261,995.924147
1326.004643,6587.832884,-7105.977043,842.705048
1326.004974,6883.915261,-7254.018232,689.485948
1326.005304,6883.915261,-7105.977043,1149.143247
1326.005635,7105.977043,-7254.018232,1455.581446
1326.005965,7105.977043,-6143.709319,1225.752797
1326.006296,7105.977043,-6735.874072,919.314598
1326.006626,7254.018232,-6883.915261,919.314598
1326.006957,7105.977043,-6587.832884,842.705048
1326.007287,7105.977043,-6513.812290,1225.752797
1326.007618,7105.977043,-5847.626942,1072.533697
1326.007948,7402.059420,-6217.729913,1225.752797
1326.008279,7105.977043,-6217.729913,1149.143247
1326.008610,7105.977043,-6587.832884,1378.971896
1326.008940,6957.935855,-6291.750507,842.705048
1326.009271,6957.935855,-6439.791695,842.705048
1326.009601,6439.791695,-6217.729913,689.485948
1326.009932,6365.771101,-6809.894666,919.314598
1326.010262,7254.018232,-6809.894666,1225.752797
1326.010593,6957.935855,-6587.832884,1225.752797
1326.010923,6957.935855,-5995.668130,995.924147
1326.011254,7105.977043,-6439.791695,842.705048
1326.011585,6809.894666,-6513.812290,1072.533697
1326.011915,6957.935855,-7105.977043,766.095498
1326.012245,6661.853478,-6587.832884,995.924147
1326.012575,6661.853478,-7105.977043,1608.800546
1326.012904,7254.018232,-6809.894666,1225.752797
1326.013234,7105.977043,-6217.729913,1225.752797
1326.013564,6883.915261,-6587.832884,689.485948
1326.013894,7105.977043,-6365.771101,1149.143247
1326.014224,7031.956449,-6735.874072,919.314598
1326.014553,7105.977043,-6809.894666,689.485948
1326.014883,7105.977043,-6069.688724,1149.143247
1326.015213,7254.018232,-5995.668130,1608.800546
1326.015543,7476.080014,-6513.812290,1532.190996
1326.015872,6735.874072,-5995.668130,1608.800546
1326.016202,7105.977043,-6291.750507,1149.143247
1326.016532,6883.915261,-6143.709319,1149.143247
1326.016862,6661.853478,-6291.750507,995.924147
1326.017192,6587.832884,-6587.832884,612.876398
1326.017521,6735.874072,-6809.894666,995.924147
1326.017851,6661.853478,-6439.791695,919.314598
1326.018181,6809.894666,-6957.935855,842.705048
1326.018511,6661.853478,-6809.894666,1149.143247
1326.018840,6957.935855,-7031.956449,1072.533697
1326.019170,6661.853478,-7254.018232,842.705048
1326.019500,6439.791695,-6809.894666,689.485948
1326.019830,6661.853478,-7254.018232,1072.533697
1326.020160,7179.997637,-6513.812290,1225.752797
1326.020489,7179.997637,-6291.750507,1225.752797
1326.020819,7328.038826,-6661.853478,919.314598
1326.021149,7105.977043,-6069.688724,1302.362347
1326.021479,7105.977043,-6365.771101,919.314598
1326.021809,6439.791695,-6661.853478,1225.752797
1326.022138,7105.977043,-6513.812290,1149.143247
1326.022468,7105.977043,-6143.709319,995.924147
1326.022798,7105.977043,-6439.791695,919.314598
1326.023128,7328.038826,-6735.874072,1072.533697
1326.023457,7402.059420,-5699.585753,919.314598
1326.023787,7402.059420,-6143.709319,1225.752797
1326.024117,6957.935855,-6513.812290,995.924147
1326.024447,6661.853478,-6365.771101,536.266849
1326.024777,6883.915261,-6735.874072,995.924147
1326.025106,6809.894666,-6661.853478,1149.143247
1326.025436,7031.956449,-6587.832884,919.314598
1326.025766,7105.977043,-6513.812290,1302.362347
1326.026096,6661.853478,-6735.874072,1302.362347
1326.026425,7328.038826,-6883.915261,766.095498
1326.026755,7031.956449,-6661.853478,842.705048
1326.027085,6735.874072,-7031.956449,995.924147
1326.027415,7179.997637,-6809.894666,919.314598
1326.027745,7550.100608,-6217.729913,1225.752797
1326.028074,7550.100608,-6587.832884,1072.533697
1326.028404,7105.977043,-6291.750507,919.314598
1326.028734,7105.977043,-6735.874072,995.924147
1326.029064,6883.915261,-6365.771101,612.876398
1326.029393,7105.977043,-6069.688724,1149.143247
1326.029723,6735.874072,-5921.647536,1149.143247
1326.030053,7179.997637,-6439.791695,919.314598
1326.030383,7179.997637,-5847.626942,919.314598
1326.030713,7402.059420,-6439.791695,1455.581446
1326.031042,7105.977043,-6069.688724,1072.533697
1326.031372,7105.977043,-6365.771101,1149.143247
1326.031702,6809.894666,-6809.894666,919.314598
1326.032032,6587.832884,-6883.915261,995.924147
1326.032362,6661.853478,-6513.812290,1302.362347
1326.032691,6587.832884,-6957.935855,842.705048
1326.033021,6661.853478,-7031.956449,919.314598
1326.033351,6661.853478,-6883.915261,1302.362347
1326.033681,6587.832884,-7179.997637,229.828649
1326.034010,6587.832884,-6661.853478,383.047749
1326.034340,6365.771101,-7105.977043,919.314598
1326.034670,7105.977043,-7031.956449,612.876398
1326.035000,7402.059420,-6513.812290,1455.581446
1326.035330,7254.018232,-5995.668130,1378.971896
1326.035659,7105.977043,-6735.874072,919.314598
1326.035989,7031.956449,-6587.832884,1149.143247
1326.036319,6809.894666,-6809.894666,689.485948
1326.036649,6883.915261,-6809.894666,995.924147
1326.036978,7402.059420,-5995.668130,1455.581446
1326.037308,7105.977043,-6439.791695,689.485948
1326.037638,6957.935855,-6291.750507,1302.362347
1326.037968,6957.935855,-6291.750507,1072.533697
1326.038298,7402.059420,-6513.812290,689.485948
1326.038627,7105.977043,-6217.729913,1225.752797
1326.038957,6661.853478,-6365.771101,536.266849
1326.039287,6735.874072,-6513.812290,919.314598
1326.039617,6883.915261,-6661.853478,1072.533697
1326.039947,7254.018232,-6883.915261,612.876398
1326.040276,7105.977043,-6661.853478,1072.533697
1326.040606,6735.874072,-6735.874072,1149.143247
1326.040936,6735.874072,-6735.874072,536.266849
1326.041266,6883.915261,-6957.935855,612.876398
1326.041595,7031.956449,-6735.874072,306.438199
1326.041925,7402.059420,-6809.894666,842.705048
1326.042255,7550.100608,-6587.832884,1378.971896
1326.042585,7179.997637,-6143.709319,1072.533697
1326.042915,7402.059420,-5921.647536,995.924147
1326.043244,7402.059420,-6735.874072,995.924147
1326.043574,6883.915261,-6661.853478,842.705048
1326.043904,6957.935855,-6587.832884,919.314598
1326.044234,7476.080014,-6365.771101,1455.581446
1326.044563,7105.977043,-5847.626942,1762.019645
1326.044893,7328.038826,-6217.729913,1378.971896
1326.045223,7105.977043,-6365.771101,1225.752797
1326.045553,7179.997637,-6217.729913,919.314598
1326.045883,6735.874072,-6809.894666,1532.190996
1326.046212,6365.771101,-6439.791695,995.924147
1326.046542,6439.791695,-6513.812290,1072.533697
1326.046872,6809.894666,-7031.956449,842.705048
1326.047202,6809.894666,-6809.894666,1225.752797
1326.047531,7031.956449,-6809.894666,689.485948
1326.047861,6809.894666,-7031.956449,1302.362347
1326.048191,6587.832884,-7105.977043,842.705048
1326.048521,6661.853478,-7105.977043,842.705048
1326.048851,6735.874072,-6883.915261,689.485948
1326.049180,6883.915261,-7105.977043,1149.143247
1326.049510,7105.977043,-6587.832884,1302.362347
1326.049840,7105.977043,-6069.688724,842.705048
1326.050170,6957.935855,-6513.812290,842.705048
1326.050500,7105.977043,-6217.729913,995.924147
1326.050829,6957.935855,-6883.915261,919.314598
1326.051159,6883.915261,-6809.894666,842.705048
1326.051489,7105.977043,-6365.771101,1072.533697
1326.051819,7179.997637,-6143.709319,842.705048
1326.052148,7698.141797,-6735.874072,919.314598
1326.052478,7105.977043,-6661.853478,1225.752797
1326.052808,7105.977043,-6587.832884,1072.533697
1326.053138,7105.977043,-6217.729913,995.924147
1326.053468,6809.894666,-6365.771101,612.876398
1326.053797,7031.956449,-6513.812290,1149.143247
1326.054127,6735.874072,-6735.874072,1378.971896
1326.054457,6513.812290,-6217.729913,1225.752797
1326.054787,6735.874072,-6661.853478,919.314598
1326.055116,7105.977043,-6661.853478,1302.362347
1326.055446,6883.915261,-6439.791695,919.314598
1326.055776,6957.935855,-6883.915261,612.876398
1326.056106,6513.812290,-6439.791695,919.314598
1326.056436,7105.977043,-7031.956449,995.924147
1326.056765,7105.977043,-6883.915261,1072.533697
1326.057095,7254.018232,-6439.791695,842.705048
1326.057425,7402.059420,-6513.812290,689.485948
1326.057755,7179.997637,-6439.791695,1149.143247
1326.058084,6957.935855,-5847.626942,1608.800546
1326.058414,7105.977043,-6587.832884,842.705048
1326.058744,7105.977043,-5921.647536,1072.533697
1326.059074,7402.059420,-5921.647536,995.924147
1326.059404,7550.100608,-6217.729913,1149.143247
1326.059733,7328.038826,-6143.709319,1302.362347
1326.060063,7031.956449,-6069.688724,536.266849
1326.060393,7031.956449,-6439.791695,1225.752797
1326.060723,6735.874072,-6365.771101,689.485948
1326.061053,7105.977043,-6957.935855,689.485948
1326.061382,7031.956449,-6883.915261,1225.752797
1326.061712,7105.977043,-6439.791695,1302.362347
1326.062042,7328.038826,-5551.544565,995.924147
1326.062372,7328.038826,-5699.585753,1149.143247
1326.062701,8068.244768,-6217.729913,1225.752797
1326.063031,8142.265362,-6143.709319,1072.533697
1326.063361,7772.162391,-6513.812290,995.924147
1326.063691,6291.750507,-6883.915261,689.485948
1326.064021,5921.647536,-7994.224174,306.438199
1326.064350,6365.771101,-6439.791695,612.876398
1326.064680,7105.977043,-7105.977043,919.314598
1326.065010,8216.285956,-6291.750507,1608.800546
1326.065340,7994.224174,-6069.688724,1455.581446
1326.065669,7920.203579,-4219.173869,1532.190996
1326.065999,7994.224174,-4219.173869,1225.752797
1326.066329,8290.306550,-4515.256246,1378.971896
1326.066659,8512.368333,-4219.173869,1072.533697
1326.066989,8808.450710,-5033.400406,1302.362347
1326.067318,8808.450710,-4367.215058,1455.581446
1326.067648,8290.306550,-5033.400406,919.314598
1326.067978,7772.162391,-5329.482782,612.876398
1326.068308,7772.162391,-4737.318029,459.657299
1326.068638,8290.306550,-6439.791695,1149.143247
1326.068967,8512.368333,-5995.668130,1532.190996
1326.069297,8290.306550,-5625.565159,919.314598
1326.069627,7550.100608,-5699.585753,612.876398
1326.069957,7698.141797,-4589.276840,842.705048
1326.070286,7624.121203,-5699.585753,306.438199
1326.070616,8142.265362,-4737.318029,1149.143247
1326.070946,8734.430116,-4885.359217,1302.362347
1326.071276,9474.636058,-4219.173869,1532.190996
1326.071606,9696.697840,-2812.782580,1762.019645
1326.071935,9622.677246,-3478.967927,1685.410096
1326.072265,10436.903782,-2368.659014,1532.190996
1326.072595,10362.883188,-3034.844362,1685.410096
1326.072925,10362.883188,-3552.988522,1378.971896
1326.073254,9696.697840,-3034.844362,689.485948
1326.073584,9326.594869,-4293.194464,1455.581446
1326.073914,8956.491898,-4441.235652,689.485948
1326.074244,8438.347739,-5699.585753,1225.752797
1326.074574,8438.347739,-5477.523971,1072.533697
1326.074903,8512.368333,-5847.626942,766.095498
1326.075233,7698.141797,-5255.462188,1225.752797
1326.075563,8068.244768,-5181.441594,1072.533697
1326.075893,8290.306550,-5403.503377,1072.533697
1326.076222,8808.450710,-3849.070898,1532.190996
1326.076552,8734.430116,-4737.318029,612.876398
1326.076882,8734.430116,-4885.359217,842.705048
1326.077212,8956.491898,-4515.256246,1302.362347
1326.077542,8956.491898,-5033.400406,306.438199
1326.077871,8512.368333,-4959.379811,229.828649
1326.078201,8068.244768,-6217.729913,229.828649
1326.078531,8808.450710,-5107.421000,0.000000
1326.078861,9474.636058,-5181.441594,536.266849
1326.079191,9178.553681,-4589.276840,229.828649
1326.079520,9696.697840,-4737.318029,1149.143247
1326.079850,9474.636058,-4663.297435,1532.190996
1326.080180,9400.615463,-3404.947333,1608.800546
1326.080510,9104.533087,-4071.132681,1838.629195
1326.080839,9474.636058,-3701.029710,1991.848295
1326.081169,9474.636058,-3404.947333,1685.410096
1326.081499,9178.553681,-3478.967927,2221.676944
1326.081829,9326.594869,-2516.700203,1378.971896
1326.082159,9474.636058,-3478.967927,1225.752797
1326.082488,9252.574275,-2886.803174,919.314598
1326.082818,8956.491898,-3849.070898,306.438199
1326.083148,8660.409521,-4219.173869,153.219100
1326.083478,8882.471304,-4737.318029,-306.438199
1326.083807,9178.553681,-6143.709319,76.609550
1326.084137,9104.533087,-5995.668130,229.828649
1326.084467,8956.491898,-6661.853478,612.876398
1326.084797,8290.306550,-6809.894666,1149.143247
1326.085127,7846.182985,-6217.729913,1072.533697
1326.085456,7772.162391,-5699.585753,1608.800546
1326.085786,7920.203579,-5033.400406,1915.238745
1326.086116,8956.491898,-4145.153275,1915.238745
1326.086446,9252.574275,-2516.700203,1532.190996
1326.086776,9918.759623,-2072.576638,1378.971896
1326.087105,10510.924376,-1850.514855,919.314598
1326.087435,10584.944971,-1036.288319,229.828649
1326.087765,10436.903782,-1776.494261,0.000000
1326.088095,10955.047942,-1924.535449,0.000000
1326.088424,10362.883188,-2812.782580,0.000000
1326.088754,9770.718434,-5403.503377,383.047749
1326.089084,9178.553681,-7105.977043,919.314598
1326.089414,8142.265362,-7772.162391,842.705048
1326.089744,7254.018232,-8586.388927,919.314598
1326.090073,5995.668130,-8438.347739,1149.143247
1326.090403,5181.441594,-7920.203579,383.047749
1326.090733,5773.606348,-7105.977043,459.657299
1326.091063,6957.935855,-5107.421000,919.314598
1326.091392,8734.430116,-3182.885551,995.924147
1326.091722,9696.697840,-2368.659014,1762.019645
1326.092052,10066.800811,-1554.432478,1838.629195
1326.092382,10288.862594,-1776.494261,1532.190996
1326.092712,10436.903782,0.000000,842.705048
1326.093041,11621.233289,-1776.494261,383.047749
1326.093371,11769.274478,-2516.700203,995.924147
1326.093701,11843.295072,-3701.029710,1225.752797
1326.094031,10881.027347,-6143.709319,1455.581446
1326.094360,9400.615463,-6809.894666,1608.800546
1326.094690,6957.935855,-8808.450710,1225.752797
1326.095020,5181.441594,-8808.450710,536.266849
1326.095350,3775.050304,-8660.409521,153.219100
1326.095680,4071.132681,-8068.244768,0.000000
1326.096009,5551.544565,-7328.038826,-76.609550
1326.096339,6587.832884,-6735.874072,612.876398
1326.096669,7920.203579,-5921.647536,1225.752797
1326.096999,8586.388927,-4959.379811,1532.190996
1326.097329,9252.574275,-3404.947333,1378.971896
1326.097658,8586.388927,-2368.659014,612.876398
1326.097988,9622.677246,-2516.700203,919.314598
1326.098318,11103.089130,-1776.494261,1685.410096
1326.098648,12435.459826,-2146.597232,1762.019645
1326.098977,11843.295072,-3108.864956,3217.601092
1326.099307,10955.047942,-3923.091493,2681.334243
1326.099637,8808.450710,-6513.812290,1838.629195
1326.099967,6217.729913,-6957.935855,1302.362347
1326.100297,3923.091493,-8216.285956,383.047749
1326.100626,3034.844362,-9252.574275,0.000000
1326.100956,3256.906145,-8956.491898,-383.047749
1326.101286,3627.009116,-9030.512492,0.000000
1326.101616,5625.565159,-8586.388927,306.438199
1326.101945,6809.894666,-7402.059420,842.705048
1326.102275,7698.141797,-5403.503377,766.095498
1326.102605,7698.141797,-4367.215058,306.438199
1326.102935,9178.553681,-3923.091493,536.266849
1326.103265,9918.759623,-3923.091493,919.314598
1326.103594,10214.842000,-4219.173869,1455.581446
1326.103924,10288.862594,-4737.318029,1915.238745
1326.104254,10510.924376,-5181.441594,2451.505594
1326.104584,9104.533087,-6735.874072,2451.505594
1326.104914,6735.874072,-7920.203579,1532.190996
1326.105243,4737.318029,-8734.430116,229.828649
1326.105573,3627.009116,-9622.677246,229.828649
1326.105903,2442.679609,-9770.718434,-306.438199
1326.106233,2516.700203,-9474.636058,0.000000
1326.106562,4293.194464,-7846.182985,383.047749
1326.106892,5329.482782,-5847.626942,229.828649
1326.107222,7624.121203,-3923.091493,536.266849
1326.107552,8808.450710,-3478.967927,1225.752797
1326.107882,10066.800811,-3478.967927,1455.581446
1326.108211,10362.883188,-2960.823768,1455.581446
1326.108541,9992.780217,-4663.297435,2068.457845
1326.108871,9844.739029,-5107.421000,2145.067394
1326.109201,8734.430116,-6439.791695,2068.457845
1326.109530,7031.956449,-7476.080014,1915.238745
1326.109860,6365.771101,-9104.533087,766.095498
1326.110190,5477.523971,-9918.759623,1762.019645
1326.110520,4737.318029,-9178.553681,1225.752797
1326.110850,3849.070898,-7698.141797,306.438199
1326.111179,3997.112087,-6291.750507,76.609550
1326.111509,4737.318029,-6143.709319,459.657299
1326.111839,6217.729913,-4737.318029,612.876398
1326.112169,7550.100608,-3923.091493,1378.971896
1326.112498,8808.450710,-3997.112087,1915.238745
1326.112828,9178.553681,-3849.070898,2374.896044
1326.113158,9252.574275,-5477.523971,2221.676944
1326.113488,8512.368333,-6587.832884,1455.581446
1326.113818,7031.956449,-8364.327145,1378.971896
1326.114147,5551.544565,-10214.842000,383.047749
1326.114477,4515.256246,-10732.986159,919.314598
1326.114806,4441.235652,-11695.253884,1991.848295
1326.115135,5033.400406,-9696.697840,1455.581446
1326.115465,5477.523971,-7550.100608,842.705048
1326.115794,5033.400406,-5477.523971,-229.828649
1326.116123,5921.647536,-4071.132681,-153.219100
1326.116452,7105.977043,-4515.256246,919.314598
1326.116782,7920.203579,-3849.070898,689.485948
1326.117111,8068.244768,-4515.256246,1225.752797
1326.117440,7994.224174,-3701.029710,1532.190996
1326.117769,9030.512492,-4737.318029,1072.533697
1326.118099,9104.533087,-6809.894666,2298.286494
1326.118428,8882.471304,-6069.688724,1838.629195
1326.118757,8734.430116,-7476.080014,1915.238745
1326.119087,7624.121203,-7772.162391,1838.629195
1326.119416,6735.874072,-7624.121203,995.924147
1326.119745,6217.729913,-7031.956449,153.219100
1326.120074,5921.647536,-6513.812290,153.219100
1326.120404,6069.688724,-6069.688724,0.000000
1326.120733,6735.874072,-4959.379811,536.266849
1326.121062,7402.059420,-4811.338623,766.095498
1326.121392,7846.182985,-4811.338623,1225.752797
1326.121721,7328.038826,-5773.606348,1762.019645
1326.122050,7105.977043,-6439.791695,766.095498
1326.122379,6439.791695,-6883.915261,536.266849
1326.122709,6217.729913,-8290.306550,536.266849
1326.123038,6513.812290,-8734.430116,919.314598
1326.123367,6809.894666,-8956.491898,1762.019645
1326.123697,7476.080014,-9252.574275,1685.410096
1326.124026,7624.121203,-6957.935855,689.485948
1326.124355,6957.935855,-6587.832884,383.047749
1326.124684,6957.935855,-5625.565159,0.000000
1326.125014,6809.894666,-5033.400406,306.438199
1326.125343,6587.832884,-4959.379811,689.485948
1326.125672,6957.935855,-4885.359217,995.924147
1326.126001,7550.100608,-4663.297435,1225.752797
1326.126331,7846.182985,-5847.626942,1378.971896
1326.126660,7476.080014,-6513.812290,1072.533697
1326.126989,7105.977043,-7476.080014,1378.971896
1326.127319,6957.935855,-7698.141797,1225.752797
1326.127648,6883.915261,-7254.018232,1225.752797
1326.127977,6735.874072,-7179.997637,1378.971896
1326.128306,7105.977043,-7476.080014,1225.752797
1326.128636,7179.997637,-6809.894666,689.485948
1326.128965,7328.038826,-6513.812290,766.095498
1326.129294,7254.018232,-6291.750507,1915.238745
1326.129624,7624.121203,-5477.523971,1991.848295
1326.129953,7846.182985,-4885.359217,1991.848295
1326.130282,7328.038826,-4959.379811,1685.410096
1326.130611,6291.750507,-5847.626942,1072.533697
1326.130941,5921.647536,-6143.709319,229.828649
1326.131270,5329.482782,-7846.182985,383.047749
1326.131599,5033.400406,-8882.471304,612.876398
1326.131929,5403.503377,-8364.327145,1302.362347
1326.132258,6143.709319,-7179.997637,1532.190996
1326.132587,7105.977043,-6735.874072,995.924147
1326.132916,7402.059420,-5995.668130,1302.362347
1326.133246,7920.203579,-5773.606348,919.314598
1326.133575,7476.080014,-5921.647536,1302.362347
1326.133904,7105.977043,-5403.503377,1149.143247
1326.134233,6735.874072,-6069.688724,1072.533697
1326.134563,6809.894666,-6587.832884,1149.143247
1326.134892,6735.874072,-7624.121203,1685.410096
1326.135221,6587.832884,-7846.182985,1302.362347
1326.135551,5847.626942,-7846.182985,1608.800546
1326.135880,5255.462188,-8068.244768,76.609550
1326.136209,5699.585753,-7846.182985,76.609550
1326.136538,6069.688724,-7031.956449,536.266849
1326.136868,7105.977043,-6883.915261,383.047749
1326.137197,7994.224174,-5551.544565,383.047749
1326.137526,8586.388927,-4737.318029,1225.752797
1326.137856,9178.553681,-4885.359217,1455.581446
1326.138185,9252.574275,-5625.565159,2298.286494
1326.138514,9104.533087,-5847.626942,1838.629195
1326.138843,7550.100608,-6587.832884,1302.362347
1326.139173,6439.791695,-6291.750507,536.266849
1326.139502,5699.585753,-6809.894666,383.047749
1326.139831,5773.606348,-8438.347739,689.485948
1326.140161,5773.606348,-8882.471304,1378.971896
1326.140490,6587.832884,-8142.265362,1072.533697
1326.140819,6587.832884,-6291.750507,919.314598
1326.141148,6809.894666,-5625.565159,536.266849
1326.141478,7254.018232,-5107.421000,1225.752797
1326.141807,7772.162391,-4515.256246,766.095498
1326.142136,8216.285956,-4959.379811,1072.533697
1326.142465,7698.141797,-4293.194464,842.705048
1326.142795,7698.141797,-4811.338623,1072.533697
1326.143124,8290.306550,-5403.503377,1915.238745
1326.143453,7846.182985,-7105.977043,1532.190996
1326.143783,6957.935855,-7105.977043,1149.143247
1326.144112,6291.750507,-7624.121203,689.485948
1326.144441,5625.565159,-8734.430116,536.266849
1326.144770,5699.585753,-8438.347739,1378.971896
1326.145100,5773.606348,-7994.224174,306.438199
1326.145429,6217.729913,-6513.812290,76.609550
1326.145758,7105.977043,-5847.626942,306.438199
1326.146088,7846.182985,-5625.565159,229.828649
1326.146417,8142.265362,-4885.359217,1225.752797
1326.146746,8142.265362,-4515.256246,1455.581446
1326.147075,8142.265362,-4663.297435,1149.143247
1326.147405,7476.080014,-5329.482782,1838.629195
1326.147734,7105.977043,-6513.812290,1225.752797
1326.148063,5847.626942,-7254.018232,153.219100
1326.148393,5255.462188,-8438.347739,459.657299
1326.148722,5625.565159,-9548.656652,1455.581446
1326.149051,6883.915261,-9622.677246,1915.238745
1326.149380,6957.935855,-8142.265362,1762.019645
1326.149710,6587.832884,-6513.812290,229.828649
1326.150039,6661.853478,-6217.729913,229.828649
1326.150368,7179.997637,-5477.523971,1072.533697
1326.150697,7698.141797,-5033.400406,1302.362347
1326.151027,7624.121203,-4737.318029,1072.533697
1326.151356,7179.997637,-5699.585753,1608.800546
1326.151685,7105.977043,-6957.935855,1378.971896
1326.152015,6735.874072,-6809.894666,689.485948
1326.152344,5773.606348,-7105.977043,612.876398
1326.152673,6365.771101,-7550.100608,689.485948
1326.153002,6661.853478,-8438.347739,919.314598
1326.153332,6365.771101,-8438.347739,1149.143247
1326.153661,6291.750507,-7698.141797,766.095498
1326.153990,6661.853478,-6291.750507,842.705048
1326.154320,7105.977043,-5773.606348,919.314598
1326.154649,7772.162391,-5033.400406,1685.410096
1326.154978,8586.388927,-4589.276840,2374.896044
1326.155307,9030.512492,-4145.153275,1915.238745
1326.155637,8216.285956,-4515.256246,1762.019645
1326.155966,6587.832884,-5625.565159,1455.581446
1326.156295,5773.606348,-6735.874072,842.705048
1326.156625,5403.503377,-7105.977043,76.609550
1326.156954,4811.338623,-8808.450710,612.876398
1326.157283,5329.482782,-9104.533087,995.924147
1326.157612,6365.771101,-8142.265362,1608.800546
1326.157942,7624.121203,-7846.182985,1532.190996
1326.158271,7105.977043,-6365.771101,612.876398
1326.158600,6809.894666,-6217.729913,229.828649
1326.158929,7031.956449,-6365.771101,306.438199
1326.159259,7550.100608,-5625.565159,1072.533697
1326.159588,8290.306550,-5551.544565,1838.629195
1326.159917,7698.141797,-5107.421000,1072.533697
1326.160247,7179.997637,-6513.812290,1149.143247
1326.160576,6661.853478,-7179.997637,1149.143247
1326.160905,6513.812290,-7402.059420,766.095498
1326.161234,6513.812290,-7328.038826,536.266849
1326.161564,6735.874072,-7920.203579,689.485948
1326.161893,7105.977043,-7698.141797,1762.019645
1326.162222,7328.038826,-6143.709319,1225.752797
1326.162552,7476.080014,-4959.379811,153.219100
1326.162881,7179.997637,-5477.523971,383.047749
1326.163210,7402.059420,-4959.379811,1072.533697
1326.163539,7920.203579,-5477.523971,1608.800546
1326.163869,8364.327145,-4885.359217,2068.457845
1326.164198,7698.141797,-4959.379811,2068.457845
1326.164527,7105.977043,-6439.791695,1378.971896
1326.164857,6365.771101,-7179.997637,1532.190996
1326.165186,5995.668130,-7920.203579,612.876398
1326.165515,5477.523971,-8068.244768,229.828649
1326.165844,4811.338623,-8660.409521,842.705048
1326.166174,6143.709319,-8660.409521,1225.752797
1326.166503,7179.997637,-7105.977043,1378.971896
1326.166832,7698.141797,-5181.441594,1302.362347
1326.167161,7920.203579,-4515.256246,536.266849
1326.167491,7624.121203,-5107.421000,1072.533697
1326.167820,7402.059420,-4663.297435,842.705048
1326.168149,7328.038826,-5181.441594,919.314598
1326.168479,7179.997637,-5033.400406,689.485948
1326.168808,7698.141797,-6513.812290,842.705048
1326.169137,6957.935855,-7698.141797,536.266849
1326.169466,7105.977043,-7624.121203,995.924147
1326.169796,6809.894666,-8438.347739,1072.533697
1326.170125,6439.791695,-8068.244768,536.266849
1326.170454,6069.688724,-7994.224174,766.095498
1326.170784,6291.750507,-7179.997637,459.657299
1326.171113,6809.894666,-6587.832884,766.095498
1326.171442,6957.935855,-6217.729913,1225.752797
1326.171771,7402.059420,-5181.441594,1302.362347
1326.172101,7772.162391,-4145.153275,1302.362347
1326.172430,7994.224174,-4589.276840,1838.629195
1326.172759,7624.121203,-5329.482782,1225.752797
1326.173089,7254.018232,-6513.812290,1302.362347
1326.173418,7105.977043,-8068.244768,842.705048
1326.173747,5773.606348,-7920.203579,459.657299
1326.174076,5329.482782,-8438.347739,306.438199
1326.174406,5921.647536,-9474.636058,995.924147
1326.174735,6735.874072,-8808.450710,1762.019645
1326.175064,7031.956449,-7254.018232,919.314598
1326.175393,7179.997637,-6587.832884,919.314598
1326.175723,7550.100608,-5625.565159,689.485948
1326.176052,7179.997637,-5033.400406,1455.581446
1326.176381,6957.935855,-4145.153275,1685.410096
1326.176711,7105.977043,-5033.400406,1608.800546
1326.177040,7550.100608,-4737.318029,1455.581446
1326.177369,7328.038826,-5403.503377,1072.533697
1326.177698,7031.956449,-6587.832884,1302.362347
1326.178028,6735.874072,-7105.977043,919.314598
1326.178357,6661.853478,-8364.327145,306.438199
1326.178686,5995.668130,-8438.347739,1532.190996
1326.179016,6143.709319,-8364.327145,919.314598
1326.179345,6587.832884,-7254.018232,689.485948
1326.179674,6513.812290,-5921.647536,919.314598
1326.180003,7328.038826,-5773.606348,459.657299
1326.180333,7402.059420,-5329.482782,1455.581446
1326.180662,7698.141797,-5551.544565,1685.410096
1326.180991,7624.121203,-4959.379811,842.705048
1326.181321,7105.977043,-4885.359217,1455.581446
1326.181650,6735.874072,-6513.812290,1225.752797
1326.181979,6883.915261,-6883.915261,919.314598
1326.182308,5847.626942,-7624.121203,1302.362347
1326.182638,6587.832884,-8438.347739,1225.752797
1326.182967,6439.791695,-8142.265362,1072.533697
1326.183296,6661.853478,-7846.182985,995.924147
1326.183625,7105.977043,-6883.915261,383.047749
1326.183955,7920.203579,-5921.647536,459.657299
1326.184284,7846.182985,-5551.544565,1378.971896
1326.184613,7920.203579,-5403.503377,1378.971896
1326.184943,7920.203579,-4737.318029,1455.581446
1326.185272,7105.977043,-4737.318029,842.705048
1326.185601,7254.018232,-5625.565159,1455.581446
1326.185930,7031.956449,-5625.565159,1608.800546
1326.186260,7179.997637,-6735.874072,1378.971896
1326.186589,6735.874072,-7105.977043,995.924147
1326.186918,6735.874072,-7105.977043,1455.581446
1326.187248,6439.791695,-8068.244768,919.314598
1326.187577,5847.626942,-8068.244768,689.485948
1326.187906,5847.626942,-7254.018232,-76.609550
1326.188235,7031.956449,-7105.977043,153.219100
1326.188565,7402.059420,-6439.791695,1149.143247
1326.188894,8438.347739,-5551.544565,1378.971896
1326.189223,8290.306550,-5255.462188,1532.190996
1326.189553,7920.203579,-4737.318029,995.924147
1326.189882,7179.997637,-6217.729913,612.876398
1326.190211,6735.874072,-6291.750507,1072.533697
1326.190540,6439.791695,-6809.894666,459.657299
1326.190870,6365.771101,-7772.162391,995.924147
1326.191199,6217.729913,-8512.368333,1608.800546
1326.191528,6365.771101,-8364.327145,1608.800546
1326.191857,6883.915261,-6883.915261,1225.752797
1326.192187,6365.771101,-6883.915261,919.314598
1326.192516,6957.935855,-5921.647536,612.876398
1326.192845,7328.038826,-5477.523971,383.047749
1326.193175,7031.956449,-5477.523971,919.314598
1326.193504,7105.977043,-5921.647536,1149.143247
1326.193833,6883.915261,-6439.791695,1225.752797
1326.194162,6809.894666,-6291.750507,1225.752797
1326.194492,6513.812290,-6883.915261,842.705048
1326.194821,6587.832884,-6883.915261,1072.533697
1326.195150,6513.812290,-7476.080014,1149.143247
1326.195480,6513.812290,-7994.224174,1149.143247
1326.195809,6661.853478,-7105.977043,1378.971896
1326.196138,7254.018232,-6587.832884,689.485948
1326.196467,7550.100608,-6513.812290,919.314598
1326.196797,8068.244768,-6365.771101,1378.971896
1326.197126,8068.244768,-5699.585753,1532.190996
1326.197455,7772.162391,-5181.441594,1225.752797
1326.197785,7698.141797,-4737.318029,1072.533697
1326.198114,7328.038826,-5773.606348,842.705048
1326.198443,7031.956449,-6587.832884,1149.143247
1326.198772,5921.647536,-7772.162391,1149.143247
1326.199102,5033.400406,-7179.997637,0.000000
1326.199431,4959.379811,-7772.162391,229.828649
1326.199760,5181.441594,-9104.533087,995.924147
1326.200089,6217.729913,-8438.347739,1302.362347
1326.200419,7031.956449,-6883.915261,689.485948
1326.200748,7105.977043,-5699.585753,612.876398
1326.201077,7920.203579,-5329.482782,842.705048
1326.201407,8586.388927,-4959.379811,1225.752797
1326.201736,8216.285956,-4959.379811,1455.581446
1326.202065,7624.121203,-4441.235652,1915.238745
1326.202394,7402.059420,-4811.338623,1072.533697
1326.202724,6809.894666,-6587.832884,842.705048
1326.203053,6365.771101,-7031.956449,1072.533697
1326.203382,5995.668130,-7402.059420,1532.190996
1326.203712,6291.750507,-7476.080014,229.828649
1326.204041,6217.729913,-7994.224174,1302.362347
1326.204370,6365.771101,-8068.244768,919.314598
1326.204699,6217.729913,-7550.100608,689.485948
1326.205029,6661.853478,-5699.585753,459.657299
1326.205358,7476.080014,-6069.688724,842.705048
1326.205687,8068.244768,-5403.503377,1915.238745
1326.206017,8364.327145,-5551.544565,2374.896044
1326.206346,8586.388927,-4663.297435,1685.410096
1326.206675,8438.347739,-4811.338623,1378.971896
1326.207004,7254.018232,-6217.729913,1455.581446
1326.207334,6809.894666,-7105.977043,995.924147
1326.207663,5551.544565,-7550.100608,689.485948
1326.207992,4959.379811,-7920.203579,919.314598
1326.208321,5329.482782,-8808.450710,1302.362347
1326.208651,6439.791695,-8216.285956,1838.629195
1326.208980,7105.977043,-7624.121203,1455.581446
1326.209309,7105.977043,-6365.771101,1149.143247
1326.209639,7254.018232,-4737.318029,306.438199
1326.209968,7179.997637,-5699.585753,459.657299
1326.210297,7254.018232,-5773.606348,1072.533697
1326.210626,7624.121203,-5625.565159,1532.190996
1326.210956,7846.182985,-5773.606348,1532.190996
1326.211285,7402.059420,-5403.503377,1532.190996
1326.211614,7846.182985,-5773.606348,1685.410096
1326.211944,7624.121203,-7105.977043,1455.581446
1326.212273,6957.935855,-7402.059420,995.924147
1326.212602,7031.956449,-7698.141797,306.438199
1326.212931,6069.688724,-7328.038826,0.000000
1326.213255,5847.626942,-7550.100608,536.266849
1326.213584,6661.853478,-7105.977043,842.705048
1326.213913,7328.038826,-5699.585753,766.095498
1326.214242,7624.121203,-5107.421000,1608.800546
1326.214571,7920.203579,-5255.462188,1302.362347
1326.214901,8142.265362,-5477.523971,1762.019645
1326.215230,7550.100608,-5773.606348,1532.190996
1326.215559,6587.832884,-5847.626942,612.876398
1326.215888,5625.565159,-7328.038826,842.705048
1326.216217,5403.503377,-8068.244768,536.266849
1326.216546,5625.565159,-8586.388927,536.266849
1326.216875,5699.585753,-8586.388927,919.314598
1326.217205,6365.771101,-8882.471304,1685.410096
1326.217534,6735.874072,-7772.162391,459.657299
1326.217863,6809.894666,-6735.874072,383.047749
1326.218192,6735.874072,-6365.771101,229.828649
1326.218521,7105.977043,-5921.647536,306.438199
1326.218850,7328.038826,-4959.379811,1149.143247
1326.219179,8142.265362,-5699.585753,1762.019645
1326.219508,8512.368333,-4589.276840,2145.067394
1326.219838,8364.327145,-4959.379811,1685.410096
1326.220167,7772.162391,-5477.523971,1915.238745
1326.220496,6957.935855,-6069.688724,1455.581446
1326.220825,6883.915261,-7105.977043,1149.143247
1326.221154,6143.709319,-7624.121203,766.095498
1326.221483,5551.544565,-7994.224174,995.924147
1326.221812,5995.668130,-7105.977043,383.047749
1326.222142,6661.853478,-6883.915261,842.705048
1326.222471,7772.162391,-6217.729913,1532.190996
1326.222800,8068.244768,-5699.585753,1149.143247
1326.223129,7920.203579,-5329.482782,1762.019645
1326.223458,7179.997637,-6143.709319,1072.533697
1326.223787,6513.812290,-6513.812290,919.314598
1326.224116,6291.750507,-6735.874072,689.485948
1326.224445,5699.585753,-7846.182985,919.314598
1326.224775,5995.668130,-7328.038826,842.705048
1326.225104,6143.709319,-8142.265362,1608.800546
1326.225433,6883.915261,-8438.347739,1455.581446
1326.225762,7105.977043,-7328.038826,1378.971896
1326.226091,7031.956449,-6143.709319,383.047749
1326.226420,6661.853478,-5847.626942,0.000000
1326.226749,7254.018232,-5699.585753,459.657299
1326.227079,7920.203579,-5181.441594,536.266849
1326.227408,7920.203579,-5625.565159,1455.581446
1326.227737,7920.203579,-5625.565159,1532.190996
1326.228066,7698.141797,-5551.544565,1302.362347
1326.228395,7254.018232,-5699.585753,1072.533697
1326.228724,6365.771101,-6439.791695,919.314598
1326.229053,6291.750507,-6883.915261,536.266849
1326.229382,6883.915261,-7179.997637,1302.362347
1326.229712,6883.915261,-7105.977043,1838.629195
1326.230041,6809.894666,-6957.935855,1455.581446
1326.230370,6957.935855,-6291.750507,1149.143247
1326.230699,7105.977043,-5699.585753,1149.143247
1326.231028,7550.100608,-6513.812290,0.000000
1326.231357,7402.059420,-5255.462188,1149.143247
1326.231686,7402.059420,-5699.585753,919.314598
1326.232016,7550.100608,-5995.668130,1225.752797
1326.232345,7179.997637,-5625.565159,1225.752797
1326.232674,6661.853478,-7031.956449,689.485948
1326.233003,6217.729913,-7254.018232,612.876398
1326.233332,5625.565159,-8364.327145,536.266849
1326.233661,5255.462188,-8068.244768,536.266849
1326.233990,5477.523971,-8364.327145,612.876398
1326.234319,6735.874072,-7550.100608,995.924147
1326.234649,6883.915261,-6957.935855,1072.533697
1326.234978,7624.121203,-5847.626942,1072.533697
1326.235307,8142.265362,-4515.256246,919.314598
1326.235636,7920.203579,-4885.359217,1072.533697
1326.235965,7550.100608,-4959.379811,842.705048
1326.236294,7402.059420,-5107.421000,919.314598
1326.236623,7179.997637,-5699.585753,995.924147
1326.236953,6883.915261,-6661.853478,1532.190996
1326.237282,6809.894666,-6735.874072,995.924147
1326.237611,6735.874072,-7105.977043,1072.533697
1326.237940,7105.977043,-8142.265362,1608.800546
1326.238269,6957.935855,-8660.409521,1532.190996
1326.238598,6217.729913,-7402.059420,919.314598
1326.238927,5921.647536,-6957.935855,306.438199
1326.239256,6735.874072,-5995.668130,383.047749
1326.239586,7476.080014,-5477.523971,1532.190996
1326.239915,8290.306550,-5255.462188,1762.019645
1326.240244,8068.244768,-5033.400406,1532.190996
1326.240573,7550.100608,-4959.379811,1685.410096
1326.240902,7105.977043,-5921.647536,1149.143247
1326.241231,6735.874072,-7105.977043,1762.019645
1326.241560,5921.647536,-7105.977043,919.314598
1326.241890,4959.379811,-8068.244768,306.438199
1326.242219,5181.441594,-8438.347739,229.828649
1326.242548,5995.668130,-8364.327145,1378.971896
1326.242877,6883.915261,-7476.080014,2068.457845
1326.243206,7772.162391,-6883.915261,1455.581446
1326.243535,7328.038826,-5847.626942,919.314598
1326.243864,7328.038826,-5033.400406,1149.143247
1326.244193,7624.121203,-5107.421000,1302.362347
1326.244523,7402.059420,-5033.400406,1608.800546
1326.244852,6809.894666,-5107.421000,1302.362347
1326.245181,6735.874072,-5551.544565,1378.971896
1326.245510,6661.853478,-6513.812290,766.095498
1326.245839,6143.709319,-7846.182985,153.219100
1326.246168,5699.585753,-8438.347739,689.485948
1326.246497,6217.729913,-8734.430116,995.924147
1326.246827,6661.853478,-8364.327145,1149.143247
1326.247156,6883.915261,-7550.100608,1149.143247
1326.247485,7254.018232,-6735.874072,1072.533697
1326.247814,7476.080014,-5847.626942,536.266849
1326.248143,7550.100608,-5551.544565,612.876398
1326.248472,7772.162391,-5255.462188,1302.362347
1326.248801,8290.306550,-4367.215058,2068.457845
1326.249130,8068.244768,-5107.421000,1302.362347
1326.249460,7105.977043,-5699.585753,1378.971896
1326.249789,6439.791695,-6735.874072,1378.971896
1326.250118,6069.688724,-7254.018232,842.705048
1326.250447,5551.544565,-7254.018232,919.314598
1326.250776,5551.544565,-8142.265362,689.485948
1326.251105,5699.585753,-8512.368333,1072.533697
1326.251434,6513.812290,-7994.224174,1532.190996
1326.251763,6883.915261,-7105.977043,1072.533697
1326.252093,7476.080014,-5995.668130,229.828649
1326.252422,7624.121203,-4959.379811,919.314598
1326.252751,7846.182985,-4959.379811,766.095498
1326.253080,8216.285956,-5181.441594,1455.581446
1326.253409,7994.224174,-4737.318029,1915.238745
1326.253738,7994.224174,-5329.482782,1149.143247
1326.254067,7624.121203,-5329.482782,689.485948
1326.254397,6735.874072,-6735.874072,919.314598
1326.254726,6661.853478,-7402.059420,536.266849
1326.255055,6587.832884,-7994.224174,919.314598
1326.255384,6291.750507,-8290.306550,995.924147
1326.255713,6069.688724,-7846.182985,689.485948
1326.256042,6143.709319,-6957.935855,536.266849
1326.256371,6957.935855,-6439.791695,383.047749
1326.256700,7105.977043,-5403.503377,689.485948
1326.257030,7772.162391,-6143.709319,1225.752797
1326.257359,7846.182985,-5329.482782,1225.752797
1326.257688,7476.080014,-5477.523971,1302.362347
1326.258017,7772.162391,-5995.668130,995.924147
1326.258346,6809.894666,-7179.997637,1378.971896
1326.258675,6365.771101,-7698.141797,1302.362347
1326.259004,5699.585753,-7846.182985,536.266849
1326.259334,5329.482782,-8882.471304,612.876398
1326.259663,5477.523971,-8956.491898,1378.971896
1326.259992,5551.544565,-8364.327145,1225.752797
1326.260321,6439.791695,-7179.997637,536.266849
1326.260650,6661.853478,-6069.688724,459.657299
1326.260979,6809.894666,-5255.462188,383.047749
1326.261308,7031.956449,-5329.482782,919.314598
1326.261637,7698.141797,-4959.379811,1378.971896
1326.261967,8142.265362,-5699.585753,1455.581446
1326.262296,7994.224174,-5107.421000,1455.581446
1326.262625,7105.977043,-5477.523971,1225.752797
1326.262954,7179.997637,-6957.935855,1455.581446
1326.263283,7328.038826,-7031.956449,1455.581446
1326.263612,7179.997637,-7624.121203,1225.752797
1326.263941,7031.956449,-6957.935855,1455.581446
1326.264271,6957.935855,-6439.791695,1225.752797
1326.264600,7254.018232,-6143.709319,459.657299
1326.264929,7402.059420,-6069.688724,766.095498
1326.265258,7328.038826,-5625.565159,995.924147
1326.265587,7476.080014,-5181.441594,1455.581446
1326.265916,7476.080014,-6143.709319,1608.800546
1326.266245,7105.977043,-5847.626942,1685.410096
1326.266574,6883.915261,-6365.771101,1149.143247
1326.266904,5921.647536,-6809.894666,689.485948
1326.267233,5625.565159,-6883.915261,0.000000
1326.267562,5551.544565,-8438.347739,536.266849
1326.267891,6069.688724,-8808.450710,229.828649
1326.268220,6217.729913,-8734.430116,1225.752797
1326.268549,6957.935855,-7772.162391,919.314598
1326.268878,6957.935855,-5847.626942,689.485948
1326.269208,7550.100608,-5329.482782,306.438199
1326.269537,8068.244768,-5847.626942,1378.971896
1326.269866,8290.306550,-5403.503377,1532.190996
1326.270195,8438.347739,-5181.441594,919.314598
1326.270524,7624.121203,-4737.318029,1225.752797
1326.270853,7624.121203,-5033.400406,1149.143247
1326.271182,7105.977043,-6143.709319,919.314598
1326.271511,6217.729913,-7031.956449,919.314598
1326.271841,6439.791695,-7550.100608,1149.143247
1326.272170,7105.977043,-7254.018232,1225.752797
1326.272499,7179.997637,-7476.080014,1225.752797
1326.272828,7105.977043,-7402.059420,1072.533697
1326.273157,7105.977043,-6513.812290,1302.362347
1326.273486,7031.956449,-6735.874072,842.705048
1326.273815,7031.956449,-6513.812290,1072.533697
1326.274145,7105.977043,-6217.729913,1302.362347
1326.274474,7179.997637,-5995.668130,995.924147
1326.274803,7328.038826,-6291.750507,612.876398
1326.275132,6365.771101,-6883.915261,1302.362347
1326.275461,6291.750507,-6957.935855,1072.533697
1326.275790,6143.709319,-7698.141797,919.314598
1326.276119,5995.668130,-7254.018232,1455.581446
1326.276448,6217.729913,-8068.244768,689.485948
1326.276778,6069.688724,-8660.409521,689.485948
1326.277107,6291.750507,-7698.141797,919.314598
1326.277436,7254.018232,-7254.018232,536.266849
1326.277765,8068.244768,-5921.647536,1378.971896
1326.278094,7772.162391,-5255.462188,1225.752797
1326.278423,7846.182985,-5403.503377,1149.143247
1326.278752,7698.141797,-5329.482782,1532.190996
1326.279082,7254.018232,-5403.503377,1838.629195
1326.279411,7698.141797,-5033.400406,1378.971896
1326.279740,6513.812290,-5847.626942,842.705048
1326.280069,5995.668130,-6439.791695,842.705048
1326.280398,6513.812290,-7254.018232,919.314598
1326.280727,7254.018232,-7476.080014,1991.848295
1326.281056,7254.018232,-6883.915261,1455.581446
1326.281385,7476.080014,-6439.791695,1225.752797
1326.281715,7179.997637,-5921.647536,995.924147
1326.282044,7179.997637,-6439.791695,536.266849
1326.282373,6735.874072,-5625.565159,995.924147
1326.282702,7550.100608,-5477.523971,1149.143247
1326.283031,8364.327145,-5921.647536,1608.800546
1326.283360,7846.182985,-5699.585753,1685.410096
1326.283689,7402.059420,-6439.791695,1302.362347
1326.284019,5847.626942,-6957.935855,459.657299
1326.284348,4737.318029,-7920.203579,0.000000
1326.284677,4589.276840,-8882.471304,0.000000
1326.285006,4959.379811,-9252.574275,536.266849
1326.285335,5625.565159,-8364.327145,1072.533697
1326.285664,5995.668130,-7772.162391,766.095498
1326.285993,7105.977043,-6587.832884,919.314598
1326.286322,7920.203579,-4959.379811,536.266849
1326.286652,8364.327145,-5107.421000,1455.581446
1326.286981,8660.409521,-4589.276840,842.705048
1326.287310,7994.224174,-5625.565159,1532.190996
1326.287639,7920.203579,-5329.482782,1378.971896
1326.287968,7328.038826,-5625.565159,1838.629195
1326.288297,7179.997637,-5773.606348,1225.752797
1326.288626,6735.874072,-6957.935855,919.314598
1326.288956,6513.812290,-6957.935855,1532.190996
1326.289285,6143.709319,-7698.141797,995.924147
1326.289614,5551.544565,-7105.977043,919.314598
1326.289943,6291.750507,-6217.729913,842.705048
1326.290272,7105.977043,-6217.729913,536.266849
1326.290601,7772.162391,-5477.523971,1072.533697
1326.290930,8290.306550,-5403.503377,1762.019645
1326.291259,8660.409521,-5033.400406,2068.457845
1326.291589,8512.368333,-4811.338623,1608.800546
1326.291918,7624.121203,-5107.421000,459.657299
1326.292247,7105.977043,-6957.935855,919.314598
1326.292576,6809.894666,-7476.080014,689.485948
1326.292905,6291.750507,-8512.368333,229.828649
1326.293234,5625.565159,-8660.409521,689.485948
1326.293563,5995.668130,-8882.471304,995.924147
1326.293893,6291.750507,-7772.162391,1149.143247
1326.294222,6143.709319,-7105.977043,612.876398
1326.294551,6143.709319,-6069.688724,459.657299
1326.294880,6883.915261,-5551.544565,153.219100
1326.295209,6883.915261,-5847.626942,842.705048
1326.295538,7105.977043,-5921.647536,1072.533697
1326.295867,7402.059420,-5921.647536,919.314598
1326.296196,7179.997637,-5921.647536,1302.362347
1326.296526,7402.059420,-6143.709319,1072.533697
1326.296855,7328.038826,-6735.874072,1225.752797
1326.297184,7105.977043,-6883.915261,1762.019645
1326.297513,7254.018232,-7698.141797,612.876398
1326.297842,6587.832884,-7624.121203,1149.143247
1326.298171,6513.812290,-6809.894666,842.705048
1326.298500,6883.915261,-6883.915261,612.876398
1326.298830,7476.080014,-5625.565159,612.876398
1326.299159,7476.080014,-5107.421000,689.485948
1326.299488,7994.224174,-5033.400406,919.314598
1326.299817,8290.306550,-4811.338623,1455.581446
1326.300146,8068.244768,-5329.482782,1455.581446
1326.300475,7698.141797,-5921.647536,1762.019645
1326.300804,6883.915261,-6143.709319,612.876398
1326.301133,5921.647536,-7550.100608,536.266849
1326.301463,5699.585753,-8586.388927,766.095498
1326.301792,5699.585753,-9104.533087,919.314598
1326.302121,5847.626942,-9474.636058,1302.362347
1326.302450,6217.729913,-8364.327145,1072.533697
1326.302779,6365.771101,-7328.038826,1149.143247
1326.303108,6809.894666,-6439.791695,536.266849
1326.303437,7179.997637,-5995.668130,1072.533697
1326.303767,7179.997637,-4959.379811,612.876398
1326.304096,7328.038826,-4959.379811,842.705048
1326.304425,7105.977043,-5255.462188,1378.971896
1326.304754,7624.121203,-5995.668130,1149.143247
1326.305083,7328.038826,-6587.832884,1072.533697
1326.305412,6809.894666,-6883.915261,1072.533697
1326.305741,6883.915261,-7328.038826,689.485948
1326.306070,6735.874072,-7772.162391,1378.971896
1326.306400,6439.791695,-8142.265362,1838.629195
1326.306729,6883.915261,-7254.018232,995.924147
1326.307058,6883.915261,-6291.750507,689.485948
1326.307387,7105.977043,-5773.606348,459.657299
1326.307716,7846.182985,-5107.421000,1685.410096
1326.308045,8364.327145,-4219.173869,2374.896044
1326.308374,8660.409521,-4367.215058,2145.067394
1326.308704,8364.327145,-4071.132681,1915.238745
1326.309033,7624.121203,-4737.318029,1455.581446
1326.309362,6513.812290,-5477.523971,1455.581446
1326.309691,6069.688724,-7031.956449,459.657299
1326.310020,5773.606348,-8142.265362,306.438199
1326.310349,6143.709319,-8956.491898,1225.752797
1326.310678,5921.647536,-9252.574275,1455.581446
1326.311007,5995.668130,-8142.265362,612.876398
1326.311337,5477.523971,-7698.141797,0.000000
1326.311666,5847.626942,-6587.832884,0.000000
1326.311995,6735.874072,-5995.668130,0.000000
1326.312324,7328.038826,-6365.771101,842.705048
1326.312653,8512.368333,-5181.441594,995.924147
1326.312982,8364.327145,-5403.503377,1532.190996
1326.313311,7994.224174,-5255.462188,1225.752797
1326.313641,7476.080014,-5477.523971,919.314598
1326.313970,6957.935855,-7105.977043,536.266849
1326.314299,6735.874072,-6883.915261,1302.362347
1326.314628,7179.997637,-7328.038826,919.314598
1326.314957,7254.018232,-7254.018232,1225.752797
1326.315286,7105.977043,-7105.977043,1532.190996
1326.315616,7105.977043,-6883.915261,153.219100
1326.315945,7179.997637,-6217.729913,919.314598
1326.316274,7179.997637,-5773.606348,919.314598
1326.316603,7772.162391,-5477.523971,1149.143247
1326.316932,7328.038826,-5625.565159,1532.190996
1326.317262,7698.141797,-5699.585753,1915.238745
1326.317591,7105.977043,-6217.729913,1302.362347
1326.317920,6587.832884,-6439.791695,1608.800546
1326.318249,6365.771101,-6883.915261,1149.143247
1326.318579,6439.791695,-7772.162391,383.047749
1326.318908,5847.626942,-8956.491898,995.924147
1326.319237,5699.585753,-9030.512492,842.705048
1326.319566,5921.647536,-7846.182985,536.266849
1326.319896,6735.874072,-5847.626942,766.095498
1326.320225,7105.977043,-5773.606348,612.876398
1326.320554,7328.038826,-5995.668130,766.095498
1326.320883,7476.080014,-5773.606348,995.924147
1326.321213,7105.977043,-6439.791695,995.924147
1326.321542,7254.018232,-5847.626942,842.705048
1326.321871,6809.894666,-6291.750507,1149.143247
1326.322200,6735.874072,-6883.915261,1149.143247
1326.322530,6513.812290,-6883.915261,919.314598
1326.322859,6661.853478,-7179.997637,842.705048
1326.323188,7846.182985,-7550.100608,1149.143247
1326.323517,7624.121203,-6661.853478,1762.019645
1326.323847,6809.894666,-6291.750507,1455.581446
1326.324176,6957.935855,-5921.647536,919.314598
1326.324505,7031.956449,-5255.462188,919.314598
1326.324834,7476.080014,-5033.400406,1455.581446
1326.325164,7846.182985,-4885.359217,1838.629195
1326.325493,7328.038826,-5329.482782,1915.238745
1326.325822,7105.977043,-5995.668130,1149.143247
1326.326151,6143.709319,-6217.729913,1149.143247
1326.326481,5403.503377,-7624.121203,842.705048
1326.326810,5403.503377,-8438.347739,459.657299
1326.327139,5847.626942,-8364.327145,842.705048
1326.327468,6513.812290,-8660.409521,1532.190996
1326.327798,6735.874072,-7772.162391,1378.971896
1326.328127,7105.977043,-7254.018232,1149.143247
1326.328456,7105.977043,-6069.688724,153.219100
1326.328785,6957.935855,-5847.626942,76.609550
1326.329114,6957.935855,-4885.359217,842.705048
1326.329444,6957.935855,-6735.874072,1072.533697
1326.329773,6587.832884,-6883.915261,1149.143247
1326.330102,6883.915261,-6143.709319,1378.971896
1326.330431,6513.812290,-6587.832884,995.924147
1326.330761,6809.894666,-5107.421000,536.266849
1326.331090,6513.812290,-6365.771101,1149.143247
1326.331419,7105.977043,-7476.080014,995.924147
1326.331748,7105.977043,-7402.059420,1685.410096
1326.332078,7624.121203,-6513.812290,1149.143247
1326.332407,7254.018232,-5921.647536,766.095498
1326.332736,7846.182985,-5995.668130,1149.143247
1326.333065,8068.244768,-5551.544565,1149.143247
1326.333395,7994.224174,-5255.462188,1225.752797
1326.333724,7698.141797,-4589.276840,1991.848295
1326.334053,7994.224174,-4737.318029,1532.190996
1326.334382,7698.141797,-5107.421000,1532.190996
1326.334712,6957.935855,-5699.585753,1149.143247
1326.335041,6439.791695,-6587.832884,383.047749
1326.335370,5107.421000,-8216.285956,766.095498
1326.335699,5403.503377,-8068.244768,612.876398
1326.336029,5255.462188,-8882.471304,919.314598
1326.336358,5995.668130,-8660.409521,919.314598
1326.336687,6217.729913,-7254.018232,689.485948
1326.337016,7476.080014,-6069.688724,842.705048
1326.337346,7772.162391,-5255.462188,842.705048
1326.337675,7994.224174,-5847.626942,1149.143247
1326.338004,7846.182985,-5255.462188,1149.143247
1326.338333,7402.059420,-5995.668130,689.485948
1326.338663,6661.853478,-6809.894666,1149.143247
1326.338992,6957.935855,-6587.832884,1455.581446
1326.339321,7031.956449,-6809.894666,1149.143247
1326.339650,6587.832884,-7254.018232,1072.533697
1326.339980,6291.750507,-7328.038826,919.314598
1326.340309,6365.771101,-8216.285956,995.924147
1326.340638,6069.688724,-7624.121203,306.438199
1326.340967,5477.523971,-6883.915261,76.609550
1326.341296,5847.626942,-6439.791695,-229.828649
1326.341626,7105.977043,-5995.668130,689.485948
1326.341955,7994.224174,-5699.585753,1762.019645
1326.342284,8956.491898,-4737.318029,1532.190996
1326.342613,8438.347739,-4071.132681,1685.410096
1326.342943,8808.450710,-5033.400406,1455.581446
1326.343272,7402.059420,-5995.668130,1072.533697
1326.343601,6661.853478,-7031.956449,1225.752797
1326.343930,6291.750507,-7624.121203,612.876398
1326.344260,5847.626942,-8364.327145,536.266849
1326.344589,5773.606348,-9030.512492,1149.143247
1326.344918,6365.771101,-8512.368333,1302.362347
1326.345247,6661.853478,-7105.977043,1072.533697
1326.345577,6957.935855,-5921.647536,536.266849
1326.345906,6809.894666,-5847.626942,0.000000
1326.346235,7031.956449,-5477.523971,919.314598
1326.346564,7179.997637,-6291.750507,1072.533697
1326.346894,7105.977043,-6365.771101,1149.143247
1326.347223,7105.977043,-5699.585753,1762.019645
1326.347552,7105.977043,-6365.771101,1072.533697
1326.347881,6809.894666,-6365.771101,1455.581446
1326.348211,6587.832884,-7179.997637,1378.971896
1326.348540,6513.812290,-7550.100608,689.485948
1326.348869,6069.688724,-7254.018232,1455.581446
1326.349198,6735.874072,-7031.956449,1378.971896
1326.349528,7031.956449,-6217.729913,1072.533697
1326.349857,7402.059420,-6291.750507,1225.752797
1326.350186,7402.059420,-4589.276840,842.705048
1326.350515,7994.224174,-4885.359217,1225.752797
1326.350845,8142.265362,-4737.318029,1302.362347
1326.351174,7994.224174,-5403.503377,1378.971896
1326.351503,7624.121203,-5995.668130,1532.190996
1326.351832,7031.956449,-6587.832884,1685.410096
1326.352162,6365.771101,-7031.956449,766.095498
1326.352491,5995.668130,-7846.182985,766.095498
1326.352820,6143.709319,-8586.388927,1225.752797
1326.353149,6365.771101,-8734.430116,1991.848295
1326.353478,6365.771101,-7402.059420,1149.143247
1326.353808,6661.853478,-6735.874072,1072.533697
1326.354137,6957.935855,-5403.503377,383.047749
1326.354466,6957.935855,-5921.647536,842.705048
1326.354795,6439.791695,-5773.606348,1302.362347
1326.355125,7179.997637,-6143.709319,1149.143247
1326.355454,6661.853478,-6291.750507,1149.143247
1326.355783,6809.894666,-6587.832884,1225.752797
1326.356112,7105.977043,-7031.956449,1225.752797
1326.356442,7402.059420,-6513.812290,1149.143247
1326.356771,6735.874072,-7179.997637,383.047749
1326.357100,6809.894666,-7179.997637,1072.533697
1326.357429,6439.791695,-7624.121203,1149.143247
1326.357759,6735.874072,-8142.265362,536.266849
1326.358088,6513.812290,-6513.812290,689.485948
1326.358417,7105.977043,-5329.482782,612.876398
1326.358746,7772.162391,-5181.441594,995.924147
1326.359076,8586.388927,-4885.359217,2145.067394
1326.359405,8956.491898,-4663.297435,1838.629195
1326.359734,8290.306550,-4811.338623,1608.800546
1326.360063,7179.997637,-5699.585753,1302.362347
1326.360393,6661.853478,-6809.894666,1072.533697
1326.360722,5847.626942,-7624.121203,306.438199
1326.361051,6069.688724,-8438.347739,1455.581446
1326.361380,6069.688724,-8512.368333,919.314598
1326.361710,6365.771101,-8364.327145,1455.581446
1326.362039,6883.915261,-7105.977043,1455.581446
1326.362368,7402.059420,-5847.626942,1838.629195
1326.362697,7179.997637,-5329.482782,689.485948
1326.363027,7105.977043,-4515.256246,383.047749
1326.363356,7550.100608,-5477.523971,536.266849
1326.363685,7920.203579,-5255.462188,1532.190996
1326.364014,8142.265362,-6439.791695,2068.457845
1326.364344,7328.038826,-6661.853478,1838.629195
1326.364673,7105.977043,-6883.915261,919.314598
1326.365002,6513.812290,-7402.059420,689.485948
1326.365331,5995.668130,-7476.080014,459.657299
1326.365660,6735.874072,-8734.430116,766.095498
1326.365990,6439.791695,-8956.491898,689.485948
1326.366319,6217.729913,-7846.182985,919.314598
1326.366648,6291.750507,-7105.977043,153.219100
1326.366977,7105.977043,-6217.729913,383.047749
1326.367307,7254.018232,-5847.626942,842.705048
1326.367636,7920.203579,-5329.482782,1225.752797
1326.367965,8142.265362,-4811.338623,1302.362347
1326.368294,7772.162391,-4885.359217,1685.410096
1326.368624,7328.038826,-5329.482782,1149.143247
1326.368953,6957.935855,-6735.874072,1072.533697
1326.369282,6217.729913,-7328.038826,1149.143247
1326.369611,5625.565159,-8512.368333,842.705048
1326.369941,5921.647536,-8808.450710,1072.533697
1326.370270,5995.668130,-8660.409521,1149.143247
1326.370599,6587.832884,-8290.306550,919.314598
1326.370928,6513.812290,-6291.750507,383.047749
1326.371258,6735.874072,-5995.668130,0.000000
1326.371587,7476.080014,-4663.297435,995.924147
1326.371916,7994.224174,-4589.276840,919.314598
1326.372245,8216.285956,-5329.482782,1532.190996
1326.372575,8216.285956,-4737.318029,1838.629195
1326.372904,8660.409521,-5107.421000,1455.581446
1326.373233,7698.141797,-5477.523971,1225.752797
1326.373562,7179.997637,-6957.935855,1455.581446
1326.373892,7328.038826,-7105.977043,1225.752797
1326.374221,6735.874072,-7772.162391,919.314598
1326.374550,5477.523971,-8290.306550,842.705048
1326.374879,5403.503377,-7698.141797,612.876398
1326.375209,6217.729913,-7328.038826,383.047749
1326.375538,6957.935855,-6661.853478,995.924147
1326.375867,7254.018232,-5921.647536,1149.143247
1326.376196,7402.059420,-5329.482782,1225.752797
1326.376526,7550.100608,-4885.359217,1455.581446
1326.376855,7698.141797,-5699.585753,1532.190996
1326.377184,7179.997637,-5773.606348,919.314598
1326.377513,6513.812290,-6143.709319,1608.800546
1326.377842,6069.688724,-7402.059420,689.485948
1326.378172,6069.688724,-7920.203579,1149.143247
1326.378501,6513.812290,-9030.512492,1149.143247
1326.378830,6957.935855,-8142.265362,1225.752797
1326.379159,7031.956449,-7105.977043,842.705048
1326.379489,7105.977043,-6143.709319,459.657299
1326.379818,7031.956449,-5699.585753,0.000000
1326.380147,7105.977043,-5255.462188,383.047749
1326.380476,7179.997637,-4737.318029,689.485948
1326.380806,7624.121203,-5921.647536,1608.800546
1326.381135,7624.121203,-6291.750507,2068.457845
1326.381464,7624.121203,-5847.626942,1378.971896
1326.381793,7105.977043,-5995.668130,1149.143247
1326.382123,6735.874072,-5847.626942,689.485948
1326.382452,6883.915261,-7105.977043,1149.143247
1326.382781,6809.894666,-7476.080014,1608.800546
1326.383110,6513.812290,-7920.203579,1608.800546
1326.383440,6809.894666,-6883.915261,612.876398
1326.383769,6513.812290,-6291.750507,1378.971896
1326.384098,7328.038826,-6883.915261,612.876398
1326.384427,7698.141797,-5699.585753,1072.533697
1326.384757,7624.121203,-5107.421000,1225.752797
1326.385086,8068.244768,-5699.585753,1072.533697
1326.385415,7772.162391,-5847.626942,2068.457845
1326.385744,7476.080014,-6735.874072,1608.800546
1326.386074,6957.935855,-6439.791695,612.876398
1326.386403,5773.606348,-7031.956449,536.266849
1326.386732,6143.709319,-7772.162391,459.657299
1326.387061,6365.771101,-8956.491898,1302.362347
1326.387391,7105.977043,-7994.224174,2221.676944
1326.387720,7328.038826,-6661.853478,1225.752797
1326.388049,6883.915261,-5847.626942,919.314598
1326.388378,6735.874072,-5403.503377,383.047749
1326.388708,6883.915261,-5477.523971,536.266849
1326.389037,7476.080014,-5921.647536,1225.752797
1326.389366,7624.121203,-5551.544565,1685.410096
1326.389695,7550.100608,-6439.791695,1838.629195
1326.390024,7031.956449,-6587.832884,1838.629195
1326.390354,6291.750507,-6587.832884,842.705048
1326.390683,6365.771101,-7031.956449,536.266849
1326.391012,6365.771101,-7328.038826,1072.533697
1326.391341,6439.791695,-8290.306550,1378.971896
1326.391671,5995.668130,-8586.388927,766.095498
1326.392000,5699.585753,-7550.100608,689.485948
1326.392329,6365.771101,-6957.935855,459.657299
1326.392658,6957.935855,-5625.565159,229.828649
1326.392988,7772.162391,-5551.544565,1532.190996
1326.393317,8586.388927,-5255.462188,1302.362347
1326.393646,8660.409521,-4959.379811,1608.800546
1326.393975,7328.038826,-6587.832884,1072.533697
1326.394305,6661.853478,-5847.626942,306.438199
1326.394634,6143.709319,-6957.935855,459.657299
1326.394963,6069.688724,-8290.306550,536.266849
1326.395292,6143.709319,-8512.368333,1149.143247
1326.395622,6957.935855,-7994.224174,1608.800546
1326.395951,6143.709319,-7772.162391,1149.143247
1326.396280,6217.729913,-6587.832884,76.609550
1326.396609,6291.750507,-4959.379811,306.438199
1326.396939,7031.956449,-5773.606348,76.609550
1326.397268,7920.203579,-4959.379811,1838.629195
1326.397597,8808.450710,-5255.462188,2298.286494
1326.397926,9178.553681,-4737.318029,1378.971896
1326.398256,8660.409521,-4737.318029,2068.457845
1326.398585,7402.059420,-6291.750507,1302.362347
1326.398914,6809.894666,-5921.647536,689.485948
1326.399243,5921.647536,-6513.812290,536.266849
1326.399573,5847.626942,-7698.141797,536.266849
1326.399902,6217.729913,-8882.471304,76.609550
1326.400231,6291.750507,-8808.450710,689.485948
1326.400560,6217.729913,-7476.080014,76.609550
1326.400890,6809.894666,-6809.894666,536.266849
1326.401219,7402.059420,-5847.626942,919.314598
1326.401548,7772.162391,-5699.585753,919.314598
1326.401877,8216.285956,-5181.441594,1838.629195
1326.402206,8142.265362,-5107.421000,1149.143247
1326.402536,7402.059420,-5847.626942,919.314598
1326.402865,7105.977043,-5847.626942,1685.410096
1326.403194,6513.812290,-7105.977043,842.705048
1326.403523,5699.585753,-7846.182985,459.657299
1326.403853,5403.503377,-8512.368333,536.266849
1326.404182,5551.544565,-9252.574275,842.705048
1326.404511,6143.709319,-7846.182985,1455.581446
1326.404840,6217.729913,-6291.750507,1225.752797
1326.405170,7105.977043,-6143.709319,306.438199
1326.405499,7402.059420,-5699.585753,842.705048
1326.405828,7772.162391,-5921.647536,1838.629195
1326.406157,7994.224174,-5847.626942,919.314598
1326.406487,7254.018232,-5107.421000,1302.362347
1326.406816,7328.038826,-5847.626942,1378.971896
1326.407145,7179.997637,-6513.812290,1072.533697
1326.407474,6809.894666,-6439.791695,1378.971896
1326.407804,6661.853478,-7476.080014,766.095498
1326.408133,6143.709319,-7846.182985,689.485948
1326.408462,5995.668130,-7994.224174,1302.362347
1326.408791,5995.668130,-8660.409521,1072.533697
1326.409121,6661.853478,-7476.080014,995.924147
1326.409450,7179.997637,-5995.668130,383.047749
1326.409779,7105.977043,-6069.688724,383.047749
1326.410108,7402.059420,-5107.421000,1149.143247
1326.410438,7698.141797,-5181.441594,1532.190996
1326.410767,7920.203579,-5181.441594,995.924147
1326.411096,7105.977043,-5773.606348,1991.848295
1326.411425,6735.874072,-6143.709319,766.095498
1326.411755,6217.729913,-6735.874072,612.876398
1326.412084,6143.709319,-7624.121203,1455.581446
1326.412413,6439.791695,-8142.265362,1762.019645
1326.412742,6069.688724,-8216.285956,1455.581446
1326.413072,6661.853478,-7105.977043,1302.362347
1326.413401,6957.935855,-6217.729913,306.438199
1326.413730,7254.018232,-6217.729913,229.828649
1326.414059,7105.977043,-5329.482782,842.705048
1326.414388,7698.141797,-5699.585753,1072.533697
1326.414717,8142.265362,-5477.523971,1608.800546
1326.415046,7920.203579,-5403.503377,1685.410096
1326.415376,7624.121203,-5773.606348,995.924147
1326.415705,7105.977043,-5255.462188,1149.143247
1326.416034,6957.935855,-6069.688724,689.485948
1326.416363,7105.977043,-6661.853478,689.485948
1326.416692,7105.977043,-6735.874072,1225.752797
1326.417021,7105.977043,-8142.265362,1838.629195
1326.417350,7031.956449,-7772.162391,1378.971896
1326.417679,7031.956449,-6957.935855,689.485948
1326.418009,6809.894666,-6661.853478,689.485948
1326.418338,7105.977043,-5773.606348,612.876398
1326.418667,7105.977043,-5847.626942,842.705048
1326.418996,7254.018232,-5847.626942,919.314598
1326.419325,7179.997637,-5847.626942,689.485948
1326.419654,6735.874072,-6735.874072,1072.533697
1326.419983,5921.647536,-7031.956449,1838.629195
1326.420312,5625.565159,-7254.018232,842.705048
1326.420641,5921.647536,-8216.285956,766.095498
1326.420971,5699.585753,-8512.368333,1149.143247
1326.421300,5921.647536,-8068.244768,995.924147
1326.421629,7254.018232,-7105.977043,1302.362347
1326.421958,8068.244768,-5699.585753,1072.533697
1326.422287,8142.265362,-5329.482782,612.876398
1326.422616,7920.203579,-4737.318029,383.047749
1326.422945,7846.182985,-5625.565159,842.705048
1326.423274,7772.162391,-5773.606348,919.314598
1326.423604,7476.080014,-6365.771101,1225.752797
1326.423933,7772.162391,-5995.668130,1455.581446
1326.424262,7402.059420,-5921.647536,1378.971896
1326.424591,7105.977043,-6069.688724,995.924147
1326.424920,6957.935855,-7105.977043,1225.752797
1326.425249,6735.874072,-7476.080014,1149.143247
1326.425578,6587.832884,-7624.121203,1608.800546
1326.425907,6217.729913,-6957.935855,1149.143247
1326.426236,6735.874072,-6291.750507,689.485948
1326.426566,7179.997637,-5699.585753,766.095498
1326.426895,7254.018232,-6143.709319,1225.752797
1326.427224,7772.162391,-5625.565159,1378.971896
1326.427553,7550.100608,-5773.606348,2221.676944
1326.427882,6957.935855,-6587.832884,1225.752797
1326.428211,6217.729913,-6957.935855,1302.362347
1326.428540,5699.585753,-7476.080014,919.314598
1326.428869,5329.482782,-8512.368333,536.266849
1326.429199,5551.544565,-8068.244768,842.705048
1326.429528,6069.688724,-8956.491898,995.924147
1326.429857,6661.853478,-8586.388927,1149.143247
1326.430186,7179.997637,-6809.894666,1685.410096
1326.430515,6587.832884,-5699.585753,612.876398
1326.430844,7179.997637,-5255.462188,153.219100
1326.431173,7328.038826,-4293.194464,689.485948
1326.431502,8142.265362,-5107.421000,1302.362347
1326.431831,8734.430116,-4885.359217,1685.410096
1326.432161,8660.409521,-5033.400406,2604.724693
1326.432490,7920.203579,-6439.791695,1225.752797
1326.432819,6957.935855,-6069.688724,1225.752797
1326.433148,6365.771101,-6513.812290,766.095498
1326.433477,6143.709319,-7698.141797,1072.533697
1326.433806,6217.729913,-8438.347739,1149.143247
1326.434135,6069.688724,-7846.182985,1378.971896
1326.434464,6143.709319,-7254.018232,842.705048
1326.434794,6587.832884,-6735.874072,1149.143247
1326.435123,6957.935855,-5995.668130,612.876398
1326.435452,7031.956449,-6143.709319,689.485948
1326.435781,6809.894666,-5329.482782,1072.533697
1326.436110,7105.977043,-5625.565159,689.485948
1326.436439,6809.894666,-6291.750507,1225.752797
1326.436768,6439.791695,-6661.853478,1225.752797
1326.437097,6809.894666,-7179.997637,919.314598
1326.437426,6439.791695,-7698.141797,766.095498
1326.437756,5995.668130,-8216.285956,995.924147
1326.438085,6365.771101,-8586.388927,1685.410096
1326.438414,7105.977043,-8142.265362,1378.971896
1326.438743,7179.997637,-6661.853478,1225.752797
1326.439072,6957.935855,-5551.544565,536.266849
1326.439401,7031.956449,-5255.462188,689.485948
1326.439730,8216.285956,-4737.318029,1608.800546
1326.440059,7994.224174,-5847.626942,1455.581446
1326.440389,7846.182985,-4663.297435,1455.581446
1326.440718,7402.059420,-4959.379811,1685.410096
1326.441047,7476.080014,-5033.400406,1762.019645
1326.441376,7402.059420,-5773.606348,1762.019645
1326.441705,7254.018232,-6365.771101,1302.362347
1326.442034,6587.832884,-7254.018232,766.095498
1326.442363,6217.729913,-8290.306550,1149.143247
1326.442692,6513.812290,-8438.347739,0.000000
1326.443022,6143.709319,-7179.997637,0.000000
1326.443351,6661.853478,-6809.894666,76.609550
1326.443680,7328.038826,-6587.832884,459.657299
1326.444009,7698.141797,-5847.626942,1225.752797
1326.444338,7624.121203,-5625.565159,766.095498
1326.444667,7476.080014,-5403.503377,1149.143247
1326.444996,7105.977043,-5921.647536,842.705048
1326.445325,6735.874072,-7550.100608,766.095498
1326.445654,6809.894666,-7179.997637,995.924147
1326.445984,6513.812290,-6957.935855,995.924147
1326.446313,5995.668130,-7920.203579,689.485948
1326.446642,5921.647536,-8512.368333,1072.533697
1326.446971,6513.812290,-8808.450710,995.924147
1326.447300,6587.832884,-7476.080014,536.266849
1326.447629,6513.812290,-6587.832884,229.828649
1326.447958,7031.956449,-5847.626942,689.485948
1326.448287,7846.182985,-5329.482782,766.095498
1326.448617,7920.203579,-5033.400406,1608.800546
1326.448946,8512.368333,-5107.421000,1532.190996
1326.449275,8068.244768,-5107.421000,1685.410096
1326.449604,8216.285956,-5107.421000,1532.190996
1326.449933,7846.182985,-6143.709319,1455.581446
1326.450262,7105.977043,-5773.606348,995.924147
1326.450591,6513.812290,-7105.977043,995.924147
1326.450920,6365.771101,-7846.182985,842.705048
1326.451249,6587.832884,-7476.080014,1302.362347
1326.451579,7031.956449,-6957.935855,612.876398
1326.451908,6809.894666,-6365.771101,-76.609550
1326.452237,6957.935855,-6143.709319,229.828649
1326.452566,7105.977043,-7105.977043,536.266849
1326.452895,7624.121203,-5107.421000,1149.143247
1326.453224,7994.224174,-6735.874072,1608.800546
1326.453553,7179.997637,-6291.750507,1378.971896
1326.453882,6439.791695,-6439.791695,1378.971896
1326.454212,6365.771101,-7698.141797,1149.143247
1326.454541,6069.688724,-7476.080014,919.314598
1326.454870,5181.441594,-7846.182985,1378.971896
1326.455199,5625.565159,-8068.244768,995.924147
1326.455528,5699.585753,-7698.141797,689.485948
1326.455857,6143.709319,-6957.935855,1225.752797
1326.456186,6587.832884,-6069.688724,995.924147
1326.456515,7254.018232,-5255.462188,383.047749
1326.456844,7550.100608,-5107.421000,1149.143247
1326.457174,8142.265362,-5551.544565,1302.362347
1326.457503,7698.141797,-5477.523971,1378.971896
1326.457832,7254.018232,-5181.441594,1378.971896
1326.458161,7105.977043,-6587.832884,1225.752797
1326.458490,7550.100608,-6069.688724,1532.190996
1326.458819,7476.080014,-6291.750507,1532.190996
1326.459148,7031.956449,-7254.018232,1762.019645
1326.459477,7105.977043,-7105.977043,1685.410096
1326.459807,6809.894666,-6661.853478,842.705048
1326.460136,6957.935855,-5995.668130,536.266849
1326.460465,7254.018232,-5551.544565,536.266849
1326.460794,7920.203579,-5477.523971,229.828649
1326.461123,7550.100608,-5773.606348,1149.143247
1326.461452,7994.224174,-5773.606348,1225.752797
1326.461781,7698.141797,-5995.668130,1302.362347
1326.462110,7254.018232,-6957.935855,1225.752797
1326.462439,6365.771101,-7105.977043,919.314598
1326.462769,5699.585753,-8290.306550,383.047749
1326.463098,5329.482782,-8956.491898,995.924147
1326.463427,5107.421000,-9474.636058,919.314598
1326.463756,5625.565159,-9178.553681,1455.581446
1326.464085,5477.523971,-7920.203579,1532.190996
1326.464414,6365.771101,-6587.832884,689.485948
1326.464743,7031.956449,-5995.668130,229.828649
1326.465072,6957.935855,-5033.400406,1149.143247
1326.465402,8512.368333,-5255.462188,536.266849
1326.465731,8512.368333,-4589.276840,1302.362347
1326.466060,8438.347739,-4811.338623,1685.410096
1326.466389,8808.450710,-5625.565159,1685.410096
1326.466718,8586.388927,-5921.647536,1685.410096
1326.467047,7402.059420,-6143.709319,306.438199
1326.467376,6809.894666,-6957.935855,995.924147
1326.467705,7031.956449,-7624.121203,1149.143247
1326.468034,5921.647536,-8660.409521,842.705048
1326.468364,5699.585753,-7698.141797,766.095498
1326.468693,6513.812290,-6587.832884,229.828649
1326.469022,7179.997637,-5921.647536,689.485948
1326.469351,7402.059420,-5329.482782,1225.752797
1326.469680,7624.121203,-5403.503377,1532.190996
1326.470009,8142.265362,-5255.462188,1838.629195
1326.470338,7920.203579,-5551.544565,1455.581446
1326.470667,7254.018232,-5329.482782,1685.410096
1326.470997,7179.997637,-6587.832884,919.314598
1326.471326,6661.853478,-6735.874072,995.924147
1326.471655,5773.606348,-7772.162391,383.047749
1326.471984,5625.565159,-9326.594869,536.266849
1326.472313,5773.606348,-9474.636058,919.314598
1326.472642,5551.544565,-9104.533087,995.924147
1326.472971,5847.626942,-7402.059420,76.609550
1326.473300,6439.791695,-6291.750507,0.000000
1326.473629,7179.997637,-5699.585753,383.047749
1326.473959,7846.182985,-4959.379811,1532.190996
1326.474288,8660.409521,-4589.276840,1302.362347
1326.474617,8438.347739,-5551.544565,1149.143247
1326.474946,7920.203579,-5625.565159,1685.410096
1326.475275,7254.018232,-5477.523971,766.095498
1326.475604,6957.935855,-7031.956449,1149.143247
1326.475933,6513.812290,-6735.874072,1532.190996
1326.476262,6883.915261,-7031.956449,1072.533697
1326.476592,6957.935855,-6883.915261,1455.581446
1326.476921,6809.894666,-7105.977043,1149.143247
1326.477250,6957.935855,-6439.791695,612.876398
1326.477579,7179.997637,-5033.400406,842.705048
1326.477908,7105.977043,-5551.544565,1225.752797
1326.478237,8438.347739,-5255.462188,1915.238745
1326.478566,8068.244768,-6291.750507,2068.457845
1326.478895,7328.038826,-6291.750507,1685.410096
1326.479224,6587.832884,-6883.915261,1149.143247
1326.479554,5477.523971,-7550.100608,306.438199
1326.479883,4811.338623,-7624.121203,229.828649
1326.480212,4737.318029,-8586.388927,459.657299
1326.480541,5551.544565,-8660.409521,1225.752797
1326.480870,6439.791695,-8808.450710,1072.533697
1326.481199,6513.812290,-7920.203579,1149.143247
1326.481528,6735.874072,-6513.812290,536.266849
1326.481857,6957.935855,-5847.626942,-536.266849
1326.482187,7772.162391,-4515.256246,306.438199
1326.482516,8586.388927,-4885.359217,995.924147
1326.482845,9252.574275,-5107.421000,2068.457845
1326.483174,8586.388927,-5773.606348,2451.505594
1326.483503,7772.162391,-5107.421000,2374.896044
1326.483832,6735.874072,-5403.503377,919.314598
1326.484161,5921.647536,-6217.729913,919.314598
1326.484490,5699.585753,-7476.080014,536.266849
1326.484820,6069.688724,-7920.203579,1302.362347
1326.485149,6957.935855,-7328.038826,1762.019645
1326.485478,7179.997637,-6883.915261,1149.143247
1326.485807,7105.977043,-6439.791695,1455.581446
1326.486136,7550.100608,-6069.688724,1225.752797
1326.486465,8068.244768,-5625.565159,1225.752797
1326.486794,7994.224174,-4737.318029,1149.143247
1326.487123,7550.100608,-5403.503377,1149.143247
1326.487452,7550.100608,-6217.729913,1378.971896
1326.487782,7105.977043,-6513.812290,1378.971896
1326.488111,6513.812290,-7254.018232,1072.533697
1326.488440,5181.441594,-7846.182985,383.047749
1326.488769,4959.379811,-8660.409521,306.438199
1326.489098,5255.462188,-9844.739029,766.095498
1326.489427,6217.729913,-9104.533087,1302.362347
1326.489756,6439.791695,-7624.121203,842.705048
1326.490085,6735.874072,-6809.894666,459.657299
1326.490415,6735.874072,-4959.379811,383.047749
1326.490744,7920.203579,-4959.379811,612.876398
1326.491073,8882.471304,-4663.297435,1072.533697
1326.491402,8956.491898,-4811.338623,1685.410096
1326.491731,8512.368333,-5847.626942,2145.067394
1326.492060,8586.388927,-5403.503377,1991.848295
1326.492389,7254.018232,-5477.523971,1225.752797
1326.492718,6735.874072,-6439.791695,306.438199
1326.493047,6143.709319,-7105.977043,919.314598
1326.493377,6439.791695,-8216.285956,1149.143247
1326.493706,6439.791695,-8438.347739,612.876398
1326.494035,6661.853478,-6883.915261,919.314598
1326.494364,6883.915261,-6735.874072,536.266849
1326.494693,7105.977043,-6957.935855,536.266849
1326.495022,7328.038826,-5773.606348,842.705048
1326.495351,7772.162391,-4885.359217,689.485948
1326.495680,8586.388927,-4737.318029,2298.286494
1326.496010,8142.265362,-5921.647536,2374.896044
1326.496339,7624.121203,-6661.853478,1378.971896
1326.496668,6809.894666,-6365.771101,612.876398
1326.496997,5625.565159,-7105.977043,0.000000
1326.497326,5033.400406,-8660.409521,153.219100
1326.497655,5995.668130,-9252.574275,1149.143247
1326.497984,7105.977043,-8734.430116,1685.410096
1326.498313,6957.935855,-6957.935855,1302.362347
1326.498642,6439.791695,-5625.565159,536.266849
1326.498972,6661.853478,-5255.462188,76.609550
1326.499301,6809.894666,-5255.462188,383.047749
1326.499630,7031.956449,-5107.421000,766.095498
1326.499959,7254.018232,-5699.585753,995.924147
1326.500288,8364.327145,-6735.874072,1762.019645
1326.500617,7994.224174,-6365.771101,2221.676944
1326.500946,7105.977043,-6735.874072,1149.143247
1326.501275,6735.874072,-6217.729913,689.485948
1326.501605,6513.812290,-6661.853478,1072.533697
1326.501934,6513.812290,-7846.182985,1455.581446
1326.502263,7105.977043,-7179.997637,1838.629195
1326.502592,7550.100608,-6513.812290,995.924147
1326.502921,7994.224174,-5847.626942,919.314598
1326.503250,7994.224174,-5403.503377,1225.752797
1326.503579,7994.224174,-5181.441594,842.705048
1326.503908,7772.162391,-4737.318029,766.095498
1326.504237,7698.141797,-4737.318029,1302.362347
1326.504567,7624.121203,-5551.544565,1991.848295
1326.504896,7105.977043,-6217.729913,1685.410096
1326.505225,5847.626942,-6957.935855,842.705048
1326.505554,4145.153275,-7550.100608,153.219100
1326.505883,4071.132681,-9104.533087,153.219100
1326.506212,5477.523971,-10881.027347,1608.800546
1326.506541,6143.709319,-9400.615463,1378.971896
1326.506870,6513.812290,-7624.121203,1302.362347
1326.507200,6957.935855,-6365.771101,536.266849
1326.507529,7402.059420,-6291.750507,306.438199
1326.507858,7476.080014,-5329.482782,842.705048
1326.508187,7772.162391,-4959.379811,612.876398
1326.508516,7698.141797,-4959.379811,1072.533697
1326.508845,7179.997637,-5921.647536,1302.362347
1326.509174,6883.915261,-5995.668130,1378.971896
1326.509503,6957.935855,-5329.482782,1072.533697
1326.509832,6513.812290,-6439.791695,689.485948
1326.510162,6587.832884,-7105.977043,459.657299
1326.510491,6143.709319,-7624.121203,919.314598
1326.510820,6587.832884,-7698.141797,612.876398
1326.511149,7179.997637,-7402.059420,1072.533697
1326.511478,8216.285956,-5995.668130,1072.533697
1326.511807,7994.224174,-5551.544565,766.095498
1326.512136,9104.533087,-5773.606348,1455.581446
1326.512465,9104.533087,-5033.400406,1915.238745
1326.512795,8808.450710,-5329.482782,1762.019645
1326.513124,7920.203579,-5403.503377,1532.190996
1326.513453,6587.832884,-6217.729913,1149.143247
1326.513782,6069.688724,-7179.997637,612.876398
1326.514111,4663.297435,-7846.182985,229.828649
1326.514440,4145.153275,-8808.450710,153.219100
1326.514769,4959.379811,-9474.636058,229.828649
1326.515098,5847.626942,-8734.430116,1072.533697
1326.515427,6735.874072,-8142.265362,919.314598
1326.515757,6513.812290,-7179.997637,612.876398
1326.516086,6365.771101,-6291.750507,306.438199
1326.516415,6883.915261,-6513.812290,459.657299
1326.516744,7772.162391,-5699.585753,2374.896044
1326.517073,7994.224174,-6365.771101,1302.362347
1326.517403,8142.265362,-6217.729913,1685.410096
1326.517732,7772.162391,-5773.606348,1225.752797
1326.518061,7402.059420,-6291.750507,612.876398
1326.518390,6957.935855,-5995.668130,1302.362347
1326.518719,6735.874072,-6291.750507,1225.752797
1326.519049,6217.729913,-6735.874072,842.705048
1326.519378,6365.771101,-6069.688724,1149.143247
1326.519707,7105.977043,-6143.709319,1302.362347
1326.520036,7698.141797,-5921.647536,1302.362347
1326.520365,8216.285956,-5107.421000,1532.190996
1326.520695,8142.265362,-4737.318029,1149.143247
1326.521024,7994.224174,-4811.338623,1762.019645
1326.521353,7920.203579,-5107.421000,2068.457845
1326.521682,7698.141797,-6069.688724,1838.629195
1326.522011,7550.100608,-6661.853478,1455.581446
1326.522341,6217.729913,-7031.956449,1302.362347
1326.522670,5403.503377,-8068.244768,459.657299
1326.522999,4737.318029,-8512.368333,306.438199
1326.523328,5255.462188,-9326.594869,1149.143247
1326.523657,5625.565159,-8586.388927,766.095498
1326.523987,6365.771101,-6587.832884,766.095498
1326.524316,6809.894666,-5773.606348,612.876398
1326.524645,7105.977043,-6217.729913,612.876398
1326.524974,7328.038826,-5477.523971,1072.533697
1326.525303,7624.121203,-5699.585753,842.705048
1326.525633,7698.141797,-6587.832884,1302.362347
1326.525962,8068.244768,-6143.709319,1685.410096
1326.526291,7402.059420,-5847.626942,1072.533697
1326.526620,6809.894666,-6143.709319,612.876398
1326.526949,6439.791695,-6661.853478,995.924147
1326.527279,6735.874072,-7550.100608,1072.533697
1326.527608,6661.853478,-8142.265362,689.485948
1326.527937,6439.791695,-7105.977043,689.485948
1326.528266,6661.853478,-6587.832884,76.609550
1326.528595,7328.038826,-6217.729913,919.314598
1326.528925,7698.141797,-5625.565159,1991.848295
1326.529254,8586.388927,-5625.565159,1762.019645
1326.529583,8734.430116,-4737.318029,2068.457845
1326.529912,8216.285956,-4811.338623,1149.143247
1326.530241,7105.977043,-5847.626942,689.485948
1326.530571,6513.812290,-6587.832884,1455.581446
1326.530900,5625.565159,-7772.162391,842.705048
1326.531229,5551.544565,-8364.327145,1149.143247
1326.531558,5847.626942,-8438.347739,1302.362347
1326.531887,6513.812290,-9474.636058,1532.190996
1326.532217,6217.729913,-8068.244768,1378.971896
1326.532546,5921.647536,-6661.853478,76.609550
1326.532875,6217.729913,-5773.606348,-459.657299
1326.533204,7328.038826,-5255.462188,536.266849
1326.533533,8142.265362,-5625.565159,1378.971896
1326.533863,8438.347739,-5625.565159,995.924147
1326.534192,7624.121203,-6069.688724,1991.848295
1326.534521,7402.059420,-6439.791695,1532.190996
1326.534850,6957.935855,-6365.771101,995.924147
1326.535179,6365.771101,-6365.771101,612.876398
1326.535509,6143.709319,-6883.915261,1149.143247
1326.535838,6587.832884,-7402.059420,1378.971896
1326.536167,6735.874072,-7179.997637,1532.190996
1326.536496,6661.853478,-6217.729913,1838.629195
1326.536825,7105.977043,-6587.832884,1378.971896
1326.537155,7254.018232,-5995.668130,919.314598
1326.537484,7402.059420,-6365.771101,995.924147
1326.537813,7624.121203,-6439.791695,1072.533697
1326.538142,7402.059420,-5403.503377,1685.410096
1326.538471,7328.038826,-4885.359217,1149.143247
1326.538801,7254.018232,-6439.791695,1838.629195
1326.539130,7105.977043,-6069.688724,766.095498
1326.539459,7105.977043,-6735.874072,536.266849
1326.539788,6143.709319,-7846.182985,1302.362347
1326.540117,5773.606348,-8808.450710,995.924147
1326.540447,5699.585753,-8438.347739,919.314598
1326.540776,6217.729913,-6957.935855,995.924147
1326.541105,7031.956449,-7105.977043,766.095498
1326.541434,7550.100608,-6143.709319,1225.752797
1326.541763,7920.203579,-5477.523971,612.876398
1326.542093,7846.182985,-5995.668130,919.314598
1326.542422,7698.141797,-5625.565159,919.314598
1326.542751,6439.791695,-7105.977043,842.705048
1326.543080,6365.771101,-7105.977043,919.314598
1326.543409,5551.544565,-7254.018232,1072.533697
1326.543738,5699.585753,-8068.244768,536.266849
1326.544068,6587.832884,-6661.853478,1455.581446
1326.544397,6439.791695,-7920.203579,1225.752797
1326.544726,6735.874072,-7476.080014,1072.533697
1326.545055,6883.915261,-6439.791695,1149.143247
1326.545384,7105.977043,-5551.544565,459.657299
1326.545714,7550.100608,-5551.544565,383.047749
1326.546043,8290.306550,-4737.318029,1302.362347
1326.546372,9252.574275,-5699.585753,1762.019645
1326.546701,9696.697840,-5625.565159,2298.286494
1326.547030,8882.471304,-4737.318029,1915.238745
1326.547360,7772.162391,-5329.482782,766.095498
1326.547689,6291.750507,-6439.791695,536.266849
1326.548018,6143.709319,-7105.977043,0.000000
1326.548347,5329.482782,-8364.327145,383.047749
1326.548676,5181.441594,-8068.244768,1532.190996
1326.549006,5995.668130,-8438.347739,1149.143247
1326.549335,6439.791695,-7624.121203,1302.362347
1326.549664,6513.812290,-6069.688724,919.314598
1326.549993,7031.956449,-5255.462188,0.000000
1326.550322,7328.038826,-5477.523971,1149.143247
1326.550652,7402.059420,-5847.626942,1302.362347
1326.550981,7994.224174,-6217.729913,1455.581446
1326.551310,7846.182985,-6365.771101,1608.800546
1326.551639,7846.182985,-6439.791695,1685.410096
1326.551968,7031.956449,-6957.935855,995.924147
1326.552298,5847.626942,-6957.935855,842.705048
1326.552627,5699.585753,-7328.038826,919.314598
1326.552956,6513.812290,-7550.100608,383.047749
1326.553285,5995.668130,-7179.997637,1455.581446
1326.553614,6143.709319,-6735.874072,689.485948
1326.553944,6513.812290,-6661.853478,0.000000
1326.554273,7328.038826,-5699.585753,995.924147
1326.554602,8068.244768,-5329.482782,1455.581446
1326.554931,9104.533087,-5181.441594,1608.800546
1326.555260,8882.471304,-4663.297435,1685.410096
1326.555590,7994.224174,-5329.482782,1532.190996
1326.555919,7772.162391,-5403.503377,1455.581446
1326.556248,7105.977043,-5921.647536,1149.143247
1326.556577,6439.791695,-7179.997637,1302.362347
1326.556906,5699.585753,-7846.182985,919.314598
1326.557236,5255.462188,-8512.368333,229.828649
1326.557565,5403.503377,-8586.388927,766.095498
1326.557894,5773.606348,-7179.997637,689.485948
1326.558223,5921.647536,-6513.812290,153.219100
1326.558552,6661.853478,-5995.668130,229.828649
1326.558882,7105.977043,-5921.647536,766.095498
1326.559211,7920.203579,-6217.729913,1072.533697
1326.559540,7550.100608,-6661.853478,1072.533697
1326.559869,7550.100608,-6735.874072,1608.800546
1326.560198,7772.162391,-6957.935855,1378.971896
1326.560528,7476.080014,-6439.791695,1762.019645
1326.560857,6365.771101,-7476.080014,1225.752797
1326.561186,7031.956449,-7254.018232,1149.143247
1326.561515,6735.874072,-7179.997637,1149.143247
1326.561844,6069.688724,-7624.121203,689.485948
1326.562174,6513.812290,-6291.750507,459.657299
1326.562503,6661.853478,-5699.585753,459.657299
1326.562832,6957.935855,-5921.647536,153.219100
1326.563161,7328.038826,-5551.544565,842.705048
1326.563490,8216.285956,-5033.400406,1378.971896
1326.563820,9252.574275,-4737.318029,1762.019645
1326.564149,8512.368333,-5477.523971,1762.019645
1326.564478,7550.100608,-5847.626942,1608.800546
1326.564807,6883.915261,-7031.956449,1302.362347
1326.565136,5699.585753,-7920.203579,1378.971896
1326.565466,5403.503377,-8364.327145,1072.533697
1326.565795,5699.585753,-8586.388927,766.095498
1326.566124,5921.647536,-7624.121203,1225.752797
1326.566453,6661.853478,-6587.832884,919.314598
1326.566782,7179.997637,-5329.482782,383.047749
1326.567112,7105.977043,-4367.215058,459.657299
1326.567441,7402.059420,-4885.359217,1149.143247
1326.567770,7476.080014,-4959.379811,1072.533697
1326.568099,7476.080014,-5995.668130,1302.362347
1326.568428,7402.059420,-6439.791695,1608.800546
1326.568758,6957.935855,-6883.915261,1302.362347
1326.569087,6439.791695,-7105.977043,459.657299
1326.569416,6513.812290,-7772.162391,612.876398
1326.569745,6291.750507,-8216.285956,1225.752797
1326.570074,6143.709319,-8586.388927,842.705048
1326.570404,5921.647536,-7179.997637,842.705048
1326.570733,5699.585753,-7031.956449,459.657299
1326.571062,6735.874072,-6365.771101,766.095498
1326.571391,7698.141797,-5625.565159,1149.143247
1326.571720,8364.327145,-5329.482782,1762.019645
1326.572050,8290.306550,-5033.400406,1762.019645
1326.572379,8290.306550,-4663.297435,1915.238745
1326.572708,8438.347739,-4737.318029,995.924147
1326.573037,7254.018232,-5477.523971,1225.752797
1326.573366,7476.080014,-6883.915261,1378.971896
1326.573696,6809.894666,-7846.182985,1302.362347
1326.574025,5773.606348,-9326.594869,919.314598
1326.574354,5255.462188,-9770.718434,1225.752797
1326.574683,5329.482782,-8512.368333,766.095498
1326.575012,6291.750507,-7105.977043,689.485948
1326.575342,6661.853478,-5995.668130,536.266849
1326.575671,7402.059420,-5699.585753,842.705048
1326.576000,7328.038826,-5403.503377,1302.362347
1326.576329,7550.100608,-5329.482782,919.314598
1326.576658,7402.059420,-5773.606348,1302.362347
1326.576988,7328.038826,-5625.565159,1149.143247
1326.577317,7476.080014,-6217.729913,995.924147
1326.577646,7105.977043,-6957.935855,919.314598
1326.577975,7031.956449,-7550.100608,1302.362347
1326.578304,7254.018232,-7698.141797,1915.238745
1326.578634,6809.894666,-7698.141797,1378.971896
1326.578963,6291.750507,-7179.997637,1225.752797
1326.579292,5921.647536,-6661.853478,536.266849
1326.579621,6957.935855,-6069.688724,459.657299
1326.579950,7550.100608,-4737.318029,919.314598
1326.580280,8142.265362,-5033.400406,1302.362347
1326.580609,8438.347739,-4663.297435,1685.410096
1326.580938,8142.265362,-5107.421000,1302.362347
1326.581267,6957.935855,-6217.729913,1225.752797
1326.581596,6069.688724,-6661.853478,1149.143247
1326.581926,5551.544565,-7179.997637,383.047749
1326.582255,5107.421000,-8216.285956,229.828649
1326.582584,5329.482782,-8808.450710,995.924147
1326.582913,6217.729913,-9030.512492,1302.362347
1326.583242,6809.894666,-7920.203579,2298.286494
1326.583572,6735.874072,-5773.606348,766.095498
1326.583901,7179.997637,-4811.338623,919.314598
1326.584230,7624.121203,-4663.297435,766.095498
1326.584559,7402.059420,-4293.194464,995.924147
1326.584888,7624.121203,-4885.359217,1302.362347
1326.585218,7550.100608,-5329.482782,1685.410096
1326.585547,7624.121203,-6069.688724,1455.581446
1326.585876,7179.997637,-6587.832884,1762.019645
1326.586205,6809.894666,-6809.894666,995.924147
1326.586534,6661.853478,-7624.121203,1455.581446
1326.586864,6291.750507,-8438.347739,1072.533697
1326.587193,5773.606348,-9104.533087,1532.190996
1326.587522,5477.523971,-8586.388927,689.485948
1326.587851,5255.462188,-6957.935855,612.876398
1326.588180,6217.729913,-6217.729913,153.219100
1326.588510,7254.018232,-5921.647536,536.266849
1326.588839,7920.203579,-5181.441594,1378.971896
1326.589168,8660.409521,-5107.421000,1991.848295
1326.589497,9474.636058,-4811.338623,1378.971896
1326.589826,7994.224174,-4589.276840,1455.581446
1326.590156,7105.977043,-5255.462188,229.828649
1326.590485,6069.688724,-7031.956449,306.438199
1326.590814,5995.668130,-8290.306550,689.485948
1326.591143,6365.771101,-9326.594869,1149.143247
1326.591472,6439.791695,-8734.430116,1455.581446
1326.591802,6587.832884,-7624.121203,689.485948
1326.592131,6217.729913,-7105.977043,229.828649
1326.592460,6439.791695,-5773.606348,766.095498
1326.592789,7179.997637,-5255.462188,689.485948
1326.593118,7624.121203,-4737.318029,1378.971896
1326.593448,8290.306550,-4441.235652,1685.410096
1326.593777,8290.306550,-4959.379811,1149.143247
1326.594106,8216.285956,-5477.523971,1685.410096
1326.594435,7624.121203,-6217.729913,1608.800546
1326.594764,7402.059420,-6587.832884,1072.533697
1326.595093,6883.915261,-6439.791695,1072.533697
1326.595423,6809.894666,-7624.121203,1455.581446
1326.595752,6291.750507,-9104.533087,689.485948
1326.596081,5625.565159,-8882.471304,842.705048
1326.596410,5477.523971,-7698.141797,306.438199
1326.596739,6217.729913,-6439.791695,-153.219100
1326.597069,7476.080014,-5625.565159,383.047749
1326.597398,7846.182985,-5699.585753,1685.410096
1326.597727,8808.450710,-5255.462188,1762.019645
1326.598056,8586.388927,-4811.338623,1532.190996
1326.598385,8142.265362,-5033.400406,536.266849
1326.598715,6957.935855,-5625.565159,842.705048
1326.599044,6143.709319,-6291.750507,306.438199
1326.599373,5625.565159,-8364.327145,383.047749
1326.599702,5773.606348,-8956.491898,1302.362347
1326.600031,6439.791695,-8438.347739,1455.581446
1326.600361,7402.059420,-7476.080014,1685.410096
1326.600690,7624.121203,-6439.791695,1225.752797
1326.601019,7105.977043,-5921.647536,459.657299
1326.601348,6365.771101,-5699.585753,0.000000
1326.601677,6439.791695,-5921.647536,919.314598
1326.602007,7179.997637,-5921.647536,1072.533697
1326.602336,7624.121203,-6217.729913,1608.800546
1326.602665,7402.059420,-5921.647536,1608.800546
1326.602994,7105.977043,-6661.853478,919.314598
1326.603323,6439.791695,-6661.853478,919.314598
1326.603653,6143.709319,-7328.038826,842.705048
1326.603982,6661.853478,-7179.997637,459.657299
1326.604311,6365.771101,-7254.018232,1072.533697
1326.604640,7179.997637,-8216.285956,1072.533697
1326.604969,7402.059420,-6957.935855,1072.533697
1326.605299,7328.038826,-6439.791695,919.314598
1326.605628,7179.997637,-5773.606348,842.705048
1326.605957,7772.162391,-5403.503377,1532.190996
1326.606286,7698.141797,-5329.482782,1225.752797
1326.606615,7328.038826,-5329.482782,1149.143247
1326.606945,6143.709319,-6291.750507,842.705048
1326.607274,5773.606348,-6513.812290,612.876398
1326.607603,5477.523971,-7179.997637,689.485948
1326.607932,5329.482782,-8142.265362,919.314598
1326.608261,6217.729913,-7772.162391,1455.581446
1326.608591,6735.874072,-7994.224174,1762.019645
1326.608920,7105.977043,-7105.977043,2221.676944
1326.609249,7550.100608,-5551.544565,612.876398
1326.609578,7772.162391,-4811.338623,612.876398
1326.609907,7846.182985,-4737.318029,766.095498
1326.610237,7772.162391,-5477.523971,1072.533697
1326.610566,7920.203579,-5181.441594,1685.410096
1326.610895,7624.121203,-6365.771101,1225.752797
1326.611224,7328.038826,-6143.709319,1149.143247
1326.611553,6957.935855,-6217.729913,1072.533697
1326.611883,6439.791695,-7031.956449,306.438199
1326.612212,6513.812290,-7254.018232,1072.533697
1326.612541,6069.688724,-7994.224174,766.095498
1326.612870,6069.688724,-8216.285956,689.485948
1326.613199,6439.791695,-7402.059420,459.657299
1326.613529,7624.121203,-7031.956449,306.438199
1326.613858,7772.162391,-6587.832884,766.095498
1326.614187,7846.182985,-5921.647536,1378.971896
1326.614516,7920.203579,-5329.482782,1532.190996
1326.614845,7994.224174,-5625.565159,1072.533697
1326.615175,7254.018232,-5995.668130,995.924147
1326.615504,6661.853478,-6809.894666,766.095498
1326.615833,6291.750507,-7105.977043,919.314598
1326.616162,6143.709319,-7920.203579,995.924147
1326.616491,5921.647536,-8438.347739,842.705048
1326.616820,5625.565159,-8882.471304,995.924147
1326.617149,6143.709319,-7698.141797,1532.190996
1326.617479,6735.874072,-6587.832884,1455.581446
1326.617808,7105.977043,-5921.647536,306.438199
1326.618137,7105.977043,-3923.091493,1225.752797
1326.618466,7624.121203,-5329.482782,919.314598
1326.618795,7994.224174,-5329.482782,1302.362347
1326.619124,7920.203579,-5625.565159,1378.971896
1326.619454,7698.141797,-5847.626942,1149.143247
1326.619783,7179.997637,-5847.626942,1532.190996
1326.620112,6883.915261,-6735.874072,612.876398
1326.620441,6883.915261,-6513.812290,842.705048
1326.620770,7105.977043,-7179.997637,536.266849
1326.621099,6513.812290,-7105.977043,1378.971896
1326.621429,6661.853478,-6809.894666,1455.581446
1326.621758,6883.915261,-7105.977043,1302.362347
1326.622087,7328.038826,-5995.668130,919.314598
1326.622416,7031.956449,-5921.647536,995.924147
1326.622745,7550.100608,-4885.359217,1378.971896
1326.623074,7698.141797,-5181.441594,995.924147
1326.623403,7254.018232,-5477.523971,1762.019645
1326.623733,6661.853478,-5551.544565,1149.143247
1326.624062,6439.791695,-7846.182985,995.924147
1326.624391,6143.709319,-7328.038826,995.924147
1326.624720,5329.482782,-8882.471304,229.828649
1326.625049,5921.647536,-9178.553681,612.876398
1326.625378,5995.668130,-9326.594869,1608.800546
1326.625708,6661.853478,-9030.512492,1762.019645
1326.626037,6513.812290,-5477.523971,536.266849
1326.626366,6809.894666,-5107.421000,229.828649
1326.626695,7402.059420,-5107.421000,919.314598
1326.627024,7846.182985,-4737.318029,1378.971896
1326.627353,8512.368333,-5107.421000,1302.362347
1326.627683,8364.327145,-4959.379811,1455.581446
1326.628012,7994.224174,-5403.503377,1762.019645
1326.628341,6957.935855,-6143.709319,1149.143247
1326.628670,5773.606348,-6217.729913,919.314598
1326.628999,5625.565159,-6809.894666,842.705048
1326.629328,5773.606348,-8068.244768,459.657299
1326.629658,5551.544565,-8956.491898,995.924147
1326.629987,5773.606348,-8882.471304,1608.800546
1326.630316,6809.894666,-6957.935855,1302.362347
1326.630645,7328.038826,-6217.729913,919.314598
1326.630974,7846.182985,-5403.503377,1455.581446
1326.631303,8364.327145,-4589.276840,1455.581446
1326.631632,8808.450710,-4515.256246,1838.629195
1326.631962,8142.265362,-3997.112087,1149.143247
1326.632291,7179.997637,-5551.544565,919.314598
1326.632620,6439.791695,-6513.812290,459.657299
1326.632949,6143.709319,-7550.100608,459.657299
1326.633278,6143.709319,-8290.306550,995.924147
1326.633607,5995.668130,-9104.533087,1302.362347
1326.633937,6439.791695,-9178.553681,1149.143247
1326.634266,6291.750507,-8808.450710,1685.410096
1326.634595,6217.729913,-6587.832884,459.657299
1326.634924,6957.935855,-5403.503377,153.219100
1326.635253,7031.956449,-4663.297435,229.828649
1326.635582,8068.244768,-5329.482782,1149.143247
1326.635912,9252.574275,-5107.421000,1915.238745
1326.636241,9918.759623,-4589.276840,2528.115143
1326.636570,8882.471304,-4885.359217,2451.505594
1326.636899,7105.977043,-4959.379811,1149.143247
1326.637228,5403.503377,-5255.462188,306.438199
1326.637557,5329.482782,-6439.791695,0.000000
1326.637886,6217.729913,-7994.224174,1225.752797
1326.638216,7031.956449,-8364.327145,2221.676944
1326.638545,7179.997637,-8882.471304,1685.410096
1326.638874,6957.935855,-7550.100608,1225.752797
1326.639203,6661.853478,-6439.791695,536.266849
1326.639532,6365.771101,-6513.812290,383.047749
1326.639861,6365.771101,-5699.585753,766.095498
1326.640191,7105.977043,-6513.812290,842.705048
1326.640520,7624.121203,-6217.729913,1378.971896
1326.640849,7179.997637,-6291.750507,1991.848295
1326.641178,6883.915261,-7624.121203,995.924147
1326.641507,5847.626942,-7402.059420,383.047749
1326.641836,5181.441594,-7920.203579,0.000000
1326.642166,5403.503377,-8438.347739,383.047749
1326.642495,6587.832884,-8068.244768,842.705048
1326.642824,6661.853478,-7624.121203,1302.362347
1326.643153,6957.935855,-5995.668130,689.485948
1326.643482,7105.977043,-5551.544565,536.266849
1326.643811,7624.121203,-4515.256246,0.000000
1326.644140,7846.182985,-5403.503377,1225.752797
1326.644470,8216.285956,-5329.482782,1302.362347
1326.644799,8364.327145,-5551.544565,1378.971896
1326.645128,8290.306550,-5625.565159,1608.800546
1326.645457,7550.100608,-4737.318029,1378.971896
1326.645786,7254.018232,-6217.729913,1072.533697
1326.646115,6809.894666,-6809.894666,1225.752797
1326.646445,6957.935855,-7105.977043,1225.752797
1326.646774,6513.812290,-7772.162391,1455.581446
1326.647103,6883.915261,-7550.100608,1608.800546
1326.647432,7031.956449,-7105.977043,766.095498
1326.647761,6809.894666,-6513.812290,306.438199
1326.648090,7031.956449,-5921.647536,689.485948
1326.648420,7772.162391,-5625.565159,1149.143247
1326.648749,7920.203579,-6143.709319,612.876398
1326.649078,7624.121203,-6069.688724,1225.752797
1326.649407,7254.018232,-6365.771101,1149.143247
1326.649736,7328.038826,-7031.956449,919.314598
1326.650065,6217.729913,-7105.977043,842.705048
1326.650394,5477.523971,-8216.285956,229.828649
1326.650724,5551.544565,-8586.388927,536.266849
1326.651053,5921.647536,-9178.553681,1302.362347
1326.651382,6587.832884,-7476.080014,1302.362347
1326.651711,6735.874072,-6439.791695,1149.143247
1326.652040,6735.874072,-5995.668130,306.438199
1326.652369,6883.915261,-5107.421000,0.000000
1326.652699,6957.935855,-5255.462188,1149.143247
1326.653028,8142.265362,-5255.462188,2374.896044
1326.653357,8660.409521,-5995.668130,2221.676944
1326.653686,8290.306550,-5107.421000,2298.286494
1326.654015,7476.080014,-5107.421000,689.485948
1326.654344,7031.956449,-6069.688724,306.438199
1326.654674,6809.894666,-6957.935855,1225.752797
1326.655003,6513.812290,-7920.203579,1302.362347
1326.655332,6661.853478,-7476.080014,1685.410096
1326.655661,6587.832884,-6883.915261,1072.533697
1326.655990,7031.956449,-6957.935855,766.095498
1326.656319,6809.894666,-6513.812290,995.924147
1326.656648,7031.956449,-5773.606348,612.876398
1326.656978,7179.997637,-5033.400406,919.314598
1326.657307,7550.100608,-5181.441594,1149.143247
1326.657636,7920.203579,-6217.729913,1762.019645
1326.657965,7476.080014,-6365.771101,1762.019645
1326.658294,6883.915261,-6809.894666,1149.143247
1326.658623,6365.771101,-6661.853478,612.876398
1326.658953,5773.606348,-7179.997637,689.485948
1326.659282,5995.668130,-8586.388927,1225.752797
1326.659611,6143.709319,-8216.285956,1072.533697
1326.659940,6809.894666,-7179.997637,1762.019645
1326.660269,6513.812290,-6439.791695,229.828649
1326.660598,6883.915261,-5921.647536,766.095498
1326.660928,7105.977043,-5477.523971,612.876398
1326.661257,7698.141797,-5551.544565,995.924147
1326.661586,7846.182985,-6143.709319,1225.752797
1326.661915,8068.244768,-6661.853478,1762.019645
1326.662244,7920.203579,-6365.771101,1532.190996
1326.662573,7254.018232,-6069.688724,1302.362347
1326.662902,7105.977043,-6587.832884,919.314598
1326.663232,7031.956449,-7105.977043,612.876398
1326.663561,6661.853478,-7994.224174,1149.143247
1326.663890,6291.750507,-7624.121203,919.314598
1326.664219,6069.688724,-6809.894666,919.314598
1326.664548,6957.935855,-6513.812290,536.266849
1326.664877,7476.080014,-5995.668130,1225.752797
1326.665207,8068.244768,-5625.565159,1225.752797
1326.665536,7698.141797,-5033.400406,1455.581446
1326.665865,7994.224174,-5625.565159,1072.533697
1326.666194,7105.977043,-6439.791695,1378.971896
1326.666523,6587.832884,-6513.812290,1455.581446
1326.666852,6143.709319,-7476.080014,1072.533697
1326.667182,5995.668130,-7550.100608,766.095498
1326.667511,6069.688724,-7328.038826,766.095498
1326.667840,5995.668130,-8734.430116,1225.752797
1326.668169,6587.832884,-7994.224174,1915.238745
1326.668498,5921.647536,-7402.059420,612.876398
1326.668827,5699.585753,-6143.709319,229.828649
1326.669157,5847.626942,-5995.668130,536.266849
1326.669486,6957.935855,-5847.626942,689.485948
1326.669815,7846.182985,-5329.482782,1072.533697
1326.670144,7698.141797,-5477.523971,1302.362347
1326.670473,8216.285956,-5847.626942,1378.971896
1326.670802,8512.368333,-5551.544565,1762.019645
1326.671131,7328.038826,-5699.585753,766.095498
1326.671461,7031.956449,-6883.915261,842.705048
1326.671790,6735.874072,-6809.894666,766.095498
1326.672119,6735.874072,-8216.285956,995.924147
1326.672448,6809.894666,-7772.162391,1302.362347
1326.672777,7031.956449,-6513.812290,1915.238745
1326.673106,7328.038826,-6069.688724,536.266849
1326.673436,6809.894666,-5329.482782,536.266849
1326.673765,6883.915261,-5107.421000,766.095498
1326.674094,7550.100608,-5403.503377,536.266849
1326.674423,7994.224174,-5033.400406,1149.143247
1326.674752,7624.121203,-5625.565159,1685.410096
1326.675081,7328.038826,-6217.729913,1455.581446
1326.675411,6661.853478,-7179.997637,1532.190996
1326.675740,6143.709319,-7624.121203,459.657299
1326.676069,5181.441594,-8142.265362,76.609550
1326.676398,5477.523971,-8956.491898,842.705048
1326.676727,5995.668130,-8660.409521,612.876398
1326.677056,6513.812290,-7920.203579,1378.971896
1326.677385,7179.997637,-6365.771101,689.485948
1326.677715,7772.162391,-4885.359217,153.219100
1326.678044,8216.285956,-5033.400406,1072.533697
1326.678373,7994.224174,-5255.462188,1225.752797
1326.678702,8290.306550,-5403.503377,842.705048
1326.679031,7476.080014,-5329.482782,1225.752797
1326.679360,7105.977043,-6291.750507,919.314598
1326.679690,6883.915261,-6883.915261,995.924147
1326.680019,6365.771101,-6883.915261,1225.752797
1326.680348,6587.832884,-7254.018232,842.705048
1326.680677,6809.894666,-7328.038826,1532.190996
1326.681006,6735.874072,-7179.997637,1608.800546
1326.681335,7105.977043,-6735.874072,995.924147
1326.681665,7402.059420,-5921.647536,536.266849
1326.681994,7179.997637,-5773.606348,842.705048
1326.682323,7920.203579,-5255.462188,1302.362347
1326.682652,8290.306550,-4515.256246,1991.848295
1326.682981,8364.327145,-5181.441594,1685.410096
1326.683310,7846.182985,-5107.421000,1225.752797
1326.683639,6735.874072,-5995.668130,1149.143247
1326.683969,6143.709319,-7772.162391,536.266849
1326.684298,5625.565159,-8290.306550,459.657299
1326.684627,4737.318029,-9400.615463,1455.581446
1326.684956,4811.338623,-9326.594869,229.828649
1326.685285,4959.379811,-8734.430116,689.485948
1326.685614,5551.544565,-8216.285956,612.876398
1326.685944,6587.832884,-7254.018232,919.314598
1326.686273,7550.100608,-5329.482782,153.219100
1326.686602,7846.182985,-4663.297435,689.485948
1326.686931,8068.244768,-5107.421000,1072.533697
1326.687260,8290.306550,-5107.421000,1532.190996
1326.687589,7550.100608,-4885.359217,1608.800546
1326.687919,7772.162391,-5477.523971,2068.457845
1326.688248,7179.997637,-6217.729913,1455.581446
1326.688577,6735.874072,-7179.997637,919.314598
1326.688906,5921.647536,-7772.162391,766.095498
1326.689235,6069.688724,-8512.368333,689.485948
1326.689564,5773.606348,-7254.018232,536.266849
1326.689893,6143.709319,-6587.832884,919.314598
1326.690223,6809.894666,-6439.791695,995.924147
1326.690552,7550.100608,-5699.585753,1149.143247
1326.690881,7624.121203,-5255.462188,1532.190996
1326.691210,7994.224174,-5625.565159,1225.752797
1326.691539,8438.347739,-5477.523971,1762.019645
1326.691868,8142.265362,-5181.441594,2221.676944
1326.692198,7328.038826,-6143.709319,1072.533697
1326.692527,6439.791695,-6957.935855,919.314598
1326.692856,5699.585753,-7698.141797,76.609550
1326.693185,5107.421000,-9474.636058,612.876398
1326.693514,5255.462188,-8512.368333,689.485948
1326.693843,5107.421000,-8364.327145,1225.752797
1326.694173,5995.668130,-7031.956449,229.828649
1326.694502,6735.874072,-5699.585753,766.095498
1326.694831,7698.141797,-6217.729913,689.485948
1326.695160,8512.368333,-4367.215058,1378.971896
1326.695489,8438.347739,-4811.338623,1225.752797
1326.695818,7920.203579,-5477.523971,1072.533697
1326.696147,7698.141797,-5477.523971,1378.971896
1326.696477,7105.977043,-5921.647536,1149.143247
1326.696806,7624.121203,-6661.853478,306.438199
1326.697135,6957.935855,-7105.977043,1455.581446
1326.697464,7402.059420,-7105.977043,1302.362347
1326.697793,7179.997637,-7254.018232,995.924147
1326.698122,6513.812290,-7105.977043,1838.629195
1326.698452,7105.977043,-7179.997637,536.266849
1326.698781,7402.059420,-6365.771101,0.000000
1326.699110,6957.935855,-5551.544565,536.266849
1326.699439,7179.997637,-5477.523971,842.705048
1326.699768,7994.224174,-5033.400406,995.924147
1326.700097,7476.080014,-5773.606348,1149.143247
1326.700427,7105.977043,-6661.853478,1378.971896
1326.700756,7254.018232,-7476.080014,919.314598
1326.701085,6513.812290,-7846.182985,306.438199
1326.701414,4737.318029,-9474.636058,76.609550
1326.701743,4071.132681,-10288.862594,689.485948
1326.702072,4663.297435,-10584.944971,689.485948
1326.702402,4663.297435,-9622.677246,536.266849
1326.702731,4663.297435,-8660.409521,612.876398
1326.703060,5329.482782,-7994.224174,0.000000
1326.703389,5551.544565,-7698.141797,306.438199
1326.703718,5773.606348,-6513.812290,842.705048
1326.704047,7105.977043,-5329.482782,842.705048
1326.704376,8068.244768,-6143.709319,2298.286494
1326.704706,7772.162391,-5921.647536,1685.410096
1326.705035,7179.997637,-6735.874072,1915.238745
1326.705364,6587.832884,-6069.688724,1072.533697
1326.705693,5625.565159,-7031.956449,76.609550
1326.706022,6143.709319,-8364.327145,1762.019645
1326.706351,5847.626942,-8586.388927,2451.505594
1326.706681,6217.729913,-8364.327145,2221.676944
1326.707010,6291.750507,-6735.874072,1991.848295
1326.707339,6365.771101,-5995.668130,1762.019645
1326.707668,6291.750507,-5255.462188,766.095498
1326.707997,6143.709319,-5255.462188,842.705048
1326.708326,6661.853478,-5699.585753,766.095498
1326.708656,6809.894666,-6957.935855,1532.190996
1326.708985,6365.771101,-9178.553681,2757.943793
1326.709314,4959.379811,-10288.862594,1838.629195
1326.709643,2738.761985,-10584.944971,153.219100
1326.709972,666.185348,-11473.192101,-306.438199
1326.710301,666.185348,-12139.377449,-766.095498
1326.710630,2072.576638,-13323.706956,536.266849
1326.710960,3108.864956,-12361.439231,1838.629195
1326.711289,4441.235652,-10436.903782,1685.410096
1326.711618,4885.359217,-8290.306550,2451.505594
1326.711947,5551.544565,-5921.647536,2681.334243
1326.712276,5847.626942,-4885.359217,1838.629195
1326.712605,6661.853478,-3997.112087,1608.800546
1326.712935,7254.018232,-3849.070898,995.924147
1326.713264,7179.997637,-5995.668130,995.924147
1326.713593,6143.709319,-7179.997637,1455.581446
1326.713922,3849.070898,-10658.965565,536.266849
1326.714251,3330.926739,-12065.356855,229.828649
1326.714580,2368.659014,-12139.377449,-306.438199
1326.714910,2072.576638,-13767.830521,76.609550
1326.715239,2442.679609,-13767.830521,-383.047749
1326.715568,2886.803174,-13397.727550,-612.876398
1326.715897,2294.638420,-12435.459826,-842.705048
1326.716226,3256.906145,-12435.459826,459.657299
1326.716555,4071.132681,-9918.759623,1378.971896
1326.716884,4663.297435,-7698.141797,1378.971896
1326.717214,6587.832884,-4219.173869,3294.210641
1326.717543,9548.656652,-2072.576638,3447.429741
1326.717872,11325.150913,-296.082377,4826.401637
1326.718201,9622.677246,-962.267725,3677.258390
1326.718530,7772.162391,-1036.288319,1072.533697
1326.718859,6217.729913,-3923.091493,-919.314598
1326.719188,4737.318029,-8438.347739,842.705048
1326.719518,4959.379811,-11917.315666,536.266849
1326.719847,4219.173869,-13619.789333,1302.362347
1326.720176,5033.400406,-11843.295072,1302.362347
1326.720505,5033.400406,-12731.542202,153.219100
1326.720834,4293.194464,-9844.739029,612.876398
1326.721163,2368.659014,-12287.418637,612.876398
1326.721493,2072.576638,-11177.109724,-1378.971896
1326.721822,1036.288319,-10214.842000,-1149.143247
1326.722151,2220.617826,-11325.150913,0.000000
1326.722480,4737.318029,-9178.553681,459.657299
1326.722809,5847.626942,-7254.018232,919.314598
1326.723138,5995.668130,-6439.791695,689.485948
1326.723467,6809.894666,-4589.276840,229.828649
1326.723797,7920.203579,-4367.215058,1225.752797
1326.724126,7698.141797,-6291.750507,2681.334243
1326.724455,7402.059420,-8290.306550,2145.067394
1326.724784,7402.059420,-7476.080014,3140.991542
1326.725113,7031.956449,-8956.491898,3217.601092
1326.725442,7105.977043,-8216.285956,3907.087040
1326.725771,6439.791695,-7550.100608,3217.601092
1326.726101,5033.400406,-7105.977043,1608.800546
1326.726430,3034.844362,-7179.997637,0.000000
1326.726759,2220.617826,-9030.512492,306.438199
1326.727088,1776.494261,-9474.636058,0.000000
1326.727417,2072.576638,-8956.491898,-1455.581446
1326.727746,2590.720797,-8956.491898,-1532.190996
1326.728075,3404.947333,-9474.636058,0.000000
1326.728405,5329.482782,-10436.903782,842.705048
1326.728734,6217.729913,-10807.006753,1302.362347
1326.729063,5329.482782,-10807.006753,1378.971896
1326.729392,5107.421000,-10584.944971,1302.362347
1326.729721,5181.441594,-10658.965565,2374.896044
1326.730050,5255.462188,-9178.553681,2911.162892
1326.730379,5329.482782,-7994.224174,2911.162892
1326.730709,5995.668130,-6661.853478,3907.087040
1326.731038,6217.729913,-5625.565159,3830.477490
1326.731367,6217.729913,-6069.688724,3677.258390
1326.731696,5329.482782,-5403.503377,2374.896044
1326.732025,4441.235652,-6587.832884,612.876398
1326.732354,3849.070898,-7698.141797,766.095498
1326.732683,3478.967927,-8882.471304,919.314598
1326.733013,3552.988522,-9252.574275,1072.533697
1326.733342,3775.050304,-10955.047942,1608.800546
1326.733671,3701.029710,-12139.377449,2221.676944
1326.734000,3478.967927,-11769.274478,1838.629195
1326.734329,3627.009116,-11399.171507,1838.629195
1326.734658,5181.441594,-9696.697840,3217.601092
1326.734988,6957.935855,-7476.080014,3983.696590
1326.735317,7698.141797,-5847.626942,4826.401637
1326.735646,7624.121203,-4219.173869,4136.915689
1326.735975,7994.224174,-4145.153275,3830.477490
1326.736304,7772.162391,-4293.194464,2987.772442
1326.736633,6365.771101,-5033.400406,1915.238745
1326.736962,5995.668130,-5921.647536,1608.800546
1326.737292,6661.853478,-6513.812290,2145.067394
1326.737621,7624.121203,-8216.285956,3370.820191
1326.737950,7550.100608,-7994.224174,4673.182538
1326.738279,7105.977043,-8142.265362,4290.134789
1326.738608,5773.606348,-7846.182985,2911.162892
1326.738937,4737.318029,-7994.224174,3064.381992
1326.739266,5255.462188,-6587.832884,3677.258390
1326.739596,7105.977043,-5921.647536,4519.963438
1326.739925,8734.430116,-4663.297435,5286.058936
1326.740254,9326.594869,-2960.823768,5209.449386
1326.740583,9548.656652,-3256.906145,4979.620737
1326.740912,8956.491898,-3478.967927,5056.230287
1326.741241,8068.244768,-4219.173869,3983.696590
1326.741570,7328.038826,-5625.565159,3370.820191
1326.741900,7105.977043,-6291.750507,2987.772442
1326.742229,7254.018232,-8956.491898,3524.039291
1326.742558,6587.832884,-9696.697840,3830.477490
1326.742887,5403.503377,-10140.821405,3983.696590
1326.743216,4145.153275,-11399.171507,2834.553343
1326.743545,2960.823768,-11177.109724,3294.210641
1326.743874,2886.803174,-9918.759623,3600.648841
1326.744204,4441.235652,-9030.512492,4060.306139
1326.744533,6143.709319,-6291.750507,4903.011187
1326.744862,7402.059420,-4663.297435,5362.668486
1326.745191,9474.636058,-3627.009116,6128.763984
1326.745520,9622.677246,-2368.659014,5822.325785
1326.745849,9918.759623,-2516.700203,5515.887586
1326.746178,9474.636058,-3182.885551,5132.839837
1326.746508,8734.430116,-4071.132681,4903.011187
1326.746837,7846.182985,-5181.441594,4596.572988
1326.747166,7179.997637,-5921.647536,4519.963438
1326.747495,7105.977043,-7698.141797,4826.401637
1326.747824,6735.874072,-8956.491898,4443.353888
1326.748153,5107.421000,-9474.636058,4903.011187
1326.748483,4663.297435,-10436.903782,4136.915689
1326.748812,4071.132681,-10288.862594,3677.258390
1326.749141,2738.761985,-8808.450710,3677.258390
1326.749470,3256.906145,-8290.306550,3064.381992
1326.749799,4441.235652,-7328.038826,3370.820191
1326.750128,6291.750507,-6069.688724,4596.572988
1326.750457,7920.203579,-5477.523971,5132.839837
1326.750787,9326.594869,-4145.153275,5975.544884
1326.751116,8956.491898,-3108.864956,6205.373534
1326.751445,9696.697840,-2590.720797,4826.401637
1326.751774,9400.615463,-2960.823768,4749.792088
1326.752103,8882.471304,-4589.276840,4213.525239
1326.752432,7920.203579,-7105.977043,4213.525239
1326.752761,7105.977043,-7920.203579,3830.477490
1326.753091,5551.544565,-8882.471304,2528.115143
1326.753420,4959.379811,-9474.636058,2528.115143
1326.753749,4737.318029,-9918.759623,3140.991542
1326.754078,4959.379811,-8808.450710,3447.429741
1326.754407,5699.585753,-7476.080014,4596.572988
1326.754736,7105.977043,-5773.606348,4443.353888
1326.755065,9030.512492,-4441.235652,4826.401637
1326.755395,9474.636058,-3775.050304,4903.011187
1326.755724,9474.636058,-3552.988522,4596.572988
1326.756053,8586.388927,-4515.256246,3140.991542
1326.756382,6513.812290,-4959.379811,2681.334243
1326.756711,5551.544565,-7105.977043,2145.067394
1326.757040,5181.441594,-8660.409521,2145.067394
1326.757369,5477.523971,-8586.388927,3524.039291
1326.757699,6513.812290,-8808.450710,3753.867940
1326.758028,6957.935855,-7179.997637,3830.477490
1326.758357,7624.121203,-6735.874072,3753.867940
1326.758686,7920.203579,-6217.729913,3830.477490
1326.759015,8142.265362,-6143.709319,3983.696590
1326.759344,7402.059420,-5403.503377,3370.820191
1326.759673,6957.935855,-4959.379811,2757.943793
1326.760003,7179.997637,-4737.318029,2604.724693
1326.760332,8290.306550,-3701.029710,3370.820191
1326.760661,8512.368333,-4737.318029,3600.648841
