#time,accel_x,accel_y,accel_z
1427.349193,6291.750507,-6439.791695,1532.190996
1427.349523,6735.874072,-6809.894666,1149.143247
1427.349854,6957.935855,-6661.853478,766.095498
1427.350184,6735.874072,-6735.874072,1378.971896
1427.350514,6365.771101,-6883.915261,1302.362347
1427.350844,6513.812290,-6957.935855,153.219100
1427.351175,6513.812290,-6661.853478,919.314598
1427.351505,6957.935855,-7105.977043,842.705048
1427.351835,7254.018232,-7031.956449,1149.143247
1427.352165,7328.038826,-6217.729913,1455.581446
1427.352496,7402.059420,-6513.812290,1072.533697
1427.352826,7328.038826,-6513.812290,1072.533697
1427.353156,6735.874072,-6735.874072,842.705048
1427.353486,7105.977043,-6513.812290,612.876398
1427.353817,6883.915261,-6809.894666,1225.752797
1427.354147,7105.977043,-6661.853478,995.924147
1427.354477,7105.977043,-6365.771101,1072.533697
1427.354807,6957.935855,-6661.853478,1608.800546
1427.355138,7476.080014,-6365.771101,919.314598
1427.355468,7105.977043,-6365.771101,1532.190996
1427.355798,7031.956449,-6587.832884,1225.752797
1427.356128,6883.915261,-6217.729913,766.095498
1427.356459,7402.059420,-6365.771101,919.314598
1427.356789,7105.977043,-6735.874072,1225.752797
1427.357119,7105.977043,-6587.832884,689.485948
1427.357449,6809.894666,-6883.915261,842.705048
1427.357780,6735.874072,-6809.894666,1225.752797
1427.358110,6957.935855,-6661.853478,1149.143247
1427.358440,7031.956449,-7179.997637,995.924147
1427.358770,6809.894666,-7105.977043,1225.752797
1427.359101,7031.956449,-6883.915261,766.095498
1427.359431,7031.956449,-6291.750507,1225.752797
1427.359761,7254.018232,-5847.626942,1455.581446
1427.360091,7328.038826,-6217.729913,1072.533697
1427.360422,7328.038826,-6291.750507,995.924147
1427.360752,7179.997637,-6439.791695,995.924147
1427.361082,7624.121203,-6143.709319,842.705048
1427.361412,7550.100608,-6291.750507,1225.752797
1427.361743,7105.977043,-6439.791695,842.705048
1427.362073,6809.894666,-6513.812290,1149.143247
1427.362403,6735.874072,-6735.874072,1225.752797
1427.362733,6883.915261,-6883.915261,1149.143247
1427.363064,7105.977043,-6439.791695,1532.190996
1427.363394,6661.853478,-6661.853478,689.485948
1427.363724,6735.874072,-6587.832884,995.924147
1427.364054,6587.832884,-6661.853478,1225.752797
1427.364385,6661.853478,-6587.832884,1072.533697
1427.364715,6735.874072,-6661.853478,919.314598
1427.365045,6809.894666,-6809.894666,1302.362347
1427.365375,6809.894666,-7031.956449,842.705048
1427.365706,6661.853478,-7254.018232,1225.752797
1427.366036,6661.853478,-6957.935855,1072.533697
1427.366366,6735.874072,-7105.977043,689.485948
1427.366696,7031.956449,-6809.894666,1072.533697
1427.367027,6661.853478,-6735.874072,1302.362347
1427.367357,7402.059420,-6661.853478,842.705048
1427.367687,7402.059420,-6291.750507,1149.143247
1427.368017,7105.977043,-6439.791695,919.314598
1427.368348,7105.977043,-6217.729913,1149.143247
1427.368678,7328.038826,-6143.709319,1302.362347
1427.369008,7698.141797,-6661.853478,842.705048
1427.369338,6513.812290,-6291.750507,995.924147
1427.369668,7105.977043,-6661.853478,1149.143247
1427.369999,7105.977043,-6291.750507,842.705048
1427.370329,7031.956449,-6291.750507,1532.190996
1427.370659,6809.894666,-6439.791695,1072.533697
1427.370989,6957.935855,-6439.791695,459.657299
1427.371320,6883.915261,-6735.874072,1072.533697
1427.371650,6809.894666,-6587.832884,1149.143247
1427.371980,7031.956449,-6365.771101,1149.143247
1427.372310,7105.977043,-6661.853478,1455.581446
1427.372641,6883.915261,-6291.750507,919.314598
1427.372971,6809.894666,-6735.874072,689.485948
1427.373301,6883.915261,-6883.915261,1838.629195
1427.373631,6883.915261,-7179.997637,1149.143247
1427.373962,7402.059420,-6735.874072,1072.533697
1427.374292,7105.977043,-6365.771101,1302.362347
1427.374622,6883.915261,-6217.729913,919.314598
1427.374952,7624.121203,-6439.791695,995.924147
1427.375283,7328.038826,-6513.812290,1149.143247
1427.375613,7179.997637,-6143.709319,1072.533697
1427.375943,7031.956449,-6143.709319,919.314598
1427.376273,7105.977043,-6069.688724,1149.143247
1427.376604,6883.915261,-6439.791695,1149.143247
1427.376934,6883.915261,-6291.750507,1225.752797
1427.377264,6957.935855,-6439.791695,1149.143247
1427.377594,7105.977043,-6439.791695,1302.362347
1427.377925,6883.915261,-6513.812290,1225.752797
1427.378255,6809.894666,-6513.812290,995.924147
1427.378585,6735.874072,-6883.915261,1225.752797
1427.378915,6661.853478,-6809.894666,1762.019645
1427.379246,6809.894666,-6809.894666,1762.019645
1427.379576,7105.977043,-6957.935855,995.924147
1427.379906,6513.812290,-6957.935855,1149.143247
1427.380236,6809.894666,-6957.935855,612.876398
1427.380567,6735.874072,-7105.977043,919.314598
1427.380897,6883.915261,-6883.915261,1302.362347
1427.381227,6883.915261,-6809.894666,842.705048
1427.381557,7105.977043,-6587.832884,1225.752797
1427.381888,6957.935855,-7031.956449,1072.533697
1427.382218,7179.997637,-6735.874072,1149.143247
1427.382548,7476.080014,-6587.832884,1378.971896
1427.382878,7105.977043,-6661.853478,536.266849
1427.383209,7031.956449,-6217.729913,1072.533697
1427.383539,7105.977043,-6217.729913,995.924147
1427.383869,6957.935855,-5995.668130,689.485948
1427.384199,7105.977043,-6291.750507,1149.143247
1427.384530,7105.977043,-6217.729913,1072.533697
1427.384860,7105.977043,-6291.750507,1149.143247
1427.385190,6809.894666,-6217.729913,1225.752797
1427.385520,6735.874072,-6735.874072,1455.581446
1427.385851,6809.894666,-6735.874072,766.095498
1427.386181,6587.832884,-6661.853478,842.705048
1427.386511,7031.956449,-6587.832884,919.314598
1427.386841,6957.935855,-6661.853478,919.314598
1427.387172,6735.874072,-6143.709319,1302.362347
1427.387502,7105.977043,-6809.894666,919.314598
1427.387832,6883.915261,-6587.832884,919.314598
1427.388162,6809.894666,-6513.812290,842.705048
1427.388493,7402.059420,-7031.956449,1762.019645
1427.388823,7254.018232,-6735.874072,1072.533697
1427.389153,7254.018232,-6217.729913,1072.533697
1427.389483,7105.977043,-6735.874072,1072.533697
1427.389814,7402.059420,-5921.647536,1149.143247
1427.390144,7328.038826,-6291.750507,919.314598
1427.390474,7031.956449,-6365.771101,1149.143247
1427.390804,7105.977043,-6291.750507,1072.533697
1427.391135,7105.977043,-6217.729913,919.314598
1427.391465,7105.977043,-5995.668130,1685.410096
1427.391795,7179.997637,-6513.812290,1149.143247
1427.392125,7031.956449,-5995.668130,1378.971896
1427.392456,7105.977043,-6513.812290,1072.533697
1427.392786,6957.935855,-6439.791695,1072.533697
1427.393116,7031.956449,-6513.812290,919.314598
1427.393446,6439.791695,-7105.977043,1149.143247
1427.393777,6439.791695,-6883.915261,1072.533697
1427.394107,6735.874072,-6957.935855,919.314598
1427.394437,6661.853478,-7105.977043,1149.143247
1427.394767,6957.935855,-7105.977043,1149.143247
1427.395098,6809.894666,-6957.935855,612.876398
1427.395428,6957.935855,-6735.874072,1149.143247
1427.395758,7105.977043,-6809.894666,995.924147
1427.396088,6735.874072,-6143.709319,1072.533697
1427.396419,7031.956449,-6217.729913,1302.362347
1427.396749,7179.997637,-6587.832884,919.314598
1427.397079,7105.977043,-6957.935855,1302.362347
1427.397409,7179.997637,-6661.853478,995.924147
1427.397740,7550.100608,-7179.997637,536.266849
1427.398070,6957.935855,-6513.812290,1302.362347
1427.398400,7105.977043,-6291.750507,842.705048
1427.398730,7105.977043,-6291.750507,766.095498
1427.399061,7105.977043,-6439.791695,1302.362347
1427.399391,7254.018232,-6217.729913,1072.533697
1427.399721,7105.977043,-6365.771101,1149.143247
1427.400051,6809.894666,-5995.668130,1455.581446
1427.400382,7031.956449,-6439.791695,612.876398
1427.400712,7031.956449,-6291.750507,1302.362347
1427.401042,6513.812290,-6883.915261,1149.143247
1427.401372,6735.874072,-6587.832884,842.705048
1427.401703,6957.935855,-6365.771101,1072.533697
1427.402033,7031.956449,-6957.935855,995.924147
1427.402363,6513.812290,-6883.915261,842.705048
1427.402693,6809.894666,-7105.977043,842.705048
1427.403024,6735.874072,-6957.935855,919.314598
1427.403354,6883.915261,-6809.894666,536.266849
1427.403684,7254.018232,-6661.853478,995.924147
1427.404014,7328.038826,-6661.853478,1072.533697
1427.404344,7105.977043,-6513.812290,1225.752797
1427.404675,7105.977043,-6439.791695,1149.143247
1427.405005,7031.956449,-6439.791695,612.876398
1427.405335,7031.956449,-5773.606348,919.314598
1427.405665,7105.977043,-6217.729913,995.924147
1427.405996,7328.038826,-6587.832884,919.314598
1427.406326,7105.977043,-6069.688724,995.924147
1427.406656,6957.935855,-6661.853478,1072.533697
1427.406986,7031.956449,-6439.791695,1225.752797
1427.407317,6957.935855,-6217.729913,1072.533697
1427.407647,6735.874072,-6587.832884,995.924147
1427.407977,6513.812290,-6735.874072,842.705048
1427.408307,7031.956449,-7031.956449,919.314598
1427.408638,6735.874072,-7105.977043,1225.752797
1427.408968,6809.894666,-6513.812290,612.876398
1427.409298,6883.915261,-6809.894666,1225.752797
1427.409628,6957.935855,-6957.935855,842.705048
1427.409959,6661.853478,-6957.935855,306.438199
1427.410289,6809.894666,-6883.915261,842.705048
1427.410619,6809.894666,-6957.935855,766.095498
1427.410949,7254.018232,-6587.832884,1072.533697
1427.411280,7105.977043,-5995.668130,1762.019645
1427.411610,7105.977043,-7105.977043,1225.752797
1427.411940,7105.977043,-6513.812290,842.705048
1427.412270,7254.018232,-6661.853478,919.314598
1427.412601,7254.018232,-6809.894666,1302.362347
1427.412931,7179.997637,-5625.565159,1608.800546
1427.413261,7254.018232,-6291.750507,1072.533697
1427.413591,7179.997637,-6365.771101,1072.533697
1427.413921,7031.956449,-6217.729913,1072.533697
1427.414251,6957.935855,-6365.771101,1378.971896
1427.414581,6957.935855,-6587.832884,1455.581446
1427.414911,6957.935855,-6291.750507,1072.533697
1427.415240,5995.668130,-6661.853478,919.314598
1427.415570,6587.832884,-6809.894666,1302.362347
1427.415900,7105.977043,-5995.668130,1608.800546
1427.416230,7031.956449,-6513.812290,919.314598
1427.416560,7031.956449,-6587.832884,1532.190996
1427.416889,6957.935855,-6587.832884,1149.143247
1427.417219,7328.038826,-7031.956449,536.266849
1427.417549,6661.853478,-6587.832884,1378.971896
1427.417879,6661.853478,-6587.832884,995.924147
1427.418209,7031.956449,-6809.894666,689.485948
1427.418539,7105.977043,-6439.791695,1532.190996
1427.418868,7105.977043,-6513.812290,1225.752797
1427.419198,7476.080014,-6217.729913,1072.533697
1427.419528,7105.977043,-6069.688724,1149.143247
1427.419858,7031.956449,-6513.812290,842.705048
1427.420188,6883.915261,-6069.688724,1072.533697
1427.420517,7105.977043,-6217.729913,842.705048
1427.420847,7179.997637,-6291.750507,1072.533697
1427.421177,7105.977043,-6291.750507,1378.971896
1427.421507,7105.977043,-6439.791695,1072.533697
1427.421837,7031.956449,-5995.668130,1532.190996
1427.422166,7328.038826,-6513.812290,1455.581446
1427.422496,6661.853478,-6661.853478,842.705048
1427.422826,6587.832884,-6735.874072,1149.143247
1427.423156,6587.832884,-7254.018232,1455.581446
1427.423486,7179.997637,-6661.853478,1455.581446
1427.423815,6735.874072,-6735.874072,842.705048
1427.424145,6587.832884,-6809.894666,1225.752797
1427.424475,6735.874072,-6883.915261,842.705048
1427.424805,6809.894666,-6809.894666,919.314598
1427.425135,6883.915261,-6809.894666,1378.971896
1427.425464,6735.874072,-6661.853478,689.485948
1427.425794,7105.977043,-6661.853478,1225.752797
1427.426124,6957.935855,-6661.853478,536.266849
1427.426454,7328.038826,-6439.791695,1072.533697
1427.426784,7254.018232,-6587.832884,995.924147
1427.427113,7031.956449,-6587.832884,842.705048
1427.427443,7105.977043,-6365.771101,919.314598
1427.427773,7179.997637,-6291.750507,995.924147
1427.428103,7179.997637,-6291.750507,1149.143247
1427.428433,7105.977043,-6143.709319,995.924147
1427.428762,7031.956449,-6291.750507,919.314598
1427.429092,7105.977043,-6735.874072,1072.533697
1427.429422,7254.018232,-6587.832884,1225.752797
1427.429752,6735.874072,-6143.709319,1149.143247
1427.430082,6957.935855,-6513.812290,1072.533697
1427.430412,6883.915261,-6661.853478,1072.533697
1427.430741,6883.915261,-6513.812290,1149.143247
1427.431071,7105.977043,-6587.832884,766.095498
1427.431401,6587.832884,-6439.791695,1225.752797
1427.431731,7105.977043,-6809.894666,919.314598
1427.432061,6809.894666,-6735.874072,766.095498
1427.432390,6957.935855,-6291.750507,76.609550
1427.432720,6809.894666,-6957.935855,842.705048
1427.433050,6957.935855,-6439.791695,1072.533697
1427.433380,7105.977043,-5847.626942,1378.971896
1427.433710,7105.977043,-6513.812290,842.705048
1427.434039,7105.977043,-6439.791695,1378.971896
1427.434369,7031.956449,-6735.874072,689.485948
1427.434699,6883.915261,-6661.853478,919.314598
1427.435029,7031.956449,-6587.832884,1149.143247
1427.435359,7254.018232,-6291.750507,1149.143247
1427.435688,7105.977043,-5995.668130,919.314598
1427.436018,6809.894666,-6513.812290,1378.971896
1427.436348,7105.977043,-6365.771101,919.314598
1427.436678,7031.956449,-6587.832884,842.705048
1427.437008,7179.997637,-6365.771101,1149.143247
1427.437337,6735.874072,-6513.812290,995.924147
1427.437667,6661.853478,-6883.915261,995.924147
1427.437997,6513.812290,-6735.874072,1149.143247
1427.438327,6513.812290,-6661.853478,1072.533697
1427.438657,6957.935855,-6957.935855,766.095498
1427.438986,6735.874072,-6957.935855,919.314598
1427.439316,6809.894666,-7179.997637,612.876398
1427.439646,6735.874072,-6883.915261,1149.143247
1427.439976,6513.812290,-6809.894666,1302.362347
1427.440306,7179.997637,-6883.915261,1225.752797
1427.440635,7105.977043,-6661.853478,995.924147
1427.440965,7105.977043,-6661.853478,1149.143247
1427.441295,7254.018232,-6587.832884,1455.581446
1427.441625,7328.038826,-6439.791695,1378.971896
1427.441955,7179.997637,-6365.771101,842.705048
1427.442285,7105.977043,-6069.688724,612.876398
1427.442614,6957.935855,-6217.729913,1225.752797
1427.442944,7105.977043,-6365.771101,842.705048
1427.443274,7179.997637,-6883.915261,1072.533697
1427.443604,7105.977043,-6439.791695,1378.971896
1427.443934,7254.018232,-6365.771101,1149.143247
1427.444263,6957.935855,-6513.812290,919.314598
1427.444593,7179.997637,-5699.585753,1225.752797
1427.444923,7105.977043,-6513.812290,766.095498
1427.445253,6735.874072,-6883.915261,995.924147
1427.445583,6661.853478,-6587.832884,1149.143247
1427.445912,7031.956449,-6809.894666,1149.143247
1427.446242,6661.853478,-6143.709319,1991.848295
1427.446572,7031.956449,-6735.874072,919.314598
1427.446902,6809.894666,-6661.853478,612.876398
1427.447232,6735.874072,-6513.812290,536.266849
1427.447561,6883.915261,-6883.915261,1455.581446
1427.447891,7105.977043,-6217.729913,1302.362347
1427.448221,7105.977043,-6513.812290,842.705048
1427.448551,7254.018232,-6365.771101,1072.533697
1427.448881,7328.038826,-6513.812290,919.314598
1427.449210,7105.977043,-6143.709319,1072.533697
1427.449540,7031.956449,-6365.771101,919.314598
1427.449870,7105.977043,-6439.791695,1072.533697
1427.450200,7105.977043,-6513.812290,1302.362347
1427.450530,6957.935855,-6291.750507,1225.752797
1427.450859,6957.935855,-6365.771101,1149.143247
1427.451189,6883.915261,-6365.771101,1302.362347
1427.451519,6809.894666,-6587.832884,1302.362347
1427.451849,7031.956449,-6143.709319,1225.752797
1427.452179,6439.791695,-6365.771101,1072.533697
1427.452508,6809.894666,-6735.874072,1225.752797
1427.452838,6661.853478,-6883.915261,842.705048
1427.453168,6661.853478,-7179.997637,1072.533697
1427.453498,6439.791695,-6735.874072,1149.143247
1427.453828,6957.935855,-6735.874072,536.266849
1427.454158,6661.853478,-7179.997637,919.314598
1427.454487,6365.771101,-6809.894666,1072.533697
1427.454817,6661.853478,-7031.956449,766.095498
1427.455147,7105.977043,-6513.812290,842.705048
1427.455477,7179.997637,-6143.709319,1072.533697
1427.455807,7105.977043,-6587.832884,1072.533697
1427.456136,7254.018232,-6143.709319,1455.581446
1427.456466,7179.997637,-6439.791695,919.314598
1427.456796,7402.059420,-6069.688724,1378.971896
1427.457126,6957.935855,-6291.750507,1072.533697
1427.457456,7031.956449,-6143.709319,919.314598
1427.457785,7031.956449,-6513.812290,842.705048
1427.458115,7328.038826,-6957.935855,1149.143247
1427.458445,6661.853478,-6365.771101,1455.581446
1427.458775,7105.977043,-6661.853478,842.705048
1427.459105,6957.935855,-6439.791695,1072.533697
1427.459434,6957.935855,-6661.853478,842.705048
1427.459764,7105.977043,-6439.791695,459.657299
1427.460094,7105.977043,-6513.812290,1225.752797
1427.460424,7105.977043,-6291.750507,919.314598
1427.460754,7031.956449,-6513.812290,919.314598
1427.461083,6883.915261,-6365.771101,995.924147
1427.461413,6883.915261,-6291.750507,689.485948
1427.461743,6735.874072,-7105.977043,995.924147
1427.462073,7031.956449,-6809.894666,1225.752797
1427.462403,7179.997637,-6809.894666,842.705048
1427.462732,7031.956449,-6661.853478,1225.752797
1427.463062,7105.977043,-6291.750507,1149.143247
1427.463392,7179.997637,-5773.606348,919.314598
1427.463722,7920.203579,-5551.544565,1378.971896
1427.464052,8142.265362,-5551.544565,1149.143247
1427.464381,8956.491898,-5625.565159,842.705048
1427.464711,7994.224174,-5551.544565,1225.752797
1427.465041,7105.977043,-6069.688724,536.266849
1427.465371,6439.791695,-6587.832884,229.828649
1427.465701,6365.771101,-6661.853478,612.876398
1427.466031,7105.977043,-6217.729913,306.438199
1427.466360,7846.182985,-6439.791695,1455.581446
1427.466690,8068.244768,-6069.688724,1608.800546
1427.467020,8142.265362,-5255.462188,1455.581446
1427.467350,7402.059420,-4219.173869,1532.190996
1427.467680,7105.977043,-5329.482782,1302.362347
1427.468009,7772.162391,-4737.318029,842.705048
1427.468339,8586.388927,-4959.379811,1685.410096
1427.468669,8586.388927,-4811.338623,1072.533697
1427.468999,7846.182985,-4737.318029,1378.971896
1427.469329,7402.059420,-5699.585753,536.266849
1427.469658,7698.141797,-5255.462188,229.828649
1427.469988,8290.306550,-6217.729913,689.485948
1427.470318,8734.430116,-6069.688724,766.095498
1427.470648,8290.306550,-5477.523971,536.266849
1427.470978,7994.224174,-5699.585753,689.485948
1427.471307,7920.203579,-4811.338623,689.485948
1427.471637,8364.327145,-4885.359217,459.657299
1427.471967,8808.450710,-3997.112087,1838.629195
1427.472297,8956.491898,-4441.235652,1072.533697
1427.472627,9474.636058,-3849.070898,1532.190996
1427.472956,9548.656652,-3478.967927,1685.410096
1427.473286,9844.739029,-3923.091493,1608.800546
1427.473616,9992.780217,-2738.761985,1302.362347
1427.473946,9992.780217,-3034.844362,1762.019645
1427.474276,9844.739029,-3404.947333,1455.581446
1427.474605,9474.636058,-3627.009116,1149.143247
1427.474935,9548.656652,-4885.359217,842.705048
1427.475265,9474.636058,-4737.318029,689.485948
1427.475595,8956.491898,-5551.544565,1455.581446
1427.475925,8364.327145,-4737.318029,1532.190996
1427.476254,8142.265362,-5329.482782,612.876398
1427.476584,7328.038826,-5181.441594,919.314598
1427.476914,7772.162391,-4811.338623,842.705048
1427.477244,8586.388927,-4515.256246,919.314598
1427.477574,8956.491898,-3849.070898,1072.533697
1427.477904,8512.368333,-4811.338623,689.485948
1427.478233,9104.533087,-4885.359217,842.705048
1427.478563,8882.471304,-4737.318029,383.047749
1427.478893,9178.553681,-5033.400406,383.047749
1427.479223,8956.491898,-5255.462188,383.047749
1427.479553,9178.553681,-5329.482782,0.000000
1427.479882,9474.636058,-4885.359217,153.219100
1427.480212,9844.739029,-4515.256246,995.924147
1427.480542,9696.697840,-4367.215058,1532.190996
1427.480872,9992.780217,-3330.926739,1762.019645
1427.481202,9844.739029,-3552.988522,1915.238745
1427.481531,8586.388927,-2516.700203,1838.629195
1427.481861,8586.388927,-3701.029710,1608.800546
1427.482191,8512.368333,-5033.400406,1838.629195
1427.482521,8808.450710,-3256.906145,2911.162892
1427.482851,9252.574275,-3849.070898,1838.629195
1427.483180,9400.615463,-3404.947333,1838.629195
1427.483510,9252.574275,-3701.029710,995.924147
1427.483840,9178.553681,-4219.173869,689.485948
1427.484170,9326.594869,-4293.194464,689.485948
1427.484500,8734.430116,-5107.421000,-229.828649
1427.484829,8216.285956,-5181.441594,-229.828649
1427.485159,7920.203579,-5847.626942,-76.609550
1427.485489,9252.574275,-6809.894666,0.000000
1427.485819,9326.594869,-6217.729913,1302.362347
1427.486149,9178.553681,-6513.812290,1072.533697
1427.486478,8660.409521,-5921.647536,1532.190996
1427.486808,8290.306550,-5329.482782,1991.848295
1427.487138,8586.388927,-4959.379811,1608.800546
1427.487468,8586.388927,-3627.009116,1915.238745
1427.487798,9178.553681,-3108.864956,1915.238745
1427.488127,10362.883188,-1998.556043,1991.848295
1427.488457,10881.027347,-2294.638420,1302.362347
1427.488787,10584.944971,-740.205942,842.705048
1427.489117,9770.718434,-1702.473667,-153.219100
1427.489447,9548.656652,-2664.741391,0.000000
1427.489777,9400.615463,-3849.070898,76.609550
1427.490106,9622.677246,-5773.606348,306.438199
1427.490436,8882.471304,-6365.771101,536.266849
1427.490766,7994.224174,-7994.224174,842.705048
1427.491096,7328.038826,-8882.471304,995.924147
1427.491426,7254.018232,-8364.327145,766.095498
1427.491755,6957.935855,-7476.080014,919.314598
1427.492085,6809.894666,-6513.812290,995.924147
1427.492415,7402.059420,-5033.400406,766.095498
1427.492745,8512.368333,-3552.988522,1225.752797
1427.493075,9992.780217,-2738.761985,1685.410096
1427.493404,9844.739029,-1480.411884,1455.581446
1427.493734,9696.697840,-1184.329507,995.924147
1427.494064,10214.842000,-666.185348,842.705048
1427.494394,11251.130318,-444.123565,153.219100
1427.494724,12509.480420,-740.205942,1149.143247
1427.495053,12879.583391,-1554.432478,2068.457845
1427.495383,12583.501014,-3404.947333,1685.410096
1427.495713,10955.047942,-5181.441594,1991.848295
1427.496043,8882.471304,-6439.791695,1915.238745
1427.496373,6069.688724,-7772.162391,612.876398
1427.496702,4145.153275,-9400.615463,0.000000
1427.497032,3775.050304,-9252.574275,-229.828649
1427.497362,4737.318029,-8586.388927,-229.828649
1427.497692,6513.812290,-6957.935855,383.047749
1427.498022,7772.162391,-5995.668130,1455.581446
1427.498351,9548.656652,-3923.091493,536.266849
1427.498681,9474.636058,-2812.782580,1608.800546
1427.499011,9844.739029,-1110.308913,1225.752797
1427.499341,10807.006753,-592.164754,919.314598
1427.499671,11991.336260,-222.061783,1225.752797
1427.500000,13027.624579,-518.144159,1302.362347
1427.500330,13101.645173,-1702.473667,2451.505594
1427.500660,12805.562797,-2738.761985,2987.772442
1427.500990,11769.274478,-4219.173869,2221.676944
1427.501320,9030.512492,-4885.359217,1685.410096
1427.501650,7624.121203,-5921.647536,919.314598
1427.501979,6513.812290,-6735.874072,153.219100
1427.502309,4959.379811,-7105.977043,-76.609550
1427.502639,4071.132681,-8512.368333,-459.657299
1427.502969,5551.544565,-7105.977043,-383.047749
1427.503299,7624.121203,-4885.359217,-229.828649
1427.503628,9474.636058,-3404.947333,383.047749
1427.503958,10955.047942,-2886.803174,1455.581446
1427.504288,12139.377449,-1850.514855,2068.457845
1427.504618,12287.418637,-2072.576638,1915.238745
1427.504948,11251.130318,-2442.679609,2145.067394
1427.505277,10658.965565,-3182.885551,1455.581446
1427.505607,9474.636058,-5181.441594,1532.190996
1427.505937,8216.285956,-5403.503377,842.705048
1427.506267,7328.038826,-7920.203579,1915.238745
1427.506597,7328.038826,-8142.265362,2374.896044
1427.506926,7402.059420,-6365.771101,995.924147
1427.507256,7105.977043,-3330.926739,536.266849
1427.507586,7031.956449,-3478.967927,-153.219100
1427.507916,8438.347739,-3256.906145,-306.438199
1427.508246,9548.656652,-3182.885551,1072.533697
1427.508575,10362.883188,-2590.720797,1149.143247
1427.508905,10955.047942,-518.144159,536.266849
1427.509235,10881.027347,-1776.494261,229.828649
1427.509565,11103.089130,-4737.318029,1685.410096
1427.509895,10881.027347,-6513.812290,2757.943793
1427.510224,9474.636058,-7179.997637,2068.457845
1427.510554,8068.244768,-4293.194464,306.438199
1427.510884,6513.812290,-4145.153275,-766.095498
1427.511214,6957.935855,-6439.791695,0.000000
1427.511544,7476.080014,-7698.141797,1838.629195
1427.511873,7772.162391,-9104.533087,2451.505594
1427.512203,7772.162391,-4811.338623,689.485948
1427.512533,6439.791695,-3923.091493,-766.095498
1427.512863,6439.791695,-5107.421000,153.219100
1427.513192,7772.162391,-5921.647536,1149.143247
1427.513522,9992.780217,-3923.091493,1149.143247
1427.513851,11251.130318,-1184.329507,1532.190996
1427.514181,11991.336260,-370.102971,1915.238745
1427.514510,12953.603985,0.000000,2068.457845
1427.514840,11251.130318,-3330.926739,1762.019645
1427.515169,8586.388927,-5403.503377,919.314598
1427.515499,7105.977043,-5921.647536,459.657299
1427.515828,7550.100608,-4811.338623,612.876398
1427.516158,8586.388927,-6513.812290,1149.143247
1427.516487,9474.636058,-7402.059420,2221.676944
1427.516817,9474.636058,-5921.647536,1378.971896
1427.517146,8216.285956,-5403.503377,229.828649
1427.517476,7328.038826,-4663.297435,766.095498
1427.517805,7402.059420,-5921.647536,842.705048
1427.518135,6957.935855,-5921.647536,229.828649
1427.518464,5847.626942,-4589.276840,-919.314598
1427.518794,6735.874072,-6217.729913,-383.047749
1427.519123,9178.553681,-5477.523971,1838.629195
1427.519453,11103.089130,-3923.091493,2451.505594
1427.519782,10362.883188,-3552.988522,1608.800546
1427.520112,9030.512492,-3923.091493,1608.800546
1427.520441,7994.224174,-5921.647536,1302.362347
1427.520771,7105.977043,-7698.141797,1225.752797
1427.521100,6661.853478,-5773.606348,306.438199
1427.521430,7105.977043,-4441.235652,0.000000
1427.521759,8808.450710,-5181.441594,842.705048
1427.522089,9770.718434,-6661.853478,3140.991542
1427.522418,10362.883188,-5033.400406,2681.334243
1427.522747,9696.697840,-2960.823768,1302.362347
1427.523077,7920.203579,-3923.091493,306.438199
1427.523406,5847.626942,-5477.523971,76.609550
1427.523736,4589.276840,-7698.141797,0.000000
1427.524065,4737.318029,-7105.977043,-612.876398
1427.524395,5699.585753,-7698.141797,0.000000
1427.524724,7476.080014,-7920.203579,1072.533697
1427.525054,8290.306550,-8882.471304,2068.457845
1427.525383,7476.080014,-9252.574275,1685.410096
1427.525713,6143.709319,-8290.306550,842.705048
1427.526042,4959.379811,-8068.244768,-536.266849
1427.526372,4737.318029,-7698.141797,76.609550
1427.526701,5699.585753,-6883.915261,76.609550
1427.527031,7105.977043,-5551.544565,919.314598
1427.527360,8956.491898,-4589.276840,2757.943793
1427.527690,9400.615463,-3182.885551,2757.943793
1427.528019,10288.862594,-3627.009116,3447.429741
1427.528349,9992.780217,-2516.700203,2757.943793
1427.528678,8290.306550,-4071.132681,1532.190996
1427.529008,6883.915261,-3701.029710,1302.362347
1427.529337,5847.626942,-3923.091493,-229.828649
1427.529667,7031.956449,-6883.915261,995.924147
1427.529996,7994.224174,-6735.874072,1455.581446
1427.530326,8364.327145,-8290.306550,2298.286494
1427.530655,7624.121203,-5329.482782,919.314598
1427.530985,6143.709319,-7994.224174,995.924147
1427.531314,5847.626942,-9104.533087,1149.143247
1427.531644,6587.832884,-6143.709319,536.266849
1427.531973,6143.709319,-7328.038826,459.657299
1427.532303,5699.585753,-6069.688724,76.609550
1427.532632,6291.750507,-7105.977043,766.095498
1427.532962,7550.100608,-7105.977043,612.876398
1427.533291,7624.121203,-7179.997637,612.876398
1427.533621,7105.977043,-9104.533087,1762.019645
1427.533950,6735.874072,-7772.162391,1072.533697
1427.534280,5477.523971,-7624.121203,0.000000
1427.534609,4589.276840,-8142.265362,536.266849
1427.534939,5625.565159,-8512.368333,995.924147
1427.535268,7624.121203,-8956.491898,1915.238745
1427.535598,8142.265362,-6513.812290,919.314598
1427.535927,6439.791695,-6735.874072,689.485948
1427.536257,6291.750507,-7179.997637,1455.581446
1427.536586,6809.894666,-5995.668130,1455.581446
1427.536916,7402.059420,-4737.318029,1608.800546
1427.537245,7254.018232,-2812.782580,995.924147
1427.537575,6587.832884,-3849.070898,536.266849
1427.537904,6735.874072,-4367.215058,229.828649
1427.538234,6513.812290,-7031.956449,306.438199
1427.538563,7328.038826,-7105.977043,1685.410096
1427.538893,7846.182985,-8364.327145,1149.143247
1427.539222,6365.771101,-8512.368333,1532.190996
1427.539552,5699.585753,-6735.874072,842.705048
1427.539881,7105.977043,-7846.182985,1302.362347
1427.540211,8956.491898,-6883.915261,2298.286494
1427.540540,8660.409521,-5255.462188,1915.238745
1427.540870,7698.141797,-3997.112087,1378.971896
1427.541199,6439.791695,-5033.400406,229.828649
1427.541529,5181.441594,-6217.729913,-306.438199
1427.541858,4737.318029,-6957.935855,612.876398
1427.542188,5699.585753,-6661.853478,1302.362347
1427.542517,7179.997637,-5329.482782,612.876398
1427.542847,6661.853478,-5551.544565,766.095498
1427.543176,7105.977043,-6069.688724,919.314598
1427.543506,8068.244768,-6957.935855,919.314598
1427.543835,8956.491898,-8438.347739,2145.067394
1427.544165,7550.100608,-8142.265362,1762.019645
1427.544494,6143.709319,-7328.038826,919.314598
1427.544824,5921.647536,-7105.977043,383.047749
1427.545153,6883.915261,-7994.224174,1455.581446
1427.545483,8290.306550,-6439.791695,1915.238745
1427.545812,8734.430116,-3997.112087,1149.143247
1427.546142,8734.430116,-5699.585753,1532.190996
1427.546471,6513.812290,-5921.647536,842.705048
1427.546801,5403.503377,-5625.565159,0.000000
1427.547130,5773.606348,-6439.791695,76.609550
1427.547460,7105.977043,-5847.626942,153.219100
1427.547789,7920.203579,-6809.894666,1225.752797
1427.548119,8216.285956,-7105.977043,1762.019645
1427.548448,8512.368333,-7105.977043,1838.629195
1427.548778,7920.203579,-7772.162391,1685.410096
1427.549107,6809.894666,-7254.018232,1378.971896
1427.549437,5625.565159,-7179.997637,536.266849
1427.549766,5847.626942,-7031.956449,1455.581446
1427.550096,5921.647536,-8068.244768,1302.362347
1427.550425,6809.894666,-6217.729913,1532.190996
1427.550755,6957.935855,-4515.256246,0.000000
1427.551084,7031.956449,-6143.709319,383.047749
1427.551414,7105.977043,-6365.771101,919.314598
1427.551743,6217.729913,-6587.832884,-229.828649
1427.552073,5847.626942,-6883.915261,689.485948
1427.552402,6439.791695,-5699.585753,76.609550
1427.552732,8216.285956,-5995.668130,612.876398
1427.553061,7994.224174,-6291.750507,1378.971896
1427.553391,7772.162391,-8068.244768,1149.143247
1427.553720,7920.203579,-8068.244768,1608.800546
1427.554050,6957.935855,-8142.265362,1455.581446
1427.554379,6365.771101,-6883.915261,1149.143247
1427.554709,6587.832884,-6143.709319,995.924147
1427.555038,7105.977043,-5995.668130,1762.019645
1427.555368,7550.100608,-4737.318029,1532.190996
1427.555697,7179.997637,-4293.194464,1149.143247
1427.556027,6809.894666,-3849.070898,1455.581446
1427.556356,7550.100608,-5699.585753,1149.143247
1427.556686,7550.100608,-5181.441594,1838.629195
1427.557015,6587.832884,-5921.647536,459.657299
1427.557345,6957.935855,-6217.729913,612.876398
1427.557674,7994.224174,-5773.606348,842.705048
1427.558004,8216.285956,-6587.832884,1378.971896
1427.558333,7772.162391,-7402.059420,2068.457845
1427.558663,7328.038826,-7179.997637,1072.533697
1427.558992,6661.853478,-8808.450710,766.095498
1427.559322,6143.709319,-8512.368333,1302.362347
1427.559651,5773.606348,-8660.409521,995.924147
1427.559981,5995.668130,-7698.141797,612.876398
1427.560310,5625.565159,-7031.956449,689.485948
1427.560640,5995.668130,-6291.750507,153.219100
1427.560969,6365.771101,-5699.585753,536.266849
1427.561299,7031.956449,-6883.915261,306.438199
1427.561628,6735.874072,-7031.956449,459.657299
1427.561958,6069.688724,-7179.997637,766.095498
1427.562287,6661.853478,-5921.647536,459.657299
1427.562617,7179.997637,-5847.626942,306.438199
1427.562946,7920.203579,-6587.832884,995.924147
1427.563276,7920.203579,-6883.915261,1991.848295
1427.563605,8290.306550,-7254.018232,2374.896044
1427.563935,7624.121203,-7328.038826,2298.286494
1427.564264,6143.709319,-7328.038826,1685.410096
1427.564594,4737.318029,-7179.997637,919.314598
1427.564923,5329.482782,-6809.894666,1072.533697
1427.565253,5773.606348,-5699.585753,1149.143247
1427.565582,6957.935855,-5255.462188,1072.533697
1427.565912,7698.141797,-4441.235652,1378.971896
1427.566241,7698.141797,-4737.318029,459.657299
1427.566571,7105.977043,-6143.709319,536.266849
1427.566900,7031.956449,-6143.709319,689.485948
1427.567230,7476.080014,-6661.853478,689.485948
1427.567559,7550.100608,-6809.894666,1762.019645
1427.567889,8586.388927,-5181.441594,1608.800546
1427.568218,9326.594869,-5255.462188,1072.533697
1427.568548,9326.594869,-5329.482782,1532.190996
1427.568877,8512.368333,-7772.162391,2145.067394
1427.569207,6735.874072,-7846.182985,1915.238745
1427.569536,5255.462188,-7920.203579,842.705048
1427.569865,3404.947333,-7698.141797,0.000000
1427.570195,3108.864956,-8216.285956,-229.828649
1427.570524,4959.379811,-8734.430116,1685.410096
1427.570854,6735.874072,-6809.894666,1149.143247
1427.571183,7920.203579,-4737.318029,1149.143247
1427.571513,8586.388927,-4515.256246,1762.019645
1427.571842,9104.533087,-6513.812290,1608.800546
1427.572172,7994.224174,-6069.688724,842.705048
1427.572501,7031.956449,-5847.626942,536.266849
1427.572831,7328.038826,-6217.729913,689.485948
1427.573160,8438.347739,-5255.462188,1302.362347
1427.573490,8882.471304,-6439.791695,2451.505594
1427.573819,8142.265362,-7105.977043,2068.457845
1427.574149,7328.038826,-7624.121203,1762.019645
1427.574478,5403.503377,-8216.285956,306.438199
1427.574808,4441.235652,-7105.977043,-153.219100
1427.575137,4293.194464,-8438.347739,0.000000
1427.575467,5921.647536,-7698.141797,612.876398
1427.575796,6365.771101,-7031.956449,689.485948
1427.576126,6439.791695,-6661.853478,1149.143247
1427.576455,7772.162391,-6069.688724,919.314598
1427.576785,8068.244768,-6661.853478,842.705048
1427.577114,7328.038826,-5921.647536,842.705048
1427.577444,7031.956449,-5699.585753,612.876398
1427.577773,7920.203579,-6735.874072,995.924147
1427.578103,7994.224174,-6735.874072,919.314598
1427.578432,7624.121203,-5773.606348,1762.019645
1427.578762,7920.203579,-6661.853478,2145.067394
1427.579091,7550.100608,-6957.935855,2374.896044
1427.579421,6217.729913,-7179.997637,2221.676944
1427.579750,4959.379811,-7254.018232,842.705048
1427.580080,5033.400406,-7031.956449,383.047749
1427.580409,5995.668130,-6439.791695,229.828649
1427.580739,6809.894666,-6217.729913,1378.971896
1427.581068,7402.059420,-3997.112087,995.924147
1427.581398,7772.162391,-4811.338623,-153.219100
1427.581727,7624.121203,-6069.688724,1149.143247
1427.582057,8142.265362,-6587.832884,1149.143247
1427.582386,7846.182985,-5921.647536,1072.533697
1427.582716,8142.265362,-4737.318029,995.924147
1427.583045,8216.285956,-5699.585753,1455.581446
1427.583375,8956.491898,-5033.400406,1072.533697
1427.583704,8216.285956,-6883.915261,1378.971896
1427.584034,7772.162391,-6143.709319,1149.143247
1427.584363,7031.956449,-7402.059420,1608.800546
1427.584693,5329.482782,-8438.347739,612.876398
1427.585022,4293.194464,-8660.409521,383.047749
1427.585352,4737.318029,-7698.141797,919.314598
1427.585681,5699.585753,-8068.244768,842.705048
1427.586011,5477.523971,-6365.771101,919.314598
1427.586340,6217.729913,-4663.297435,842.705048
1427.586670,7105.977043,-6069.688724,153.219100
1427.586999,7105.977043,-6661.853478,1455.581446
1427.587329,6143.709319,-7105.977043,1532.190996
1427.587658,7179.997637,-6661.853478,536.266849
1427.587988,8290.306550,-5773.606348,1302.362347
1427.588317,7994.224174,-5329.482782,995.924147
1427.588647,7698.141797,-6217.729913,1608.800546
1427.588976,7994.224174,-7105.977043,1915.238745
1427.589306,7105.977043,-9252.574275,1378.971896
1427.589635,5477.523971,-7994.224174,1608.800546
1427.589965,4663.297435,-8438.347739,1378.971896
1427.590294,4663.297435,-7476.080014,383.047749
1427.590624,5625.565159,-7105.977043,1149.143247
1427.590953,7179.997637,-6809.894666,2068.457845
1427.591283,8364.327145,-3330.926739,1149.143247
1427.591612,7624.121203,-4737.318029,1072.533697
1427.591942,6809.894666,-4663.297435,919.314598
1427.592271,6291.750507,-4737.318029,153.219100
1427.592601,6291.750507,-6217.729913,76.609550
1427.592930,6439.791695,-7476.080014,1072.533697
1427.593260,7846.182985,-6809.894666,1991.848295
1427.593589,8882.471304,-6217.729913,1991.848295
1427.593919,8660.409521,-6143.709319,1685.410096
1427.594248,7920.203579,-7624.121203,2221.676944
1427.594578,7254.018232,-8956.491898,2451.505594
1427.594907,5699.585753,-8364.327145,919.314598
1427.595237,4145.153275,-8438.347739,0.000000
1427.595566,4293.194464,-7105.977043,153.219100
1427.595896,6439.791695,-6661.853478,536.266849
1427.596225,7698.141797,-5773.606348,1149.143247
1427.596555,8216.285956,-3923.091493,1532.190996
1427.596884,8734.430116,-4367.215058,1608.800546
1427.597214,7994.224174,-4663.297435,612.876398
1427.597543,6957.935855,-5625.565159,536.266849
1427.597873,6735.874072,-6291.750507,459.657299
1427.598202,7550.100608,-7031.956449,1149.143247
1427.598532,7698.141797,-7031.956449,1762.019645
1427.598861,8142.265362,-6661.853478,2145.067394
1427.599191,9104.533087,-5995.668130,2298.286494
1427.599520,8956.491898,-7550.100608,2068.457845
1427.599850,6809.894666,-8364.327145,1685.410096
1427.600179,4737.318029,-7920.203579,1072.533697
1427.600509,4367.215058,-7179.997637,383.047749
1427.600838,4663.297435,-6735.874072,0.000000
1427.601168,5255.462188,-5625.565159,459.657299
1427.601497,6735.874072,-5181.441594,0.000000
1427.601827,7105.977043,-5847.626942,383.047749
1427.602156,7254.018232,-6883.915261,995.924147
1427.602486,7105.977043,-6957.935855,153.219100
1427.602815,7105.977043,-5699.585753,0.000000
1427.603145,6809.894666,-7031.956449,229.828649
1427.603474,7698.141797,-7550.100608,1532.190996
1427.603804,8734.430116,-6957.935855,1378.971896
1427.604133,7920.203579,-7476.080014,1378.971896
1427.604463,7920.203579,-7846.182985,2221.676944
1427.604792,7328.038826,-8956.491898,2374.896044
1427.605122,6365.771101,-6957.935855,612.876398
1427.605451,4959.379811,-6513.812290,689.485948
1427.605781,5477.523971,-6735.874072,689.485948
1427.606110,6809.894666,-4293.194464,536.266849
1427.606440,7105.977043,-3775.050304,383.047749
1427.606769,7328.038826,-3182.885551,383.047749
1427.607099,7772.162391,-4811.338623,766.095498
1427.607428,7772.162391,-7031.956449,1532.190996
1427.607758,7846.182985,-6735.874072,1532.190996
1427.608087,8734.430116,-5255.462188,1378.971896
1427.608417,8956.491898,-5847.626942,1991.848295
1427.608746,8956.491898,-5995.668130,2145.067394
1427.609076,8586.388927,-6069.688724,1455.581446
1427.609405,7920.203579,-8068.244768,1915.238745
1427.609735,7105.977043,-8734.430116,1915.238745
1427.610064,5255.462188,-8882.471304,1225.752797
1427.610394,3849.070898,-8364.327145,459.657299
1427.610723,4145.153275,-7846.182985,0.000000
1427.611053,5255.462188,-6587.832884,-306.438199
1427.611382,6513.812290,-5477.523971,383.047749
1427.611712,7846.182985,-4811.338623,842.705048
1427.612041,8586.388927,-4737.318029,536.266849
1427.612371,7105.977043,-5699.585753,689.485948
1427.612700,7031.956449,-7105.977043,612.876398
1427.613030,7698.141797,-6217.729913,383.047749
1427.613359,8290.306550,-8512.368333,2221.676944
1427.613689,8438.347739,-7624.121203,2298.286494
1427.614018,8808.450710,-5329.482782,2298.286494
1427.614348,7550.100608,-5699.585753,1149.143247
1427.614677,6883.915261,-7476.080014,2451.505594
1427.615006,6217.729913,-8956.491898,1838.629195
1427.615336,5181.441594,-7105.977043,459.657299
1427.615665,3775.050304,-8142.265362,689.485948
1427.615994,3404.947333,-6957.935855,0.000000
1427.616323,5403.503377,-6365.771101,0.000000
1427.616653,6217.729913,-5773.606348,306.438199
1427.616982,7328.038826,-5329.482782,536.266849
1427.617311,8364.327145,-6069.688724,229.828649
1427.617640,7402.059420,-6735.874072,1072.533697
1427.617970,7402.059420,-6291.750507,919.314598
1427.618299,8364.327145,-6809.894666,1685.410096
1427.618628,9104.533087,-5699.585753,1762.019645
1427.618957,9030.512492,-5699.585753,1915.238745
1427.619287,8512.368333,-5477.523971,2451.505594
1427.619616,7920.203579,-6217.729913,2451.505594
1427.619945,7476.080014,-6809.894666,2298.286494
1427.620274,5847.626942,-6661.853478,766.095498
1427.620604,4737.318029,-6587.832884,766.095498
1427.620933,4959.379811,-7031.956449,766.095498
1427.621262,5995.668130,-6217.729913,536.266849
1427.621592,6587.832884,-4293.194464,383.047749
1427.621921,7476.080014,-5403.503377,229.828649
1427.622250,7624.121203,-5477.523971,612.876398
1427.622579,6809.894666,-7550.100608,689.485948
1427.622909,6513.812290,-6587.832884,766.095498
1427.623238,8142.265362,-6587.832884,1532.190996
1427.623567,9474.636058,-7105.977043,2068.457845
1427.623896,9104.533087,-6069.688724,1838.629195
1427.624226,8364.327145,-5699.585753,2145.067394
1427.624555,7846.182985,-6809.894666,1302.362347
1427.624884,6587.832884,-7179.997637,1762.019645
1427.625213,5403.503377,-7624.121203,1378.971896
1427.625543,4589.276840,-7920.203579,383.047749
1427.625872,4515.256246,-7994.224174,76.609550
1427.626201,4293.194464,-8882.471304,689.485948
1427.626530,4959.379811,-7476.080014,229.828649
1427.626860,6069.688724,-6217.729913,76.609550
1427.627189,6735.874072,-6661.853478,-306.438199
1427.627518,6217.729913,-7550.100608,0.000000
1427.627847,6513.812290,-6809.894666,76.609550
1427.628177,7402.059420,-7328.038826,612.876398
1427.628506,8438.347739,-5995.668130,1225.752797
1427.628835,8660.409521,-5107.421000,2221.676944
1427.629165,9104.533087,-4885.359217,1838.629195
1427.629494,8660.409521,-5033.400406,1608.800546
1427.629823,8216.285956,-7254.018232,2451.505594
1427.630152,7179.997637,-7920.203579,2145.067394
1427.630482,5995.668130,-6661.853478,1149.143247
1427.630811,4663.297435,-6809.894666,689.485948
1427.631140,4367.215058,-7105.977043,306.438199
1427.631469,5699.585753,-6661.853478,536.266849
1427.631799,6957.935855,-5699.585753,76.609550
1427.632128,7105.977043,-5255.462188,689.485948
1427.632457,7550.100608,-5699.585753,536.266849
1427.632786,6661.853478,-6957.935855,76.609550
1427.633116,7105.977043,-6809.894666,689.485948
1427.633445,8364.327145,-6143.709319,1149.143247
1427.633774,9030.512492,-5995.668130,1532.190996
1427.634103,8734.430116,-5329.482782,2145.067394
1427.634433,9178.553681,-4589.276840,1685.410096
1427.634762,9104.533087,-5477.523971,1455.581446
1427.635091,7624.121203,-7179.997637,2451.505594
1427.635420,6957.935855,-7402.059420,2374.896044
1427.635750,5699.585753,-7031.956449,536.266849
1427.636079,5477.523971,-6883.915261,536.266849
1427.636408,5255.462188,-7031.956449,383.047749
1427.636738,5847.626942,-6217.729913,153.219100
1427.637067,5847.626942,-6143.709319,459.657299
1427.637396,5847.626942,-7328.038826,-229.828649
1427.637725,5773.606348,-7772.162391,76.609550
1427.638055,6069.688724,-7846.182985,612.876398
1427.638384,7031.956449,-8290.306550,842.705048
1427.638713,8512.368333,-6735.874072,1455.581446
1427.639042,8734.430116,-5625.565159,1378.971896
1427.639372,8512.368333,-4663.297435,842.705048
1427.639701,9326.594869,-4811.338623,2374.896044
1427.640030,8956.491898,-7179.997637,2528.115143
1427.640359,7550.100608,-7105.977043,1302.362347
1427.640689,5181.441594,-7402.059420,536.266849
1427.641018,3997.112087,-9030.512492,153.219100
1427.641347,4071.132681,-8512.368333,0.000000
1427.641676,4515.256246,-7031.956449,0.000000
1427.642006,6143.709319,-6809.894666,76.609550
1427.642335,7402.059420,-5329.482782,536.266849
1427.642664,7624.121203,-6217.729913,919.314598
1427.642994,6957.935855,-6143.709319,1225.752797
1427.643323,7624.121203,-5847.626942,383.047749
1427.643652,8142.265362,-6143.709319,1991.848295
1427.643981,8290.306550,-5403.503377,1532.190996
1427.644311,8586.388927,-5773.606348,2604.724693
1427.644640,9548.656652,-5625.565159,3217.601092
1427.644969,8808.450710,-6143.709319,2528.115143
1427.645298,7920.203579,-5773.606348,2987.772442
1427.645628,6365.771101,-5255.462188,1378.971896
1427.645957,5403.503377,-5921.647536,-383.047749
1427.646286,5033.400406,-6439.791695,842.705048
1427.646615,6143.709319,-7031.956449,383.047749
1427.646945,6883.915261,-6291.750507,842.705048
1427.647274,7105.977043,-6069.688724,1302.362347
1427.647603,6217.729913,-7476.080014,153.219100
1427.647932,5699.585753,-6809.894666,306.438199
1427.648262,5625.565159,-7920.203579,536.266849
1427.648591,7328.038826,-6587.832884,842.705048
1427.648920,8438.347739,-5773.606348,1455.581446
1427.649249,8438.347739,-6143.709319,1608.800546
1427.649579,8216.285956,-5329.482782,2374.896044
1427.649908,7772.162391,-7179.997637,2298.286494
1427.650237,7254.018232,-7105.977043,1455.581446
1427.650567,6587.832884,-7698.141797,1991.848295
1427.650896,5995.668130,-6883.915261,1149.143247
1427.651225,5699.585753,-7846.182985,612.876398
1427.651554,5403.503377,-7624.121203,1072.533697
1427.651884,6217.729913,-6069.688724,76.609550
1427.652213,6587.832884,-6291.750507,-306.438199
1427.652542,5995.668130,-6217.729913,689.485948
1427.652871,6439.791695,-7920.203579,612.876398
1427.653201,6291.750507,-7846.182985,306.438199
1427.653530,5329.482782,-5773.606348,0.000000
1427.653859,6513.812290,-7105.977043,919.314598
1427.654188,7846.182985,-6661.853478,1532.190996
1427.654518,7698.141797,-7105.977043,1991.848295
1427.654847,7772.162391,-6365.771101,1608.800546
1427.655176,8142.265362,-6809.894666,2068.457845
1427.655505,6957.935855,-7105.977043,1838.629195
1427.655835,6661.853478,-6735.874072,1072.533697
1427.656164,5995.668130,-6513.812290,306.438199
1427.656493,7105.977043,-6217.729913,1608.800546
1427.656822,7624.121203,-6069.688724,1149.143247
1427.657152,7179.997637,-4663.297435,919.314598
1427.657481,7328.038826,-4219.173869,459.657299
1427.657810,6957.935855,-5773.606348,766.095498
1427.658140,6735.874072,-5107.421000,612.876398
1427.658469,6513.812290,-6217.729913,842.705048
1427.658798,7328.038826,-6439.791695,1532.190996
1427.659127,8216.285956,-5921.647536,1532.190996
1427.659457,7994.224174,-5921.647536,842.705048
1427.659786,7550.100608,-6291.750507,2068.457845
1427.660115,7698.141797,-7031.956449,2068.457845
1427.660444,8068.244768,-8216.285956,1762.019645
1427.660774,6513.812290,-7179.997637,1225.752797
1427.661103,5255.462188,-6661.853478,153.219100
1427.661432,6069.688724,-7772.162391,612.876398
1427.661761,6883.915261,-6883.915261,995.924147
1427.662091,6365.771101,-5181.441594,153.219100
1427.662420,6883.915261,-4515.256246,0.000000
1427.662749,7624.121203,-5699.585753,459.657299
1427.663078,6809.894666,-7105.977043,536.266849
1427.663408,5625.565159,-7994.224174,612.876398
1427.663737,6291.750507,-7328.038826,229.828649
1427.664066,7846.182985,-7772.162391,689.485948
1427.664395,7994.224174,-6809.894666,1149.143247
1427.664725,8364.327145,-8068.244768,1685.410096
1427.665054,8660.409521,-7698.141797,1915.238745
1427.665383,8068.244768,-7476.080014,2068.457845
1427.665713,6069.688724,-8660.409521,1532.190996
1427.666042,5403.503377,-7105.977043,1149.143247
1427.666371,5551.544565,-7624.121203,995.924147
1427.666700,5921.647536,-7031.956449,689.485948
1427.667030,6513.812290,-4811.338623,536.266849
1427.667359,6883.915261,-3330.926739,766.095498
1427.667688,7698.141797,-4145.153275,0.000000
1427.668017,6883.915261,-6143.709319,689.485948
1427.668347,6291.750507,-6365.771101,536.266849
1427.668676,6735.874072,-6291.750507,-536.266849
1427.669005,7698.141797,-6513.812290,766.095498
1427.669334,8660.409521,-6883.915261,1915.238745
1427.669664,9474.636058,-6217.729913,2374.896044
1427.669993,9104.533087,-6587.832884,2145.067394
1427.670322,8660.409521,-7772.162391,2221.676944
1427.670651,7031.956449,-6735.874072,1762.019645
1427.670981,5699.585753,-6513.812290,689.485948
1427.671310,4885.359217,-6735.874072,612.876398
1427.671639,5033.400406,-5773.606348,1455.581446
1427.671968,7105.977043,-5107.421000,1072.533697
1427.672298,7698.141797,-4071.132681,1225.752797
1427.672627,7402.059420,-4293.194464,995.924147
1427.672956,7105.977043,-5033.400406,536.266849
1427.673286,6217.729913,-7031.956449,842.705048
1427.673615,5551.544565,-8290.306550,612.876398
1427.673944,6069.688724,-7328.038826,459.657299
1427.674273,7105.977043,-7476.080014,612.876398
1427.674603,8438.347739,-7254.018232,1915.238745
1427.674932,9178.553681,-6735.874072,1685.410096
1427.675261,8808.450710,-7772.162391,2298.286494
1427.675590,7031.956449,-8364.327145,2451.505594
1427.675920,5329.482782,-7698.141797,995.924147
1427.676249,3923.091493,-7105.977043,-766.095498
1427.676578,3034.844362,-7698.141797,383.047749
1427.676907,5181.441594,-7402.059420,995.924147
1427.677237,7179.997637,-5625.565159,536.266849
1427.677566,7328.038826,-3923.091493,1302.362347
1427.677895,7698.141797,-5033.400406,995.924147
1427.678224,8142.265362,-5625.565159,919.314598
1427.678554,7179.997637,-5477.523971,459.657299
1427.678883,6439.791695,-7476.080014,459.657299
1427.679212,7772.162391,-6587.832884,1225.752797
1427.679542,8734.430116,-6883.915261,1532.190996
1427.679871,8142.265362,-7624.121203,2451.505594
1427.680200,8364.327145,-7179.997637,2451.505594
1427.680529,7994.224174,-7846.182985,1991.848295
1427.680859,5403.503377,-6957.935855,1532.190996
1427.681188,3923.091493,-7179.997637,766.095498
1427.681517,4959.379811,-6735.874072,689.485948
1427.681846,6217.729913,-6217.729913,995.924147
1427.682176,6365.771101,-5403.503377,1378.971896
1427.682505,6883.915261,-3701.029710,1302.362347
1427.682834,7698.141797,-4589.276840,536.266849
1427.683163,7105.977043,-5625.565159,689.485948
1427.683493,5995.668130,-6809.894666,919.314598
1427.683822,7031.956449,-5995.668130,229.828649
1427.684151,8142.265362,-6661.853478,612.876398
1427.684480,7772.162391,-7624.121203,1455.581446
1427.684810,8290.306550,-7476.080014,1685.410096
1427.685139,8216.285956,-7179.997637,1455.581446
1427.685468,7550.100608,-7698.141797,1455.581446
1427.685797,6439.791695,-8512.368333,1762.019645
1427.686127,5699.585753,-8290.306550,995.924147
1427.686456,5255.462188,-6291.750507,0.000000
1427.686785,4293.194464,-7105.977043,842.705048
1427.687115,5995.668130,-6439.791695,459.657299
1427.687444,7550.100608,-3923.091493,76.609550
1427.687773,7920.203579,-4885.359217,995.924147
1427.688102,7328.038826,-5773.606348,383.047749
1427.688432,6587.832884,-6143.709319,459.657299
1427.688761,5995.668130,-7105.977043,0.000000
1427.689090,7105.977043,-7624.121203,536.266849
1427.689419,8512.368333,-7698.141797,1685.410096
1427.689749,8586.388927,-7698.141797,1838.629195
1427.690078,7476.080014,-7105.977043,1608.800546
1427.690407,6513.812290,-8216.285956,1072.533697
1427.690736,6143.709319,-8956.491898,1378.971896
1427.691066,5403.503377,-8512.368333,919.314598
1427.691395,4515.256246,-7105.977043,153.219100
1427.691724,5033.400406,-6661.853478,229.828649
1427.692053,7254.018232,-5625.565159,919.314598
1427.692383,8808.450710,-3923.091493,1455.581446
1427.692712,8660.409521,-2664.741391,919.314598
1427.693041,8290.306550,-3034.844362,1455.581446
1427.693370,8512.368333,-4589.276840,842.705048
1427.693700,7402.059420,-6143.709319,612.876398
1427.694029,7698.141797,-7402.059420,1608.800546
1427.694358,8808.450710,-6883.915261,1915.238745
1427.694688,8734.430116,-7105.977043,2068.457845
1427.695017,7994.224174,-7105.977043,1838.629195
1427.695346,7328.038826,-7105.977043,1915.238745
1427.695675,6513.812290,-8586.388927,1838.629195
1427.696005,4811.338623,-8586.388927,1685.410096
1427.696334,4367.215058,-6883.915261,153.219100
1427.696663,5107.421000,-6587.832884,536.266849
1427.696992,6217.729913,-6143.709319,919.314598
1427.697322,7624.121203,-5773.606348,1762.019645
1427.697651,7698.141797,-3330.926739,1225.752797
1427.697980,7550.100608,-4737.318029,153.219100
1427.698309,7550.100608,-5699.585753,689.485948
1427.698639,7105.977043,-6291.750507,995.924147
1427.698968,7402.059420,-8068.244768,459.657299
1427.699297,7402.059420,-6735.874072,1072.533697
1427.699626,7624.121203,-7846.182985,1302.362347
1427.699956,8290.306550,-7254.018232,1378.971896
1427.700285,7328.038826,-6809.894666,1532.190996
1427.700614,6439.791695,-8364.327145,995.924147
1427.700943,5921.647536,-8438.347739,919.314598
1427.701273,5107.421000,-8882.471304,842.705048
1427.701602,4737.318029,-7254.018232,612.876398
1427.701931,4737.318029,-6735.874072,1302.362347
1427.702261,6513.812290,-6291.750507,919.314598
1427.702590,6809.894666,-4293.194464,0.000000
1427.702919,7550.100608,-5181.441594,1608.800546
1427.703248,8586.388927,-5773.606348,1915.238745
1427.703578,8586.388927,-5107.421000,1455.581446
1427.703907,6957.935855,-6661.853478,995.924147
1427.704236,6957.935855,-6143.709319,842.705048
1427.704565,7920.203579,-7179.997637,1762.019645
1427.704895,8216.285956,-6513.812290,2068.457845
1427.705224,7254.018232,-7105.977043,1608.800546
1427.705553,6883.915261,-7994.224174,1608.800546
1427.705882,6069.688724,-8068.244768,1149.143247
1427.706212,5181.441594,-7994.224174,689.485948
1427.706541,4885.359217,-6809.894666,995.924147
1427.706870,5181.441594,-6587.832884,459.657299
1427.707199,6217.729913,-6217.729913,689.485948
1427.707529,7105.977043,-4885.359217,1149.143247
1427.707858,8438.347739,-3552.988522,1455.581446
1427.708187,9548.656652,-4071.132681,1915.238745
1427.708517,8808.450710,-4885.359217,1838.629195
1427.708846,7772.162391,-5773.606348,1225.752797
1427.709175,7994.224174,-5625.565159,919.314598
1427.709504,8216.285956,-5033.400406,1991.848295
1427.709834,8068.244768,-6513.812290,1685.410096
1427.710163,7846.182985,-6735.874072,1762.019645
1427.710492,7105.977043,-7179.997637,1608.800546
1427.710821,5477.523971,-9474.636058,1225.752797
1427.711151,3701.029710,-9030.512492,383.047749
1427.711480,2590.720797,-9400.615463,612.876398
1427.711809,3552.988522,-8512.368333,0.000000
1427.712138,5181.441594,-6957.935855,-306.438199
1427.712468,7105.977043,-6217.729913,995.924147
1427.712797,9326.594869,-4737.318029,1532.190996
1427.713126,10214.842000,-3256.906145,1915.238745
1427.713455,9474.636058,-4219.173869,1378.971896
1427.713785,7994.224174,-5033.400406,536.266849
1427.714114,7772.162391,-5477.523971,0.000000
1427.714443,6809.894666,-6957.935855,229.828649
1427.714772,7328.038826,-7920.203579,842.705048
1427.715101,7698.141797,-7402.059420,612.876398
1427.715431,7550.100608,-7476.080014,612.876398
1427.715760,5773.606348,-8586.388927,1072.533697
1427.716089,5255.462188,-10510.924376,1302.362347
1427.716418,4367.215058,-9326.594869,306.438199
1427.716747,3849.070898,-8068.244768,153.219100
1427.717077,5181.441594,-6809.894666,-153.219100
1427.717406,6217.729913,-6069.688724,536.266849
1427.717735,7846.182985,-5033.400406,1225.752797
1427.718064,8586.388927,-3923.091493,1455.581446
1427.718394,9326.594869,-4071.132681,1532.190996
1427.718723,9400.615463,-3627.009116,2374.896044
1427.719052,8290.306550,-4441.235652,1149.143247
1427.719381,8290.306550,-4663.297435,229.828649
1427.719710,7920.203579,-5255.462188,459.657299
1427.720040,8956.491898,-6365.771101,1302.362347
1427.720369,8512.368333,-6365.771101,1685.410096
1427.720698,7402.059420,-6809.894666,1532.190996
1427.721027,6587.832884,-8290.306550,1378.971896
1427.721356,5477.523971,-8882.471304,842.705048
1427.721686,4515.256246,-8438.347739,842.705048
1427.722015,4737.318029,-8290.306550,919.314598
1427.722344,6143.709319,-6661.853478,766.095498
1427.722673,6661.853478,-5329.482782,612.876398
1427.723002,7105.977043,-4737.318029,383.047749
1427.723332,8586.388927,-4737.318029,919.314598
1427.723661,8364.327145,-5847.626942,1302.362347
1427.723990,7402.059420,-6513.812290,1378.971896
1427.724319,7550.100608,-6069.688724,612.876398
1427.724648,8364.327145,-5403.503377,919.314598
1427.724978,7698.141797,-7550.100608,919.314598
1427.725307,7994.224174,-7179.997637,1762.019645
1427.725636,8512.368333,-7550.100608,1685.410096
1427.725965,7550.100608,-8290.306550,2298.286494
1427.726294,5403.503377,-8882.471304,2068.457845
1427.726624,4219.173869,-8216.285956,229.828649
1427.726953,2960.823768,-8808.450710,0.000000
1427.727282,3552.988522,-8364.327145,689.485948
1427.727611,6439.791695,-6809.894666,2145.067394
1427.727941,7994.224174,-3552.988522,1302.362347
1427.728270,8734.430116,-3182.885551,536.266849
1427.728599,8216.285956,-4663.297435,766.095498
1427.728928,7476.080014,-5329.482782,766.095498
1427.729257,7328.038826,-5477.523971,995.924147
1427.729587,7994.224174,-5477.523971,612.876398
1427.729916,8290.306550,-5625.565159,1225.752797
1427.730245,9030.512492,-7031.956449,2068.457845
1427.730574,8734.430116,-7105.977043,2221.676944
1427.730903,7920.203579,-7328.038826,2145.067394
1427.731233,6587.832884,-9178.553681,2374.896044
1427.731562,5255.462188,-7920.203579,1225.752797
1427.731891,3923.091493,-8660.409521,459.657299
1427.732220,3256.906145,-8290.306550,0.000000
1427.732549,4959.379811,-7254.018232,689.485948
1427.732879,7328.038826,-5477.523971,1685.410096
1427.733208,7698.141797,-4441.235652,1302.362347
1427.733537,7624.121203,-3849.070898,1455.581446
1427.733866,7328.038826,-3627.009116,0.000000
1427.734195,6069.688724,-5625.565159,76.609550
1427.734525,6587.832884,-6365.771101,459.657299
1427.734854,8142.265362,-6291.750507,1455.581446
1427.735183,8734.430116,-5773.606348,1838.629195
1427.735512,9178.553681,-6365.771101,2451.505594
1427.735841,9400.615463,-6587.832884,2374.896044
1427.736171,8216.285956,-7846.182985,2068.457845
1427.736500,6069.688724,-9400.615463,2145.067394
1427.736829,4737.318029,-7624.121203,1072.533697
1427.737158,4663.297435,-7105.977043,0.000000
1427.737487,5181.441594,-7624.121203,612.876398
1427.737817,5921.647536,-6883.915261,459.657299
1427.738146,6809.894666,-4959.379811,919.314598
1427.738475,6883.915261,-4589.276840,229.828649
1427.738804,7254.018232,-5329.482782,306.438199
1427.739134,6809.894666,-5699.585753,306.438199
1427.739463,6217.729913,-6883.915261,153.219100
1427.739792,6587.832884,-7031.956449,0.000000
1427.740121,7328.038826,-7402.059420,1302.362347
1427.740450,8512.368333,-7476.080014,2068.457845
1427.740780,9104.533087,-7105.977043,2451.505594
1427.741109,9030.512492,-7550.100608,2451.505594
1427.741438,7254.018232,-9178.553681,2528.115143
1427.741767,5847.626942,-8290.306550,1608.800546
1427.742096,4959.379811,-6513.812290,0.000000
1427.742426,4737.318029,-7105.977043,0.000000
1427.742755,5255.462188,-7105.977043,1072.533697
1427.743084,6587.832884,-4811.338623,0.000000
1427.743413,7179.997637,-4071.132681,-536.266849
1427.743742,7698.141797,-4885.359217,995.924147
1427.744072,8216.285956,-5625.565159,536.266849
1427.744401,7031.956449,-5773.606348,153.219100
1427.744730,6365.771101,-6143.709319,306.438199
1427.745059,8216.285956,-6513.812290,842.705048
1427.745388,9696.697840,-6291.750507,2221.676944
1427.745718,9918.759623,-6439.791695,2681.334243
1427.746047,9178.553681,-6661.853478,3217.601092
1427.746376,8512.368333,-7105.977043,2604.724693
1427.746705,6439.791695,-7772.162391,1685.410096
1427.747034,4367.215058,-6883.915261,383.047749
1427.747364,4589.276840,-7254.018232,306.438199
1427.747693,5255.462188,-8586.388927,612.876398
1427.748022,5699.585753,-5699.585753,536.266849
1427.748351,5033.400406,-4959.379811,0.000000
1427.748681,5477.523971,-5477.523971,-306.438199
1427.749010,6291.750507,-6143.709319,-1072.533697
1427.749339,6069.688724,-7476.080014,306.438199
1427.749668,7031.956449,-7105.977043,383.047749
1427.749997,9030.512492,-5551.544565,1149.143247
1427.750327,9770.718434,-5329.482782,1991.848295
1427.750656,9030.512492,-6883.915261,1149.143247
1427.750985,9252.574275,-6883.915261,2604.724693
1427.751314,8512.368333,-8290.306550,2298.286494
1427.751643,6809.894666,-9622.677246,2681.334243
1427.751973,5625.565159,-7476.080014,1455.581446
1427.752302,3849.070898,-7476.080014,-536.266849
1427.752631,4367.215058,-7254.018232,76.609550
1427.752960,5329.482782,-7328.038826,919.314598
1427.753289,7031.956449,-4663.297435,76.609550
1427.753619,6661.853478,-3849.070898,-612.876398
1427.753948,6439.791695,-6217.729913,0.000000
1427.754277,6661.853478,-6217.729913,0.000000
1427.754606,6957.935855,-7920.203579,306.438199
1427.754935,7846.182985,-7328.038826,1608.800546
1427.755265,8438.347739,-6883.915261,2145.067394
1427.755594,9178.553681,-6513.812290,2451.505594
1427.755923,8364.327145,-6291.750507,2145.067394
1427.756252,7698.141797,-7402.059420,2298.286494
1427.756581,7328.038826,-7402.059420,2757.943793
1427.756911,6217.729913,-8216.285956,1225.752797
1427.757240,4515.256246,-7179.997637,1072.533697
1427.757569,4663.297435,-6291.750507,459.657299
1427.757898,5773.606348,-6883.915261,229.828649
1427.758228,6735.874072,-5033.400406,842.705048
1427.758557,6809.894666,-4959.379811,689.485948
1427.758886,7402.059420,-4737.318029,459.657299
1427.759215,6439.791695,-5625.565159,0.000000
1427.759544,5625.565159,-5551.544565,0.000000
1427.759874,6883.915261,-6883.915261,536.266849
1427.760203,8882.471304,-7624.121203,1685.410096
1427.760532,9696.697840,-6587.832884,2834.553343
1427.760861,8586.388927,-5107.421000,2757.943793
1427.761190,8734.430116,-5847.626942,2145.067394
1427.761520,7328.038826,-7550.100608,2374.896044
1427.761849,6291.750507,-7550.100608,1225.752797
1427.762178,5403.503377,-7105.977043,919.314598
1427.762507,5921.647536,-7624.121203,1915.238745
1427.762836,7031.956449,-7328.038826,1838.629195
1427.763166,7031.956449,-5625.565159,995.924147
1427.763495,6439.791695,-5551.544565,383.047749
1427.763824,5921.647536,-5699.585753,-229.828649
1427.764153,4737.318029,-6587.832884,-306.438199
1427.764482,4145.153275,-7105.977043,-612.876398
1427.764812,5699.585753,-7031.956449,76.609550
1427.765141,8216.285956,-6809.894666,842.705048
1427.765470,9104.533087,-6809.894666,2145.067394
1427.765799,8882.471304,-7254.018232,1915.238745
1427.766128,9030.512492,-7476.080014,1838.629195
1427.766458,8438.347739,-6587.832884,1838.629195
1427.766787,7550.100608,-7550.100608,1455.581446
1427.767116,6735.874072,-7179.997637,1532.190996
1427.767445,6513.812290,-7328.038826,1225.752797
1427.767774,6513.812290,-7179.997637,1455.581446
1427.768104,6513.812290,-6291.750507,1762.019645
1427.768433,6439.791695,-4663.297435,1455.581446
1427.768762,5773.606348,-3923.091493,-612.876398
1427.769091,5033.400406,-6069.688724,-383.047749
1427.769421,5625.565159,-7179.997637,153.219100
1427.769750,6957.935855,-6587.832884,306.438199
1427.770079,8438.347739,-5477.523971,459.657299
1427.770408,9400.615463,-5033.400406,1762.019645
1427.770737,10066.800811,-6217.729913,1991.848295
1427.771067,9326.594869,-5847.626942,1991.848295
1427.771396,9400.615463,-6143.709319,2451.505594
1427.771725,9252.574275,-6809.894666,1455.581446
1427.772054,7624.121203,-6217.729913,1762.019645
1427.772383,6143.709319,-6513.812290,1762.019645
1427.772713,5773.606348,-7105.977043,1302.362347
1427.773042,5773.606348,-5551.544565,1072.533697
1427.773371,5477.523971,-5181.441594,-76.609550
1427.773700,5551.544565,-4515.256246,0.000000
1427.774029,6291.750507,-5107.421000,-306.438199
1427.774359,6735.874072,-7402.059420,766.095498
1427.774688,6291.750507,-7920.203579,995.924147
1427.775017,6143.709319,-7476.080014,995.924147
1427.775346,7031.956449,-8142.265362,1455.581446
1427.775675,7031.956449,-7328.038826,919.314598
1427.776005,8290.306550,-6809.894666,2221.676944
1427.776334,8438.347739,-6883.915261,1838.629195
1427.776663,7920.203579,-7105.977043,2145.067394
1427.776992,7105.977043,-6883.915261,2145.067394
1427.777321,6439.791695,-5921.647536,842.705048
1427.777651,5921.647536,-6217.729913,612.876398
1427.777980,6217.729913,-7105.977043,1378.971896
1427.778309,6291.750507,-7031.956449,919.314598
1427.778638,5699.585753,-5921.647536,0.000000
1427.778968,5107.421000,-6291.750507,-842.705048
1427.779297,5107.421000,-7179.997637,-995.924147
1427.779626,4441.235652,-9918.759623,-229.828649
1427.779955,5255.462188,-9104.533087,229.828649
1427.780284,6439.791695,-8882.471304,536.266849
1427.780614,8216.285956,-7772.162391,1685.410096
1427.780943,9400.615463,-5403.503377,1762.019645
1427.781272,9474.636058,-5329.482782,2451.505594
1427.781601,9400.615463,-4885.359217,2068.457845
1427.781930,8364.327145,-4737.318029,1838.629195
1427.782260,6957.935855,-4811.338623,2451.505594
1427.782589,6809.894666,-5329.482782,1149.143247
1427.782918,7031.956449,-6513.812290,1225.752797
1427.783247,7328.038826,-5551.544565,1455.581446
1427.783576,7698.141797,-5699.585753,1608.800546
1427.783906,7402.059420,-4663.297435,842.705048
1427.784235,6735.874072,-5329.482782,76.609550
1427.784564,6069.688724,-6957.935855,0.000000
1427.784893,5033.400406,-7328.038826,383.047749
1427.785222,5847.626942,-7179.997637,0.000000
1427.785552,6809.894666,-7476.080014,995.924147
1427.785881,8142.265362,-6513.812290,1838.629195
1427.786210,8512.368333,-6809.894666,2145.067394
1427.786539,8734.430116,-6217.729913,1991.848295
1427.786868,8216.285956,-6587.832884,2068.457845
1427.787198,6661.853478,-6587.832884,919.314598
1427.787527,6291.750507,-5995.668130,995.924147
1427.787856,6587.832884,-7105.977043,995.924147
1427.788185,7772.162391,-6513.812290,2068.457845
1427.788515,7624.121203,-5329.482782,995.924147
1427.788844,6513.812290,-5329.482782,-306.438199
1427.789173,5921.647536,-5847.626942,0.000000
1427.789502,5033.400406,-7994.224174,229.828649
1427.789831,5773.606348,-8068.244768,-306.438199
1427.790161,5773.606348,-7698.141797,306.438199
1427.790490,6809.894666,-7772.162391,766.095498
1427.790819,7328.038826,-6735.874072,1302.362347
1427.791148,7550.100608,-5625.565159,1149.143247
1427.791477,8142.265362,-6217.729913,1762.019645
1427.791807,8586.388927,-6883.915261,2145.067394
1427.792136,7846.182985,-7550.100608,2604.724693
1427.792465,6957.935855,-6661.853478,1455.581446
1427.792794,6661.853478,-6883.915261,689.485948
1427.793123,6365.771101,-7476.080014,689.485948
1427.793453,6587.832884,-5847.626942,536.266849
1427.793782,6439.791695,-6069.688724,76.609550
1427.794111,6513.812290,-5773.606348,612.876398
1427.794440,6069.688724,-7328.038826,76.609550
1427.794769,5551.544565,-8956.491898,0.000000
1427.795099,5477.523971,-7328.038826,459.657299
1427.795428,6365.771101,-7105.977043,153.219100
1427.795757,7179.997637,-5921.647536,1685.410096
1427.796086,8512.368333,-5847.626942,1915.238745
1427.796415,9178.553681,-5847.626942,2451.505594
1427.796745,9548.656652,-4737.318029,2145.067394
1427.797074,8660.409521,-6069.688724,2834.553343
1427.797403,7772.162391,-5847.626942,1608.800546
1427.797732,6365.771101,-5107.421000,689.485948
1427.798061,6143.709319,-6809.894666,1455.581446
1427.798391,7105.977043,-5995.668130,1762.019645
1427.798720,8216.285956,-5033.400406,1378.971896
1427.799049,7476.080014,-4737.318029,1072.533697
1427.799378,6513.812290,-5107.421000,842.705048
1427.799708,5847.626942,-7920.203579,612.876398
1427.800037,4959.379811,-6735.874072,0.000000
1427.800366,4589.276840,-7254.018232,76.609550
1427.800695,6217.729913,-7179.997637,766.095498
1427.801024,7624.121203,-6217.729913,1072.533697
1427.801354,7920.203579,-7179.997637,2068.457845
1427.801683,9400.615463,-5551.544565,2221.676944
1427.802012,9548.656652,-6809.894666,2451.505594
1427.802341,7920.203579,-6661.853478,1685.410096
1427.802670,5625.565159,-6143.709319,383.047749
1427.803000,5995.668130,-6957.935855,459.657299
1427.803329,7402.059420,-7328.038826,1685.410096
1427.803658,7105.977043,-7476.080014,1532.190996
1427.803987,6661.853478,-5625.565159,459.657299
1427.804316,5477.523971,-6587.832884,0.000000
1427.804646,4737.318029,-7920.203579,-76.609550
1427.804975,5033.400406,-8290.306550,0.000000
1427.805304,5255.462188,-7772.162391,459.657299
1427.805633,6957.935855,-7402.059420,1532.190996
1427.805962,7772.162391,-6513.812290,1378.971896
1427.806292,7920.203579,-5921.647536,1455.581446
1427.806621,8364.327145,-6365.771101,1455.581446
1427.806950,8956.491898,-7031.956449,1915.238745
1427.807279,7994.224174,-7328.038826,2298.286494
1427.807608,6439.791695,-6883.915261,1762.019645
1427.807938,6587.832884,-6735.874072,1455.581446
1427.808267,5847.626942,-7105.977043,919.314598
1427.808596,5995.668130,-6439.791695,689.485948
1427.808925,6365.771101,-4737.318029,153.219100
1427.809255,6883.915261,-4663.297435,306.438199
1427.809584,6587.832884,-7179.997637,1149.143247
1427.809913,6587.832884,-6661.853478,842.705048
1427.810242,6957.935855,-6365.771101,306.438199
1427.810571,7328.038826,-6661.853478,842.705048
1427.810901,8142.265362,-5255.462188,1608.800546
1427.811230,9104.533087,-5847.626942,1915.238745
1427.811559,9548.656652,-5181.441594,1991.848295
1427.811888,9178.553681,-5181.441594,1685.410096
1427.812217,8290.306550,-6809.894666,2374.896044
1427.812547,6587.832884,-6809.894666,1762.019645
1427.812876,5033.400406,-7550.100608,229.828649
1427.813205,4663.297435,-7402.059420,459.657299
1427.813534,5403.503377,-7550.100608,1149.143247
1427.813863,6069.688724,-6587.832884,842.705048
1427.814193,6365.771101,-5033.400406,459.657299
1427.814522,6217.729913,-5847.626942,0.000000
1427.814851,5921.647536,-6883.915261,536.266849
1427.815180,5847.626942,-7179.997637,153.219100
1427.815509,5255.462188,-9178.553681,766.095498
1427.815839,7105.977043,-5255.462188,383.047749
1427.816168,8068.244768,-8068.244768,1149.143247
1427.816497,8586.388927,-7698.141797,1991.848295
1427.816826,9178.553681,-5255.462188,2221.676944
1427.817155,8512.368333,-7179.997637,2068.457845
1427.817485,7846.182985,-6809.894666,1532.190996
1427.817814,5255.462188,-7476.080014,76.609550
1427.818143,4737.318029,-7624.121203,612.876398
1427.818472,5699.585753,-6883.915261,-383.047749
1427.818801,7031.956449,-7105.977043,1149.143247
1427.819130,6735.874072,-4737.318029,1072.533697
1427.819460,7179.997637,-4515.256246,536.266849
1427.819789,7994.224174,-5181.441594,536.266849
1427.820118,6735.874072,-6069.688724,153.219100
1427.820447,7105.977043,-7031.956449,536.266849
1427.820776,8364.327145,-4589.276840,1378.971896
1427.821106,8956.491898,-7031.956449,919.314598
1427.821435,9178.553681,-6217.729913,1991.848295
1427.821764,8364.327145,-6291.750507,1991.848295
1427.822093,7624.121203,-7698.141797,536.266849
1427.822422,6439.791695,-8660.409521,1762.019645
1427.822751,5255.462188,-7920.203579,1608.800546
1427.823081,5403.503377,-6735.874072,306.438199
1427.823410,4811.338623,-7476.080014,536.266849
1427.823739,5403.503377,-6143.709319,689.485948
1427.824068,7624.121203,-5255.462188,306.438199
1427.824397,7402.059420,-4293.194464,995.924147
1427.824727,7550.100608,-4811.338623,612.876398
1427.825056,7772.162391,-5847.626942,536.266849
1427.825385,7402.059420,-6513.812290,1378.971896
1427.825714,7328.038826,-6513.812290,1225.752797
1427.826043,8068.244768,-6513.812290,1915.238745
1427.826372,8290.306550,-5773.606348,1072.533697
1427.826702,7624.121203,-6735.874072,995.924147
1427.827031,7105.977043,-7031.956449,1378.971896
1427.827360,7698.141797,-8142.265362,2374.896044
1427.827689,7105.977043,-8808.450710,2604.724693
1427.828018,5625.565159,-7402.059420,919.314598
1427.828348,4515.256246,-7402.059420,766.095498
1427.828677,4959.379811,-6883.915261,229.828649
1427.829006,5921.647536,-5995.668130,-76.609550
1427.829335,6365.771101,-5773.606348,919.314598
1427.829664,7105.977043,-5921.647536,1225.752797
1427.829993,7254.018232,-6957.935855,1225.752797
1427.830323,6957.935855,-6883.915261,1225.752797
1427.830652,6809.894666,-5551.544565,306.438199
1427.830981,7402.059420,-5773.606348,1378.971896
1427.831310,8660.409521,-5995.668130,1991.848295
1427.831639,8882.471304,-6513.812290,1915.238745
1427.831969,8438.347739,-6069.688724,2451.505594
1427.832298,7550.100608,-7772.162391,1685.410096
1427.832627,6217.729913,-8660.409521,1532.190996
1427.832956,4589.276840,-7846.182985,842.705048
1427.833285,3627.009116,-8216.285956,0.000000
1427.833614,4737.318029,-7328.038826,459.657299
1427.833944,6587.832884,-5551.544565,766.095498
1427.834273,7624.121203,-5107.421000,995.924147
1427.834602,8068.244768,-4367.215058,919.314598
1427.834931,7624.121203,-5403.503377,919.314598
1427.835260,7402.059420,-6439.791695,1532.190996
1427.835590,7105.977043,-6069.688724,919.314598
1427.835919,7550.100608,-6217.729913,1532.190996
1427.836248,8660.409521,-6217.729913,1838.629195
1427.836577,9474.636058,-6439.791695,1762.019645
1427.836906,8290.306550,-6217.729913,1302.362347
1427.837235,6883.915261,-6513.812290,842.705048
1427.837565,5551.544565,-8512.368333,919.314598
1427.837894,4367.215058,-8586.388927,153.219100
1427.838223,4737.318029,-7254.018232,-153.219100
1427.838552,5551.544565,-8364.327145,995.924147
1427.838881,6661.853478,-7254.018232,919.314598
1427.839211,6883.915261,-5551.544565,995.924147
1427.839540,7476.080014,-4219.173869,1072.533697
1427.839869,8216.285956,-4441.235652,919.314598
1427.840198,7328.038826,-5403.503377,612.876398
1427.840527,6883.915261,-6883.915261,229.828649
1427.840856,7179.997637,-6661.853478,612.876398
1427.841186,8734.430116,-5403.503377,1302.362347
1427.841515,8956.491898,-7031.956449,1915.238745
1427.841844,8290.306550,-6587.832884,2374.896044
1427.842173,6661.853478,-7328.038826,1225.752797
1427.842502,5625.565159,-8438.347739,536.266849
1427.842832,4441.235652,-9474.636058,919.314598
1427.843161,4219.173869,-8660.409521,612.876398
1427.843490,4663.297435,-9474.636058,612.876398
1427.843819,4737.318029,-8660.409521,536.266849
1427.844148,5625.565159,-7402.059420,0.000000
1427.844477,5403.503377,-7254.018232,229.828649
1427.844807,6143.709319,-6439.791695,0.000000
1427.845136,6809.894666,-7254.018232,536.266849
1427.845465,6291.750507,-6883.915261,842.705048
1427.845794,5847.626942,-6957.935855,153.219100
1427.846123,7328.038826,-6365.771101,536.266849
1427.846453,8734.430116,-5477.523971,1608.800546
1427.846782,9400.615463,-6513.812290,2145.067394
1427.847111,9474.636058,-6069.688724,2451.505594
1427.847440,7772.162391,-6735.874072,2451.505594
1427.847769,6513.812290,-8808.450710,1608.800546
1427.848098,4367.215058,-8734.430116,612.876398
1427.848428,3552.988522,-8364.327145,76.609550
1427.848757,4515.256246,-7846.182985,-306.438199
1427.849086,5255.462188,-8364.327145,1838.629195
1427.849415,6587.832884,-6291.750507,2145.067394
1427.849744,7179.997637,-4515.256246,842.705048
1427.850074,6957.935855,-5773.606348,2068.457845
1427.850403,5995.668130,-6809.894666,1302.362347
1427.850732,4959.379811,-7772.162391,0.000000
1427.851061,3923.091493,-8142.265362,229.828649
1427.851390,4515.256246,-9918.759623,306.438199
1427.851719,4885.359217,-10658.965565,1149.143247
1427.852049,4959.379811,-9622.677246,1455.581446
1427.852378,4737.318029,-10362.883188,1072.533697
1427.852707,5551.544565,-10362.883188,2145.067394
1427.853036,4737.318029,-10436.903782,2145.067394
1427.853365,3034.844362,-9696.697840,612.876398
1427.853695,2294.638420,-8142.265362,229.828649
1427.854024,3256.906145,-8290.306550,0.000000
1427.854353,4811.338623,-8364.327145,1378.971896
1427.854682,5329.482782,-6883.915261,2528.115143
1427.855011,6661.853478,-5477.523971,1225.752797
1427.855340,6143.709319,-5107.421000,689.485948
1427.855670,5181.441594,-8290.306550,612.876398
1427.855999,4959.379811,-9622.677246,1455.581446
1427.856328,4663.297435,-10066.800811,536.266849
1427.856657,3256.906145,-9474.636058,0.000000
1427.856986,3552.988522,-9844.739029,536.266849
1427.857316,4145.153275,-12065.356855,1608.800546
1427.857645,4293.194464,-11769.274478,2221.676944
1427.857974,4959.379811,-10214.842000,1455.581446
1427.858303,5255.462188,-8586.388927,1532.190996
1427.858632,5033.400406,-9326.594869,2068.457845
1427.858962,3330.926739,-9474.636058,995.924147
1427.859291,2590.720797,-7698.141797,-306.438199
1427.859620,3108.864956,-7624.121203,0.000000
1427.859949,4737.318029,-8808.450710,1302.362347
1427.860278,5773.606348,-7846.182985,2604.724693
1427.860607,6439.791695,-6883.915261,2145.067394
1427.860937,7105.977043,-4219.173869,1455.581446
1427.861266,7402.059420,-5181.441594,919.314598
1427.861595,6217.729913,-7698.141797,1072.533697
1427.861924,5699.585753,-10140.821405,2068.457845
1427.862253,5181.441594,-9474.636058,1302.362347
1427.862583,3404.947333,-9474.636058,-919.314598
1427.862912,3034.844362,-11103.089130,536.266849
1427.863241,5107.421000,-12509.480420,2834.553343
1427.863570,6735.874072,-10362.883188,2374.896044
1427.863899,5329.482782,-6365.771101,1608.800546
1427.864228,5107.421000,-4663.297435,-306.438199
1427.864558,5699.585753,-5921.647536,-383.047749
1427.864887,5847.626942,-8364.327145,1302.362347
1427.865216,5107.421000,-10362.883188,1838.629195
1427.865545,4737.318029,-8808.450710,689.485948
1427.865874,4071.132681,-8808.450710,306.438199
1427.866204,4145.153275,-10658.965565,1378.971896
1427.866533,5255.462188,-10658.965565,2374.896044
1427.866862,5477.523971,-9400.615463,1302.362347
1427.867191,4441.235652,-7698.141797,842.705048
1427.867520,4441.235652,-5403.503377,1762.019645
1427.867849,6513.812290,-5181.441594,1532.190996
1427.868179,8438.347739,-5921.647536,2145.067394
1427.868508,7550.100608,-6809.894666,2528.115143
1427.868837,6217.729913,-7328.038826,1915.238745
1427.869166,5181.441594,-7846.182985,1072.533697
1427.869495,4293.194464,-7402.059420,0.000000
1427.869825,3256.906145,-7772.162391,-995.924147
1427.870154,3701.029710,-10140.821405,-459.657299
1427.870483,3701.029710,-12287.418637,0.000000
1427.870812,4145.153275,-13323.706956,995.924147
1427.871141,4737.318029,-11695.253884,1072.533697
1427.871470,4663.297435,-9474.636058,1378.971896
1427.871800,3849.070898,-9252.574275,0.000000
1427.872129,3182.885551,-9474.636058,1455.581446
1427.872458,5255.462188,-7846.182985,1608.800546
1427.872787,6365.771101,-6217.729913,1915.238745
1427.873116,6143.709319,-4885.359217,3140.991542
1427.873446,5995.668130,-6809.894666,2604.724693
1427.873775,5107.421000,-7624.121203,1532.190996
1427.874104,3034.844362,-9474.636058,612.876398
1427.874433,2590.720797,-10214.842000,-459.657299
1427.874762,2368.659014,-10362.883188,-459.657299
1427.875091,2812.782580,-12139.377449,229.828649
1427.875421,3627.009116,-13323.706956,919.314598
1427.875750,3849.070898,-12065.356855,1608.800546
1427.876079,4219.173869,-10140.821405,1532.190996
1427.876408,4959.379811,-7994.224174,1225.752797
1427.876737,5921.647536,-5921.647536,1532.190996
1427.877067,6809.894666,-5329.482782,1915.238745
1427.877396,7031.956449,-5181.441594,2298.286494
1427.877725,6439.791695,-6143.709319,1685.410096
1427.878054,5329.482782,-7328.038826,919.314598
1427.878383,4663.297435,-9104.533087,995.924147
1427.878712,3701.029710,-10066.800811,995.924147
1427.879042,2886.803174,-11251.130318,612.876398
1427.879371,2812.782580,-12213.398043,0.000000
1427.879700,3330.926739,-13101.645173,0.000000
1427.880029,3627.009116,-12213.398043,76.609550
1427.880358,4071.132681,-10436.903782,842.705048
1427.880688,4589.276840,-8956.491898,1072.533697
1427.881017,5107.421000,-7105.977043,1991.848295
1427.881346,5847.626942,-6513.812290,3294.210641
1427.881675,7031.956449,-4959.379811,3217.601092
1427.882004,7254.018232,-2886.803174,3524.039291
1427.882333,7254.018232,-2886.803174,2068.457845
1427.882663,6957.935855,-3849.070898,612.876398
1427.882992,6661.853478,-5477.523971,919.314598
1427.883321,6883.915261,-7105.977043,919.314598
1427.883650,6735.874072,-8956.491898,842.705048
1427.883979,7105.977043,-10436.903782,1915.238745
1427.884309,6809.894666,-10807.006753,612.876398
1427.884638,4737.318029,-11251.130318,229.828649
1427.884967,2812.782580,-11843.295072,919.314598
1427.885296,2960.823768,-11843.295072,0.000000
1427.885625,2368.659014,-11177.109724,-229.828649
1427.885954,1554.432478,-11325.150913,383.047749
1427.886284,1924.535449,-11177.109724,76.609550
1427.886613,3256.906145,-9474.636058,-536.266849
1427.886942,3627.009116,-7254.018232,459.657299
1427.887271,5625.565159,-5699.585753,1149.143247
1427.887600,8216.285956,-2812.782580,1149.143247
1427.887930,8586.388927,-2220.617826,2834.553343
1427.888259,9844.739029,-4367.215058,2604.724693
1427.888588,9992.780217,-7328.038826,3294.210641
1427.888917,8216.285956,-9030.512492,3217.601092
1427.889246,5847.626942,-10288.862594,1685.410096
1427.889575,4071.132681,-10807.006753,1149.143247
1427.889905,2812.782580,-12065.356855,766.095498
1427.890234,2072.576638,-12139.377449,842.705048
1427.890563,1776.494261,-11177.109724,383.047749
1427.890892,1850.514855,-9474.636058,229.828649
1427.891221,1702.473667,-8068.244768,-842.705048
1427.891551,2368.659014,-6439.791695,-995.924147
1427.891880,3701.029710,-6291.750507,-459.657299
1427.892209,5847.626942,-7105.977043,1225.752797
1427.892538,8068.244768,-7550.100608,1991.848295
1427.892867,7846.182985,-8216.285956,2374.896044
1427.893196,6587.832884,-9400.615463,1991.848295
1427.893526,5551.544565,-10732.986159,1762.019645
1427.893855,4589.276840,-10881.027347,1378.971896
1427.894184,3627.009116,-10807.006753,1225.752797
1427.894513,3849.070898,-9844.739029,2374.896044
1427.894842,4589.276840,-8882.471304,2757.943793
1427.895172,4367.215058,-8290.306550,3294.210641
1427.895501,4145.153275,-7550.100608,2757.943793
1427.895830,3997.112087,-6661.853478,1608.800546
1427.896159,3849.070898,-6587.832884,1225.752797
1427.896488,4441.235652,-6513.812290,1072.533697
1427.896817,5403.503377,-6883.915261,1685.410096
1427.897147,5551.544565,-7846.182985,1378.971896
1427.897476,5773.606348,-9770.718434,1532.190996
1427.897805,5403.503377,-10140.821405,1915.238745
1427.898134,4959.379811,-10955.047942,2068.457845
1427.898463,4959.379811,-10288.862594,2757.943793
1427.898793,6069.688724,-9252.574275,3907.087040
1427.899122,7105.977043,-7994.224174,4213.525239
1427.899451,7328.038826,-6291.750507,4366.744339
1427.899780,7031.956449,-5181.441594,3907.087040
1427.900109,6661.853478,-4367.215058,2757.943793
1427.900438,6883.915261,-4589.276840,2451.505594
1427.900768,6809.894666,-5181.441594,2145.067394
1427.901097,6513.812290,-6661.853478,2451.505594
1427.901426,6957.935855,-7105.977043,3447.429741
1427.901755,7476.080014,-8068.244768,2604.724693
1427.902084,6587.832884,-8438.347739,3447.429741
1427.902414,6217.729913,-7920.203579,3753.867940
1427.902743,6513.812290,-7920.203579,3677.258390
1427.903072,6513.812290,-7328.038826,3524.039291
1427.903401,6957.935855,-6069.688724,4366.744339
1427.903730,7328.038826,-5403.503377,4366.744339
1427.904059,8068.244768,-5329.482782,4290.134789
1427.904389,7328.038826,-4663.297435,4903.011187
1427.904718,7179.997637,-4663.297435,4443.353888
1427.905047,8216.285956,-4589.276840,4443.353888
1427.905376,8438.347739,-4811.338623,4596.572988
1427.905705,8290.306550,-5033.400406,4290.134789
1427.906035,8586.388927,-5699.585753,4596.572988
1427.906364,7476.080014,-7179.997637,4060.306139
1427.906693,6143.709319,-8808.450710,3370.820191
1427.907022,4737.318029,-10214.842000,3524.039291
1427.907351,3775.050304,-10732.986159,3524.039291
1427.907680,3849.070898,-10658.965565,3677.258390
1427.908010,3997.112087,-9844.739029,4366.744339
1427.908339,4515.256246,-9030.512492,4443.353888
1427.908668,5329.482782,-7476.080014,4519.963438
1427.908997,5847.626942,-6513.812290,4673.182538
1427.909326,6735.874072,-5625.565159,5515.887586
1427.909656,7920.203579,-5773.606348,5822.325785
1427.909985,8068.244768,-4071.132681,5822.325785
1427.910314,8808.450710,-3775.050304,5745.716235
1427.910643,9770.718434,-3034.844362,5822.325785
1427.910972,9474.636058,-3034.844362,5515.887586
1427.911301,8808.450710,-4737.318029,5056.230287
1427.911631,7920.203579,-5403.503377,4749.792088
1427.911960,7105.977043,-7031.956449,4366.744339
1427.912289,6439.791695,-8586.388927,3907.087040
1427.912618,5625.565159,-9400.615463,3907.087040
1427.912947,4811.338623,-10510.924376,4136.915689
1427.913277,4515.256246,-10140.821405,3907.087040
1427.913606,2812.782580,-10066.800811,3370.820191
1427.913935,2886.803174,-9252.574275,3600.648841
1427.914264,3701.029710,-8290.306550,3677.258390
1427.914593,5773.606348,-6587.832884,4366.744339
1427.914923,7994.224174,-5107.421000,4979.620737
1427.915252,9178.553681,-3108.864956,5822.325785
1427.915581,9696.697840,-1628.453072,5898.935335
1427.915910,9548.656652,-1924.535449,5362.668486
1427.916239,9400.615463,-2368.659014,5286.058936
1427.916568,8956.491898,-3775.050304,4749.792088
1427.916898,7920.203579,-5477.523971,3983.696590
1427.917227,7328.038826,-7179.997637,3447.429741
1427.917556,6439.791695,-9030.512492,2757.943793
1427.917885,5551.544565,-9770.718434,2451.505594
1427.918214,4367.215058,-10288.862594,2451.505594
1427.918543,4441.235652,-10140.821405,2604.724693
1427.918872,5107.421000,-8586.388927,3294.210641
1427.919202,6439.791695,-6809.894666,3907.087040
1427.919531,8216.285956,-4737.318029,3907.087040
1427.919860,9474.636058,-3627.009116,4213.525239
1427.920189,9918.759623,-4515.256246,4060.306139
1427.920518,8808.450710,-4515.256246,3447.429741
1427.920847,7179.997637,-4663.297435,2681.334243
1427.921176,6365.771101,-5921.647536,2298.286494
1427.921505,6439.791695,-7105.977043,2987.772442
1427.921835,6291.750507,-7846.182985,3677.258390
1427.922164,6809.894666,-7994.224174,4060.306139
1427.922493,7105.977043,-7698.141797,4826.401637
1427.922822,7328.038826,-6587.832884,4443.353888
1427.923151,7254.018232,-7179.997637,4673.182538
1427.923480,7179.997637,-6957.935855,4366.744339
1427.923809,6883.915261,-5477.523971,3447.429741
1427.924138,6957.935855,-4367.215058,2911.162892
1427.924468,7772.162391,-3552.988522,3294.210641
1427.924797,8438.347739,-3849.070898,3830.477490
1427.925126,8438.347739,-4293.194464,3753.867940
1427.925455,7920.203579,-5107.421000,3600.648841
1427.925784,7624.121203,-7105.977043,3140.991542
1427.926113,6291.750507,-9104.533087,3753.867940
1427.926442,5181.441594,-10436.903782,3370.820191
1427.926771,4737.318029,-10955.047942,2681.334243
1427.927101,4219.173869,-9918.759623,2681.334243
1427.927430,3923.091493,-8882.471304,3294.210641
1427.927759,4885.359217,-7031.956449,2834.553343
1427.928088,5773.606348,-5551.544565,3753.867940
1427.928417,7402.059420,-4737.318029,4596.572988
1427.928746,8290.306550,-4219.173869,4903.011187
1427.929075,9030.512492,-4737.318029,6128.763984
1427.929404,9918.759623,-2886.803174,6665.030833
1427.929734,10881.027347,-2886.803174,5209.449386
1427.930063,10066.800811,-3182.885551,4749.792088
1427.930392,8734.430116,-4663.297435,4060.306139
1427.930721,7031.956449,-7105.977043,2757.943793
1427.931050,5403.503377,-9178.553681,2681.334243
1427.931379,4071.132681,-10510.924376,2604.724693
1427.931708,3775.050304,-11843.295072,3294.210641
1427.932037,3775.050304,-11695.253884,4136.915689
1427.932367,3775.050304,-10362.883188,3830.477490
1427.932696,4589.276840,-7031.956449,3524.039291
1427.933025,6735.874072,-4959.379811,4596.572988
1427.933354,8734.430116,-3997.112087,5362.668486
1427.933683,10288.862594,-1998.556043,5822.325785
1427.934012,10510.924376,-1776.494261,5592.497135
1427.934341,10066.800811,-2072.576638,5132.839837
1427.934670,8512.368333,-3923.091493,5132.839837
1427.935000,7179.997637,-6587.832884,5132.839837
1427.935329,7698.141797,-8364.327145,4903.011187
1427.935658,8290.306550,-8734.430116,4596.572988
1427.935987,6957.935855,-9992.780217,4366.744339
1427.936316,4663.297435,-9326.594869,3294.210641
1427.936645,3701.029710,-7920.203579,2145.067394
1427.936974,3552.988522,-7105.977043,2298.286494
1427.937303,4737.318029,-6143.709319,3677.258390
1427.937633,6809.894666,-5477.523971,4979.620737
1427.937962,8290.306550,-5847.626942,7048.078582
1427.938291,8290.306550,-5847.626942,6358.592633
1427.938620,7994.224174,-4885.359217,5439.278036
1427.938949,7920.203579,-4959.379811,4903.011187
1427.939278,7550.100608,-4885.359217,4979.620737
1427.939607,7846.182985,-4811.338623,3830.477490
1427.939936,7328.038826,-4811.338623,2987.772442
1427.940266,6809.894666,-7402.059420,3447.429741
1427.940595,7105.977043,-9696.697840,4903.011187
1427.940924,7254.018232,-9252.574275,4826.401637
1427.941253,5921.647536,-8660.409521,4290.134789
1427.941582,4219.173869,-7772.162391,3064.381992
1427.941911,4071.132681,-7624.121203,2451.505594
1427.942240,5403.503377,-7402.059420,3753.867940
1427.942570,7772.162391,-5551.544565,4443.353888
1427.942899,8438.347739,-3627.009116,5132.839837
1427.943228,8216.285956,-2294.638420,4290.134789
1427.943557,7994.224174,-4663.297435,3983.696590
1427.943886,8068.244768,-5847.626942,4903.011187
1427.944215,8512.368333,-5329.482782,5132.839837
1427.944544,7994.224174,-6365.771101,4290.134789
1427.944873,7105.977043,-6439.791695,3600.648841
1427.945203,6291.750507,-9474.636058,2987.772442
1427.945532,5699.585753,-9548.656652,3140.991542
1427.945861,5773.606348,-8068.244768,2911.162892
1427.946190,5921.647536,-6587.832884,2221.676944
1427.946519,6661.853478,-5921.647536,2834.553343
1427.946848,7179.997637,-6439.791695,3370.820191
1427.947177,6957.935855,-5699.585753,3524.039291
1427.947506,6735.874072,-4737.318029,2068.457845
1427.947836,6661.853478,-6291.750507,1838.629195
1427.948165,7624.121203,-6143.709319,1762.019645
1427.948494,8438.347739,-5773.606348,1762.019645
1427.948823,8216.285956,-5477.523971,2374.896044
1427.949152,7624.121203,-7031.956449,1685.410096
1427.949481,7328.038826,-8512.368333,2374.896044
1427.949810,7550.100608,-7179.997637,1991.848295
1427.950139,6809.894666,-7328.038826,2068.457845
1427.950469,6069.688724,-8512.368333,1685.410096
1427.950798,5107.421000,-10584.944971,1762.019645
1427.951127,5403.503377,-8364.327145,2298.286494
1427.951456,7254.018232,-5181.441594,3294.210641
1427.951785,8660.409521,-4071.132681,2528.115143
1427.952114,7920.203579,-3478.967927,2451.505594
1427.952443,7328.038826,-5625.565159,3140.991542
1427.952772,7179.997637,-3330.926739,2298.286494
1427.953102,7476.080014,-2368.659014,1302.362347
1427.953431,7550.100608,-5181.441594,1072.533697
1427.953760,7846.182985,-6735.874072,1685.410096
1427.954089,8438.347739,-8068.244768,2528.115143
1427.954418,8216.285956,-7846.182985,1149.143247
1427.954747,6217.729913,-8216.285956,612.876398
1427.955076,5255.462188,-9474.636058,76.609550
1427.955405,4515.256246,-9548.656652,-536.266849
1427.955735,3256.906145,-9770.718434,842.705048
1427.956064,4737.318029,-7920.203579,612.876398
1427.956393,5921.647536,-5921.647536,919.314598
1427.956722,7328.038826,-5403.503377,2221.676944
1427.957051,9104.533087,-5699.585753,3907.087040
1427.957380,10066.800811,-3923.091493,3140.991542
1427.957709,9030.512492,-1924.535449,2068.457845
1427.958038,8142.265362,-3701.029710,1608.800546
1427.958368,8142.265362,-4737.318029,1915.238745
1427.958697,7920.203579,-4293.194464,995.924147
1427.959026,7920.203579,-5847.626942,153.219100
1427.959355,7550.100608,-6069.688724,0.000000
1427.959684,5773.606348,-9474.636058,229.828649
1427.960013,4589.276840,-11029.068536,536.266849
1427.960342,5477.523971,-10362.883188,459.657299
1427.960671,5921.647536,-9844.739029,1991.848295
1427.961001,4737.318029,-9548.656652,919.314598
1427.961330,3849.070898,-8956.491898,1991.848295
1427.961659,5329.482782,-5403.503377,1149.143247
1427.961988,8290.306550,-3182.885551,1072.533697
1427.962317,9178.553681,-3701.029710,3217.601092
1427.962646,9474.636058,-3701.029710,3677.258390
1427.962975,9696.697840,-3034.844362,2374.896044
1427.963304,8216.285956,-2960.823768,1149.143247
1427.963634,7920.203579,-4959.379811,1302.362347
1427.963963,7920.203579,-6143.709319,689.485948
1427.964292,7772.162391,-6217.729913,536.266849
1427.964621,6587.832884,-8216.285956,306.438199
1427.964950,6365.771101,-8438.347739,-153.219100
1427.965279,5773.606348,-9474.636058,-229.828649
1427.965608,3627.009116,-9844.739029,153.219100
1427.965937,3256.906145,-9178.553681,0.000000
1427.966267,4071.132681,-9548.656652,229.828649
1427.966596,5255.462188,-6735.874072,995.924147
1427.966925,7328.038826,-5403.503377,2681.334243
1427.967254,9992.780217,-5329.482782,3447.429741
1427.967583,10658.965565,-4219.173869,4060.306139
1427.967912,9104.533087,-2664.741391,2528.115143
1427.968241,7476.080014,-2368.659014,842.705048
1427.968570,7031.956449,-3923.091493,0.000000
1427.968900,7994.224174,-5255.462188,383.047749
1427.969229,8512.368333,-5921.647536,76.609550
1427.969558,7550.100608,-6587.832884,306.438199
1427.969887,7254.018232,-8364.327145,0.000000
1427.970216,6291.750507,-10362.883188,-229.828649
1427.970545,4737.318029,-10584.944971,-229.828649
1427.970874,4145.153275,-11103.089130,-306.438199
1427.971203,3775.050304,-11177.109724,0.000000
1427.971533,4071.132681,-9474.636058,689.485948
1427.971862,5847.626942,-6143.709319,1072.533697
1427.972191,8142.265362,-4441.235652,1762.019645
1427.972520,9770.718434,-3108.864956,3447.429741
1427.972849,9622.677246,-2886.803174,4060.306139
1427.973178,9622.677246,-2442.679609,2451.505594
1427.973507,9326.594869,-1776.494261,1149.143247
1427.973836,8290.306550,-3701.029710,459.657299
1427.974166,7698.141797,-4885.359217,459.657299
1427.974495,7402.059420,-5847.626942,-536.266849
1427.974824,6365.771101,-7550.100608,-689.485948
1427.975153,5403.503377,-8734.430116,-76.609550
1427.975482,4737.318029,-11251.130318,0.000000
1427.975811,4441.235652,-11103.089130,1455.581446
1427.976140,4145.153275,-11547.212695,459.657299
1427.976469,3775.050304,-10214.842000,153.219100
1427.976799,4145.153275,-6957.935855,919.314598
1427.977128,7105.977043,-6291.750507,2068.457845
1427.977457,9178.553681,-3923.091493,3370.820191
1427.977786,9178.553681,-2738.761985,3447.429741
1427.978115,8586.388927,-1628.453072,2221.676944
1427.978444,8808.450710,-2072.576638,995.924147
1427.978773,8808.450710,-3182.885551,1302.362347
1427.979102,8586.388927,-3108.864956,-306.438199
1427.979432,8142.265362,-6365.771101,229.828649
1427.979761,7846.182985,-6883.915261,76.609550
1427.980090,6587.832884,-9548.656652,-995.924147
1427.980419,5477.523971,-11621.233289,-76.609550
1427.980748,4885.359217,-11325.150913,766.095498
1427.981077,4737.318029,-11917.315666,842.705048
1427.981406,3701.029710,-9992.780217,306.438199
1427.981735,3701.029710,-7920.203579,1302.362347
1427.982065,6513.812290,-5773.606348,2068.457845
1427.982394,8882.471304,-4071.132681,3140.991542
1427.982723,9030.512492,-3404.947333,3294.210641
1427.983052,8808.450710,-2442.679609,3677.258390
1427.983381,8808.450710,-1258.350101,2145.067394
1427.983710,7772.162391,-2590.720797,689.485948
1427.984039,7550.100608,-4663.297435,1072.533697
1427.984368,8216.285956,-5847.626942,383.047749
1427.984698,7772.162391,-7254.018232,0.000000
1427.985027,6661.853478,-9030.512492,306.438199
1427.985356,5995.668130,-11251.130318,0.000000
1427.985685,5477.523971,-12287.418637,0.000000
1427.986014,4071.132681,-11991.336260,459.657299
1427.986343,3182.885551,-10807.006753,0.000000
1427.986672,2960.823768,-8808.450710,689.485948
1427.987001,5551.544565,-5477.523971,1378.971896
1427.987331,8216.285956,-4663.297435,3064.381992
1427.987660,9992.780217,-4145.153275,4826.401637
1427.987989,10510.924376,-2590.720797,4519.963438
1427.988318,9474.636058,-1554.432478,3217.601092
1427.988647,8660.409521,-740.205942,1302.362347
1427.988976,8734.430116,-2442.679609,459.657299
1427.989305,8142.265362,-4293.194464,-383.047749
1427.989634,8512.368333,-5699.585753,0.000000
1427.989964,6735.874072,-8808.450710,536.266849
1427.990293,5921.647536,-10436.903782,536.266849
1427.990622,4737.318029,-11399.171507,153.219100
1427.990951,4293.194464,-11251.130318,689.485948
1427.991280,3997.112087,-11843.295072,76.609550
1427.991609,4293.194464,-9400.615463,612.876398
1427.991938,4737.318029,-6883.915261,766.095498
1427.992267,6661.853478,-4071.132681,1302.362347
1427.992597,8660.409521,-2442.679609,2374.896044
1427.992926,9844.739029,-3256.906145,2911.162892
1427.993255,9622.677246,-2812.782580,2911.162892
1427.993584,9400.615463,-2516.700203,2374.896044
1427.993913,9400.615463,-2664.741391,536.266849
1427.994242,8734.430116,-4737.318029,612.876398
1427.994571,8364.327145,-5921.647536,0.000000
1427.994900,7179.997637,-7846.182985,-459.657299
1427.995230,5625.565159,-10362.883188,-689.485948
1427.995559,5181.441594,-10362.883188,-76.609550
1427.995888,4589.276840,-11029.068536,-383.047749
1427.996217,4219.173869,-10955.047942,536.266849
1427.996546,3997.112087,-9918.759623,919.314598
1427.996875,4367.215058,-8068.244768,842.705048
1427.997204,6809.894666,-5107.421000,2528.115143
1427.997533,9770.718434,-3330.926739,3140.991542
1427.997863,10955.047942,-2738.761985,3907.087040
1427.998192,9844.739029,-2368.659014,2528.115143
1427.998521,8216.285956,-3108.864956,612.876398
1427.998850,6735.874072,-2960.823768,-306.438199
1427.999179,6291.750507,-6291.750507,-1072.533697
1427.999508,7105.977043,-7624.121203,-459.657299
1427.999837,6735.874072,-7476.080014,-229.828649
1428.000166,6217.729913,-10066.800811,-612.876398
1428.000496,5773.606348,-10955.047942,-459.657299
1428.000825,5181.441594,-11325.150913,919.314598
1428.001154,5699.585753,-11325.150913,612.876398
1428.001483,4959.379811,-7698.141797,0.000000
1428.001812,3849.070898,-6291.750507,0.000000
1428.002141,5773.606348,-5181.441594,766.095498
1428.002470,9474.636058,-2590.720797,3217.601092
1428.002799,11251.130318,-2294.638420,3524.039291
1428.003129,10732.986159,-1924.535449,3983.696590
1428.003458,9474.636058,-1702.473667,2451.505594
1428.003787,7846.182985,-4145.153275,1225.752797
1428.004116,6883.915261,-5181.441594,306.438199
1428.004445,7105.977043,-6883.915261,-459.657299
1428.004774,6439.791695,-6661.853478,-383.047749
1428.005103,4663.297435,-7772.162391,-1838.629195
1428.005432,4071.132681,-9474.636058,-1225.752797
1428.005762,4885.359217,-11029.068536,-306.438199
1428.006091,5921.647536,-11325.150913,995.924147
1428.006420,5921.647536,-10066.800811,1378.971896
1428.006749,5329.482782,-9474.636058,1991.848295
1428.007078,6883.915261,-6735.874072,2451.505594
1428.007407,8660.409521,-4219.173869,2834.553343
1428.007736,9400.615463,-2960.823768,3140.991542
1428.008065,9918.759623,-2590.720797,2987.772442
1428.008395,9178.553681,-2368.659014,1302.362347
1428.008724,7402.059420,-2960.823768,612.876398
1428.009053,7328.038826,-4885.359217,76.609550
1428.009382,6217.729913,-7476.080014,536.266849
1428.009711,6587.832884,-7920.203579,76.609550
1428.010040,5551.544565,-8512.368333,0.000000
1428.010369,5921.647536,-9992.780217,0.000000
1428.010698,6365.771101,-9622.677246,0.000000
1428.011028,5477.523971,-9844.739029,766.095498
1428.011357,5921.647536,-10362.883188,919.314598
1428.011686,5699.585753,-7772.162391,1302.362347
1428.012015,5773.606348,-6365.771101,1685.410096
1428.012344,7624.121203,-5329.482782,3294.210641
1428.012673,10140.821405,-4441.235652,4443.353888
1428.013002,10510.924376,-4293.194464,4443.353888
1428.013331,8364.327145,-3478.967927,2451.505594
1428.013661,6809.894666,-3182.885551,1225.752797
1428.013990,5847.626942,-3701.029710,-459.657299
1428.014319,5033.400406,-5847.626942,-1225.752797
1428.014648,5403.503377,-6957.935855,-459.657299
1428.014977,6957.935855,-6661.853478,-536.266849
1428.015306,7105.977043,-8808.450710,919.314598
1428.015635,6735.874072,-9622.677246,1149.143247
1428.015965,6291.750507,-9696.697840,919.314598
1428.016294,6735.874072,-8068.244768,612.876398
1428.016623,6439.791695,-7698.141797,1302.362347
1428.016952,6587.832884,-7402.059420,2298.286494
1428.017281,7846.182985,-4737.318029,2604.724693
1428.017610,9178.553681,-3108.864956,2528.115143
1428.017939,9326.594869,-3034.844362,3600.648841
1428.018268,9474.636058,-3108.864956,3294.210641
1428.018597,7550.100608,-3701.029710,1838.629195
1428.018926,5625.565159,-4441.235652,383.047749
1428.019255,4811.338623,-5255.462188,-76.609550
1428.019584,5551.544565,-7550.100608,-689.485948
1428.019913,7105.977043,-7994.224174,-306.438199
1428.020242,6957.935855,-9326.594869,459.657299
1428.020571,6957.935855,-9918.759623,-229.828649
1428.020900,5847.626942,-9474.636058,-229.828649
1428.021229,5551.544565,-9696.697840,-306.438199
1428.021558,5921.647536,-8882.471304,536.266849
1428.021887,6809.894666,-8142.265362,1991.848295
1428.022216,7624.121203,-6957.935855,2451.505594
1428.022545,9104.533087,-2812.782580,2757.943793
1428.022874,9844.739029,-3330.926739,2987.772442
1428.023203,10066.800811,-3701.029710,2681.334243
1428.023532,8586.388927,-3478.967927,1991.848295
1428.023861,6883.915261,-3997.112087,0.000000
1428.024190,4959.379811,-4589.276840,-1225.752797
1428.024519,4367.215058,-7772.162391,-1608.800546
1428.024848,5625.565159,-7846.182985,-536.266849
1428.025177,6291.750507,-7550.100608,-1378.971896
1428.025506,5995.668130,-9992.780217,-306.438199
1428.025835,6291.750507,-9548.656652,459.657299
1428.026164,7105.977043,-9770.718434,842.705048
1428.026493,7105.977043,-8956.491898,1762.019645
1428.026822,5995.668130,-6809.894666,1302.362347
1428.027151,5921.647536,-4885.359217,383.047749
1428.027480,7031.956449,-3256.906145,1838.629195
1428.027809,8290.306550,-2738.761985,2757.943793
1428.028138,9474.636058,-2664.741391,3064.381992
1428.028467,9104.533087,-3256.906145,2451.505594
1428.028796,7994.224174,-5847.626942,1378.971896
1428.029125,6439.791695,-5625.565159,0.000000
1428.029454,5107.421000,-7179.997637,-1455.581446
1428.029783,5107.421000,-8660.409521,-1685.410096
1428.030112,5921.647536,-7031.956449,-919.314598
1428.030441,7105.977043,-8290.306550,-1302.362347
1428.030770,7328.038826,-8290.306550,306.438199
1428.031099,7254.018232,-9030.512492,306.438199
1428.031428,7624.121203,-8142.265362,1378.971896
1428.031757,7254.018232,-6513.812290,1685.410096
1428.032086,6735.874072,-7624.121203,2451.505594
1428.032415,8364.327145,-4737.318029,2298.286494
1428.032744,9178.553681,-3775.050304,2604.724693
1428.033073,9474.636058,-3849.070898,2987.772442
1428.033402,9474.636058,-3478.967927,2145.067394
1428.033731,7624.121203,-3849.070898,1378.971896
1428.034060,5921.647536,-5551.544565,0.000000
1428.034389,4959.379811,-7698.141797,-766.095498
1428.034718,4959.379811,-8808.450710,-612.876398
1428.035047,6513.812290,-8512.368333,-306.438199
1428.035376,6735.874072,-8216.285956,-919.314598
1428.035705,6957.935855,-8808.450710,459.657299
1428.036034,5625.565159,-9548.656652,383.047749
1428.036363,5329.482782,-8586.388927,459.657299
1428.036692,5181.441594,-8142.265362,1225.752797
1428.037021,5625.565159,-7772.162391,1608.800546
1428.037350,6809.894666,-6957.935855,2834.553343
1428.037679,7846.182985,-4219.173869,3447.429741
1428.038008,9622.677246,-3997.112087,3677.258390
1428.038337,9474.636058,-3701.029710,3524.039291
1428.038666,8808.450710,-4293.194464,2757.943793
1428.038995,7105.977043,-5329.482782,1455.581446
1428.039325,5033.400406,-5847.626942,536.266849
1428.039654,3849.070898,-6957.935855,-1072.533697
1428.039983,4737.318029,-7994.224174,-689.485948
1428.040312,6587.832884,-7031.956449,229.828649
1428.040641,6883.915261,-7476.080014,0.000000
1428.040970,6439.791695,-9474.636058,1455.581446
1428.041299,6069.688724,-9770.718434,1762.019645
1428.041628,6069.688724,-7994.224174,1149.143247
1428.041957,4959.379811,-6735.874072,1532.190996
1428.042286,5477.523971,-6439.791695,1608.800546
1428.042615,7698.141797,-4737.318029,2681.334243
1428.042944,10140.821405,-4293.194464,3907.087040
1428.043273,11473.192101,-4441.235652,4903.011187
1428.043602,10362.883188,-4071.132681,3140.991542
1428.043931,8068.244768,-4145.153275,1532.190996
1428.044260,5551.544565,-4663.297435,-1225.752797
1428.044589,4663.297435,-5921.647536,-1838.629195
1428.044918,4959.379811,-7328.038826,-1378.971896
1428.045247,7254.018232,-7402.059420,0.000000
1428.045576,7994.224174,-8808.450710,612.876398
1428.045905,7105.977043,-9696.697840,689.485948
1428.046234,5995.668130,-10658.965565,689.485948
1428.046563,5625.565159,-9696.697840,995.924147
1428.046892,5773.606348,-8660.409521,1532.190996
1428.047221,6291.750507,-6957.935855,1762.019645
1428.047550,7105.977043,-4589.276840,1915.238745
1428.047879,8956.491898,-3182.885551,2681.334243
1428.048208,9992.780217,-3182.885551,3600.648841
1428.048537,10436.903782,-3552.988522,3677.258390
1428.048866,8216.285956,-4515.256246,2145.067394
1428.049195,6513.812290,-5107.421000,842.705048
1428.049524,5477.523971,-6069.688724,-919.314598
1428.049853,5625.565159,-8290.306550,-1762.019645
1428.050182,5773.606348,-8142.265362,-842.705048
1428.050511,6365.771101,-7772.162391,-1225.752797
1428.050840,6069.688724,-8734.430116,-1072.533697
1428.051169,5181.441594,-9770.718434,0.000000
1428.051498,5625.565159,-9844.739029,1072.533697
1428.051827,6587.832884,-9030.512492,842.705048
1428.052156,6217.729913,-8512.368333,1991.848295
1428.052485,6735.874072,-7105.977043,1762.019645
1428.052814,8438.347739,-4293.194464,2681.334243
1428.053143,9918.759623,-2738.761985,2604.724693
1428.053472,9918.759623,-2664.741391,2757.943793
1428.053801,9252.574275,-2516.700203,2298.286494
1428.054130,7550.100608,-3552.988522,766.095498
1428.054459,6365.771101,-3701.029710,-689.485948
1428.054788,5181.441594,-6069.688724,-383.047749
1428.055117,5551.544565,-8216.285956,-612.876398
1428.055446,6069.688724,-9252.574275,-306.438199
1428.055775,5551.544565,-10288.862594,229.828649
1428.056104,5329.482782,-10510.924376,-306.438199
1428.056433,5329.482782,-10510.924376,383.047749
1428.056762,5625.565159,-8660.409521,1149.143247
1428.057091,6143.709319,-7920.203579,1225.752797
1428.057420,5921.647536,-6439.791695,1378.971896
1428.057749,6957.935855,-4441.235652,2451.505594
1428.058078,8882.471304,-4071.132681,2528.115143
1428.058407,10066.800811,-3404.947333,3907.087040
1428.058736,10362.883188,-3330.926739,3524.039291
1428.059065,8734.430116,-4441.235652,2145.067394
1428.059394,6661.853478,-4811.338623,536.266849
1428.059723,5033.400406,-6365.771101,-1225.752797
1428.060052,4737.318029,-7846.182985,-1455.581446
1428.060381,6365.771101,-8438.347739,-1302.362347
1428.060710,7031.956449,-9622.677246,919.314598
1428.061039,6217.729913,-10288.862594,536.266849
1428.061368,5551.544565,-10881.027347,842.705048
1428.061697,5847.626942,-9992.780217,1225.752797
1428.062026,6439.791695,-7476.080014,1455.581446
1428.062355,5329.482782,-7031.956449,1608.800546
1428.062684,5995.668130,-5329.482782,2451.505594
1428.063013,8216.285956,-2664.741391,2681.334243
1428.063342,10288.862594,-3330.926739,4443.353888
1428.063671,10881.027347,-1702.473667,4443.353888
1428.064000,9326.594869,-2812.782580,3217.601092
1428.064329,7402.059420,-4811.338623,2068.457845
1428.064658,5551.544565,-5921.647536,0.000000
1428.064987,4219.173869,-7402.059420,-995.924147
1428.065317,5255.462188,-7920.203579,-1149.143247
1428.065646,6661.853478,-7698.141797,-229.828649
1428.065975,7031.956449,-8216.285956,306.438199
1428.066304,6365.771101,-9844.739029,229.828649
1428.066633,5773.606348,-9770.718434,995.924147
1428.066962,5847.626942,-8512.368333,1532.190996
1428.067291,5329.482782,-8438.347739,1225.752797
1428.067620,5625.565159,-6291.750507,1608.800546
1428.067949,7698.141797,-4515.256246,2757.943793
1428.068278,10140.821405,-3552.988522,3064.381992
1428.068607,10658.965565,-1702.473667,3983.696590
1428.068936,10881.027347,-1332.370696,3294.210641
1428.069265,9548.656652,-2442.679609,1608.800546
1428.069594,7254.018232,-3701.029710,383.047749
1428.069923,5181.441594,-6809.894666,-766.095498
1428.070252,5847.626942,-8660.409521,-612.876398
1428.070581,6809.894666,-8586.388927,0.000000
1428.070910,6143.709319,-9770.718434,-383.047749
1428.071239,5551.544565,-10436.903782,-766.095498
1428.071568,5551.544565,-10436.903782,-306.438199
1428.071897,5995.668130,-10807.006753,-383.047749
1428.072226,5625.565159,-8660.409521,76.609550
1428.072555,5107.421000,-8512.368333,1455.581446
1428.072884,6661.853478,-6513.812290,1532.190996
1428.073213,8068.244768,-3182.885551,2221.676944
1428.073542,9474.636058,-3997.112087,3524.039291
1428.073871,10881.027347,-2738.761985,3064.381992
1428.074200,9844.739029,-2886.803174,2451.505594
1428.074529,7772.162391,-2664.741391,383.047749
1428.074858,6513.812290,-4811.338623,-1225.752797
1428.075187,6291.750507,-6957.935855,-1302.362347
1428.075516,6661.853478,-7920.203579,-689.485948
1428.075845,6291.750507,-8956.491898,0.000000
1428.076174,5699.585753,-9474.636058,-536.266849
1428.076503,4959.379811,-10658.965565,-536.266849
1428.076832,4589.276840,-11177.109724,536.266849
1428.077161,5255.462188,-9252.574275,383.047749
1428.077490,4885.359217,-8216.285956,383.047749
1428.077819,4737.318029,-7402.059420,1302.362347
1428.078148,6957.935855,-5033.400406,2451.505594
1428.078477,9770.718434,-3997.112087,3294.210641
1428.078806,10288.862594,-2220.617826,4366.744339
1428.079135,9622.677246,-1110.308913,2911.162892
1428.079464,8438.347739,-1702.473667,1149.143247
1428.079793,7105.977043,-1702.473667,-536.266849
1428.080122,6217.729913,-5773.606348,-536.266849
1428.080451,7698.141797,-6883.915261,153.219100
1428.080780,7402.059420,-7994.224174,-383.047749
1428.081109,5921.647536,-9474.636058,-689.485948
1428.081438,4959.379811,-9992.780217,-1455.581446
1428.081767,4737.318029,-11621.233289,229.828649
1428.082096,5847.626942,-11177.109724,689.485948
1428.082425,5551.544565,-9474.636058,1378.971896
1428.082754,5403.503377,-7698.141797,995.924147
1428.083083,6365.771101,-4959.379811,1532.190996
1428.083412,8808.450710,-4219.173869,3524.039291
1428.083741,11177.109724,-3478.967927,4290.134789
1428.084070,11695.253884,-1776.494261,4903.011187
1428.084399,10584.944971,-1110.308913,2911.162892
1428.084728,8364.327145,-1184.329507,919.314598
1428.085057,6439.791695,-3923.091493,-612.876398
1428.085386,6143.709319,-6661.853478,-612.876398
1428.085715,6513.812290,-8364.327145,-919.314598
1428.086044,5921.647536,-9252.574275,153.219100
1428.086373,5921.647536,-11621.233289,76.609550
1428.086702,5699.585753,-13619.789333,1302.362347
1428.087031,5181.441594,-12509.480420,1378.971896
1428.087360,3923.091493,-10955.047942,306.438199
1428.087689,2294.638420,-7476.080014,459.657299
1428.088018,4441.235652,-5773.606348,1378.971896
1428.088347,7624.121203,-4219.173869,2298.286494
1428.088676,10140.821405,-2590.720797,3983.696590
1428.089005,11103.089130,-3182.885551,4903.011187
1428.089334,11325.150913,-222.061783,2987.772442
1428.089663,9030.512492,-1110.308913,1378.971896
1428.089992,7254.018232,-2516.700203,766.095498
1428.090321,7031.956449,-5477.523971,-459.657299
1428.090650,7031.956449,-7402.059420,-229.828649
1428.090979,6513.812290,-8068.244768,-459.657299
1428.091308,5995.668130,-10732.986159,-76.609550
1428.091638,5625.565159,-11177.109724,76.609550
1428.091967,4145.153275,-10955.047942,383.047749
1428.092296,3849.070898,-10955.047942,306.438199
1428.092625,4737.318029,-8956.491898,1149.143247
1428.092954,5699.585753,-8142.265362,1762.019645
1428.093283,7846.182985,-4737.318029,3064.381992
1428.093612,9252.574275,-2738.761985,4060.306139
1428.093941,10140.821405,-2146.597232,2604.724693
1428.094270,9622.677246,-592.164754,2528.115143
1428.094599,9178.553681,-1406.391290,1378.971896
1428.094928,8512.368333,-1998.556043,-153.219100
1428.095257,7476.080014,-4811.338623,76.609550
1428.095586,7846.182985,-8438.347739,0.000000
1428.095915,8142.265362,-8734.430116,459.657299
1428.096244,6513.812290,-10066.800811,536.266849
1428.096573,4811.338623,-11251.130318,-306.438199
1428.096902,3775.050304,-11325.150913,-1302.362347
1428.097231,4145.153275,-11843.295072,306.438199
1428.097560,5107.421000,-11029.068536,842.705048
1428.097889,4737.318029,-8290.306550,1608.800546
1428.098218,6143.709319,-5847.626942,2068.457845
1428.098547,8660.409521,-3478.967927,3217.601092
1428.098876,9770.718434,-2960.823768,3983.696590
1428.099205,9918.759623,-1480.411884,3830.477490
1428.099534,9400.615463,-740.205942,1838.629195
1428.099863,8364.327145,-962.267725,689.485948
1428.100192,7105.977043,-4441.235652,-306.438199
1428.100521,7105.977043,-7179.997637,0.000000
1428.100850,6809.894666,-7846.182985,-536.266849
1428.101179,5847.626942,-9918.759623,-1072.533697
1428.101508,4293.194464,-10881.027347,-995.924147
1428.101837,4145.153275,-12435.459826,-229.828649
1428.102166,5033.400406,-12953.603985,612.876398
1428.102495,5181.441594,-10732.986159,842.705048
1428.102824,4737.318029,-8438.347739,1378.971896
1428.103153,5033.400406,-6291.750507,0.000000
1428.103482,6883.915261,-3997.112087,1915.238745
1428.103811,9474.636058,-3701.029710,3524.039291
1428.104140,9844.739029,-2590.720797,3677.258390
1428.104469,9770.718434,-444.123565,2911.162892
1428.104798,9104.533087,-592.164754,1149.143247
1428.105127,8808.450710,-1406.391290,153.219100
1428.105456,7994.224174,-6217.729913,995.924147
1428.105785,9030.512492,-7105.977043,842.705048
1428.106114,7254.018232,-8068.244768,-1149.143247
1428.106443,4663.297435,-9918.759623,-1685.410096
1428.106772,4145.153275,-11399.171507,-1532.190996
1428.107101,5181.441594,-12287.418637,153.219100
1428.107430,5773.606348,-10658.965565,766.095498
1428.107759,4145.153275,-9400.615463,153.219100
1428.108088,4219.173869,-7772.162391,1225.752797
1428.108417,7179.997637,-6143.709319,2528.115143
1428.108746,9992.780217,-3108.864956,3677.258390
1428.109075,10066.800811,-3330.926739,4366.744339
1428.109404,10732.986159,-2812.782580,3447.429741
1428.109733,9326.594869,-1332.370696,1762.019645
1428.110062,7179.997637,-1258.350101,0.000000
1428.110391,6587.832884,-4589.276840,0.000000
1428.110720,7698.141797,-6439.791695,0.000000
1428.111049,6735.874072,-7994.224174,-383.047749
1428.111378,5773.606348,-10510.924376,919.314598
1428.111707,6069.688724,-11325.150913,0.000000
1428.112036,6069.688724,-11103.089130,229.828649
1428.112365,4737.318029,-11695.253884,536.266849
1428.112694,4293.194464,-9992.780217,995.924147
1428.113023,4367.215058,-9178.553681,919.314598
1428.113352,5255.462188,-6661.853478,1838.629195
1428.113681,7254.018232,-3627.009116,2681.334243
1428.114010,9474.636058,-4145.153275,4136.915689
1428.114339,10140.821405,-2812.782580,3907.087040
1428.114668,8512.368333,-2368.659014,3600.648841
1428.114997,7994.224174,-1850.514855,2451.505594
1428.115326,7994.224174,-1924.535449,689.485948
1428.115655,7105.977043,-5551.544565,229.828649
1428.115984,6661.853478,-6513.812290,383.047749
1428.116313,6365.771101,-7698.141797,-766.095498
1428.116642,5255.462188,-9844.739029,-612.876398
1428.116971,4515.256246,-10658.965565,0.000000
1428.117300,5329.482782,-11547.212695,1072.533697
1428.117630,6069.688724,-9844.739029,689.485948
1428.117959,4663.297435,-9474.636058,1608.800546
1428.118288,4811.338623,-7254.018232,1378.971896
1428.118617,7920.203579,-5255.462188,2451.505594
1428.118946,10214.842000,-3330.926739,3753.867940
1428.119275,10362.883188,-2294.638420,4673.182538
1428.119604,10066.800811,-1628.453072,3600.648841
1428.119933,9030.512492,-962.267725,1608.800546
1428.120262,7476.080014,-1036.288319,229.828649
1428.120591,6957.935855,-4885.359217,0.000000
1428.120920,7698.141797,-5773.606348,-153.219100
1428.121249,7105.977043,-7550.100608,-612.876398
1428.121578,5847.626942,-11177.109724,0.000000
1428.121908,5625.565159,-11621.233289,0.000000
1428.122237,5995.668130,-11547.212695,0.000000
1428.122566,6217.729913,-11103.089130,689.485948
1428.122895,5181.441594,-9326.594869,689.485948
1428.123224,4589.276840,-7920.203579,306.438199
1428.123553,5551.544565,-6365.771101,995.924147
1428.123882,8956.491898,-4293.194464,2451.505594
1428.124211,10955.047942,-3330.926739,3370.820191
1428.124540,10140.821405,-2590.720797,3677.258390
1428.124869,8438.347739,-3182.885551,2374.896044
1428.125199,7105.977043,-2590.720797,306.438199
1428.125528,6513.812290,-5625.565159,-1302.362347
1428.125857,5847.626942,-7179.997637,-1072.533697
1428.126186,5255.462188,-6661.853478,-2145.067394
1428.126515,4959.379811,-9178.553681,-1991.848295
1428.126844,5847.626942,-11029.068536,-536.266849
1428.127173,7105.977043,-11029.068536,842.705048
1428.127502,7179.997637,-10955.047942,1608.800546
1428.127831,6513.812290,-9326.594869,2221.676944
1428.128160,5107.421000,-7772.162391,1072.533697
1428.128489,5329.482782,-4663.297435,1455.581446
1428.128819,7328.038826,-2738.761985,1915.238745
1428.129148,9992.780217,-2516.700203,3447.429741
1428.129477,10732.986159,-2294.638420,3294.210641
1428.129806,8882.471304,-1702.473667,1762.019645
1428.130135,7105.977043,-3404.947333,1072.533697
1428.130464,6291.750507,-4663.297435,-766.095498
1428.130793,4811.338623,-8216.285956,-919.314598
1428.131122,5181.441594,-8290.306550,-612.876398
1428.131451,5995.668130,-9400.615463,-1378.971896
1428.131780,6513.812290,-10140.821405,-153.219100
1428.132110,7105.977043,-9696.697840,383.047749
1428.132439,7476.080014,-9696.697840,1149.143247
1428.132768,7402.059420,-8142.265362,995.924147
1428.133097,5995.668130,-6217.729913,459.657299
1428.133426,5181.441594,-5773.606348,1302.362347
1428.133755,7698.141797,-4737.318029,2451.505594
1428.134084,10510.924376,-3256.906145,3677.258390
1428.134413,10658.965565,-4737.318029,5362.668486
1428.134742,10066.800811,-3330.926739,3677.258390
1428.135071,7920.203579,-3478.967927,1532.190996
1428.135400,5773.606348,-5551.544565,-383.047749
1428.135730,4959.379811,-7105.977043,-1225.752797
1428.136059,5033.400406,-8216.285956,-1225.752797
1428.136388,5847.626942,-9030.512492,-766.095498
1428.136717,5847.626942,-9918.759623,-306.438199
1428.137046,6587.832884,-10732.986159,1762.019645
1428.137375,7402.059420,-10436.903782,1072.533697
1428.137704,6957.935855,-8734.430116,1991.848295
1428.138033,5477.523971,-7846.182985,1685.410096
1428.138362,5033.400406,-6957.935855,1225.752797
1428.138691,6513.812290,-4737.318029,1915.238745
1428.139021,8734.430116,-3034.844362,2528.115143
1428.139350,9474.636058,-2960.823768,3294.210641
1428.139679,9992.780217,-3552.988522,3370.820191
1428.140008,8068.244768,-5033.400406,2374.896044
1428.140337,5921.647536,-5329.482782,766.095498
1428.140666,4737.318029,-6661.853478,0.000000
1428.140995,5033.400406,-8512.368333,-459.657299
1428.141324,5921.647536,-8586.388927,0.000000
1428.141653,5847.626942,-8364.327145,76.609550
1428.141982,6291.750507,-8438.347739,459.657299
1428.142311,6439.791695,-7846.182985,766.095498
1428.142641,6439.791695,-8142.265362,1455.581446
1428.142970,6735.874072,-6587.832884,1838.629195
1428.143299,5847.626942,-5995.668130,1838.629195
1428.143628,6587.832884,-5403.503377,3370.820191
1428.143957,9326.594869,-2886.803174,3677.258390
1428.144286,10881.027347,-3627.009116,4366.744339
1428.144615,10362.883188,-3330.926739,3677.258390
1428.144944,7920.203579,-3849.070898,1915.238745
1428.145273,6217.729913,-5329.482782,459.657299
1428.145602,4293.194464,-6661.853478,-1762.019645
1428.145931,3775.050304,-8882.471304,-1455.581446
1428.146261,5551.544565,-8512.368333,-383.047749
1428.146590,7476.080014,-9178.553681,612.876398
1428.146919,7402.059420,-8882.471304,919.314598
1428.147248,6735.874072,-9844.739029,766.095498
1428.147577,6365.771101,-8364.327145,689.485948
1428.147906,6217.729913,-5847.626942,-383.047749
1428.148235,5773.606348,-6513.812290,76.609550
1428.148564,6883.915261,-5329.482782,1072.533697
1428.148893,9474.636058,-3997.112087,2757.943793
1428.149222,11473.192101,-4811.338623,4596.572988
1428.149552,12065.356855,-3997.112087,5439.278036
1428.149881,10140.821405,-5551.544565,3140.991542
1428.150210,7105.977043,-6291.750507,1302.362347
1428.150539,3997.112087,-6883.915261,-1532.190996
1428.150868,3182.885551,-7698.141797,-2911.162892
1428.151197,3478.967927,-8512.368333,-2145.067394
1428.151526,5255.462188,-7846.182985,-1149.143247
1428.151855,6957.935855,-7920.203579,-612.876398
1428.152184,7105.977043,-9474.636058,995.924147
1428.152513,6513.812290,-9104.533087,1762.019645
1428.152842,6735.874072,-8142.265362,1302.362347
1428.153172,6513.812290,-7476.080014,1762.019645
1428.153501,6365.771101,-5921.647536,1608.800546
1428.153830,7772.162391,-4293.194464,1378.971896
1428.154159,9252.574275,-3404.947333,2681.334243
1428.154488,10362.883188,-3701.029710,3294.210641
1428.154817,9622.677246,-3627.009116,2374.896044
1428.155146,7105.977043,-4219.173869,842.705048
1428.155475,4885.359217,-5773.606348,-919.314598
1428.155804,4589.276840,-7328.038826,-1149.143247
1428.156133,5107.421000,-9030.512492,-459.657299
1428.156463,6661.853478,-8068.244768,0.000000
1428.156792,7846.182985,-7624.121203,536.266849
1428.157121,7254.018232,-7105.977043,0.000000
1428.157450,6069.688724,-7402.059420,-536.266849
1428.157779,5477.523971,-7179.997637,76.609550
1428.158108,6217.729913,-6809.894666,153.219100
1428.158437,6735.874072,-7476.080014,2451.505594
1428.158766,7772.162391,-5995.668130,3524.039291
1428.159095,9548.656652,-4663.297435,3370.820191
1428.159424,10584.944971,-4293.194464,4519.963438
1428.159753,9474.636058,-4737.318029,3524.039291
1428.160083,7254.018232,-4959.379811,1685.410096
1428.160412,5403.503377,-5847.626942,-536.266849
1428.160741,3997.112087,-6217.729913,-2451.505594
1428.161070,3775.050304,-8142.265362,-2374.896044
1428.161399,5255.462188,-8808.450710,-612.876398
1428.161728,7402.059420,-8216.285956,229.828649
