#time,accel_x,accel_y,accel_z
1119.390302,7031.956449,-6439.791695,919.314598
1119.390632,7105.977043,-6661.853478,612.876398
1119.390962,7402.059420,-6883.915261,766.095498
1119.391292,7105.977043,-6439.791695,689.485948
1119.391622,7328.038826,-7105.977043,1225.752797
1119.391952,7254.018232,-6513.812290,1149.143247
1119.392283,7105.977043,-6661.853478,995.924147
1119.392613,7105.977043,-6587.832884,383.047749
1119.392943,6883.915261,-6587.832884,1225.752797
1119.393273,7031.956449,-6513.812290,1225.752797
1119.393603,7105.977043,-6291.750507,995.924147
1119.393933,7105.977043,-6365.771101,919.314598
1119.394264,7105.977043,-6439.791695,919.314598
1119.394594,6809.894666,-6439.791695,1149.143247
1119.394924,6883.915261,-6439.791695,1378.971896
1119.395254,6957.935855,-6883.915261,1302.362347
1119.395584,6587.832884,-6661.853478,1302.362347
1119.395914,7105.977043,-6809.894666,919.314598
1119.396245,6809.894666,-6809.894666,842.705048
1119.396575,7105.977043,-6809.894666,1072.533697
1119.396905,7031.956449,-6735.874072,1225.752797
1119.397235,6735.874072,-6513.812290,1455.581446
1119.397565,7105.977043,-5995.668130,919.314598
1119.397895,6809.894666,-6587.832884,919.314598
1119.398226,6735.874072,-6661.853478,1455.581446
1119.398556,6587.832884,-6217.729913,1762.019645
1119.398886,6661.853478,-6217.729913,1072.533697
1119.399216,6661.853478,-6513.812290,919.314598
1119.399546,6809.894666,-6809.894666,1149.143247
1119.399876,6883.915261,-6809.894666,1149.143247
1119.400207,6883.915261,-6365.771101,1072.533697
1119.400537,6883.915261,-6957.935855,1149.143247
1119.400867,6809.894666,-6661.853478,1072.533697
1119.401197,6809.894666,-6735.874072,919.314598
1119.401527,7031.956449,-7105.977043,1378.971896
1119.401857,7105.977043,-6291.750507,689.485948
1119.402188,7105.977043,-6883.915261,919.314598
1119.402518,6439.791695,-6143.709319,612.876398
1119.402848,7105.977043,-6587.832884,1225.752797
1119.403178,7105.977043,-6217.729913,995.924147
1119.403508,7031.956449,-6513.812290,919.314598
1119.403838,6957.935855,-6365.771101,1072.533697
1119.404169,7105.977043,-6513.812290,919.314598
1119.404499,7105.977043,-7105.977043,1302.362347
1119.404829,7105.977043,-6439.791695,1608.800546
1119.405159,7254.018232,-6587.832884,995.924147
1119.405489,7254.018232,-6587.832884,995.924147
1119.405819,7105.977043,-6513.812290,919.314598
1119.406150,7402.059420,-6661.853478,689.485948
1119.406480,7105.977043,-6365.771101,383.047749
1119.406810,6883.915261,-6513.812290,919.314598
1119.407140,7031.956449,-6439.791695,842.705048
1119.407470,7031.956449,-6661.853478,766.095498
1119.407800,7105.977043,-6513.812290,766.095498
1119.408131,6957.935855,-6513.812290,1072.533697
1119.408461,7105.977043,-6217.729913,1072.533697
1119.408791,7105.977043,-6365.771101,689.485948
1119.409121,6957.935855,-6365.771101,919.314598
1119.409451,7476.080014,-6587.832884,612.876398
1119.409781,7105.977043,-6439.791695,1072.533697
1119.410112,7105.977043,-6513.812290,919.314598
1119.410442,7105.977043,-6661.853478,919.314598
1119.410772,7031.956449,-5921.647536,919.314598
1119.411102,6957.935855,-6513.812290,1149.143247
1119.411432,6735.874072,-6735.874072,1072.533697
1119.411762,6735.874072,-6661.853478,1072.533697
1119.412093,6587.832884,-6735.874072,612.876398
1119.412423,6661.853478,-6587.832884,1762.019645
1119.412753,6957.935855,-6661.853478,995.924147
1119.413083,6809.894666,-6809.894666,1149.143247
1119.413413,6883.915261,-6883.915261,1225.752797
1119.413743,6809.894666,-6957.935855,1762.019645
1119.414074,6661.853478,-6587.832884,1072.533697
1119.414404,6587.832884,-6883.915261,1225.752797
1119.414734,6957.935855,-6957.935855,1149.143247
1119.415064,6809.894666,-6587.832884,995.924147
1119.415394,7105.977043,-6661.853478,536.266849
1119.415724,7105.977043,-6735.874072,995.924147
1119.416055,6883.915261,-6883.915261,1225.752797
1119.416385,6883.915261,-6661.853478,1149.143247
1119.416715,6809.894666,-6439.791695,1225.752797
1119.417045,7105.977043,-6291.750507,1149.143247
1119.417375,7031.956449,-6513.812290,1072.533697
1119.417705,7105.977043,-6661.853478,1149.143247
1119.418036,7254.018232,-6513.812290,1072.533697
1119.418366,7105.977043,-6587.832884,766.095498
1119.418696,6957.935855,-6587.832884,995.924147
1119.419026,7031.956449,-6661.853478,995.924147
1119.419356,6957.935855,-6587.832884,766.095498
1119.419686,7105.977043,-6439.791695,995.924147
1119.420017,6883.915261,-6365.771101,919.314598
1119.420347,7105.977043,-6439.791695,842.705048
1119.420677,7254.018232,-6291.750507,612.876398
1119.421007,7179.997637,-6513.812290,842.705048
1119.421337,7179.997637,-6735.874072,842.705048
1119.421667,7179.997637,-6439.791695,1072.533697
1119.421998,7105.977043,-6439.791695,842.705048
1119.422328,7328.038826,-6439.791695,612.876398
1119.422658,7031.956449,-6365.771101,842.705048
1119.422988,7476.080014,-6735.874072,919.314598
1119.423318,7105.977043,-6513.812290,842.705048
1119.423649,6957.935855,-6513.812290,766.095498
1119.423979,6883.915261,-6735.874072,1072.533697
1119.424309,7476.080014,-6513.812290,1302.362347
1119.424639,7105.977043,-6513.812290,1149.143247
1119.424969,7105.977043,-6513.812290,995.924147
1119.425299,7031.956449,-6365.771101,1072.533697
1119.425630,7031.956449,-6291.750507,689.485948
1119.425960,7328.038826,-6439.791695,2068.457845
1119.426290,7031.956449,-6661.853478,919.314598
1119.426620,6735.874072,-6809.894666,1225.752797
1119.426950,6809.894666,-6661.853478,919.314598
1119.427280,6513.812290,-6809.894666,919.314598
1119.427611,6587.832884,-6587.832884,1225.752797
1119.427941,6957.935855,-7031.956449,995.924147
1119.428271,6587.832884,-6587.832884,1072.533697
1119.428601,7031.956449,-6809.894666,1378.971896
1119.428931,7031.956449,-6809.894666,1302.362347
1119.429261,7031.956449,-6513.812290,1225.752797
1119.429592,6957.935855,-6661.853478,1149.143247
1119.429922,7031.956449,-6513.812290,1149.143247
1119.430252,6883.915261,-6587.832884,995.924147
1119.430582,6957.935855,-6439.791695,1072.533697
1119.430912,7031.956449,-6735.874072,1072.533697
1119.431242,6883.915261,-6587.832884,1225.752797
1119.431573,6809.894666,-6809.894666,842.705048
1119.431903,6957.935855,-6513.812290,1302.362347
1119.432233,7179.997637,-6587.832884,1302.362347
1119.432563,7031.956449,-6661.853478,1455.581446
1119.432893,6957.935855,-6661.853478,1302.362347
1119.433223,6883.915261,-6217.729913,995.924147
1119.433554,7105.977043,-6365.771101,306.438199
1119.433884,6883.915261,-6735.874072,842.705048
1119.434214,7179.997637,-6661.853478,1072.533697
1119.434544,7105.977043,-6883.915261,919.314598
1119.434874,7031.956449,-6957.935855,1378.971896
1119.435204,7031.956449,-6439.791695,995.924147
1119.435535,6809.894666,-6587.832884,995.924147
1119.435865,6957.935855,-6587.832884,995.924147
1119.436195,6957.935855,-6735.874072,1149.143247
1119.436525,7402.059420,-6809.894666,1608.800546
1119.436855,7105.977043,-6365.771101,689.485948
1119.437185,6957.935855,-6513.812290,842.705048
1119.437516,7254.018232,-5995.668130,1149.143247
1119.437846,7105.977043,-6439.791695,842.705048
1119.438176,6661.853478,-5921.647536,1532.190996
1119.438506,7105.977043,-6513.812290,1072.533697
1119.438836,6735.874072,-6513.812290,842.705048
1119.439166,6809.894666,-6661.853478,919.314598
1119.439497,7031.956449,-6439.791695,689.485948
1119.439827,6883.915261,-6587.832884,1072.533697
1119.440157,7031.956449,-6809.894666,919.314598
1119.440487,7105.977043,-6513.812290,766.095498
1119.440817,7328.038826,-6661.853478,919.314598
1119.441147,6957.935855,-6661.853478,919.314598
1119.441478,6883.915261,-6883.915261,842.705048
1119.441808,6883.915261,-6587.832884,919.314598
1119.442138,6809.894666,-6587.832884,842.705048
1119.442468,7105.977043,-6513.812290,1225.752797
1119.442798,7476.080014,-6587.832884,919.314598
1119.443128,7105.977043,-6735.874072,919.314598
1119.443459,6883.915261,-6883.915261,842.705048
1119.443789,6957.935855,-6661.853478,995.924147
1119.444119,6809.894666,-6661.853478,1072.533697
1119.444449,7105.977043,-7254.018232,842.705048
1119.444779,6883.915261,-6735.874072,919.314598
1119.445109,6883.915261,-6883.915261,536.266849
1119.445440,6735.874072,-6661.853478,842.705048
1119.445770,6809.894666,-6439.791695,689.485948
1119.446100,6809.894666,-6439.791695,1072.533697
1119.446430,6957.935855,-6513.812290,1072.533697
1119.446760,6883.915261,-6439.791695,1149.143247
1119.447090,6513.812290,-6143.709319,612.876398
1119.447421,7031.956449,-6439.791695,1149.143247
1119.447751,7179.997637,-6883.915261,1072.533697
1119.448081,7031.956449,-6661.853478,1072.533697
1119.448411,6809.894666,-6513.812290,995.924147
1119.448741,6957.935855,-6809.894666,1455.581446
1119.449071,7105.977043,-6587.832884,1072.533697
1119.449402,7105.977043,-6587.832884,1225.752797
1119.449732,7105.977043,-6439.791695,919.314598
1119.450062,6883.915261,-6587.832884,919.314598
1119.450392,6957.935855,-6365.771101,1225.752797
1119.450722,7254.018232,-6513.812290,766.095498
1119.451052,7105.977043,-6809.894666,1225.752797
1119.451383,7105.977043,-6365.771101,689.485948
1119.451713,7105.977043,-6069.688724,1225.752797
1119.452043,6957.935855,-6735.874072,1072.533697
1119.452373,7105.977043,-6587.832884,995.924147
1119.452703,7105.977043,-6513.812290,1072.533697
1119.453033,6883.915261,-6883.915261,919.314598
1119.453364,7254.018232,-6513.812290,842.705048
1119.453694,6883.915261,-6513.812290,919.314598
1119.454024,6957.935855,-6439.791695,919.314598
1119.454354,7179.997637,-6587.832884,766.095498
1119.454684,7402.059420,-6365.771101,1072.533697
1119.455014,6735.874072,-6365.771101,1072.533697
1119.455345,6883.915261,-6513.812290,919.314598
1119.455675,7031.956449,-6439.791695,995.924147
1119.456005,6809.894666,-6439.791695,919.314598
1119.456334,7105.977043,-6735.874072,1225.752797
1119.456664,7031.956449,-6809.894666,1302.362347
1119.456994,7031.956449,-6661.853478,842.705048
1119.457324,7105.977043,-6809.894666,1149.143247
1119.457654,6957.935855,-6809.894666,1455.581446
1119.457983,7402.059420,-7105.977043,689.485948
1119.458313,6809.894666,-6439.791695,1149.143247
1119.458643,6957.935855,-6661.853478,1302.362347
1119.458973,6957.935855,-6661.853478,919.314598
1119.459303,7179.997637,-6439.791695,1225.752797
1119.459632,6661.853478,-6587.832884,1149.143247
1119.459962,6661.853478,-6439.791695,612.876398
1119.460292,6883.915261,-6587.832884,1072.533697
1119.460622,6957.935855,-6883.915261,1149.143247
1119.460952,7105.977043,-6439.791695,1608.800546
1119.461282,6957.935855,-6809.894666,919.314598
1119.461611,7254.018232,-6291.750507,995.924147
1119.461941,7031.956449,-6587.832884,1225.752797
1119.462271,6957.935855,-6661.853478,919.314598
1119.462601,7328.038826,-6587.832884,995.924147
1119.462931,7105.977043,-6587.832884,1225.752797
1119.463260,7179.997637,-6587.832884,1149.143247
1119.463590,6883.915261,-6439.791695,919.314598
1119.463920,6809.894666,-6587.832884,995.924147
1119.464250,6809.894666,-6661.853478,766.095498
1119.464580,6957.935855,-6735.874072,995.924147
1119.464909,7031.956449,-6587.832884,919.314598
1119.465239,6661.853478,-6661.853478,1225.752797
1119.465569,6661.853478,-6143.709319,919.314598
1119.465899,7105.977043,-6439.791695,1225.752797
1119.466229,6883.915261,-6513.812290,995.924147
1119.466559,7031.956449,-6513.812290,995.924147
1119.466888,7031.956449,-6365.771101,842.705048
1119.467218,7105.977043,-6217.729913,995.924147
1119.467548,7105.977043,-6513.812290,1072.533697
1119.467878,6957.935855,-6217.729913,842.705048
1119.468208,6661.853478,-6365.771101,1455.581446
1119.468537,7105.977043,-6661.853478,995.924147
1119.468867,7031.956449,-6365.771101,919.314598
1119.469197,6957.935855,-6883.915261,1149.143247
1119.469527,6883.915261,-6439.791695,842.705048
1119.469857,7031.956449,-6661.853478,1149.143247
1119.470187,6883.915261,-6513.812290,612.876398
1119.470516,6883.915261,-6587.832884,842.705048
1119.470846,7105.977043,-6883.915261,919.314598
1119.471176,6957.935855,-6661.853478,1149.143247
1119.471506,7179.997637,-6513.812290,1302.362347
1119.471836,6735.874072,-6809.894666,1225.752797
1119.472165,6661.853478,-6809.894666,842.705048
1119.472495,6957.935855,-6735.874072,842.705048
1119.472825,7105.977043,-6809.894666,1072.533697
1119.473155,7105.977043,-6513.812290,995.924147
1119.473485,7105.977043,-6735.874072,1072.533697
1119.473814,7105.977043,-6587.832884,766.095498
1119.474144,6957.935855,-6587.832884,1455.581446
1119.474474,6661.853478,-5847.626942,1378.971896
1119.474804,7105.977043,-6291.750507,1225.752797
1119.475134,7105.977043,-6809.894666,1072.533697
1119.475464,7105.977043,-6883.915261,1072.533697
1119.475793,7031.956449,-6587.832884,766.095498
1119.476123,7105.977043,-6513.812290,766.095498
1119.476453,6735.874072,-6587.832884,919.314598
1119.476783,6587.832884,-6661.853478,1225.752797
1119.477113,7105.977043,-6661.853478,1149.143247
1119.477442,6809.894666,-6217.729913,1378.971896
1119.477772,7105.977043,-6439.791695,1608.800546
1119.478102,7105.977043,-6217.729913,919.314598
1119.478432,6957.935855,-6661.853478,1149.143247
1119.478762,6809.894666,-6587.832884,1225.752797
1119.479091,7254.018232,-6513.812290,1455.581446
1119.479421,7105.977043,-6365.771101,1149.143247
1119.479751,6809.894666,-6439.791695,919.314598
1119.480081,7105.977043,-6587.832884,1072.533697
1119.480411,7105.977043,-6587.832884,919.314598
1119.480741,7179.997637,-6883.915261,842.705048
1119.481070,7105.977043,-6809.894666,1072.533697
1119.481400,6957.935855,-6291.750507,995.924147
1119.481730,6957.935855,-6513.812290,1149.143247
1119.482060,7105.977043,-6365.771101,1378.971896
1119.482390,7254.018232,-6143.709319,919.314598
1119.482719,6217.729913,-6809.894666,1149.143247
1119.483049,6809.894666,-6513.812290,842.705048
1119.483379,6809.894666,-6587.832884,919.314598
1119.483709,6957.935855,-6291.750507,1532.190996
1119.484039,7031.956449,-6365.771101,1149.143247
1119.484368,6735.874072,-6439.791695,842.705048
1119.484698,6809.894666,-6513.812290,1072.533697
1119.485028,6883.915261,-6735.874072,1149.143247
1119.485358,6957.935855,-6365.771101,689.485948
1119.485688,6883.915261,-6513.812290,995.924147
1119.486018,7031.956449,-6587.832884,1225.752797
1119.486347,6883.915261,-6661.853478,995.924147
1119.486677,6883.915261,-6069.688724,1072.533697
1119.487007,7031.956449,-7031.956449,1149.143247
1119.487337,6661.853478,-6883.915261,1149.143247
1119.487667,6809.894666,-6661.853478,1149.143247
1119.487996,6809.894666,-6809.894666,1149.143247
1119.488326,7105.977043,-6217.729913,1302.362347
1119.488656,7105.977043,-6587.832884,689.485948
1119.488986,7031.956449,-6661.853478,919.314598
1119.489316,7031.956449,-6661.853478,919.314598
1119.489645,7031.956449,-6957.935855,842.705048
1119.489975,6957.935855,-6291.750507,919.314598
1119.490305,7105.977043,-6587.832884,1072.533697
1119.490635,7105.977043,-6661.853478,1072.533697
1119.490965,7328.038826,-6661.853478,689.485948
1119.491295,7254.018232,-7031.956449,459.657299
1119.491624,7254.018232,-6809.894666,995.924147
1119.491954,7105.977043,-6513.812290,919.314598
1119.492284,7105.977043,-6365.771101,1149.143247
1119.492614,7031.956449,-6513.812290,1302.362347
1119.492944,6957.935855,-6513.812290,1225.752797
1119.493273,6735.874072,-6661.853478,1072.533697
1119.493603,7031.956449,-6587.832884,1149.143247
1119.493933,6809.894666,-6439.791695,919.314598
1119.494263,7254.018232,-5995.668130,612.876398
1119.494593,7031.956449,-6735.874072,1149.143247
1119.494922,7105.977043,-6513.812290,842.705048
1119.495252,7105.977043,-6587.832884,1149.143247
1119.495582,7254.018232,-6291.750507,1225.752797
1119.495912,7105.977043,-6513.812290,1149.143247
1119.496242,6957.935855,-6587.832884,995.924147
1119.496572,7031.956449,-6513.812290,1072.533697
1119.496901,6809.894666,-6661.853478,1072.533697
1119.497231,6883.915261,-6365.771101,1072.533697
1119.497561,6661.853478,-6365.771101,1072.533697
1119.497891,6809.894666,-6513.812290,919.314598
1119.498221,6513.812290,-6957.935855,1149.143247
1119.498550,7105.977043,-6365.771101,842.705048
1119.498880,6735.874072,-6439.791695,1302.362347
1119.499210,6809.894666,-6587.832884,1149.143247
1119.499540,6957.935855,-6365.771101,995.924147
1119.499870,6957.935855,-6661.853478,1225.752797
1119.500199,7031.956449,-6661.853478,1072.533697
1119.500529,7105.977043,-6365.771101,919.314598
1119.500859,6883.915261,-6365.771101,612.876398
1119.501189,6957.935855,-6883.915261,1149.143247
1119.501519,7031.956449,-6365.771101,1149.143247
1119.501849,6587.832884,-6661.853478,1072.533697
1119.502178,6809.894666,-6809.894666,1149.143247
1119.502508,6661.853478,-6661.853478,1072.533697
1119.502838,6809.894666,-6439.791695,1378.971896
1119.503168,6735.874072,-6661.853478,1072.533697
1119.503498,7105.977043,-6735.874072,842.705048
1119.503827,7105.977043,-7031.956449,1072.533697
1119.504157,6957.935855,-6809.894666,842.705048
1119.504487,7031.956449,-6439.791695,1378.971896
1119.504817,7698.141797,-5255.462188,1455.581446
1119.505147,7550.100608,-5329.482782,1302.362347
1119.505476,8216.285956,-5551.544565,1685.410096
1119.505806,8512.368333,-5625.565159,1302.362347
1119.506136,7994.224174,-6217.729913,842.705048
1119.506466,6809.894666,-6513.812290,383.047749
1119.506796,5329.482782,-7328.038826,383.047749
1119.507126,5995.668130,-6809.894666,153.219100
1119.507455,6883.915261,-6883.915261,383.047749
1119.507785,7994.224174,-6883.915261,1302.362347
1119.508115,8734.430116,-5773.606348,1991.848295
1119.508445,8512.368333,-4293.194464,1378.971896
1119.508775,8660.409521,-4441.235652,842.705048
1119.509104,7994.224174,-4737.318029,1072.533697
1119.509434,8734.430116,-4145.153275,1378.971896
1119.509764,8808.450710,-4737.318029,919.314598
1119.510094,8660.409521,-4441.235652,1302.362347
1119.510424,7772.162391,-4737.318029,612.876398
1119.510753,7994.224174,-5551.544565,842.705048
1119.511083,8734.430116,-5329.482782,1072.533697
1119.511413,8586.388927,-6365.771101,1225.752797
1119.511743,8216.285956,-5921.647536,1225.752797
1119.512073,7550.100608,-5921.647536,612.876398
1119.512403,7550.100608,-6587.832884,153.219100
1119.512732,7031.956449,-6217.729913,842.705048
1119.513062,7254.018232,-6143.709319,459.657299
1119.513392,8142.265362,-5329.482782,1455.581446
1119.513722,8142.265362,-5477.523971,842.705048
1119.514052,8290.306550,-4737.318029,1455.581446
1119.514381,8734.430116,-4663.297435,1532.190996
1119.514711,9030.512492,-4811.338623,1455.581446
1119.515041,8956.491898,-3627.009116,1225.752797
1119.515371,8512.368333,-3775.050304,1838.629195
1119.515701,8512.368333,-4737.318029,919.314598
1119.516030,8734.430116,-5255.462188,1149.143247
1119.516360,8660.409521,-6069.688724,1378.971896
1119.516690,8142.265362,-6217.729913,919.314598
1119.517020,7328.038826,-6809.894666,1608.800546
1119.517350,7031.956449,-6809.894666,842.705048
1119.517680,7105.977043,-6661.853478,995.924147
1119.518009,6883.915261,-7328.038826,995.924147
1119.518339,6883.915261,-6735.874072,1149.143247
1119.518669,7254.018232,-5773.606348,1149.143247
1119.518999,7179.997637,-5551.544565,1225.752797
1119.519329,7402.059420,-6217.729913,1455.581446
1119.519658,7846.182985,-5107.421000,1378.971896
1119.519988,7772.162391,-4663.297435,1225.752797
1119.520318,8512.368333,-4811.338623,1072.533697
1119.520648,8882.471304,-4959.379811,1378.971896
1119.520978,8290.306550,-6217.729913,1149.143247
1119.521308,7476.080014,-5921.647536,842.705048
1119.521637,7328.038826,-5625.565159,383.047749
1119.521967,7328.038826,-6291.750507,766.095498
1119.522297,7254.018232,-6735.874072,995.924147
1119.522627,7105.977043,-6957.935855,1072.533697
1119.522957,6957.935855,-6661.853478,995.924147
1119.523286,6365.771101,-6587.832884,689.485948
1119.523616,6143.709319,-7031.956449,766.095498
1119.523946,6883.915261,-6809.894666,842.705048
1119.524276,7031.956449,-6735.874072,995.924147
1119.524606,6883.915261,-6513.812290,1225.752797
1119.524935,7105.977043,-6809.894666,1302.362347
1119.525265,7550.100608,-6809.894666,1149.143247
1119.525595,7105.977043,-6513.812290,919.314598
1119.525925,6883.915261,-6661.853478,459.657299
1119.526255,7328.038826,-6513.812290,459.657299
1119.526585,7550.100608,-6735.874072,1838.629195
1119.526914,7846.182985,-6217.729913,2145.067394
1119.527244,8068.244768,-5551.544565,1762.019645
1119.527574,7328.038826,-5181.441594,1991.848295
1119.527904,6661.853478,-5847.626942,995.924147
1119.528234,6587.832884,-6291.750507,1149.143247
1119.528563,7105.977043,-6513.812290,1532.190996
1119.528893,7105.977043,-6439.791695,842.705048
1119.529223,6291.750507,-6217.729913,1455.581446
1119.529553,6143.709319,-7476.080014,383.047749
1119.529883,6069.688724,-7994.224174,536.266849
1119.530212,6143.709319,-8290.306550,153.219100
1119.530542,6439.791695,-7550.100608,0.000000
1119.530872,6587.832884,-7254.018232,383.047749
1119.531202,6513.812290,-7179.997637,459.657299
1119.531532,6809.894666,-6883.915261,536.266849
1119.531862,7105.977043,-6809.894666,306.438199
1119.532191,6587.832884,-5773.606348,1378.971896
1119.532521,7550.100608,-6143.709319,1532.190996
1119.532851,7994.224174,-5995.668130,2068.457845
1119.533181,7698.141797,-5921.647536,1685.410096
1119.533511,6957.935855,-6661.853478,842.705048
1119.533840,6217.729913,-5847.626942,919.314598
1119.534170,6957.935855,-6439.791695,995.924147
1119.534500,7254.018232,-6661.853478,1532.190996
1119.534830,7476.080014,-6217.729913,1149.143247
1119.535160,6587.832884,-6661.853478,229.828649
1119.535489,6661.853478,-7031.956449,1225.752797
1119.535819,6957.935855,-6587.832884,1225.752797
1119.536149,7105.977043,-6291.750507,766.095498
1119.536479,6809.894666,-6143.709319,689.485948
1119.536809,6439.791695,-6217.729913,919.314598
1119.537139,7031.956449,-6587.832884,995.924147
1119.537468,7328.038826,-6439.791695,1149.143247
1119.537798,7550.100608,-6217.729913,1532.190996
1119.538128,7772.162391,-6217.729913,612.876398
1119.538458,7105.977043,-6809.894666,1149.143247
1119.538788,7179.997637,-6587.832884,1149.143247
1119.539117,7254.018232,-6365.771101,919.314598
1119.539447,7254.018232,-6365.771101,689.485948
1119.539777,7105.977043,-6587.832884,689.485948
1119.540107,6957.935855,-6069.688724,459.657299
1119.540437,6957.935855,-6661.853478,76.609550
1119.540766,6957.935855,-6513.812290,536.266849
1119.541096,7105.977043,-6883.915261,766.095498
1119.541426,7031.956449,-6883.915261,1225.752797
1119.541756,6883.915261,-6587.832884,766.095498
1119.542086,7105.977043,-6809.894666,842.705048
1119.542416,7105.977043,-6883.915261,1149.143247
1119.542745,7179.997637,-6587.832884,1225.752797
1119.543075,7698.141797,-6439.791695,1532.190996
1119.543405,7476.080014,-6661.853478,1532.190996
1119.543735,7624.121203,-6661.853478,1838.629195
1119.544065,7402.059420,-6883.915261,2068.457845
1119.544394,7105.977043,-7179.997637,1838.629195
1119.544724,7031.956449,-6587.832884,1225.752797
1119.545054,6439.791695,-6291.750507,842.705048
1119.545384,5995.668130,-6291.750507,766.095498
1119.545714,5995.668130,-6069.688724,995.924147
1119.546043,6217.729913,-6809.894666,689.485948
1119.546373,6439.791695,-6513.812290,612.876398
1119.546703,6809.894666,-6513.812290,612.876398
1119.547033,6513.812290,-6587.832884,536.266849
1119.547363,7254.018232,-7179.997637,1225.752797
1119.547693,6883.915261,-7328.038826,995.924147
1119.548022,6883.915261,-6735.874072,995.924147
1119.548352,7105.977043,-6883.915261,1072.533697
1119.548682,6735.874072,-6883.915261,689.485948
1119.549012,7031.956449,-7254.018232,1072.533697
1119.549342,6735.874072,-7328.038826,1225.752797
1119.549671,6735.874072,-6661.853478,1225.752797
1119.550001,6883.915261,-6883.915261,1149.143247
1119.550331,6957.935855,-6143.709319,1532.190996
1119.550661,6587.832884,-7031.956449,842.705048
1119.550991,7031.956449,-6735.874072,919.314598
1119.551320,7105.977043,-5995.668130,1072.533697
1119.551650,7402.059420,-6365.771101,1455.581446
1119.551980,7994.224174,-6365.771101,1072.533697
1119.552310,7105.977043,-6513.812290,1302.362347
1119.552640,7105.977043,-6809.894666,1378.971896
1119.552970,7254.018232,-6513.812290,1685.410096
1119.553299,7550.100608,-6883.915261,1532.190996
1119.553629,7328.038826,-5995.668130,1455.581446
1119.553959,7105.977043,-5477.523971,766.095498
1119.554289,7031.956449,-6587.832884,919.314598
1119.554619,6809.894666,-6365.771101,919.314598
1119.554948,6439.791695,-5995.668130,689.485948
1119.555278,7254.018232,-5699.585753,306.438199
1119.555608,7254.018232,-6291.750507,459.657299
1119.555938,7254.018232,-6513.812290,919.314598
1119.556268,7105.977043,-5329.482782,153.219100
1119.556597,7624.121203,-5995.668130,383.047749
1119.556927,7328.038826,-6365.771101,919.314598
1119.557257,7846.182985,-6439.791695,1302.362347
1119.557587,7698.141797,-6291.750507,995.924147
1119.557917,7772.162391,-6735.874072,1762.019645
1119.558246,7105.977043,-7031.956449,1072.533697
1119.558576,6957.935855,-7179.997637,1302.362347
1119.558906,6809.894666,-6809.894666,536.266849
1119.559235,6513.812290,-6661.853478,689.485948
1119.559565,6661.853478,-6217.729913,919.314598
1119.559895,7179.997637,-6809.894666,1302.362347
1119.560224,7254.018232,-6291.750507,1225.752797
1119.560554,7254.018232,-6143.709319,1455.581446
1119.560884,7179.997637,-6291.750507,1225.752797
1119.561214,6883.915261,-6291.750507,1762.019645
1119.561543,6587.832884,-6735.874072,842.705048
1119.561873,6661.853478,-6809.894666,842.705048
1119.562203,7031.956449,-7031.956449,1072.533697
1119.562532,7402.059420,-6883.915261,1149.143247
1119.562862,7105.977043,-6957.935855,1072.533697
1119.563192,5995.668130,-7105.977043,842.705048
1119.563521,5625.565159,-7105.977043,306.438199
1119.563851,6069.688724,-7105.977043,459.657299
1119.564181,6217.729913,-7031.956449,919.314598
1119.564510,5995.668130,-7031.956449,766.095498
1119.564840,6217.729913,-6217.729913,383.047749
1119.565170,6439.791695,-6365.771101,612.876398
1119.565499,7031.956449,-6291.750507,229.828649
1119.565829,7328.038826,-6069.688724,1225.752797
1119.566159,7179.997637,-6661.853478,1532.190996
1119.566488,7105.977043,-6513.812290,1149.143247
1119.566818,7031.956449,-6587.832884,1532.190996
1119.567148,6735.874072,-6883.915261,1302.362347
1119.567477,6735.874072,-7105.977043,1225.752797
1119.567807,7105.977043,-7105.977043,1685.410096
1119.568137,7254.018232,-6513.812290,1455.581446
1119.568466,7328.038826,-6661.853478,1991.848295
1119.568796,7105.977043,-6217.729913,1072.533697
1119.569126,7105.977043,-7105.977043,1072.533697
1119.569455,6587.832884,-6809.894666,689.485948
1119.569785,6365.771101,-6217.729913,766.095498
1119.570115,6217.729913,-6587.832884,919.314598
1119.570444,6587.832884,-6217.729913,689.485948
1119.570774,7179.997637,-6661.853478,766.095498
1119.571104,7328.038826,-6957.935855,1072.533697
1119.571434,7105.977043,-6143.709319,1378.971896
1119.571763,7402.059420,-6883.915261,919.314598
1119.572093,7328.038826,-6587.832884,1149.143247
1119.572423,7179.997637,-6365.771101,919.314598
1119.572752,7624.121203,-5921.647536,842.705048
1119.573082,8142.265362,-4737.318029,1149.143247
1119.573412,7772.162391,-5625.565159,995.924147
1119.573741,7772.162391,-5847.626942,995.924147
1119.574071,7328.038826,-5773.606348,536.266849
1119.574401,7254.018232,-5625.565159,459.657299
1119.574730,7772.162391,-5847.626942,1072.533697
1119.575060,7402.059420,-7105.977043,842.705048
1119.575390,7105.977043,-6883.915261,612.876398
1119.575719,6661.853478,-7402.059420,766.095498
1119.576049,6735.874072,-7402.059420,1225.752797
1119.576379,7476.080014,-7105.977043,842.705048
1119.576708,7179.997637,-7476.080014,1302.362347
1119.577038,7105.977043,-7624.121203,1685.410096
1119.577368,7105.977043,-6661.853478,1378.971896
1119.577697,6735.874072,-5773.606348,1225.752797
1119.578027,6439.791695,-5995.668130,1378.971896
1119.578357,6735.874072,-6291.750507,1149.143247
1119.578686,6809.894666,-5847.626942,995.924147
1119.579016,6587.832884,-6217.729913,459.657299
1119.579346,6439.791695,-6291.750507,612.876398
1119.579675,6735.874072,-7031.956449,536.266849
1119.580005,6513.812290,-7402.059420,459.657299
1119.580335,6291.750507,-6883.915261,306.438199
1119.580664,6735.874072,-7254.018232,153.219100
1119.580994,6809.894666,-7402.059420,689.485948
1119.581324,6735.874072,-7402.059420,1072.533697
1119.581654,6587.832884,-6809.894666,995.924147
1119.581983,6661.853478,-6291.750507,995.924147
1119.582313,6957.935855,-6291.750507,1532.190996
1119.582643,7105.977043,-6587.832884,1762.019645
1119.582972,7105.977043,-5921.647536,1685.410096
1119.583302,7105.977043,-6143.709319,1072.533697
1119.583632,6513.812290,-5699.585753,1455.581446
1119.583961,7031.956449,-6809.894666,919.314598
1119.584291,6957.935855,-6883.915261,1072.533697
1119.584621,7105.977043,-6883.915261,1072.533697
1119.584950,6883.915261,-7105.977043,919.314598
1119.585280,7105.977043,-6661.853478,1302.362347
1119.585610,6439.791695,-7476.080014,1378.971896
1119.585939,6883.915261,-7179.997637,1532.190996
1119.586269,6809.894666,-6365.771101,536.266849
1119.586599,6809.894666,-6217.729913,2068.457845
1119.586928,6957.935855,-6735.874072,1149.143247
1119.587258,6957.935855,-6291.750507,1302.362347
1119.587588,6735.874072,-5773.606348,689.485948
1119.587917,6661.853478,-5699.585753,536.266849
1119.588247,6587.832884,-5699.585753,459.657299
1119.588577,6809.894666,-6587.832884,1072.533697
1119.588906,7476.080014,-6735.874072,766.095498
1119.589236,7328.038826,-6143.709319,842.705048
1119.589566,7105.977043,-5551.544565,766.095498
1119.589895,8438.347739,-5773.606348,1685.410096
1119.590225,7920.203579,-6661.853478,919.314598
1119.590555,7402.059420,-6291.750507,1149.143247
1119.590885,7328.038826,-5551.544565,229.828649
1119.591214,7105.977043,-5773.606348,995.924147
1119.591544,7105.977043,-6735.874072,1072.533697
1119.591874,7105.977043,-7105.977043,995.924147
1119.592203,6957.935855,-7105.977043,1072.533697
1119.592533,6809.894666,-6661.853478,689.485948
1119.592863,6957.935855,-6587.832884,1225.752797
1119.593192,7402.059420,-7031.956449,1302.362347
1119.593522,7920.203579,-6735.874072,1455.581446
1119.593852,7920.203579,-6069.688724,1455.581446
1119.594181,7476.080014,-5773.606348,1149.143247
1119.594511,7179.997637,-6291.750507,1378.971896
1119.594841,7105.977043,-6513.812290,1302.362347
1119.595170,6883.915261,-6513.812290,919.314598
1119.595500,6365.771101,-6291.750507,919.314598
1119.595830,6365.771101,-6883.915261,1455.581446
1119.596159,6365.771101,-7105.977043,919.314598
1119.596489,5921.647536,-7031.956449,0.000000
1119.596819,5773.606348,-6735.874072,536.266849
1119.597148,5773.606348,-6883.915261,459.657299
1119.597478,6217.729913,-7254.018232,1302.362347
1119.597808,6661.853478,-7328.038826,1072.533697
1119.598137,6735.874072,-6809.894666,689.485948
1119.598467,6661.853478,-6439.791695,919.314598
1119.598797,7254.018232,-6883.915261,842.705048
1119.599126,7402.059420,-6439.791695,1302.362347
1119.599456,7105.977043,-6291.750507,1455.581446
1119.599786,6957.935855,-5995.668130,842.705048
1119.600115,6661.853478,-6439.791695,919.314598
1119.600445,7105.977043,-6143.709319,1455.581446
1119.600775,7105.977043,-6883.915261,1149.143247
1119.601105,6809.894666,-7105.977043,995.924147
1119.601434,6439.791695,-7105.977043,919.314598
1119.601764,6439.791695,-7402.059420,1225.752797
1119.602094,7105.977043,-7550.100608,1532.190996
1119.602423,6883.915261,-7105.977043,919.314598
1119.602753,6735.874072,-6661.853478,766.095498
1119.603083,6957.935855,-6735.874072,1072.533697
1119.603412,6883.915261,-5921.647536,919.314598
1119.603742,6587.832884,-6291.750507,689.485948
1119.604072,6809.894666,-6365.771101,1072.533697
1119.604401,7031.956449,-5995.668130,995.924147
1119.604731,7254.018232,-5995.668130,995.924147
1119.605061,7550.100608,-6439.791695,919.314598
1119.605390,7550.100608,-6365.771101,842.705048
1119.605720,7550.100608,-5847.626942,919.314598
1119.606050,7550.100608,-6069.688724,842.705048
1119.606379,7550.100608,-5921.647536,919.314598
1119.606709,7254.018232,-6439.791695,1072.533697
1119.607039,7179.997637,-5995.668130,766.095498
1119.607368,7179.997637,-5773.606348,459.657299
1119.607698,7179.997637,-6439.791695,995.924147
1119.608028,7624.121203,-6217.729913,612.876398
1119.608357,7105.977043,-6513.812290,919.314598
1119.608687,6957.935855,-6513.812290,919.314598
1119.609017,6809.894666,-7105.977043,995.924147
1119.609346,7105.977043,-6883.915261,1225.752797
1119.609676,7179.997637,-7031.956449,1072.533697
1119.610006,7105.977043,-6809.894666,995.924147
1119.610335,7254.018232,-6587.832884,1608.800546
1119.610665,7476.080014,-6513.812290,1455.581446
1119.610995,7254.018232,-6439.791695,1455.581446
1119.611325,6735.874072,-6365.771101,1149.143247
1119.611654,6809.894666,-6809.894666,1225.752797
1119.611984,6661.853478,-6365.771101,1302.362347
1119.612314,6513.812290,-6291.750507,536.266849
1119.612643,6883.915261,-6365.771101,919.314598
1119.612973,6217.729913,-6587.832884,612.876398
1119.613303,6365.771101,-7105.977043,612.876398
1119.613632,6661.853478,-6661.853478,612.876398
1119.613962,6513.812290,-7031.956449,766.095498
1119.614292,6661.853478,-7179.997637,919.314598
1119.614621,7105.977043,-7031.956449,1072.533697
1119.614951,7105.977043,-6809.894666,1455.581446
1119.615281,7031.956449,-6513.812290,995.924147
1119.615610,7105.977043,-5995.668130,536.266849
1119.615940,7105.977043,-6365.771101,1149.143247
1119.616270,7328.038826,-6587.832884,1378.971896
1119.616599,7179.997637,-6809.894666,1302.362347
1119.616929,7031.956449,-6069.688724,1225.752797
1119.617259,6661.853478,-6513.812290,842.705048
1119.617588,6587.832884,-6587.832884,995.924147
1119.617918,7031.956449,-7105.977043,1302.362347
1119.618248,7254.018232,-7179.997637,1225.752797
1119.618577,6957.935855,-6513.812290,1455.581446
1119.618907,6883.915261,-6883.915261,1225.752797
1119.619237,6883.915261,-6883.915261,1378.971896
1119.619566,6809.894666,-7772.162391,1685.410096
1119.619896,7105.977043,-6661.853478,1225.752797
1119.620226,6587.832884,-6661.853478,1378.971896
1119.620555,6217.729913,-6143.709319,919.314598
1119.620885,6883.915261,-6143.709319,1149.143247
1119.621215,7105.977043,-6365.771101,766.095498
1119.621545,7772.162391,-5403.503377,766.095498
1119.621874,7402.059420,-5625.565159,842.705048
1119.622204,7105.977043,-5995.668130,766.095498
1119.622534,7254.018232,-6439.791695,842.705048
1119.622863,7476.080014,-6809.894666,689.485948
1119.623193,7624.121203,-6217.729913,1149.143247
1119.623523,7476.080014,-6809.894666,1072.533697
1119.623852,7402.059420,-6587.832884,995.924147
1119.624182,7254.018232,-6587.832884,612.876398
1119.624512,6809.894666,-6439.791695,1149.143247
1119.624841,7105.977043,-6661.853478,1149.143247
1119.625171,7105.977043,-7328.038826,1225.752797
1119.625501,6957.935855,-7105.977043,1072.533697
1119.625830,6809.894666,-6513.812290,766.095498
1119.626160,6661.853478,-6661.853478,1072.533697
1119.626490,7179.997637,-6661.853478,1532.190996
1119.626819,7402.059420,-6513.812290,1608.800546
1119.627149,7476.080014,-5995.668130,1225.752797
1119.627479,7105.977043,-5995.668130,1685.410096
1119.627808,7476.080014,-6809.894666,1302.362347
1119.628138,7254.018232,-6217.729913,1685.410096
1119.628468,6957.935855,-6513.812290,1608.800546
1119.628797,7105.977043,-5847.626942,1149.143247
1119.629127,7031.956449,-5847.626942,919.314598
1119.629457,7105.977043,-7105.977043,1302.362347
1119.629786,6587.832884,-7105.977043,919.314598
1119.630116,5921.647536,-7254.018232,383.047749
1119.630446,5699.585753,-6735.874072,0.000000
1119.630776,5847.626942,-7105.977043,536.266849
1119.631105,6365.771101,-7846.182985,1072.533697
1119.631435,6587.832884,-7328.038826,766.095498
1119.631765,6587.832884,-6809.894666,459.657299
1119.632094,6957.935855,-6069.688724,612.876398
1119.632424,7476.080014,-6217.729913,995.924147
1119.632754,7476.080014,-6809.894666,1225.752797
1119.633083,7846.182985,-5699.585753,1762.019645
1119.633413,7476.080014,-5699.585753,1072.533697
1119.633743,7179.997637,-5773.606348,1225.752797
1119.634072,7105.977043,-6661.853478,1378.971896
1119.634402,7328.038826,-7179.997637,1225.752797
1119.634732,6809.894666,-7179.997637,1532.190996
1119.635061,6587.832884,-6661.853478,1685.410096
1119.635391,6587.832884,-7031.956449,919.314598
1119.635721,6513.812290,-7254.018232,1225.752797
1119.636050,6661.853478,-7402.059420,1302.362347
1119.636380,6143.709319,-6883.915261,612.876398
1119.636710,5995.668130,-6069.688724,612.876398
1119.637039,6291.750507,-6291.750507,536.266849
1119.637369,7031.956449,-6291.750507,1302.362347
1119.637699,7105.977043,-6291.750507,1149.143247
1119.638028,7328.038826,-5773.606348,1072.533697
1119.638358,7105.977043,-5921.647536,1532.190996
1119.638688,7254.018232,-6217.729913,1302.362347
1119.639017,7179.997637,-6217.729913,1072.533697
1119.639347,7254.018232,-6217.729913,1072.533697
1119.639677,7698.141797,-5551.544565,1149.143247
1119.640006,7698.141797,-6143.709319,995.924147
1119.640336,7624.121203,-5921.647536,995.924147
1119.640666,7105.977043,-5773.606348,766.095498
1119.640996,7105.977043,-6069.688724,306.438199
1119.641325,7328.038826,-6365.771101,306.438199
1119.641655,6809.894666,-7179.997637,689.485948
1119.641985,7031.956449,-6957.935855,919.314598
1119.642314,6587.832884,-6957.935855,766.095498
1119.642644,6513.812290,-7476.080014,842.705048
1119.642974,6143.709319,-6587.832884,919.314598
1119.643303,7328.038826,-7105.977043,1532.190996
1119.643633,7550.100608,-6661.853478,1532.190996
1119.643963,7402.059420,-6735.874072,1762.019645
1119.644292,7476.080014,-6217.729913,1532.190996
1119.644622,7031.956449,-6513.812290,1762.019645
1119.644952,7031.956449,-7105.977043,1608.800546
1119.645281,6735.874072,-6069.688724,1225.752797
1119.645611,6143.709319,-6069.688724,1149.143247
1119.645941,7031.956449,-6143.709319,76.609550
1119.646270,6587.832884,-6439.791695,459.657299
1119.646600,6439.791695,-7105.977043,612.876398
1119.646930,6217.729913,-6883.915261,0.000000
1119.647259,6735.874072,-6587.832884,689.485948
1119.647589,7031.956449,-6957.935855,842.705048
1119.647919,7105.977043,-7254.018232,1225.752797
1119.648248,7105.977043,-6809.894666,995.924147
1119.648578,6883.915261,-6735.874072,1072.533697
1119.648908,6587.832884,-6291.750507,1302.362347
1119.649237,7031.956449,-6587.832884,612.876398
1119.649567,7105.977043,-6365.771101,1225.752797
1119.649897,7179.997637,-6661.853478,1608.800546
1119.650226,7105.977043,-6143.709319,1149.143247
1119.650556,6957.935855,-6217.729913,1072.533697
1119.650886,7105.977043,-6143.709319,766.095498
1119.651216,6957.935855,-6439.791695,1149.143247
1119.651545,7105.977043,-6513.812290,1072.533697
1119.651875,6957.935855,-6365.771101,919.314598
1119.652205,7031.956449,-7105.977043,1225.752797
1119.652534,7105.977043,-6883.915261,1838.629195
1119.652864,7105.977043,-7105.977043,1532.190996
1119.653194,6809.894666,-6143.709319,842.705048
1119.653523,6587.832884,-7031.956449,1072.533697
1119.653853,6735.874072,-6513.812290,1225.752797
1119.654183,6809.894666,-6587.832884,995.924147
1119.654512,6587.832884,-6513.812290,842.705048
1119.654842,7105.977043,-6217.729913,229.828649
1119.655172,7105.977043,-6439.791695,842.705048
1119.655501,7105.977043,-6513.812290,842.705048
1119.655831,7105.977043,-6513.812290,919.314598
1119.656161,7179.997637,-6439.791695,612.876398
1119.656490,7328.038826,-5625.565159,1225.752797
1119.656820,7328.038826,-5995.668130,689.485948
1119.657150,7105.977043,-6439.791695,1149.143247
1119.657479,7179.997637,-6587.832884,1302.362347
1119.657809,7476.080014,-6587.832884,1149.143247
1119.658139,6957.935855,-6513.812290,919.314598
1119.658468,6957.935855,-6883.915261,1608.800546
1119.658798,7105.977043,-7476.080014,1685.410096
1119.659128,6809.894666,-6883.915261,1532.190996
1119.659457,6809.894666,-6661.853478,1149.143247
1119.659787,6883.915261,-5995.668130,1149.143247
1119.660117,7402.059420,-6291.750507,1149.143247
1119.660446,7846.182985,-6439.791695,1532.190996
1119.660776,7624.121203,-6513.812290,1762.019645
1119.661105,7254.018232,-6143.709319,919.314598
1119.661434,6735.874072,-6365.771101,1072.533697
1119.661764,6809.894666,-6365.771101,1072.533697
1119.662093,6883.915261,-6809.894666,919.314598
1119.662423,6957.935855,-6735.874072,1532.190996
1119.662752,6809.894666,-6661.853478,995.924147
1119.663081,6513.812290,-6809.894666,229.828649
1119.663411,5995.668130,-6957.935855,1072.533697
1119.663740,6143.709319,-7179.997637,689.485948
1119.664070,6661.853478,-7031.956449,919.314598
1119.664399,6513.812290,-6957.935855,1072.533697
1119.664728,6587.832884,-7031.956449,766.095498
1119.665058,6661.853478,-6217.729913,766.095498
1119.665387,6439.791695,-6809.894666,919.314598
1119.665717,6883.915261,-6735.874072,536.266849
1119.666046,7031.956449,-6291.750507,842.705048
1119.666375,6957.935855,-6513.812290,995.924147
1119.666705,7254.018232,-5921.647536,1072.533697
1119.667034,6661.853478,-5995.668130,2374.896044
1119.667364,7105.977043,-6513.812290,1608.800546
1119.667693,7402.059420,-6587.832884,1532.190996
1119.668023,7105.977043,-6809.894666,1762.019645
1119.668352,7105.977043,-6883.915261,1991.848295
1119.668681,6439.791695,-6513.812290,1149.143247
1119.669011,6735.874072,-7031.956449,1532.190996
1119.669340,6957.935855,-7031.956449,1072.533697
1119.669670,6513.812290,-6957.935855,1072.533697
1119.669999,6661.853478,-6661.853478,689.485948
1119.670328,6365.771101,-6587.832884,459.657299
1119.670658,6587.832884,-6587.832884,459.657299
1119.670987,6735.874072,-6735.874072,919.314598
1119.671317,7105.977043,-6735.874072,612.876398
1119.671646,7254.018232,-6735.874072,459.657299
1119.671975,7402.059420,-6809.894666,1225.752797
1119.672305,7105.977043,-6513.812290,1149.143247
1119.672634,7476.080014,-6217.729913,1225.752797
1119.672964,7402.059420,-5921.647536,919.314598
1119.673293,7254.018232,-5477.523971,995.924147
1119.673622,7328.038826,-5921.647536,689.485948
1119.673952,7328.038826,-5625.565159,689.485948
1119.674281,7402.059420,-5625.565159,612.876398
1119.674611,7698.141797,-6217.729913,766.095498
1119.674940,7402.059420,-6217.729913,1072.533697
1119.675269,7105.977043,-6513.812290,1072.533697
1119.675599,6513.812290,-6809.894666,536.266849
1119.675928,6439.791695,-7624.121203,919.314598
1119.676258,6661.853478,-7402.059420,536.266849
1119.676587,7031.956449,-7550.100608,1455.581446
1119.676916,7105.977043,-7105.977043,1225.752797
1119.677246,7105.977043,-7105.977043,1302.362347
1119.677575,6587.832884,-6661.853478,2145.067394
1119.677905,7031.956449,-6587.832884,1302.362347
1119.678234,7179.997637,-5995.668130,1455.581446
1119.678563,6883.915261,-5995.668130,1302.362347
1119.678893,6735.874072,-5699.585753,1149.143247
1119.679222,6587.832884,-5403.503377,1455.581446
1119.679552,6957.935855,-6217.729913,1149.143247
1119.679881,6809.894666,-6587.832884,919.314598
1119.680210,6661.853478,-7105.977043,919.314598
1119.680540,6587.832884,-6661.853478,459.657299
1119.680869,6365.771101,-7105.977043,919.314598
1119.681199,6809.894666,-7476.080014,1149.143247
1119.681528,7105.977043,-7179.997637,1072.533697
1119.681858,6735.874072,-6883.915261,689.485948
1119.682187,6513.812290,-6069.688724,459.657299
1119.682516,6513.812290,-6809.894666,459.657299
1119.682846,6957.935855,-6809.894666,1302.362347
1119.683175,7328.038826,-6809.894666,1378.971896
1119.683505,7624.121203,-6217.729913,1149.143247
1119.683834,6957.935855,-5403.503377,1608.800546
1119.684163,7031.956449,-6069.688724,1149.143247
1119.684493,7179.997637,-6365.771101,1149.143247
1119.684822,7179.997637,-6883.915261,1225.752797
1119.685152,7402.059420,-6513.812290,1532.190996
1119.685481,7105.977043,-6513.812290,1378.971896
1119.685810,6957.935855,-7105.977043,1225.752797
1119.686140,7105.977043,-7105.977043,1302.362347
1119.686469,6587.832884,-7105.977043,1302.362347
1119.686799,5995.668130,-6661.853478,689.485948
1119.687128,6291.750507,-6513.812290,1072.533697
1119.687457,6513.812290,-6217.729913,842.705048
1119.687787,6809.894666,-6143.709319,842.705048
1119.688116,6587.832884,-5033.400406,1225.752797
1119.688446,7550.100608,-5329.482782,536.266849
1119.688775,7624.121203,-5995.668130,1225.752797
1119.689104,7476.080014,-5773.606348,1225.752797
1119.689434,7328.038826,-5921.647536,842.705048
1119.689763,7476.080014,-5181.441594,995.924147
1119.690093,7476.080014,-6365.771101,919.314598
1119.690422,7402.059420,-6809.894666,995.924147
1119.690751,7550.100608,-6439.791695,1072.533697
1119.691081,7402.059420,-7031.956449,919.314598
1119.691410,7105.977043,-6661.853478,1225.752797
1119.691740,6957.935855,-7031.956449,1225.752797
1119.692069,7105.977043,-7624.121203,1149.143247
1119.692398,6587.832884,-6587.832884,1302.362347
1119.692728,6809.894666,-6883.915261,612.876398
1119.693057,6809.894666,-6365.771101,612.876398
1119.693387,7105.977043,-6661.853478,1378.971896
1119.693716,7328.038826,-6291.750507,1532.190996
1119.694045,7624.121203,-6217.729913,1225.752797
1119.694375,7624.121203,-6217.729913,1455.581446
1119.694704,7402.059420,-6291.750507,1455.581446
1119.695034,7105.977043,-6587.832884,919.314598
1119.695363,6883.915261,-6365.771101,1378.971896
1119.695692,6661.853478,-5847.626942,1762.019645
1119.696022,6809.894666,-6587.832884,1149.143247
1119.696351,6513.812290,-6513.812290,1072.533697
1119.696681,6217.729913,-6735.874072,689.485948
1119.697010,5921.647536,-7031.956449,919.314598
1119.697340,6513.812290,-6809.894666,1072.533697
1119.697669,5625.565159,-7254.018232,536.266849
1119.697998,6291.750507,-7254.018232,612.876398
1119.698328,6291.750507,-7031.956449,536.266849
1119.698657,5995.668130,-6661.853478,612.876398
1119.698987,6735.874072,-6513.812290,459.657299
1119.699316,7105.977043,-7402.059420,995.924147
1119.699645,7624.121203,-7254.018232,1149.143247
1119.699975,7476.080014,-6587.832884,1149.143247
1119.700304,7105.977043,-5921.647536,1838.629195
1119.700634,6809.894666,-6365.771101,1378.971896
1119.700963,7105.977043,-6735.874072,1532.190996
1119.701292,7105.977043,-6587.832884,1762.019645
1119.701622,7031.956449,-6069.688724,1532.190996
1119.701951,6661.853478,-6143.709319,1149.143247
1119.702281,6735.874072,-5995.668130,1225.752797
1119.702610,7105.977043,-6661.853478,1378.971896
1119.702939,7105.977043,-6513.812290,1378.971896
1119.703269,7254.018232,-6735.874072,306.438199
1119.703598,6661.853478,-6365.771101,766.095498
1119.703928,6809.894666,-6513.812290,536.266849
1119.704257,7105.977043,-6809.894666,842.705048
1119.704586,7254.018232,-6587.832884,1072.533697
1119.704916,7550.100608,-6439.791695,766.095498
1119.705245,7105.977043,-6143.709319,1608.800546
1119.705575,6883.915261,-6291.750507,842.705048
1119.705904,7179.997637,-6587.832884,1072.533697
1119.706233,7105.977043,-5995.668130,1072.533697
1119.706563,7105.977043,-5921.647536,766.095498
1119.706892,6957.935855,-5773.606348,306.438199
1119.707222,7031.956449,-5477.523971,306.438199
1119.707551,7624.121203,-5995.668130,766.095498
1119.707880,8586.388927,-6291.750507,1608.800546
1119.708210,8290.306550,-6365.771101,1608.800546
1119.708539,7179.997637,-5995.668130,1225.752797
1119.708869,6439.791695,-6365.771101,766.095498
1119.709198,6291.750507,-7179.997637,919.314598
1119.709527,6883.915261,-7550.100608,1455.581446
1119.709857,7179.997637,-7179.997637,1685.410096
1119.710186,6957.935855,-6439.791695,1378.971896
1119.710516,6587.832884,-6587.832884,919.314598
1119.710845,6809.894666,-7179.997637,1762.019645
1119.711174,6735.874072,-7031.956449,919.314598
1119.711504,6661.853478,-7031.956449,919.314598
1119.711833,6661.853478,-6291.750507,1302.362347
1119.712163,6365.771101,-5995.668130,459.657299
1119.712492,6439.791695,-6439.791695,1149.143247
1119.712822,6809.894666,-6809.894666,1149.143247
1119.713151,7105.977043,-7031.956449,1225.752797
1119.713480,6809.894666,-6809.894666,995.924147
1119.713810,6883.915261,-6735.874072,995.924147
1119.714139,6365.771101,-7105.977043,459.657299
1119.714469,6587.832884,-7550.100608,612.876398
1119.714798,6513.812290,-7179.997637,766.095498
1119.715127,6365.771101,-6513.812290,689.485948
1119.715457,6513.812290,-6291.750507,689.485948
1119.715786,6957.935855,-6957.935855,766.095498
1119.716116,6957.935855,-7105.977043,1072.533697
1119.716445,6883.915261,-7031.956449,1149.143247
1119.716774,7105.977043,-6587.832884,919.314598
1119.717104,7254.018232,-6513.812290,1149.143247
1119.717433,7105.977043,-6439.791695,919.314598
1119.717763,7105.977043,-6365.771101,1072.533697
1119.718092,7105.977043,-5995.668130,1072.533697
1119.718421,7328.038826,-6587.832884,1378.971896
1119.718751,7698.141797,-6291.750507,1455.581446
1119.719080,7476.080014,-6513.812290,1915.238745
1119.719410,7105.977043,-6513.812290,1532.190996
1119.719739,6735.874072,-6661.853478,1225.752797
1119.720068,7179.997637,-6587.832884,995.924147
1119.720398,6883.915261,-5773.606348,842.705048
1119.720727,7105.977043,-5995.668130,919.314598
1119.721057,6661.853478,-6365.771101,919.314598
1119.721386,6809.894666,-6365.771101,766.095498
1119.721715,6809.894666,-6661.853478,153.219100
1119.722045,7105.977043,-6143.709319,689.485948
1119.722374,7031.956449,-6217.729913,459.657299
1119.722704,7105.977043,-6513.812290,612.876398
1119.723033,7105.977043,-6587.832884,842.705048
1119.723362,7105.977043,-6661.853478,536.266849
1119.723692,7254.018232,-6587.832884,919.314598
1119.724021,7402.059420,-6291.750507,995.924147
1119.724351,7105.977043,-5847.626942,1378.971896
1119.724680,7328.038826,-6217.729913,1149.143247
1119.725009,7105.977043,-6439.791695,1072.533697
1119.725339,7031.956449,-6439.791695,1302.362347
1119.725668,7105.977043,-6291.750507,919.314598
1119.725998,7105.977043,-6143.709319,1225.752797
1119.726327,6513.812290,-6587.832884,766.095498
1119.726656,6587.832884,-6735.874072,842.705048
1119.726986,7031.956449,-6957.935855,1378.971896
1119.727315,7476.080014,-7031.956449,1685.410096
1119.727645,7624.121203,-6735.874072,2221.676944
1119.727974,7179.997637,-6513.812290,1455.581446
1119.728304,6883.915261,-6957.935855,1378.971896
1119.728633,6513.812290,-6439.791695,1225.752797
1119.728962,7105.977043,-6957.935855,1915.238745
1119.729292,7328.038826,-6661.853478,1455.581446
1119.729621,6735.874072,-6217.729913,919.314598
1119.729951,6291.750507,-6513.812290,766.095498
1119.730280,6217.729913,-6439.791695,766.095498
1119.730609,6365.771101,-6513.812290,766.095498
1119.730939,6957.935855,-6883.915261,995.924147
1119.731268,6809.894666,-6735.874072,612.876398
1119.731598,6217.729913,-6883.915261,306.438199
1119.731927,6217.729913,-7476.080014,612.876398
1119.732256,6809.894666,-7179.997637,536.266849
1119.732586,7031.956449,-7105.977043,842.705048
1119.732915,7031.956449,-7105.977043,919.314598
1119.733245,6735.874072,-7105.977043,919.314598
1119.733574,7105.977043,-6735.874072,919.314598
1119.733903,6957.935855,-6957.935855,1302.362347
1119.734233,7254.018232,-6365.771101,1149.143247
1119.734562,6957.935855,-6217.729913,1532.190996
1119.734892,7179.997637,-6439.791695,1455.581446
1119.735221,7550.100608,-6069.688724,1149.143247
1119.735550,7328.038826,-5847.626942,1149.143247
1119.735880,7476.080014,-5995.668130,1072.533697
1119.736209,7328.038826,-6291.750507,1225.752797
1119.736539,7031.956449,-6069.688724,1378.971896
1119.736868,7105.977043,-6217.729913,995.924147
1119.737197,6735.874072,-6735.874072,842.705048
1119.737527,6957.935855,-7105.977043,689.485948
1119.737856,6809.894666,-7105.977043,689.485948
1119.738186,7105.977043,-6809.894666,1149.143247
1119.738515,6809.894666,-6587.832884,766.095498
1119.738844,7031.956449,-6587.832884,1149.143247
1119.739174,7105.977043,-6439.791695,1532.190996
1119.739503,7994.224174,-6069.688724,1455.581446
1119.739833,7772.162391,-5033.400406,842.705048
1119.740162,7105.977043,-5255.462188,383.047749
1119.740491,7105.977043,-5625.565159,689.485948
1119.740821,7254.018232,-5847.626942,612.876398
1119.741150,7772.162391,-5477.523971,1149.143247
1119.741480,7476.080014,-6143.709319,536.266849
1119.741809,7402.059420,-7105.977043,612.876398
1119.742139,7402.059420,-7550.100608,1149.143247
1119.742468,6735.874072,-7550.100608,919.314598
1119.742797,5921.647536,-7550.100608,689.485948
1119.743127,6217.729913,-7328.038826,689.485948
1119.743456,6661.853478,-7550.100608,1225.752797
1119.743786,7179.997637,-7328.038826,1838.629195
1119.744115,7402.059420,-6587.832884,2068.457845
1119.744444,7254.018232,-5551.544565,1455.581446
1119.744774,7031.956449,-6069.688724,1685.410096
1119.745103,7105.977043,-6143.709319,1149.143247
1119.745433,6957.935855,-6513.812290,842.705048
1119.745762,6439.791695,-6069.688724,306.438199
1119.746091,6217.729913,-6143.709319,536.266849
1119.746421,6513.812290,-6883.915261,612.876398
1119.746750,6735.874072,-7402.059420,689.485948
1119.747080,6809.894666,-7105.977043,689.485948
1119.747409,6809.894666,-7105.977043,689.485948
1119.747738,6439.791695,-7179.997637,1149.143247
1119.748068,6513.812290,-7476.080014,1072.533697
1119.748397,6661.853478,-6957.935855,995.924147
1119.748727,6513.812290,-6587.832884,919.314598
1119.749056,6587.832884,-6661.853478,919.314598
1119.749385,6587.832884,-6587.832884,1149.143247
1119.749715,7105.977043,-6291.750507,1149.143247
1119.750044,7476.080014,-5995.668130,1302.362347
1119.750374,7476.080014,-5625.565159,1455.581446
1119.750703,7402.059420,-6217.729913,1532.190996
1119.751032,7328.038826,-6513.812290,1455.581446
1119.751362,7476.080014,-5847.626942,919.314598
1119.751691,7402.059420,-6365.771101,1302.362347
1119.752021,7624.121203,-6587.832884,1532.190996
1119.752350,7476.080014,-7031.956449,1532.190996
1119.752679,7179.997637,-6661.853478,1225.752797
1119.753009,6587.832884,-6365.771101,919.314598
1119.753338,6809.894666,-5921.647536,995.924147
1119.753668,5995.668130,-6957.935855,1225.752797
1119.753997,6587.832884,-6587.832884,919.314598
1119.754326,6587.832884,-6217.729913,76.609550
1119.754656,6513.812290,-6365.771101,766.095498
1119.754985,7254.018232,-5773.606348,689.485948
1119.755315,7550.100608,-6365.771101,919.314598
1119.755644,7994.224174,-6439.791695,689.485948
1119.755973,7402.059420,-6439.791695,536.266849
1119.756303,7698.141797,-5699.585753,153.219100
1119.756632,7254.018232,-5921.647536,459.657299
1119.756962,7402.059420,-7105.977043,842.705048
1119.757291,7254.018232,-6291.750507,995.924147
1119.757621,7031.956449,-6217.729913,459.657299
1119.757950,6809.894666,-6661.853478,689.485948
1119.758279,6439.791695,-6809.894666,995.924147
1119.758609,6735.874072,-7179.997637,1072.533697
1119.758938,6735.874072,-6957.935855,1149.143247
1119.759267,7105.977043,-6439.791695,1991.848295
1119.759597,7031.956449,-6513.812290,1149.143247
1119.759926,7328.038826,-6513.812290,1455.581446
1119.760255,7328.038826,-6291.750507,1302.362347
1119.760585,7254.018232,-5995.668130,1302.362347
1119.760914,7105.977043,-5995.668130,1685.410096
1119.761243,7328.038826,-6513.812290,1225.752797
1119.761573,7105.977043,-6587.832884,1302.362347
1119.761902,6957.935855,-6883.915261,1378.971896
1119.762231,6735.874072,-7105.977043,1455.581446
1119.762561,6809.894666,-6883.915261,919.314598
1119.762890,6365.771101,-6513.812290,1149.143247
1119.763219,6143.709319,-6513.812290,766.095498
1119.763549,6143.709319,-7105.977043,995.924147
1119.763878,6587.832884,-6735.874072,995.924147
1119.764207,6735.874072,-6957.935855,842.705048
1119.764537,6587.832884,-6661.853478,689.485948
1119.764866,6291.750507,-6809.894666,536.266849
1119.765195,6439.791695,-7179.997637,536.266849
1119.765525,6735.874072,-6365.771101,612.876398
1119.765854,6735.874072,-6883.915261,612.876398
1119.766183,7105.977043,-6661.853478,766.095498
1119.766512,7105.977043,-7179.997637,919.314598
1119.766842,7254.018232,-7105.977043,919.314598
1119.767171,7105.977043,-6735.874072,1685.410096
1119.767500,6809.894666,-6513.812290,1225.752797
1119.767830,6957.935855,-6217.729913,1302.362347
1119.768159,7550.100608,-6661.853478,1608.800546
1119.768488,8142.265362,-6291.750507,1532.190996
1119.768818,7476.080014,-5847.626942,1685.410096
1119.769147,7105.977043,-5847.626942,1302.362347
1119.769476,6957.935855,-6217.729913,1378.971896
1119.769806,6735.874072,-6291.750507,1225.752797
1119.770135,6883.915261,-6735.874072,842.705048
1119.770464,6735.874072,-6365.771101,612.876398
1119.770794,6883.915261,-6439.791695,689.485948
1119.771123,6809.894666,-6957.935855,919.314598
1119.771452,6735.874072,-6513.812290,1225.752797
1119.771782,7105.977043,-6661.853478,842.705048
1119.772111,6661.853478,-7031.956449,995.924147
1119.772440,6883.915261,-6661.853478,842.705048
1119.772770,7105.977043,-6587.832884,842.705048
1119.773099,7179.997637,-5551.544565,383.047749
1119.773428,7328.038826,-5847.626942,689.485948
1119.773758,7254.018232,-6143.709319,766.095498
1119.774087,7031.956449,-5773.606348,919.314598
1119.774416,7476.080014,-5477.523971,995.924147
1119.774745,7550.100608,-5477.523971,689.485948
1119.775075,7179.997637,-6365.771101,459.657299
1119.775404,7254.018232,-7328.038826,1149.143247
1119.775733,6957.935855,-7031.956449,1149.143247
1119.776063,6735.874072,-6587.832884,689.485948
1119.776392,6957.935855,-7105.977043,766.095498
1119.776721,6957.935855,-7328.038826,919.314598
1119.777051,7105.977043,-7624.121203,1838.629195
1119.777380,7105.977043,-6735.874072,1685.410096
1119.777709,6957.935855,-5995.668130,1532.190996
1119.778039,6883.915261,-6143.709319,1532.190996
1119.778368,7031.956449,-6661.853478,1532.190996
1119.778697,6809.894666,-6587.832884,1455.581446
1119.779027,6883.915261,-6661.853478,536.266849
1119.779356,6365.771101,-6365.771101,766.095498
1119.779685,6513.812290,-6291.750507,459.657299
1119.780015,6439.791695,-7105.977043,766.095498
1119.780344,6735.874072,-7254.018232,995.924147
1119.780673,6809.894666,-7402.059420,536.266849
1119.781003,6365.771101,-7328.038826,1225.752797
1119.781332,6735.874072,-7179.997637,919.314598
1119.781661,6883.915261,-7328.038826,919.314598
1119.781991,6735.874072,-6661.853478,2068.457845
1119.782320,6069.688724,-6365.771101,612.876398
1119.782649,6217.729913,-6661.853478,919.314598
1119.782978,6883.915261,-6291.750507,1378.971896
1119.783308,7476.080014,-6069.688724,1378.971896
1119.783637,7402.059420,-5847.626942,1991.848295
1119.783966,7254.018232,-5699.585753,1685.410096
1119.784296,7105.977043,-5921.647536,1532.190996
1119.784625,7328.038826,-6217.729913,1378.971896
1119.784954,7328.038826,-6365.771101,766.095498
1119.785284,7328.038826,-6809.894666,1225.752797
1119.785613,6957.935855,-6883.915261,1532.190996
1119.785942,6735.874072,-7402.059420,995.924147
1119.786272,6735.874072,-7476.080014,1149.143247
1119.786601,6143.709319,-6957.935855,1532.190996
1119.786930,6513.812290,-7105.977043,919.314598
1119.787260,6439.791695,-6587.832884,1302.362347
1119.787589,6735.874072,-6513.812290,689.485948
1119.787918,6513.812290,-6217.729913,995.924147
1119.788248,7105.977043,-5255.462188,766.095498
1119.788577,7328.038826,-6069.688724,919.314598
1119.788906,7624.121203,-6143.709319,1378.971896
1119.789236,7550.100608,-6661.853478,1378.971896
1119.789565,7476.080014,-5921.647536,1149.143247
1119.789894,7698.141797,-5477.523971,689.485948
1119.790224,8068.244768,-6291.750507,1072.533697
1119.790553,7476.080014,-6365.771101,995.924147
1119.790882,7328.038826,-6809.894666,1225.752797
1119.791211,6883.915261,-6217.729913,459.657299
1119.791541,6809.894666,-6735.874072,612.876398
1119.791870,6809.894666,-7254.018232,842.705048
1119.792199,6809.894666,-7105.977043,1225.752797
1119.792529,6587.832884,-6513.812290,1608.800546
1119.792858,6809.894666,-6513.812290,766.095498
1119.793187,7031.956449,-6365.771101,1072.533697
1119.793517,7698.141797,-6217.729913,1532.190996
1119.793846,7698.141797,-6217.729913,1608.800546
1119.794175,7179.997637,-6143.709319,1378.971896
1119.794505,7105.977043,-6217.729913,1225.752797
1119.794834,7031.956449,-6661.853478,1225.752797
1119.795163,6957.935855,-6883.915261,1378.971896
1119.795493,6883.915261,-7105.977043,1455.581446
1119.795822,6809.894666,-6513.812290,842.705048
1119.796151,6439.791695,-6587.832884,995.924147
1119.796481,5847.626942,-6883.915261,689.485948
1119.796810,5921.647536,-6883.915261,766.095498
1119.797139,6069.688724,-6661.853478,1455.581446
1119.797469,6587.832884,-6587.832884,689.485948
1119.797798,6513.812290,-6735.874072,383.047749
1119.798127,6513.812290,-7105.977043,612.876398
1119.798457,6513.812290,-6957.935855,612.876398
1119.798786,6883.915261,-6143.709319,842.705048
1119.799115,6883.915261,-6587.832884,689.485948
1119.799444,7179.997637,-6587.832884,1072.533697
1119.799774,7328.038826,-7031.956449,1302.362347
1119.800103,7031.956449,-6513.812290,1302.362347
1119.800432,6513.812290,-6439.791695,1302.362347
1119.800762,6513.812290,-6809.894666,1072.533697
1119.801091,6661.853478,-6809.894666,689.485948
1119.801420,6957.935855,-7105.977043,1455.581446
1119.801750,7698.141797,-7105.977043,1532.190996
1119.802079,6883.915261,-6217.729913,1149.143247
1119.802408,7105.977043,-6217.729913,1072.533697
1119.802738,7105.977043,-6513.812290,1302.362347
1119.803067,7624.121203,-7105.977043,995.924147
1119.803396,6661.853478,-6661.853478,766.095498
1119.803726,6661.853478,-6217.729913,689.485948
1119.804055,6957.935855,-6365.771101,689.485948
1119.804384,7402.059420,-6439.791695,919.314598
1119.804714,7105.977043,-6439.791695,1608.800546
1119.805043,7328.038826,-6439.791695,842.705048
1119.805372,7105.977043,-6513.812290,919.314598
1119.805702,6809.894666,-6439.791695,1072.533697
1119.806031,7105.977043,-6439.791695,1072.533697
1119.806360,7550.100608,-5699.585753,842.705048
1119.806690,7328.038826,-5551.544565,995.924147
1119.807019,7254.018232,-5995.668130,1378.971896
1119.807348,7328.038826,-5625.565159,1072.533697
1119.807677,7920.203579,-5625.565159,689.485948
1119.808007,7698.141797,-5403.503377,536.266849
1119.808336,7476.080014,-6291.750507,766.095498
1119.808665,7328.038826,-7105.977043,1149.143247
1119.808995,7105.977043,-6587.832884,766.095498
1119.809324,6661.853478,-6883.915261,995.924147
1119.809653,6661.853478,-7179.997637,1149.143247
1119.809983,7105.977043,-7179.997637,1225.752797
1119.810312,7328.038826,-7476.080014,1762.019645
1119.810641,7328.038826,-6957.935855,1915.238745
1119.810971,7105.977043,-6883.915261,1302.362347
1119.811300,6809.894666,-6439.791695,1225.752797
1119.811629,6883.915261,-6957.935855,1378.971896
1119.811959,6809.894666,-6513.812290,1455.581446
1119.812288,6735.874072,-6143.709319,612.876398
1119.812617,6513.812290,-6217.729913,536.266849
1119.812947,6661.853478,-6143.709319,536.266849
1119.813276,6735.874072,-6957.935855,766.095498
1119.813605,6735.874072,-7105.977043,1149.143247
1119.813935,6365.771101,-6883.915261,-76.609550
1119.814264,6291.750507,-7402.059420,766.095498
1119.814593,6883.915261,-7254.018232,919.314598
1119.814923,6735.874072,-7179.997637,842.705048
1119.815252,6809.894666,-6587.832884,1149.143247
1119.815581,6439.791695,-6439.791695,536.266849
1119.815910,6513.812290,-7031.956449,919.314598
1119.816240,7031.956449,-7105.977043,1302.362347
1119.816569,7179.997637,-6513.812290,1072.533697
1119.816898,6661.853478,-5995.668130,1455.581446
1119.817228,6735.874072,-6217.729913,1532.190996
1119.817557,6957.935855,-6809.894666,1378.971896
1119.817886,7105.977043,-6291.750507,1149.143247
1119.818216,7328.038826,-6069.688724,766.095498
1119.818545,7550.100608,-5995.668130,1149.143247
1119.818874,7179.997637,-6735.874072,1225.752797
1119.819204,6883.915261,-7105.977043,1302.362347
1119.819533,6735.874072,-7179.997637,1302.362347
1119.819862,6883.915261,-7031.956449,1225.752797
1119.820192,6809.894666,-7179.997637,1225.752797
1119.820521,6513.812290,-7254.018232,1455.581446
1119.820850,6883.915261,-6587.832884,1149.143247
1119.821180,6809.894666,-6365.771101,842.705048
1119.821509,7031.956449,-6069.688724,1225.752797
1119.821838,7105.977043,-6069.688724,842.705048
1119.822168,6883.915261,-5995.668130,919.314598
1119.822497,7031.956449,-5773.606348,536.266849
1119.822826,7179.997637,-6217.729913,1302.362347
1119.823156,7698.141797,-5551.544565,1072.533697
1119.823485,7994.224174,-5773.606348,689.485948
1119.823814,7920.203579,-6143.709319,995.924147
1119.824143,7105.977043,-5921.647536,919.314598
1119.824473,7846.182985,-6809.894666,1149.143247
1119.824802,7254.018232,-6513.812290,1225.752797
1119.825131,7105.977043,-7254.018232,689.485948
1119.825461,6661.853478,-7254.018232,1072.533697
1119.825790,6439.791695,-6217.729913,1378.971896
1119.826119,6587.832884,-6513.812290,1149.143247
1119.826449,7031.956449,-6365.771101,1685.410096
1119.826778,7105.977043,-6587.832884,1455.581446
1119.827107,7550.100608,-6143.709319,1685.410096
1119.827437,7105.977043,-5995.668130,1762.019645
1119.827766,6883.915261,-6291.750507,919.314598
1119.828095,7105.977043,-6661.853478,1149.143247
1119.828425,7328.038826,-7031.956449,1685.410096
1119.828754,7402.059420,-6365.771101,1378.971896
1119.829083,6883.915261,-6069.688724,1225.752797
1119.829413,6883.915261,-6809.894666,1225.752797
1119.829742,6809.894666,-6883.915261,919.314598
1119.830071,6735.874072,-7179.997637,689.485948
1119.830401,5625.565159,-6735.874072,153.219100
1119.830730,5773.606348,-6439.791695,0.000000
1119.831059,6143.709319,-7328.038826,612.876398
1119.831389,6217.729913,-7402.059420,689.485948
1119.831718,6513.812290,-7402.059420,689.485948
1119.832047,6587.832884,-5847.626942,919.314598
1119.832376,6809.894666,-6587.832884,153.219100
1119.832706,7031.956449,-7105.977043,842.705048
1119.833035,7550.100608,-6883.915261,1532.190996
1119.833364,7698.141797,-6735.874072,1302.362347
1119.833694,6883.915261,-5921.647536,1072.533697
1119.834023,7031.956449,-6513.812290,1225.752797
1119.834352,7179.997637,-7031.956449,1149.143247
1119.834682,7328.038826,-6809.894666,1838.629195
1119.835011,7772.162391,-6809.894666,995.924147
1119.835340,6883.915261,-5995.668130,995.924147
1119.835670,6809.894666,-5921.647536,1149.143247
1119.835999,7179.997637,-6809.894666,1532.190996
1119.836328,7031.956449,-6957.935855,1608.800546
1119.836658,6439.791695,-6143.709319,1072.533697
1119.836987,5995.668130,-6365.771101,76.609550
1119.837316,6365.771101,-6587.832884,842.705048
1119.837646,7105.977043,-6735.874072,1378.971896
1119.837975,7624.121203,-6513.812290,1072.533697
1119.838304,7402.059420,-6069.688724,1455.581446
1119.838634,7254.018232,-6069.688724,1149.143247
1119.838963,7105.977043,-6439.791695,1302.362347
1119.839292,7105.977043,-6513.812290,1149.143247
1119.839622,7254.018232,-5699.585753,1072.533697
1119.839951,7179.997637,-5477.523971,766.095498
1119.840280,7254.018232,-5699.585753,1072.533697
1119.840609,7402.059420,-6291.750507,1072.533697
1119.840939,7772.162391,-5921.647536,1149.143247
1119.841268,7105.977043,-5995.668130,766.095498
1119.841597,7031.956449,-6291.750507,919.314598
1119.841927,7031.956449,-7328.038826,1302.362347
1119.842256,6957.935855,-7550.100608,1072.533697
1119.842585,6735.874072,-6957.935855,842.705048
1119.842915,6513.812290,-6809.894666,919.314598
1119.843244,6587.832884,-7031.956449,995.924147
1119.843573,7105.977043,-6809.894666,1455.581446
1119.843903,7328.038826,-7328.038826,1302.362347
1119.844232,7105.977043,-6661.853478,1072.533697
1119.844561,7105.977043,-6365.771101,1302.362347
1119.844891,7105.977043,-6439.791695,1762.019645
1119.845220,7105.977043,-6587.832884,1302.362347
1119.845549,6291.750507,-5477.523971,1991.848295
1119.845879,6587.832884,-6365.771101,995.924147
1119.846208,6143.709319,-6143.709319,919.314598
1119.846537,6513.812290,-7105.977043,842.705048
1119.846867,6513.812290,-7179.997637,919.314598
1119.847196,7105.977043,-6439.791695,153.219100
1119.847525,6587.832884,-6957.935855,612.876398
1119.847855,6513.812290,-7476.080014,1149.143247
1119.848184,6957.935855,-7179.997637,919.314598
1119.848513,6069.688724,-6217.729913,383.047749
1119.848842,5921.647536,-6217.729913,229.828649
1119.849172,6513.812290,-6809.894666,306.438199
1119.849501,6957.935855,-7402.059420,1455.581446
1119.849830,7402.059420,-6587.832884,1149.143247
1119.850160,7624.121203,-6291.750507,1685.410096
1119.850489,7550.100608,-5625.565159,1302.362347
1119.850818,7254.018232,-6365.771101,1455.581446
1119.851148,7105.977043,-6365.771101,1455.581446
1119.851477,7624.121203,-5921.647536,1302.362347
1119.851806,7624.121203,-5551.544565,1838.629195
1119.852136,7105.977043,-6217.729913,1455.581446
1119.852465,6735.874072,-7031.956449,995.924147
1119.852794,7031.956449,-7105.977043,1378.971896
1119.853124,7105.977043,-7179.997637,1072.533697
1119.853453,6365.771101,-7476.080014,1225.752797
1119.853782,6069.688724,-7476.080014,1149.143247
1119.854112,6217.729913,-6957.935855,306.438199
1119.854441,6513.812290,-6883.915261,612.876398
1119.854770,6143.709319,-6069.688724,1072.533697
1119.855100,6957.935855,-5921.647536,459.657299
1119.855429,7624.121203,-5625.565159,995.924147
1119.855758,7550.100608,-5995.668130,995.924147
1119.856088,7476.080014,-5403.503377,1685.410096
1119.856417,7994.224174,-5403.503377,842.705048
1119.856746,7772.162391,-5403.503377,995.924147
1119.857075,7105.977043,-6069.688724,995.924147
1119.857405,7328.038826,-5847.626942,1378.971896
1119.857734,7254.018232,-5699.585753,842.705048
1119.858063,6883.915261,-6439.791695,1072.533697
1119.858393,6809.894666,-7328.038826,842.705048
1119.858722,6883.915261,-7328.038826,1149.143247
1119.859051,6735.874072,-7105.977043,766.095498
1119.859381,6661.853478,-6957.935855,1149.143247
1119.859710,6217.729913,-7105.977043,919.314598
1119.860039,6883.915261,-7105.977043,919.314598
1119.860369,7179.997637,-6513.812290,1149.143247
1119.860698,7031.956449,-5995.668130,995.924147
1119.861027,7328.038826,-6513.812290,1225.752797
1119.861358,7179.997637,-6365.771101,1378.971896
1119.861687,6809.894666,-6439.791695,1378.971896
1119.862016,6883.915261,-6365.771101,1072.533697
1119.862345,7254.018232,-6883.915261,1378.971896
1119.862675,7105.977043,-6809.894666,919.314598
1119.863004,6957.935855,-6587.832884,919.314598
1119.863333,6143.709319,-6439.791695,459.657299
1119.863662,6143.709319,-7254.018232,689.485948
1119.863991,5847.626942,-6883.915261,306.438199
1119.864320,6587.832884,-6809.894666,459.657299
1119.864649,6513.812290,-6809.894666,689.485948
1119.864978,6513.812290,-7105.977043,459.657299
1119.865307,6587.832884,-7254.018232,306.438199
1119.865637,6587.832884,-6735.874072,612.876398
1119.865966,6809.894666,-7031.956449,766.095498
1119.866295,6809.894666,-6809.894666,919.314598
1119.866624,7179.997637,-7254.018232,1149.143247
1119.866953,7920.203579,-7031.956449,919.314598
1119.867282,7105.977043,-6217.729913,1225.752797
1119.867611,7105.977043,-6439.791695,1225.752797
1119.867940,7031.956449,-6587.832884,1455.581446
1119.868269,7179.997637,-6069.688724,1608.800546
1119.868599,7402.059420,-5921.647536,1225.752797
1119.868928,7402.059420,-5921.647536,1455.581446
1119.869257,7179.997637,-6513.812290,1838.629195
1119.869586,7254.018232,-6439.791695,1225.752797
1119.869915,7031.956449,-5773.606348,1302.362347
1119.870244,6513.812290,-6217.729913,919.314598
1119.870573,6735.874072,-6513.812290,919.314598
1119.870902,6957.935855,-6809.894666,995.924147
1119.871231,6957.935855,-6883.915261,842.705048
1119.871561,7105.977043,-6143.709319,612.876398
1119.871890,7105.977043,-6661.853478,536.266849
1119.872219,7105.977043,-7105.977043,766.095498
1119.872548,6883.915261,-6809.894666,919.314598
1119.872877,7031.956449,-6513.812290,1762.019645
1119.873206,7105.977043,-5921.647536,1072.533697
1119.873535,7031.956449,-5847.626942,0.000000
1119.873864,7105.977043,-6143.709319,919.314598
1119.874193,7328.038826,-5847.626942,689.485948
1119.874523,7550.100608,-5995.668130,1302.362347
1119.874852,7772.162391,-5773.606348,1225.752797
1119.875181,7328.038826,-6439.791695,919.314598
1119.875510,6735.874072,-6957.935855,919.314598
1119.875839,6513.812290,-7254.018232,1532.190996
1119.876168,7105.977043,-6883.915261,1149.143247
1119.876497,6809.894666,-7179.997637,1072.533697
1119.876826,6809.894666,-7402.059420,1072.533697
1119.877155,6957.935855,-7328.038826,1225.752797
1119.877485,7402.059420,-6661.853478,1532.190996
1119.877814,6883.915261,-6587.832884,1302.362347
1119.878143,6957.935855,-6661.853478,1149.143247
1119.878472,6809.894666,-6883.915261,1455.581446
1119.878801,7031.956449,-6439.791695,842.705048
1119.879130,6513.812290,-5477.523971,1149.143247
1119.879459,6809.894666,-6365.771101,766.095498
1119.879788,7105.977043,-6291.750507,612.876398
1119.880118,6809.894666,-6883.915261,995.924147
1119.880447,6883.915261,-6291.750507,306.438199
1119.880776,6439.791695,-7031.956449,612.876398
1119.881105,6439.791695,-7328.038826,995.924147
1119.881434,6661.853478,-7476.080014,689.485948
1119.881763,6439.791695,-7179.997637,536.266849
1119.882092,6217.729913,-6883.915261,536.266849
1119.882421,6217.729913,-6957.935855,0.000000
1119.882750,6365.771101,-7105.977043,306.438199
1119.883080,7476.080014,-7031.956449,1302.362347
1119.883409,7624.121203,-6587.832884,995.924147
1119.883738,7476.080014,-5773.606348,1072.533697
1119.884067,7179.997637,-5773.606348,1225.752797
1119.884396,7179.997637,-6143.709319,1378.971896
1119.884725,7772.162391,-5847.626942,1532.190996
1119.885054,7698.141797,-6069.688724,2068.457845
1119.885383,7624.121203,-5625.565159,2068.457845
1119.885712,7550.100608,-6291.750507,1762.019645
1119.886042,7179.997637,-6809.894666,1685.410096
1119.886371,6735.874072,-6883.915261,1608.800546
1119.886700,7179.997637,-6661.853478,766.095498
1119.887029,6809.894666,-6439.791695,1455.581446
1119.887358,6513.812290,-6439.791695,919.314598
1119.887687,6439.791695,-6809.894666,612.876398
1119.888016,6069.688724,-6365.771101,306.438199
1119.888345,6365.771101,-6439.791695,612.876398
1119.888674,6735.874072,-6957.935855,766.095498
1119.889004,7105.977043,-6735.874072,766.095498
1119.889333,7402.059420,-6587.832884,1072.533697
1119.889662,7624.121203,-6069.688724,766.095498
1119.889991,7550.100608,-5699.585753,1149.143247
1119.890320,7920.203579,-5995.668130,1072.533697
1119.890649,7920.203579,-5921.647536,1149.143247
1119.890978,7698.141797,-5403.503377,919.314598
1119.891307,7105.977043,-5921.647536,842.705048
1119.891636,7105.977043,-6365.771101,766.095498
1119.891966,6809.894666,-7105.977043,1225.752797
1119.892295,6883.915261,-7105.977043,1302.362347
1119.892624,7031.956449,-6365.771101,995.924147
1119.892953,6217.729913,-7031.956449,842.705048
1119.893282,6291.750507,-7328.038826,842.705048
1119.893611,6587.832884,-7476.080014,1072.533697
1119.893940,7179.997637,-7105.977043,1378.971896
1119.894269,7105.977043,-6069.688724,1532.190996
1119.894598,7105.977043,-6365.771101,1302.362347
1119.894928,6957.935855,-6587.832884,1608.800546
1119.895257,7550.100608,-6809.894666,1532.190996
1119.895586,7624.121203,-6365.771101,1915.238745
1119.895915,7105.977043,-6217.729913,1532.190996
1119.896244,6513.812290,-6291.750507,766.095498
1119.896573,6661.853478,-6809.894666,1072.533697
1119.896902,6069.688724,-7328.038826,536.266849
1119.897231,6217.729913,-6883.915261,306.438199
1119.897561,6217.729913,-7031.956449,153.219100
1119.897890,5847.626942,-7254.018232,459.657299
1119.898219,6069.688724,-7254.018232,459.657299
1119.898548,6735.874072,-7105.977043,1378.971896
1119.898877,6883.915261,-7105.977043,995.924147
1119.899206,6809.894666,-6883.915261,689.485948
1119.899535,7105.977043,-6587.832884,1072.533697
1119.899864,7105.977043,-6439.791695,689.485948
1119.900193,7031.956449,-6661.853478,1915.238745
1119.900523,7328.038826,-6587.832884,1378.971896
1119.900852,7402.059420,-6661.853478,1378.971896
1119.901181,7105.977043,-6365.771101,1225.752797
1119.901510,7402.059420,-6587.832884,1072.533697
1119.901839,7476.080014,-6143.709319,1532.190996
1119.902168,7254.018232,-6291.750507,1455.581446
1119.902497,6883.915261,-6365.771101,1302.362347
1119.902826,6883.915261,-6513.812290,1072.533697
1119.903155,6513.812290,-5995.668130,919.314598
1119.903485,6809.894666,-6291.750507,919.314598
1119.903814,6883.915261,-6217.729913,1072.533697
1119.904143,6957.935855,-5847.626942,919.314598
1119.904472,7254.018232,-6439.791695,995.924147
1119.904801,7550.100608,-6291.750507,1072.533697
1119.905130,7105.977043,-6735.874072,459.657299
1119.905459,7031.956449,-6883.915261,1225.752797
1119.905788,6735.874072,-6587.832884,842.705048
1119.906117,7624.121203,-6069.688724,1378.971896
1119.906447,7624.121203,-5921.647536,1149.143247
1119.906776,7920.203579,-5921.647536,1149.143247
1119.907105,7402.059420,-5921.647536,689.485948
1119.907434,6809.894666,-6217.729913,689.485948
1119.907763,7105.977043,-5995.668130,459.657299
1119.908092,7105.977043,-6365.771101,842.705048
1119.908421,6957.935855,-6661.853478,919.314598
1119.908750,6365.771101,-6661.853478,766.095498
1119.909079,6365.771101,-6883.915261,842.705048
1119.909409,7105.977043,-7179.997637,1149.143247
1119.909738,7402.059420,-6883.915261,919.314598
1119.910067,7105.977043,-7031.956449,1455.581446
1119.910396,7254.018232,-6883.915261,1378.971896
1119.910725,6661.853478,-6587.832884,1915.238745
1119.911054,7105.977043,-6587.832884,1915.238745
1119.911383,7254.018232,-6587.832884,1608.800546
1119.911712,6957.935855,-6365.771101,1378.971896
1119.912041,6513.812290,-6291.750507,766.095498
1119.912371,6143.709319,-5995.668130,919.314598
1119.912700,6661.853478,-6735.874072,995.924147
1119.913029,6661.853478,-6957.935855,842.705048
1119.913358,6291.750507,-7031.956449,229.828649
1119.913687,6291.750507,-7105.977043,536.266849
1119.914016,6439.791695,-7105.977043,153.219100
1119.914345,6735.874072,-7254.018232,689.485948
1119.914674,7105.977043,-7476.080014,1149.143247
1119.915004,7328.038826,-6809.894666,1149.143247
1119.915333,7179.997637,-6587.832884,842.705048
1119.915662,6661.853478,-6735.874072,689.485948
1119.915991,6439.791695,-6809.894666,766.095498
1119.916320,7105.977043,-6883.915261,995.924147
1119.916649,6587.832884,-6291.750507,1302.362347
1119.916978,7105.977043,-6513.812290,1455.581446
1119.917307,7105.977043,-6291.750507,1225.752797
1119.917636,7105.977043,-6809.894666,1149.143247
1119.917966,6883.915261,-6587.832884,995.924147
1119.918295,7624.121203,-6143.709319,842.705048
1119.918624,7254.018232,-6365.771101,1072.533697
1119.918953,7328.038826,-6291.750507,1455.581446
1119.919282,7328.038826,-6735.874072,1302.362347
1119.919611,7105.977043,-6809.894666,1838.629195
1119.919940,7476.080014,-6291.750507,1532.190996
1119.920269,7105.977043,-6365.771101,1225.752797
1119.920598,6809.894666,-6069.688724,1378.971896
1119.920928,6587.832884,-6513.812290,766.095498
1119.921257,6809.894666,-6735.874072,919.314598
1119.921586,6809.894666,-6069.688724,689.485948
1119.921915,6587.832884,-6661.853478,536.266849
1119.922244,7105.977043,-6217.729913,842.705048
1119.922573,7105.977043,-6291.750507,612.876398
1119.922902,7105.977043,-5995.668130,612.876398
1119.923231,7179.997637,-5847.626942,689.485948
1119.923560,7254.018232,-5921.647536,842.705048
1119.923890,7179.997637,-5921.647536,995.924147
1119.924219,7328.038826,-6143.709319,766.095498
1119.924548,7105.977043,-5847.626942,689.485948
1119.924877,7105.977043,-6809.894666,1225.752797
1119.925206,7402.059420,-6957.935855,1225.752797
1119.925535,6957.935855,-7031.956449,919.314598
1119.925864,6883.915261,-6809.894666,919.314598
1119.926193,6661.853478,-6957.935855,842.705048
1119.926522,6883.915261,-6957.935855,1302.362347
1119.926852,7031.956449,-6735.874072,1378.971896
1119.927181,7328.038826,-6291.750507,2068.457845
1119.927510,7105.977043,-6291.750507,1455.581446
1119.927839,7179.997637,-6587.832884,1762.019645
1119.928168,7105.977043,-6439.791695,1532.190996
1119.928497,6735.874072,-6587.832884,1149.143247
1119.928826,6735.874072,-5995.668130,842.705048
1119.929155,6587.832884,-6365.771101,612.876398
1119.929484,6957.935855,-6513.812290,1149.143247
1119.929814,6661.853478,-6809.894666,766.095498
1119.930143,6291.750507,-7254.018232,536.266849
1119.930472,6217.729913,-7031.956449,612.876398
1119.930801,6661.853478,-7105.977043,612.876398
1119.931130,6439.791695,-7328.038826,842.705048
1119.931459,6661.853478,-7179.997637,689.485948
1119.931788,6883.915261,-6809.894666,1072.533697
1119.932117,6735.874072,-6365.771101,229.828649
1119.932447,6661.853478,-6735.874072,536.266849
1119.932776,7105.977043,-6735.874072,919.314598
1119.933105,7105.977043,-6661.853478,842.705048
1119.933434,7105.977043,-5625.565159,306.438199
1119.933763,6883.915261,-5995.668130,842.705048
1119.934092,7105.977043,-6365.771101,1455.581446
1119.934421,7550.100608,-6439.791695,1302.362347
1119.934750,7105.977043,-5995.668130,1532.190996
1119.935079,7031.956449,-6587.832884,1149.143247
1119.935409,6957.935855,-6587.832884,995.924147
1119.935738,7105.977043,-6439.791695,1532.190996
1119.936067,7179.997637,-6883.915261,1455.581446
1119.936396,7179.997637,-6143.709319,1378.971896
1119.936725,6439.791695,-6143.709319,919.314598
1119.937054,5921.647536,-6513.812290,766.095498
1119.937383,6513.812290,-6661.853478,919.314598
1119.937712,6735.874072,-6735.874072,1072.533697
1119.938041,6587.832884,-6143.709319,1149.143247
1119.938371,6883.915261,-6291.750507,842.705048
1119.938700,6957.935855,-6291.750507,1149.143247
1119.939029,7254.018232,-6809.894666,1378.971896
1119.939358,7402.059420,-6143.709319,1608.800546
1119.939687,7698.141797,-5921.647536,995.924147
1119.940016,7476.080014,-5773.606348,766.095498
1119.940345,7328.038826,-6291.750507,689.485948
1119.940674,7402.059420,-6217.729913,919.314598
1119.941003,7402.059420,-5477.523971,459.657299
1119.941333,7402.059420,-6217.729913,842.705048
1119.941662,7328.038826,-6735.874072,766.095498
1119.941991,6809.894666,-7105.977043,612.876398
1119.942320,5995.668130,-6809.894666,459.657299
1119.942649,6439.791695,-7105.977043,459.657299
1119.942978,6661.853478,-7105.977043,919.314598
1119.943307,6883.915261,-6957.935855,919.314598
1119.943636,7105.977043,-6735.874072,1378.971896
1119.943965,7402.059420,-7105.977043,1838.629195
1119.944295,7550.100608,-7031.956449,1532.190996
1119.944624,7402.059420,-6513.812290,1455.581446
1119.944953,7179.997637,-6217.729913,1302.362347
1119.945282,6883.915261,-6735.874072,1302.362347
1119.945611,6809.894666,-6291.750507,1072.533697
1119.945940,6513.812290,-6513.812290,842.705048
1119.946269,6365.771101,-6439.791695,612.876398
1119.946598,6735.874072,-6735.874072,766.095498
1119.946927,5995.668130,-6883.915261,1072.533697
1119.947257,5995.668130,-6661.853478,536.266849
1119.947586,6217.729913,-7105.977043,689.485948
1119.947915,6809.894666,-7105.977043,919.314598
1119.948244,6883.915261,-6735.874072,919.314598
1119.948573,7105.977043,-6069.688724,689.485948
1119.948902,6809.894666,-6587.832884,689.485948
1119.949231,6957.935855,-6957.935855,1149.143247
1119.949560,7105.977043,-6735.874072,1455.581446
1119.949890,7328.038826,-5699.585753,1838.629195
1119.950219,7328.038826,-6143.709319,1225.752797
1119.950548,7179.997637,-5847.626942,1455.581446
1119.950877,7179.997637,-6291.750507,1302.362347
1119.951206,7105.977043,-6217.729913,1225.752797
1119.951535,7031.956449,-6069.688724,766.095498
1119.951864,6957.935855,-6513.812290,612.876398
1119.952193,7402.059420,-7105.977043,1302.362347
1119.952522,7179.997637,-7105.977043,1149.143247
1119.952852,6809.894666,-7402.059420,1302.362347
1119.953181,7031.956449,-7328.038826,1378.971896
1119.953510,6365.771101,-6809.894666,842.705048
1119.953839,6513.812290,-7031.956449,1072.533697
1119.954168,6513.812290,-7105.977043,1149.143247
1119.954497,7031.956449,-6143.709319,1455.581446
1119.954826,6957.935855,-6143.709319,612.876398
1119.955155,7179.997637,-5625.565159,612.876398
1119.955484,7254.018232,-6365.771101,995.924147
1119.955814,7105.977043,-6365.771101,842.705048
1119.956143,7105.977043,-5921.647536,1455.581446
1119.956472,7328.038826,-5625.565159,919.314598
1119.956801,7550.100608,-6069.688724,919.314598
1119.957130,7476.080014,-6291.750507,689.485948
1119.957459,7254.018232,-6661.853478,536.266849
1119.957788,7179.997637,-6439.791695,842.705048
1119.958117,7254.018232,-6587.832884,1149.143247
1119.958446,7105.977043,-7254.018232,1455.581446
1119.958776,6735.874072,-7254.018232,1302.362347
1119.959105,6661.853478,-6735.874072,1149.143247
1119.959434,6291.750507,-6587.832884,536.266849
1119.959763,6513.812290,-6365.771101,995.924147
1119.960092,7105.977043,-6661.853478,1378.971896
1119.960421,7550.100608,-6069.688724,1455.581446
1119.960750,7550.100608,-5921.647536,1378.971896
1119.961079,7254.018232,-6217.729913,1838.629195
1119.961409,7254.018232,-6439.791695,1685.410096
1119.961738,7031.956449,-6735.874072,1378.971896
1119.962067,6661.853478,-6439.791695,1608.800546
1119.962396,6883.915261,-6587.832884,995.924147
1119.962725,6957.935855,-6735.874072,1225.752797
1119.963054,7031.956449,-7179.997637,1149.143247
1119.963383,6291.750507,-7105.977043,612.876398
1119.963713,6365.771101,-6143.709319,459.657299
1119.964042,6143.709319,-6957.935855,612.876398
1119.964371,6513.812290,-7254.018232,612.876398
1119.964700,6513.812290,-6957.935855,766.095498
1119.965029,6439.791695,-6587.832884,0.000000
1119.965358,6513.812290,-6513.812290,306.438199
1119.965687,6957.935855,-6883.915261,766.095498
1119.966017,7179.997637,-6957.935855,919.314598
1119.966346,7402.059420,-6809.894666,1149.143247
1119.966675,7476.080014,-6587.832884,995.924147
1119.967004,7105.977043,-6439.791695,1608.800546
1119.967333,7031.956449,-6217.729913,1302.362347
1119.967662,7254.018232,-6513.812290,1532.190996
1119.967991,7179.997637,-6513.812290,1532.190996
1119.968320,7476.080014,-6069.688724,995.924147
1119.968650,6883.915261,-6217.729913,1072.533697
1119.968979,7031.956449,-6513.812290,1455.581446
1119.969308,7105.977043,-6513.812290,1302.362347
1119.969637,6809.894666,-6439.791695,1072.533697
1119.969966,6809.894666,-6587.832884,842.705048
1119.970295,6365.771101,-6661.853478,766.095498
1119.970624,6513.812290,-7031.956449,842.705048
1119.970954,6957.935855,-7105.977043,919.314598
1119.971283,7105.977043,-6587.832884,1685.410096
1119.971612,7254.018232,-6809.894666,1149.143247
1119.971941,7254.018232,-6587.832884,842.705048
1119.972270,6957.935855,-6513.812290,1072.533697
1119.972599,6809.894666,-5847.626942,1532.190996
1119.972928,7254.018232,-6217.729913,612.876398
1119.973258,6883.915261,-6513.812290,842.705048
1119.973587,7031.956449,-5773.606348,612.876398
1119.973916,6883.915261,-6069.688724,383.047749
1119.974245,7105.977043,-4885.359217,536.266849
1119.974574,7772.162391,-5847.626942,1149.143247
1119.974903,8364.327145,-6439.791695,1608.800546
1119.975232,7846.182985,-5921.647536,1302.362347
1119.975562,6883.915261,-6439.791695,1072.533697
1119.975891,7179.997637,-6291.750507,1225.752797
1119.976220,7031.956449,-7105.977043,1149.143247
1119.976549,7105.977043,-7550.100608,1455.581446
1119.976878,7105.977043,-6661.853478,1072.533697
1119.977207,7328.038826,-6735.874072,995.924147
1119.977536,6957.935855,-6809.894666,1225.752797
1119.977866,6809.894666,-7698.141797,1302.362347
1119.978195,6809.894666,-7328.038826,1149.143247
1119.978524,6365.771101,-6735.874072,842.705048
1119.978853,6143.709319,-6217.729913,1072.533697
1119.979182,6439.791695,-6217.729913,995.924147
1119.979511,6957.935855,-6957.935855,1225.752797
1119.979840,7105.977043,-6809.894666,1072.533697
1119.980169,6587.832884,-5699.585753,1072.533697
1119.980499,6809.894666,-6439.791695,689.485948
1119.980828,7179.997637,-6143.709319,919.314598
1119.981157,7105.977043,-6883.915261,842.705048
1119.981486,7105.977043,-6587.832884,766.095498
1119.981815,6365.771101,-5847.626942,536.266849
1119.982144,6217.729913,-7031.956449,766.095498
1119.982473,6883.915261,-7031.956449,995.924147
1119.982803,7105.977043,-7402.059420,995.924147
1119.983132,6661.853478,-7698.141797,1149.143247
1119.983461,7179.997637,-7179.997637,689.485948
1119.983790,6957.935855,-6809.894666,1302.362347
1119.984119,6957.935855,-6069.688724,1378.971896
1119.984448,7254.018232,-6143.709319,1149.143247
1119.984777,7254.018232,-5551.544565,1225.752797
1119.985107,7920.203579,-6439.791695,1378.971896
1119.985436,7846.182985,-6217.729913,2298.286494
1119.985765,7328.038826,-6069.688724,1685.410096
1119.986094,6957.935855,-6365.771101,1302.362347
1119.986423,7105.977043,-6587.832884,1838.629195
1119.986752,6957.935855,-7402.059420,1302.362347
1119.987081,6809.894666,-6883.915261,536.266849
1119.987411,6143.709319,-6291.750507,536.266849
1119.987740,6587.832884,-6809.894666,459.657299
1119.988069,6291.750507,-6957.935855,306.438199
1119.988398,6069.688724,-7328.038826,459.657299
1119.988727,6217.729913,-7031.956449,612.876398
1119.989056,6661.853478,-6291.750507,689.485948
1119.989385,7105.977043,-6217.729913,1302.362347
1119.989714,7550.100608,-5625.565159,1149.143247
1119.990044,7624.121203,-5773.606348,1225.752797
1119.990373,7920.203579,-5625.565159,1072.533697
1119.990702,7476.080014,-5181.441594,1762.019645
1119.991031,7920.203579,-5329.482782,842.705048
1119.991360,7624.121203,-5995.668130,689.485948
1119.991689,7254.018232,-7105.977043,1072.533697
1119.992018,6883.915261,-7105.977043,1072.533697
1119.992348,7031.956449,-6735.874072,766.095498
1119.992677,6587.832884,-6735.874072,306.438199
1119.993006,6587.832884,-6587.832884,689.485948
1119.993335,6809.894666,-7105.977043,1302.362347
1119.993664,7254.018232,-6291.750507,1378.971896
1119.993993,6883.915261,-6143.709319,1455.581446
1119.994322,7105.977043,-6365.771101,1532.190996
1119.994652,7105.977043,-5995.668130,995.924147
1119.994981,6957.935855,-6735.874072,1762.019645
1119.995310,7254.018232,-6735.874072,1685.410096
1119.995639,7328.038826,-6365.771101,1685.410096
1119.995968,7698.141797,-6069.688724,766.095498
1119.996297,7179.997637,-6069.688724,689.485948
1119.996626,6365.771101,-7105.977043,689.485948
1119.996956,5995.668130,-7179.997637,536.266849
1119.997285,5921.647536,-7105.977043,229.828649
1119.997614,6069.688724,-7105.977043,536.266849
1119.997943,6439.791695,-7105.977043,689.485948
1119.998272,6513.812290,-7179.997637,689.485948
1119.998601,6439.791695,-6957.935855,1072.533697
1119.998930,6513.812290,-6809.894666,612.876398
1119.999260,6809.894666,-6587.832884,689.485948
1119.999589,7328.038826,-6365.771101,1302.362347
1119.999918,7846.182985,-7031.956449,1532.190996
1120.000247,7254.018232,-6439.791695,1378.971896
1120.000576,7031.956449,-6291.750507,1302.362347
1120.000905,7179.997637,-6291.750507,1532.190996
1120.001234,7772.162391,-6513.812290,1455.581446
1120.001563,7624.121203,-6809.894666,1762.019645
1120.001893,7328.038826,-6143.709319,1149.143247
1120.002222,6809.894666,-6365.771101,766.095498
1120.002551,6957.935855,-6513.812290,919.314598
1120.002880,6883.915261,-7105.977043,1302.362347
1120.003209,6513.812290,-7105.977043,1225.752797
1120.003538,6217.729913,-6661.853478,612.876398
1120.003867,6439.791695,-6809.894666,766.095498
1120.004197,6809.894666,-6735.874072,842.705048
1120.004526,7402.059420,-7031.956449,1149.143247
1120.004855,7105.977043,-5995.668130,1149.143247
1120.005184,7179.997637,-6143.709319,842.705048
1120.005513,7031.956449,-6513.812290,919.314598
1120.005842,7105.977043,-6143.709319,1149.143247
1120.006171,7105.977043,-6217.729913,995.924147
1120.006501,7328.038826,-5403.503377,689.485948
1120.006830,7328.038826,-5699.585753,536.266849
1120.007159,7402.059420,-5921.647536,612.876398
1120.007488,7550.100608,-5921.647536,1225.752797
1120.007817,7254.018232,-5921.647536,766.095498
1120.008146,7105.977043,-6143.709319,689.485948
1120.008475,6587.832884,-7031.956449,995.924147
1120.008805,6883.915261,-7254.018232,919.314598
1120.009134,6883.915261,-7179.997637,1149.143247
1120.009463,6661.853478,-7031.956449,842.705048
1120.009792,6809.894666,-6735.874072,1072.533697
1120.010121,7105.977043,-6883.915261,1302.362347
1120.010450,7624.121203,-7031.956449,2298.286494
1120.010779,7624.121203,-6513.812290,1378.971896
1120.011108,7476.080014,-5995.668130,1455.581446
1120.011438,7105.977043,-6143.709319,1532.190996
1120.011767,7031.956449,-6661.853478,1532.190996
1120.012096,7105.977043,-6069.688724,766.095498
1120.012425,6587.832884,-6587.832884,612.876398
1120.012754,6587.832884,-5995.668130,536.266849
1120.013083,6291.750507,-6513.812290,842.705048
1120.013412,6883.915261,-7105.977043,1149.143247
1120.013742,6809.894666,-6735.874072,689.485948
1120.014071,6513.812290,-6513.812290,689.485948
1120.014400,6217.729913,-7105.977043,842.705048
1120.014729,6513.812290,-7550.100608,1149.143247
1120.015058,6587.832884,-7105.977043,536.266849
1120.015387,6735.874072,-6735.874072,459.657299
1120.015716,6439.791695,-6735.874072,383.047749
1120.016046,6957.935855,-7254.018232,1149.143247
1120.016375,7624.121203,-7254.018232,1455.581446
1120.016704,7402.059420,-6957.935855,2068.457845
1120.017033,6513.812290,-5847.626942,536.266849
1120.017362,6957.935855,-6587.832884,1532.190996
1120.017691,7179.997637,-6365.771101,1455.581446
1120.018020,7254.018232,-5847.626942,1072.533697
1120.018350,7254.018232,-5625.565159,1302.362347
1120.018679,7105.977043,-5699.585753,995.924147
1120.019008,7105.977043,-7105.977043,1608.800546
1120.019337,7031.956449,-6513.812290,1608.800546
1120.019666,7031.956449,-6735.874072,1149.143247
1120.019995,6513.812290,-6365.771101,995.924147
1120.020324,6291.750507,-6735.874072,842.705048
1120.020654,6735.874072,-6883.915261,995.924147
1120.020983,7254.018232,-7105.977043,766.095498
1120.021312,7179.997637,-6809.894666,919.314598
1120.021641,6957.935855,-6069.688724,995.924147
1120.021970,7328.038826,-6143.709319,689.485948
1120.022299,7476.080014,-6439.791695,995.924147
1120.022628,7772.162391,-6069.688724,1378.971896
1120.022957,7254.018232,-5625.565159,1072.533697
1120.023287,7105.977043,-5477.523971,995.924147
1120.023616,7328.038826,-5699.585753,689.485948
1120.023945,7846.182985,-5773.606348,919.314598
1120.024274,7105.977043,-5625.565159,612.876398
1120.024603,7105.977043,-6513.812290,766.095498
1120.024932,6661.853478,-7105.977043,842.705048
1120.025261,6735.874072,-7698.141797,1225.752797
1120.025591,6661.853478,-7698.141797,1378.971896
1120.025920,6439.791695,-7476.080014,919.314598
1120.026249,6069.688724,-7254.018232,766.095498
1120.026578,6513.812290,-7105.977043,919.314598
1120.026907,7031.956449,-6661.853478,1302.362347
1120.027236,7105.977043,-6069.688724,1532.190996
1120.027565,7550.100608,-6069.688724,1838.629195
1120.027895,7105.977043,-6365.771101,1762.019645
1120.028224,7105.977043,-6439.791695,1378.971896
1120.028553,6883.915261,-6365.771101,919.314598
1120.028882,6217.729913,-6735.874072,1149.143247
1120.029211,6513.812290,-6735.874072,919.314598
1120.029540,6735.874072,-7254.018232,919.314598
1120.029869,6291.750507,-6957.935855,842.705048
1120.030199,6735.874072,-6883.915261,229.828649
1120.030528,6513.812290,-7179.997637,689.485948
1120.030857,6809.894666,-7179.997637,689.485948
1120.031186,6661.853478,-7031.956449,612.876398
1120.031515,6661.853478,-6587.832884,842.705048
1120.031844,6957.935855,-6513.812290,919.314598
1120.032173,7031.956449,-6513.812290,995.924147
1120.032502,7254.018232,-6365.771101,842.705048
1120.032832,7254.018232,-6661.853478,1149.143247
1120.033161,7179.997637,-6661.853478,1302.362347
1120.033490,6883.915261,-7031.956449,995.924147
1120.033819,7105.977043,-7031.956449,1302.362347
1120.034148,7105.977043,-7031.956449,919.314598
1120.034477,7031.956449,-6513.812290,1225.752797
1120.034806,6883.915261,-6809.894666,1762.019645
1120.035136,6957.935855,-6957.935855,1149.143247
1120.035465,6957.935855,-6439.791695,1225.752797
1120.035794,7105.977043,-6439.791695,1072.533697
1120.036123,7254.018232,-6513.812290,1225.752797
1120.036452,7328.038826,-6365.771101,1532.190996
1120.036781,6809.894666,-6217.729913,995.924147
1120.037110,7105.977043,-5403.503377,689.485948
1120.037440,7105.977043,-6143.709319,995.924147
1120.037769,6735.874072,-5921.647536,1685.410096
1120.038098,7031.956449,-6439.791695,1302.362347
1120.038427,6957.935855,-6513.812290,842.705048
1120.038756,6957.935855,-6291.750507,995.924147
1120.039085,7179.997637,-6143.709319,995.924147
1120.039414,7031.956449,-6587.832884,1072.533697
1120.039744,7179.997637,-6809.894666,766.095498
1120.040073,6883.915261,-6513.812290,536.266849
1120.040402,6735.874072,-5921.647536,153.219100
1120.040731,6957.935855,-6217.729913,229.828649
1120.041060,7920.203579,-5921.647536,1378.971896
1120.041389,7994.224174,-6291.750507,1149.143247
1120.041718,7846.182985,-5773.606348,1302.362347
1120.042048,7179.997637,-5699.585753,995.924147
1120.042377,7105.977043,-6661.853478,842.705048
1120.042706,7105.977043,-6513.812290,1072.533697
1120.043035,7254.018232,-7179.997637,1149.143247
1120.043364,6957.935855,-7031.956449,1378.971896
1120.043693,6957.935855,-6735.874072,1149.143247
1120.044022,6217.729913,-7254.018232,842.705048
1120.044351,6809.894666,-7105.977043,1302.362347
1120.044681,6291.750507,-7624.121203,536.266849
1120.045010,6217.729913,-7031.956449,1378.971896
1120.045339,5921.647536,-6957.935855,1225.752797
1120.045668,6143.709319,-6809.894666,766.095498
1120.045997,6513.812290,-6513.812290,919.314598
1120.046326,7031.956449,-6957.935855,1072.533697
1120.046655,7031.956449,-6439.791695,919.314598
1120.046985,6957.935855,-5995.668130,1302.362347
1120.047314,7031.956449,-6587.832884,1072.533697
1120.047643,6957.935855,-6661.853478,995.924147
1120.047972,6809.894666,-7105.977043,1072.533697
1120.048301,7105.977043,-6439.791695,76.609550
1120.048630,6439.791695,-6735.874072,459.657299
1120.048959,6957.935855,-6883.915261,1072.533697
1120.049289,7105.977043,-6957.935855,689.485948
1120.049618,6883.915261,-7031.956449,1072.533697
1120.049947,6661.853478,-6957.935855,842.705048
1120.050276,6957.935855,-6809.894666,842.705048
1120.050605,6661.853478,-6439.791695,1149.143247
1120.050934,6735.874072,-6513.812290,1532.190996
1120.051263,7328.038826,-5921.647536,1685.410096
1120.051593,7105.977043,-6217.729913,1378.971896
1120.051922,7698.141797,-6365.771101,1762.019645
1120.052251,7920.203579,-5773.606348,1915.238745
1120.052580,7846.182985,-5921.647536,1838.629195
1120.052909,7476.080014,-5847.626942,1608.800546
1120.053238,7031.956449,-6513.812290,1302.362347
1120.053567,6809.894666,-6809.894666,1149.143247
1120.053896,6735.874072,-6439.791695,995.924147
1120.054226,6439.791695,-6883.915261,919.314598
1120.054555,6439.791695,-6883.915261,766.095498
1120.054884,6217.729913,-6513.812290,383.047749
1120.055213,6291.750507,-7031.956449,689.485948
1120.055542,6661.853478,-6513.812290,842.705048
1120.055871,7031.956449,-6809.894666,1378.971896
1120.056200,7105.977043,-5625.565159,842.705048
1120.056530,7179.997637,-5551.544565,919.314598
1120.056859,7698.141797,-6143.709319,1149.143247
1120.057188,7624.121203,-5995.668130,1685.410096
1120.057517,7254.018232,-5921.647536,1225.752797
1120.057846,7179.997637,-5551.544565,995.924147
1120.058175,7402.059420,-6587.832884,1149.143247
1120.058504,7031.956449,-7476.080014,919.314598
1120.058834,7031.956449,-7254.018232,919.314598
1120.059163,6513.812290,-7031.956449,383.047749
1120.059492,6217.729913,-6661.853478,536.266849
1120.059821,6439.791695,-7179.997637,995.924147
1120.060150,7105.977043,-7328.038826,1378.971896
1120.060479,7550.100608,-5995.668130,995.924147
1120.060808,7105.977043,-6069.688724,1225.752797
1120.061138,7105.977043,-5847.626942,1149.143247
1120.061467,7105.977043,-6365.771101,1302.362347
1120.061796,6735.874072,-6439.791695,1302.362347
1120.062125,6957.935855,-6587.832884,1455.581446
1120.062454,6957.935855,-6883.915261,1225.752797
1120.062783,6735.874072,-6883.915261,842.705048
1120.063112,6143.709319,-7179.997637,689.485948
1120.063442,6439.791695,-7550.100608,689.485948
1120.063771,6365.771101,-7179.997637,383.047749
1120.064100,6513.812290,-7254.018232,383.047749
1120.064429,6365.771101,-7031.956449,459.657299
1120.064758,6883.915261,-6661.853478,612.876398
1120.065087,6735.874072,-7031.956449,229.828649
1120.065416,6365.771101,-5995.668130,306.438199
1120.065746,6439.791695,-6587.832884,459.657299
1120.066075,7105.977043,-6217.729913,995.924147
1120.066404,7698.141797,-6217.729913,1762.019645
1120.066733,8068.244768,-5995.668130,1455.581446
1120.067062,7624.121203,-6069.688724,919.314598
1120.067391,6809.894666,-6883.915261,1532.190996
1120.067720,7179.997637,-6735.874072,1455.581446
1120.068050,7105.977043,-6365.771101,1838.629195
1120.068379,7179.997637,-6957.935855,1762.019645
1120.068708,6661.853478,-6439.791695,1072.533697
1120.069037,6809.894666,-6439.791695,842.705048
1120.069366,6809.894666,-6587.832884,1455.581446
1120.069695,6809.894666,-6217.729913,995.924147
1120.070024,6365.771101,-6217.729913,459.657299
1120.070354,6365.771101,-6291.750507,842.705048
1120.070683,6883.915261,-6217.729913,766.095498
1120.071012,7105.977043,-6143.709319,842.705048
1120.071341,7105.977043,-6365.771101,1072.533697
1120.071670,7328.038826,-6513.812290,1072.533697
1120.071999,7328.038826,-6957.935855,1302.362347
1120.072328,7550.100608,-6883.915261,1532.190996
1120.072658,7254.018232,-6217.729913,995.924147
1120.072987,7105.977043,-5921.647536,1225.752797
1120.073316,6883.915261,-6291.750507,612.876398
1120.073645,7105.977043,-5995.668130,612.876398
1120.073974,7328.038826,-6143.709319,919.314598
1120.074303,7402.059420,-5995.668130,1072.533697
1120.074633,7254.018232,-6069.688724,612.876398
1120.074962,6809.894666,-6217.729913,919.314598
1120.075291,6957.935855,-6957.935855,919.314598
1120.075620,6957.935855,-7105.977043,1149.143247
1120.075949,6661.853478,-7031.956449,842.705048
1120.076278,6587.832884,-6957.935855,689.485948
1120.076607,6809.894666,-6809.894666,995.924147
1120.076937,7254.018232,-7105.977043,1532.190996
1120.077266,7698.141797,-6809.894666,2145.067394
1120.077595,7254.018232,-6735.874072,1685.410096
1120.077924,7105.977043,-5995.668130,995.924147
1120.078253,6809.894666,-6661.853478,1149.143247
1120.078582,6957.935855,-6809.894666,1225.752797
1120.078911,6513.812290,-6735.874072,995.924147
1120.079241,6365.771101,-6291.750507,536.266849
1120.079570,6365.771101,-5921.647536,306.438199
1120.079899,6513.812290,-6513.812290,612.876398
1120.080228,7105.977043,-7105.977043,459.657299
1120.080557,6809.894666,-7031.956449,306.438199
1120.080886,6513.812290,-7105.977043,459.657299
1120.081215,6587.832884,-7105.977043,612.876398
1120.081545,7105.977043,-6883.915261,1302.362347
1120.081874,7031.956449,-7179.997637,919.314598
1120.082203,6957.935855,-7031.956449,919.314598
1120.082532,6957.935855,-6957.935855,919.314598
1120.082861,6957.935855,-6809.894666,1149.143247
1120.083190,7476.080014,-6439.791695,689.485948
1120.083519,7254.018232,-6439.791695,1302.362347
1120.083849,6513.812290,-6291.750507,1225.752797
1120.084178,6735.874072,-6587.832884,995.924147
1120.084507,6587.832884,-6143.709319,459.657299
1120.084836,7105.977043,-6439.791695,1225.752797
1120.085165,7179.997637,-6365.771101,1455.581446
1120.085494,7328.038826,-6291.750507,1608.800546
1120.085823,7254.018232,-6365.771101,1378.971896
1120.086153,7105.977043,-6291.750507,1685.410096
1120.086482,6883.915261,-6217.729913,1225.752797
1120.086811,6883.915261,-6735.874072,1302.362347
1120.087140,6957.935855,-6217.729913,919.314598
1120.087469,6661.853478,-6217.729913,1302.362347
1120.087798,6809.894666,-6365.771101,1149.143247
1120.088127,6661.853478,-6513.812290,842.705048
1120.088457,6735.874072,-6513.812290,689.485948
1120.088786,6809.894666,-6587.832884,995.924147
1120.089115,6661.853478,-6513.812290,995.924147
1120.089444,7105.977043,-6735.874072,842.705048
1120.089773,7328.038826,-5699.585753,766.095498
1120.090102,7402.059420,-5847.626942,689.485948
1120.090432,7328.038826,-5699.585753,1455.581446
1120.090761,7698.141797,-5699.585753,766.095498
1120.091090,7328.038826,-5699.585753,995.924147
1120.091419,7179.997637,-5921.647536,1149.143247
1120.091748,7179.997637,-6661.853478,1302.362347
1120.092077,7624.121203,-6957.935855,995.924147
1120.092406,6809.894666,-7179.997637,689.485948
1120.092736,6439.791695,-7105.977043,689.485948
1120.093065,7105.977043,-6587.832884,1225.752797
1120.093394,7179.997637,-7031.956449,1378.971896
1120.093723,7476.080014,-6809.894666,1455.581446
1120.094052,6735.874072,-6883.915261,1225.752797
1120.094381,6735.874072,-7105.977043,1225.752797
1120.094710,6365.771101,-6587.832884,842.705048
1120.095040,6439.791695,-6883.915261,995.924147
1120.095369,6735.874072,-6883.915261,1072.533697
1120.095698,7031.956449,-6217.729913,1378.971896
1120.096027,7179.997637,-5921.647536,1225.752797
1120.096356,7105.977043,-5773.606348,919.314598
1120.096685,6957.935855,-6513.812290,689.485948
1120.097014,7328.038826,-6735.874072,612.876398
1120.097344,6809.894666,-5921.647536,536.266849
1120.097673,6587.832884,-6957.935855,919.314598
1120.098002,6661.853478,-7179.997637,766.095498
1120.098331,6439.791695,-6735.874072,689.485948
1120.098660,6291.750507,-6957.935855,306.438199
1120.098989,6365.771101,-6587.832884,0.000000
1120.099318,6513.812290,-6883.915261,306.438199
1120.099648,7105.977043,-7105.977043,459.657299
1120.099977,7031.956449,-7105.977043,1149.143247
1120.100306,7105.977043,-6513.812290,1378.971896
1120.100635,6809.894666,-6217.729913,995.924147
1120.100964,7179.997637,-6735.874072,1149.143247
1120.101293,7846.182985,-6587.832884,1608.800546
1120.101622,7698.141797,-6439.791695,1762.019645
1120.101952,7920.203579,-5921.647536,1608.800546
1120.102281,7624.121203,-5699.585753,1302.362347
1120.102610,7105.977043,-5995.668130,919.314598
1120.102939,7031.956449,-6809.894666,1455.581446
1120.103268,6439.791695,-7105.977043,1149.143247
1120.103597,6217.729913,-6735.874072,689.485948
1120.103926,6217.729913,-6513.812290,383.047749
1120.104256,6809.894666,-6661.853478,995.924147
1120.104585,6957.935855,-6661.853478,689.485948
1120.104914,6883.915261,-6439.791695,842.705048
1120.105243,7031.956449,-6513.812290,842.705048
1120.105572,7031.956449,-6439.791695,1072.533697
1120.105901,7105.977043,-5921.647536,1225.752797
1120.106231,7476.080014,-6069.688724,1378.971896
1120.106560,7328.038826,-6217.729913,1302.362347
1120.106889,7105.977043,-6143.709319,842.705048
1120.107218,7031.956449,-6217.729913,842.705048
1120.107547,7105.977043,-6291.750507,919.314598
1120.107876,7328.038826,-6069.688724,919.314598
1120.108205,7550.100608,-6735.874072,919.314598
1120.108535,7105.977043,-6587.832884,536.266849
1120.108864,7105.977043,-6587.832884,689.485948
1120.109193,6365.771101,-6587.832884,995.924147
1120.109522,7105.977043,-6439.791695,1225.752797
1120.109851,7105.977043,-6365.771101,1072.533697
1120.110180,7254.018232,-6809.894666,2145.067394
1120.110509,7550.100608,-6661.853478,1838.629195
1120.110839,7550.100608,-6365.771101,1838.629195
1120.111168,7328.038826,-6513.812290,1762.019645
1120.111497,7105.977043,-6587.832884,1455.581446
1120.111826,7179.997637,-6883.915261,1302.362347
1120.112155,6365.771101,-7105.977043,1149.143247
1120.112484,6365.771101,-7105.977043,689.485948
1120.112813,6143.709319,-7031.956449,612.876398
1120.113143,6291.750507,-7254.018232,459.657299
1120.113472,6661.853478,-7402.059420,612.876398
1120.113801,6661.853478,-7105.977043,306.438199
1120.114130,7031.956449,-6883.915261,459.657299
1120.114459,7179.997637,-7179.997637,1149.143247
1120.114788,7031.956449,-6513.812290,1685.410096
1120.115117,6809.894666,-6143.709319,919.314598
1120.115447,6883.915261,-6439.791695,842.705048
1120.115776,6957.935855,-6513.812290,766.095498
1120.116105,7105.977043,-6883.915261,995.924147
1120.116434,7105.977043,-6809.894666,1532.190996
1120.116763,6957.935855,-6587.832884,1072.533697
1120.117092,7105.977043,-6809.894666,1225.752797
1120.117421,7105.977043,-7105.977043,1378.971896
1120.117751,7254.018232,-7031.956449,383.047749
1120.118080,6957.935855,-6143.709319,1072.533697
1120.118409,7105.977043,-6069.688724,919.314598
1120.118738,7105.977043,-6143.709319,1378.971896
1120.119067,7328.038826,-6291.750507,919.314598
1120.119396,7328.038826,-6439.791695,1915.238745
1120.119725,6957.935855,-6143.709319,1685.410096
1120.120055,7031.956449,-6143.709319,1302.362347
1120.120384,6957.935855,-6513.812290,1149.143247
1120.120713,6809.894666,-6365.771101,1149.143247
1120.121042,6661.853478,-6587.832884,842.705048
1120.121371,6957.935855,-6957.935855,919.314598
1120.121700,7105.977043,-6439.791695,766.095498
1120.122029,7179.997637,-6365.771101,689.485948
1120.122359,7328.038826,-6883.915261,766.095498
1120.122688,7328.038826,-6735.874072,612.876398
1120.123017,7105.977043,-6217.729913,689.485948
1120.123346,7105.977043,-5921.647536,766.095498
1120.123675,7031.956449,-6069.688724,383.047749
1120.124004,7920.203579,-5847.626942,1532.190996
1120.124334,7105.977043,-6291.750507,536.266849
1120.124663,6809.894666,-6513.812290,995.924147
1120.124992,6883.915261,-6809.894666,1225.752797
1120.125321,6957.935855,-6661.853478,1149.143247
1120.125650,7105.977043,-6809.894666,1225.752797
1120.125979,7105.977043,-7105.977043,1149.143247
1120.126308,6809.894666,-7328.038826,995.924147
1120.126638,7105.977043,-7105.977043,1455.581446
1120.126967,7402.059420,-6735.874072,1455.581446
1120.127296,7105.977043,-6069.688724,1378.971896
1120.127625,7328.038826,-6365.771101,1455.581446
1120.127954,7105.977043,-5995.668130,1378.971896
1120.128283,6957.935855,-5921.647536,1225.752797
1120.128612,6439.791695,-5625.565159,766.095498
1120.128942,6735.874072,-6069.688724,1149.143247
1120.129271,7031.956449,-6439.791695,995.924147
1120.129600,5995.668130,-6735.874072,766.095498
1120.129929,6143.709319,-6883.915261,1378.971896
1120.130258,6143.709319,-7476.080014,689.485948
1120.130587,6513.812290,-7476.080014,689.485948
1120.130916,6587.832884,-7698.141797,919.314598
1120.131246,6587.832884,-7254.018232,919.314598
1120.131575,6439.791695,-6809.894666,995.924147
1120.131904,6439.791695,-6809.894666,766.095498
1120.132233,7105.977043,-6883.915261,766.095498
1120.132562,7179.997637,-6513.812290,1302.362347
1120.132891,7105.977043,-6069.688724,842.705048
1120.133220,6957.935855,-6069.688724,536.266849
1120.133550,6513.812290,-6217.729913,1072.533697
1120.133879,7105.977043,-6513.812290,995.924147
1120.134208,7550.100608,-6513.812290,1762.019645
1120.134537,7254.018232,-6365.771101,2068.457845
1120.134866,7179.997637,-6513.812290,1378.971896
1120.135195,6809.894666,-6587.832884,1302.362347
1120.135524,7031.956449,-7031.956449,1302.362347
1120.135854,7031.956449,-6883.915261,1378.971896
1120.136183,6661.853478,-6069.688724,919.314598
1120.136512,6439.791695,-6809.894666,919.314598
1120.136841,6217.729913,-6809.894666,689.485948
1120.137170,6217.729913,-6439.791695,766.095498
1120.137499,6735.874072,-6217.729913,306.438199
1120.137828,6957.935855,-5921.647536,995.924147
1120.138158,7179.997637,-5847.626942,995.924147
1120.138487,7402.059420,-5921.647536,842.705048
1120.138816,7476.080014,-6217.729913,1149.143247
1120.139145,7328.038826,-6439.791695,1072.533697
1120.139474,7402.059420,-6365.771101,919.314598
1120.139803,7254.018232,-5995.668130,919.314598
1120.140133,7476.080014,-6217.729913,1149.143247
1120.140462,6735.874072,-6143.709319,1225.752797
1120.140791,7031.956449,-6291.750507,612.876398
1120.141120,6883.915261,-6439.791695,612.876398
1120.141449,7105.977043,-6365.771101,536.266849
1120.141778,6883.915261,-6587.832884,766.095498
1120.142107,7105.977043,-6735.874072,1072.533697
1120.142437,6809.894666,-6661.853478,1072.533697
1120.142766,7105.977043,-6661.853478,1072.533697
1120.143095,7254.018232,-6143.709319,1455.581446
1120.143424,7179.997637,-6587.832884,1378.971896
1120.143753,7772.162391,-6587.832884,1378.971896
1120.144082,7402.059420,-6809.894666,1532.190996
1120.144411,7328.038826,-6661.853478,1455.581446
1120.144741,7105.977043,-6735.874072,1378.971896
1120.145070,6957.935855,-5921.647536,1378.971896
1120.145399,6365.771101,-6809.894666,995.924147
1120.145728,5921.647536,-6809.894666,689.485948
1120.146057,5847.626942,-6883.915261,383.047749
1120.146386,6217.729913,-6883.915261,459.657299
1120.146715,6661.853478,-7179.997637,229.828649
1120.147045,6661.853478,-6735.874072,766.095498
1120.147374,6735.874072,-6809.894666,689.485948
1120.147703,6883.915261,-7328.038826,842.705048
1120.148032,6957.935855,-6513.812290,1532.190996
1120.148361,7105.977043,-6439.791695,995.924147
1120.148690,7105.977043,-6217.729913,766.095498
1120.149019,7550.100608,-7105.977043,842.705048
1120.149349,6809.894666,-7254.018232,1149.143247
1120.149678,7105.977043,-6439.791695,1225.752797
1120.150007,6883.915261,-6217.729913,536.266849
1120.150336,6661.853478,-6735.874072,1072.533697
1120.150665,6735.874072,-6735.874072,1149.143247
1120.150994,5995.668130,-7105.977043,76.609550
1120.151323,6883.915261,-6069.688724,689.485948
1120.151653,6957.935855,-6365.771101,689.485948
1120.151982,7254.018232,-6513.812290,1685.410096
1120.152311,7624.121203,-6439.791695,1685.410096
1120.152640,7179.997637,-6143.709319,2221.676944
1120.152969,7254.018232,-6809.894666,1762.019645
1120.153298,7031.956449,-6217.729913,995.924147
1120.153627,7105.977043,-6143.709319,1378.971896
1120.153957,7105.977043,-6365.771101,1532.190996
1120.154286,6957.935855,-6365.771101,536.266849
1120.154615,6439.791695,-6365.771101,612.876398
1120.154944,6439.791695,-6439.791695,0.000000
1120.155273,6883.915261,-6439.791695,612.876398
1120.155602,7179.997637,-6661.853478,612.876398
1120.155932,7105.977043,-6883.915261,689.485948
1120.156261,7105.977043,-6365.771101,612.876398
1120.156590,7031.956449,-6291.750507,842.705048
1120.156919,7476.080014,-6365.771101,919.314598
1120.157248,7402.059420,-5699.585753,1685.410096
1120.157577,7550.100608,-5699.585753,995.924147
1120.157906,7179.997637,-6217.729913,995.924147
1120.158236,7105.977043,-6661.853478,1072.533697
1120.158565,7031.956449,-7105.977043,1532.190996
1120.158894,6957.935855,-6735.874072,689.485948
1120.159223,6883.915261,-7105.977043,766.095498
1120.159552,6957.935855,-7031.956449,1302.362347
1120.159881,7105.977043,-7105.977043,1225.752797
1120.160210,7031.956449,-6291.750507,1455.581446
1120.160540,7105.977043,-6069.688724,1302.362347
1120.160869,7105.977043,-6513.812290,1149.143247
1120.161198,7105.977043,-6291.750507,842.705048
1120.161527,6735.874072,-6513.812290,995.924147
1120.161856,6957.935855,-7105.977043,1455.581446
1120.162185,7105.977043,-6661.853478,1225.752797
1120.162514,7105.977043,-6513.812290,1149.143247
1120.162844,6883.915261,-6661.853478,995.924147
1120.163173,7031.956449,-6809.894666,919.314598
1120.163502,6513.812290,-7105.977043,383.047749
1120.163831,6217.729913,-7031.956449,306.438199
1120.164160,6587.832884,-7254.018232,612.876398
1120.164489,6661.853478,-7105.977043,689.485948
1120.164818,6513.812290,-6957.935855,1455.581446
1120.165147,6587.832884,-6809.894666,1149.143247
1120.165477,6069.688724,-6957.935855,995.924147
1120.165806,6809.894666,-6735.874072,842.705048
1120.166135,6587.832884,-6587.832884,153.219100
1120.166464,6957.935855,-6143.709319,1685.410096
1120.166793,6735.874072,-7105.977043,1072.533697
1120.167122,7179.997637,-6439.791695,1455.581446
1120.167451,7550.100608,-6069.688724,1762.019645
1120.167780,7698.141797,-5921.647536,1608.800546
1120.168109,7698.141797,-6217.729913,1685.410096
1120.168438,7328.038826,-6513.812290,1302.362347
1120.168767,6587.832884,-6513.812290,1378.971896
1120.169097,7105.977043,-7031.956449,1455.581446
1120.169426,7328.038826,-6291.750507,1532.190996
1120.169755,6661.853478,-6587.832884,1149.143247
1120.170084,6513.812290,-6735.874072,1225.752797
1120.170413,6513.812290,-6587.832884,842.705048
1120.170742,7031.956449,-6883.915261,1149.143247
1120.171071,6809.894666,-6291.750507,1072.533697
1120.171400,7105.977043,-5995.668130,842.705048
1120.171729,7179.997637,-6291.750507,919.314598
1120.172058,7254.018232,-6957.935855,842.705048
1120.172388,7772.162391,-6365.771101,766.095498
1120.172717,7254.018232,-6143.709319,919.314598
1120.173046,7550.100608,-6365.771101,766.095498
1120.173375,7179.997637,-6365.771101,766.095498
1120.173704,7254.018232,-6069.688724,229.828649
1120.174033,7105.977043,-6365.771101,689.485948
1120.174362,7105.977043,-5699.585753,612.876398
1120.174691,7698.141797,-6513.812290,1149.143247
1120.175020,7772.162391,-5625.565159,1302.362347
1120.175349,7328.038826,-6143.709319,766.095498
1120.175679,6513.812290,-6661.853478,1378.971896
1120.176008,7254.018232,-6439.791695,1455.581446
1120.176337,7402.059420,-6809.894666,1149.143247
1120.176666,7328.038826,-6365.771101,1991.848295
1120.176995,7105.977043,-6365.771101,1149.143247
1120.177324,6883.915261,-7179.997637,1072.533697
1120.177653,6735.874072,-7328.038826,1378.971896
1120.177982,6587.832884,-7179.997637,1225.752797
1120.178311,6587.832884,-6809.894666,1225.752797
1120.178640,6735.874072,-7105.977043,842.705048
1120.178970,6365.771101,-7105.977043,612.876398
1120.179299,6365.771101,-6661.853478,919.314598
1120.179628,6587.832884,-7105.977043,1149.143247
1120.179957,6661.853478,-6513.812290,1455.581446
1120.180286,6809.894666,-6513.812290,536.266849
1120.180615,6883.915261,-6439.791695,536.266849
1120.180944,6957.935855,-6661.853478,995.924147
1120.181273,7402.059420,-7476.080014,1072.533697
1120.181602,7402.059420,-6587.832884,459.657299
1120.181931,6291.750507,-6957.935855,536.266849
1120.182261,6439.791695,-7179.997637,842.705048
1120.182590,6661.853478,-7105.977043,536.266849
1120.182919,7105.977043,-6957.935855,612.876398
1120.183248,7105.977043,-6809.894666,1149.143247
1120.183577,7105.977043,-6513.812290,1302.362347
1120.183906,7254.018232,-5921.647536,1608.800546
1120.184235,6957.935855,-5847.626942,1378.971896
1120.184564,6957.935855,-5847.626942,1378.971896
1120.184893,7105.977043,-5921.647536,1455.581446
1120.185222,7402.059420,-6439.791695,1455.581446
1120.185551,7402.059420,-5995.668130,1532.190996
1120.185881,7550.100608,-6439.791695,1378.971896
1120.186210,7476.080014,-7031.956449,1225.752797
1120.186539,6809.894666,-7031.956449,1455.581446
1120.186868,6883.915261,-7031.956449,1149.143247
1120.187197,6587.832884,-6513.812290,919.314598
1120.187526,6069.688724,-5773.606348,1072.533697
1120.187855,6069.688724,-6661.853478,229.828649
1120.188184,6365.771101,-6587.832884,612.876398
1120.188513,6809.894666,-6587.832884,766.095498
1120.188842,6883.915261,-5995.668130,306.438199
1120.189172,7105.977043,-5847.626942,1608.800546
1120.189501,7105.977043,-6069.688724,919.314598
1120.189830,7105.977043,-6217.729913,919.314598
1120.190159,6957.935855,-6217.729913,612.876398
1120.190488,7550.100608,-5329.482782,919.314598
1120.190817,7920.203579,-5625.565159,842.705048
1120.191146,7772.162391,-6069.688724,1072.533697
1120.191475,7550.100608,-6661.853478,1149.143247
1120.191804,7402.059420,-6883.915261,1608.800546
1120.192133,7402.059420,-7105.977043,1455.581446
1120.192463,6883.915261,-6661.853478,1149.143247
1120.192792,6661.853478,-6587.832884,612.876398
1120.193121,6439.791695,-6957.935855,689.485948
1120.193450,6957.935855,-6957.935855,842.705048
1120.193779,7105.977043,-6735.874072,1225.752797
1120.194108,7105.977043,-6809.894666,1378.971896
1120.194437,7328.038826,-6513.812290,1455.581446
1120.194766,7031.956449,-6513.812290,1225.752797
1120.195095,6883.915261,-6587.832884,1532.190996
1120.195424,7105.977043,-6735.874072,1225.752797
1120.195754,7254.018232,-6513.812290,1455.581446
1120.196083,7105.977043,-6365.771101,919.314598
1120.196412,6809.894666,-6513.812290,919.314598
1120.196741,6069.688724,-6883.915261,536.266849
1120.197070,6291.750507,-7105.977043,536.266849
1120.197399,6513.812290,-7179.997637,766.095498
1120.197728,6513.812290,-7105.977043,612.876398
1120.198057,6365.771101,-7179.997637,612.876398
1120.198386,6069.688724,-7476.080014,536.266849
1120.198715,5995.668130,-7179.997637,306.438199
1120.199045,5921.647536,-7105.977043,536.266849
1120.199374,6513.812290,-6439.791695,995.924147
1120.199703,7698.141797,-6439.791695,2068.457845
1120.200032,7698.141797,-6439.791695,1532.190996
1120.200361,7846.182985,-5921.647536,1532.190996
1120.200690,7328.038826,-5699.585753,1378.971896
1120.201019,7402.059420,-5255.462188,1608.800546
1120.201348,7402.059420,-6069.688724,1608.800546
1120.201677,7328.038826,-6587.832884,1608.800546
1120.202006,6809.894666,-6661.853478,1532.190996
1120.202335,6661.853478,-6735.874072,1149.143247
1120.202665,6661.853478,-6957.935855,1072.533697
1120.202994,6513.812290,-7105.977043,1149.143247
1120.203323,6661.853478,-7105.977043,1149.143247
1120.203652,6513.812290,-6735.874072,766.095498
1120.203981,6513.812290,-6143.709319,536.266849
1120.204310,6439.791695,-5995.668130,536.266849
1120.204639,7105.977043,-6217.729913,919.314598
1120.204968,7698.141797,-6513.812290,1149.143247
