#time,accel_x,accel_y,accel_z
1150.390085,6957.935855,-6513.812290,689.485948
1150.390415,7105.977043,-6439.791695,1378.971896
1150.390745,7105.977043,-6513.812290,1302.362347
1150.391075,6957.935855,-6365.771101,995.924147
1150.391405,7105.977043,-6217.729913,995.924147
1150.391735,7476.080014,-6439.791695,919.314598
1150.392065,7105.977043,-6217.729913,1225.752797
1150.392395,7254.018232,-6661.853478,1302.362347
1150.392725,7105.977043,-6587.832884,995.924147
1150.393055,6883.915261,-7105.977043,1149.143247
1150.393385,6809.894666,-6513.812290,842.705048
1150.393715,6809.894666,-6587.832884,689.485948
1150.394045,6883.915261,-6957.935855,1149.143247
1150.394375,7179.997637,-6587.832884,1225.752797
1150.394705,7105.977043,-7105.977043,1455.581446
1150.395034,7031.956449,-6587.832884,459.657299
1150.395364,7031.956449,-6513.812290,766.095498
1150.395694,6661.853478,-6661.853478,919.314598
1150.396024,6883.915261,-6883.915261,1072.533697
1150.396354,7105.977043,-6365.771101,1149.143247
1150.396684,6809.894666,-6587.832884,536.266849
1150.397014,6735.874072,-7179.997637,995.924147
1150.397344,6883.915261,-6735.874072,919.314598
1150.397674,6587.832884,-7105.977043,766.095498
1150.398004,6883.915261,-6883.915261,612.876398
1150.398334,6883.915261,-6883.915261,919.314598
1150.398664,6735.874072,-6439.791695,919.314598
1150.398994,6957.935855,-6587.832884,1072.533697
1150.399324,7105.977043,-6069.688724,1608.800546
1150.399654,6809.894666,-6587.832884,1302.362347
1150.399984,6957.935855,-6439.791695,1149.143247
1150.400313,7105.977043,-6587.832884,842.705048
1150.400643,7031.956449,-6883.915261,1072.533697
1150.400973,7179.997637,-6661.853478,536.266849
1150.401303,6957.935855,-6439.791695,1302.362347
1150.401633,6957.935855,-6291.750507,1149.143247
1150.401963,6809.894666,-6513.812290,919.314598
1150.402293,7105.977043,-6291.750507,1302.362347
1150.402623,7105.977043,-6513.812290,919.314598
1150.402953,7105.977043,-6587.832884,1072.533697
1150.403283,7179.997637,-6291.750507,1149.143247
1150.403613,7179.997637,-6365.771101,995.924147
1150.403943,7105.977043,-6069.688724,1455.581446
1150.404273,7179.997637,-6513.812290,1149.143247
1150.404603,7105.977043,-6513.812290,1149.143247
1150.404933,6957.935855,-6513.812290,766.095498
1150.405262,7105.977043,-6957.935855,1072.533697
1150.405592,7105.977043,-6439.791695,995.924147
1150.405922,7031.956449,-6439.791695,995.924147
1150.406252,7179.997637,-6365.771101,919.314598
1150.406582,7105.977043,-6365.771101,1072.533697
1150.406912,7031.956449,-6291.750507,995.924147
1150.407242,7402.059420,-6513.812290,1149.143247
1150.407572,6957.935855,-6365.771101,1072.533697
1150.407902,7031.956449,-6291.750507,919.314598
1150.408232,7031.956449,-6661.853478,1072.533697
1150.408562,7328.038826,-6809.894666,1149.143247
1150.408892,7105.977043,-6587.832884,1072.533697
1150.409222,6957.935855,-6883.915261,1072.533697
1150.409552,6883.915261,-6587.832884,995.924147
1150.409882,6883.915261,-6439.791695,2068.457845
1150.410212,6883.915261,-6513.812290,995.924147
1150.410541,6957.935855,-6735.874072,995.924147
1150.410871,7105.977043,-6513.812290,1149.143247
1150.411201,6957.935855,-6291.750507,766.095498
1150.411531,6587.832884,-6217.729913,1149.143247
1150.411861,6735.874072,-6883.915261,1072.533697
1150.412191,6957.935855,-6957.935855,1149.143247
1150.412521,6809.894666,-7105.977043,1225.752797
1150.412851,6735.874072,-6587.832884,995.924147
1150.413181,7105.977043,-6513.812290,1072.533697
1150.413511,6587.832884,-6587.832884,919.314598
1150.413841,6587.832884,-6661.853478,995.924147
1150.414171,6587.832884,-6809.894666,1149.143247
1150.414501,7179.997637,-6439.791695,1455.581446
1150.414831,6957.935855,-6513.812290,1072.533697
1150.415161,6957.935855,-6439.791695,995.924147
1150.415490,6957.935855,-6587.832884,1072.533697
1150.415820,7105.977043,-6661.853478,1149.143247
1150.416150,7105.977043,-6883.915261,1149.143247
1150.416480,7105.977043,-6661.853478,842.705048
1150.416810,6883.915261,-6809.894666,1149.143247
1150.417140,7105.977043,-6365.771101,1149.143247
1150.417470,7402.059420,-6365.771101,689.485948
1150.417800,7179.997637,-5995.668130,842.705048
1150.418130,7031.956449,-6439.791695,842.705048
1150.418460,7105.977043,-6439.791695,842.705048
1150.418790,7179.997637,-6365.771101,842.705048
1150.419120,7476.080014,-6957.935855,1072.533697
1150.419450,7105.977043,-6217.729913,842.705048
1150.419780,7179.997637,-6365.771101,995.924147
1150.420110,7105.977043,-6513.812290,612.876398
1150.420440,7254.018232,-7031.956449,1149.143247
1150.420769,7254.018232,-5995.668130,842.705048
1150.421099,7179.997637,-6513.812290,1378.971896
1150.421429,6883.915261,-6587.832884,1149.143247
1150.421759,6883.915261,-6735.874072,995.924147
1150.422089,6957.935855,-6735.874072,919.314598
1150.422419,7105.977043,-6661.853478,1072.533697
1150.422749,6809.894666,-6365.771101,919.314598
1150.423079,6809.894666,-6291.750507,995.924147
1150.423409,7031.956449,-6587.832884,1072.533697
1150.423739,7179.997637,-6439.791695,306.438199
1150.424069,6957.935855,-6809.894666,1302.362347
1150.424399,7105.977043,-6439.791695,1072.533697
1150.424729,6957.935855,-6735.874072,1072.533697
1150.425059,7179.997637,-6957.935855,1225.752797
1150.425389,6809.894666,-6587.832884,1378.971896
1150.425718,6735.874072,-6661.853478,842.705048
1150.426048,6661.853478,-6957.935855,995.924147
1150.426378,6735.874072,-6735.874072,1225.752797
1150.426708,6883.915261,-6587.832884,1608.800546
1150.427038,6735.874072,-6809.894666,1302.362347
1150.427368,7105.977043,-6587.832884,612.876398
1150.427698,6809.894666,-6587.832884,1072.533697
1150.428028,6883.915261,-6587.832884,919.314598
1150.428358,6587.832884,-6513.812290,766.095498
1150.428688,6661.853478,-6587.832884,1225.752797
1150.429018,6883.915261,-6809.894666,1225.752797
1150.429348,7105.977043,-6439.791695,1149.143247
1150.429678,6661.853478,-6365.771101,1762.019645
1150.430008,7328.038826,-6661.853478,1302.362347
1150.430338,6883.915261,-6661.853478,1149.143247
1150.430668,7105.977043,-6513.812290,1149.143247
1150.430997,6883.915261,-6439.791695,1149.143247
1150.431327,7105.977043,-6143.709319,1455.581446
1150.431657,7031.956449,-6513.812290,1072.533697
1150.431987,7031.956449,-6587.832884,1225.752797
1150.432317,7105.977043,-6513.812290,995.924147
1150.432647,7254.018232,-6735.874072,1149.143247
1150.432977,7105.977043,-6439.791695,842.705048
1150.433307,7105.977043,-6587.832884,1302.362347
1150.433637,7105.977043,-6587.832884,1072.533697
1150.433967,7031.956449,-6439.791695,1149.143247
1150.434297,7476.080014,-6883.915261,1225.752797
1150.434627,6957.935855,-6439.791695,919.314598
1150.434957,7105.977043,-6735.874072,919.314598
1150.435287,7105.977043,-6365.771101,995.924147
1150.435617,7105.977043,-6513.812290,1378.971896
1150.435946,7179.997637,-6735.874072,842.705048
1150.436276,6957.935855,-6439.791695,842.705048
1150.436606,6957.935855,-6883.915261,612.876398
1150.436936,7031.956449,-6365.771101,1225.752797
1150.437266,6883.915261,-6513.812290,1455.581446
1150.437596,7105.977043,-6587.832884,1072.533697
1150.437926,7031.956449,-6735.874072,995.924147
1150.438256,6957.935855,-6587.832884,1149.143247
1150.438586,7031.956449,-6809.894666,1072.533697
1150.438916,6735.874072,-6291.750507,919.314598
1150.439246,6809.894666,-6365.771101,1149.143247
1150.439576,6957.935855,-6661.853478,1072.533697
1150.439906,6957.935855,-6513.812290,1149.143247
1150.440236,6883.915261,-6661.853478,995.924147
1150.440566,6957.935855,-6587.832884,919.314598
1150.440896,6809.894666,-6661.853478,1149.143247
1150.441225,6957.935855,-6513.812290,1225.752797
1150.441555,6957.935855,-6883.915261,1225.752797
1150.441885,7328.038826,-7031.956449,536.266849
1150.442215,6735.874072,-6661.853478,1072.533697
1150.442545,6661.853478,-6809.894666,919.314598
1150.442875,6661.853478,-6735.874072,842.705048
1150.443205,6069.688724,-6661.853478,1455.581446
1150.443535,6809.894666,-6513.812290,919.314598
1150.443865,7105.977043,-6513.812290,1072.533697
1150.444195,7105.977043,-6735.874072,919.314598
1150.444525,6809.894666,-6809.894666,919.314598
1150.444855,6883.915261,-6365.771101,1302.362347
1150.445185,7031.956449,-6809.894666,842.705048
1150.445515,7105.977043,-6661.853478,1072.533697
1150.445845,7031.956449,-6661.853478,842.705048
1150.446175,7031.956449,-6365.771101,919.314598
1150.446504,7105.977043,-6439.791695,842.705048
1150.446834,7031.956449,-6587.832884,1149.143247
1150.447164,7105.977043,-6365.771101,1302.362347
1150.447494,7031.956449,-6291.750507,995.924147
1150.447824,6809.894666,-6217.729913,1225.752797
1150.448154,6661.853478,-6365.771101,1072.533697
1150.448484,7105.977043,-6661.853478,1149.143247
1150.448814,7105.977043,-6217.729913,1149.143247
1150.449144,7105.977043,-7105.977043,1455.581446
1150.449474,6735.874072,-6217.729913,1302.362347
1150.449804,6957.935855,-6661.853478,766.095498
1150.450134,7105.977043,-6735.874072,1608.800546
1150.450464,7328.038826,-6439.791695,995.924147
1150.450794,7105.977043,-6809.894666,1149.143247
1150.451124,7105.977043,-6217.729913,612.876398
1150.451453,7031.956449,-6439.791695,995.924147
1150.451783,7105.977043,-6513.812290,919.314598
1150.452113,7105.977043,-6587.832884,919.314598
1150.452443,6809.894666,-5773.606348,919.314598
1150.452773,6809.894666,-6439.791695,1072.533697
1150.453103,6883.915261,-6661.853478,1225.752797
1150.453433,6957.935855,-6809.894666,919.314598
1150.453763,7105.977043,-6439.791695,1302.362347
1150.454093,6513.812290,-6661.853478,1072.533697
1150.454423,6809.894666,-6661.853478,919.314598
1150.454753,7105.977043,-6883.915261,1072.533697
1150.455082,6957.935855,-6661.853478,995.924147
1150.455412,6883.915261,-6587.832884,612.876398
1150.455741,6735.874072,-6661.853478,919.314598
1150.456071,6957.935855,-6809.894666,612.876398
1150.456400,7105.977043,-6661.853478,1072.533697
1150.456730,6587.832884,-6587.832884,1225.752797
1150.457059,7031.956449,-6365.771101,919.314598
1150.457389,7031.956449,-6587.832884,919.314598
1150.457718,6809.894666,-6957.935855,995.924147
1150.458048,6883.915261,-6661.853478,1149.143247
1150.458377,6735.874072,-6513.812290,1378.971896
1150.458707,6735.874072,-6587.832884,919.314598
1150.459036,6809.894666,-6735.874072,842.705048
1150.459366,6809.894666,-6439.791695,919.314598
1150.459695,6809.894666,-6661.853478,1225.752797
1150.460025,6957.935855,-6365.771101,919.314598
1150.460354,7031.956449,-6513.812290,1149.143247
1150.460684,6809.894666,-6587.832884,919.314598
1150.461013,7031.956449,-6587.832884,1072.533697
1150.461343,7105.977043,-6587.832884,1149.143247
1150.461672,7105.977043,-6439.791695,766.095498
1150.462002,7105.977043,-6587.832884,1072.533697
1150.462332,7105.977043,-6439.791695,995.924147
1150.462661,7105.977043,-6587.832884,1225.752797
1150.462991,7105.977043,-6735.874072,1072.533697
1150.463320,6809.894666,-6587.832884,1302.362347
1150.463650,7105.977043,-6365.771101,1072.533697
1150.463979,7179.997637,-6365.771101,1072.533697
1150.464309,7105.977043,-6513.812290,919.314598
1150.464638,7105.977043,-6587.832884,1225.752797
1150.464968,6957.935855,-6513.812290,1149.143247
1150.465297,7031.956449,-6661.853478,995.924147
1150.465627,6883.915261,-6587.832884,1149.143247
1150.465956,6661.853478,-6291.750507,919.314598
1150.466286,6957.935855,-6661.853478,1532.190996
1150.466615,7031.956449,-6587.832884,1225.752797
1150.466945,7031.956449,-6365.771101,1072.533697
1150.467274,7031.956449,-5995.668130,766.095498
1150.467604,7179.997637,-6661.853478,1302.362347
1150.467933,7105.977043,-6735.874072,919.314598
1150.468263,7105.977043,-6513.812290,995.924147
1150.468592,6957.935855,-6587.832884,919.314598
1150.468922,7179.997637,-6217.729913,1455.581446
1150.469251,7105.977043,-6735.874072,1149.143247
1150.469581,6957.935855,-6957.935855,1072.533697
1150.469910,7031.956449,-6883.915261,1302.362347
1150.470240,7105.977043,-6587.832884,1072.533697
1150.470569,7254.018232,-6735.874072,1762.019645
1150.470899,6957.935855,-6735.874072,1072.533697
1150.471228,6883.915261,-6661.853478,1072.533697
1150.471558,6957.935855,-6661.853478,995.924147
1150.471887,6883.915261,-6661.853478,919.314598
1150.472217,6661.853478,-6365.771101,536.266849
1150.472546,7105.977043,-6513.812290,842.705048
1150.472876,6883.915261,-6365.771101,919.314598
1150.473205,7105.977043,-6587.832884,1072.533697
1150.473535,7254.018232,-6809.894666,1302.362347
1150.473864,6957.935855,-6661.853478,842.705048
1150.474194,6957.935855,-6883.915261,1149.143247
1150.474523,6957.935855,-6661.853478,1072.533697
1150.474853,7031.956449,-6809.894666,1072.533697
1150.475182,6883.915261,-6883.915261,306.438199
1150.475512,6883.915261,-6513.812290,919.314598
1150.475841,6809.894666,-6661.853478,919.314598
1150.476171,7031.956449,-6809.894666,919.314598
1150.476500,7179.997637,-6439.791695,1072.533697
1150.476830,7105.977043,-5995.668130,1225.752797
1150.477159,7031.956449,-5995.668130,536.266849
1150.477489,7179.997637,-6143.709319,1455.581446
1150.477818,7328.038826,-6513.812290,1225.752797
1150.478148,7105.977043,-6217.729913,1072.533697
1150.478477,7031.956449,-6291.750507,842.705048
1150.478807,6957.935855,-6513.812290,919.314598
1150.479136,7105.977043,-6735.874072,1149.143247
1150.479466,7105.977043,-6661.853478,1072.533697
1150.479795,7402.059420,-6439.791695,1225.752797
1150.480125,7031.956449,-6735.874072,842.705048
1150.480454,6883.915261,-6439.791695,842.705048
1150.480784,6883.915261,-6439.791695,1225.752797
1150.481113,7105.977043,-6217.729913,1532.190996
1150.481443,6957.935855,-6217.729913,919.314598
1150.481772,6735.874072,-6365.771101,1149.143247
1150.482102,7031.956449,-6587.832884,995.924147
1150.482431,7105.977043,-6587.832884,919.314598
1150.482761,7254.018232,-6957.935855,1378.971896
1150.483091,7031.956449,-6513.812290,919.314598
1150.483420,7031.956449,-6809.894666,995.924147
1150.483750,6957.935855,-6661.853478,842.705048
1150.484079,7105.977043,-6661.853478,842.705048
1150.484409,7031.956449,-6957.935855,1225.752797
1150.484738,7031.956449,-6513.812290,842.705048
1150.485068,6809.894666,-6661.853478,1225.752797
1150.485397,6809.894666,-6587.832884,766.095498
1150.485727,6735.874072,-6513.812290,1608.800546
1150.486056,7254.018232,-6883.915261,1225.752797
1150.486386,6809.894666,-6513.812290,1072.533697
1150.486715,6883.915261,-6587.832884,1149.143247
1150.487045,6957.935855,-6513.812290,1149.143247
1150.487374,7254.018232,-6587.832884,842.705048
1150.487704,7105.977043,-6661.853478,995.924147
1150.488033,7031.956449,-6587.832884,995.924147
1150.488363,7105.977043,-6587.832884,919.314598
1150.488692,6735.874072,-6069.688724,1225.752797
1150.489022,7105.977043,-6661.853478,1149.143247
1150.489351,7179.997637,-6883.915261,842.705048
1150.489681,6661.853478,-6735.874072,1072.533697
1150.490010,6883.915261,-6513.812290,919.314598
1150.490340,7105.977043,-6587.832884,1302.362347
1150.490669,7105.977043,-6809.894666,1225.752797
1150.490999,7179.997637,-6513.812290,1302.362347
1150.491328,7105.977043,-6365.771101,842.705048
1150.491658,6809.894666,-6217.729913,842.705048
1150.491987,6883.915261,-6439.791695,842.705048
1150.492317,7105.977043,-6661.853478,919.314598
1150.492646,7105.977043,-6957.935855,1532.190996
1150.492976,7105.977043,-6439.791695,1072.533697
1150.493305,7328.038826,-6439.791695,1149.143247
1150.493635,7105.977043,-6661.853478,1149.143247
1150.493964,6957.935855,-6735.874072,1072.533697
1150.494294,7105.977043,-6809.894666,1225.752797
1150.494623,7105.977043,-6513.812290,1149.143247
1150.494953,7031.956449,-6439.791695,1302.362347
1150.495282,6809.894666,-6513.812290,766.095498
1150.495612,7105.977043,-6587.832884,1149.143247
1150.495941,7031.956449,-6513.812290,919.314598
1150.496271,6957.935855,-6217.729913,1685.410096
1150.496600,6809.894666,-6587.832884,1072.533697
1150.496930,7105.977043,-6587.832884,1302.362347
1150.497259,7105.977043,-6587.832884,842.705048
1150.497589,7105.977043,-6661.853478,1149.143247
1150.497918,7179.997637,-6143.709319,766.095498
1150.498248,6735.874072,-6809.894666,1225.752797
1150.498577,6809.894666,-6587.832884,1149.143247
1150.498907,6587.832884,-6513.812290,1149.143247
1150.499236,7031.956449,-6439.791695,1225.752797
1150.499566,7254.018232,-6365.771101,766.095498
1150.499895,7105.977043,-6439.791695,919.314598
1150.500225,6735.874072,-6513.812290,919.314598
1150.500554,6735.874072,-6809.894666,612.876398
1150.500884,7328.038826,-6439.791695,1072.533697
1150.501213,7105.977043,-6513.812290,1225.752797
1150.501543,6883.915261,-6661.853478,842.705048
1150.501872,6661.853478,-6883.915261,1149.143247
1150.502202,6735.874072,-7105.977043,1302.362347
1150.502531,7105.977043,-6735.874072,1455.581446
1150.502861,6883.915261,-6587.832884,689.485948
1150.503191,7031.956449,-6365.771101,1455.581446
1150.503520,7031.956449,-6735.874072,919.314598
1150.503850,7105.977043,-6291.750507,1378.971896
1150.504179,7328.038826,-5107.421000,995.924147
1150.504509,7624.121203,-5255.462188,1072.533697
1150.504838,7994.224174,-5181.441594,1455.581446
1150.505168,8364.327145,-5773.606348,1378.971896
1150.505497,8216.285956,-6069.688724,1455.581446
1150.505827,7031.956449,-6291.750507,383.047749
1150.506156,5995.668130,-7476.080014,0.000000
1150.506486,6069.688724,-6883.915261,153.219100
1150.506815,6365.771101,-7105.977043,919.314598
1150.507145,7624.121203,-7105.977043,1455.581446
1150.507474,8068.244768,-6143.709319,1455.581446
1150.507804,8512.368333,-4737.318029,1225.752797
1150.508133,8364.327145,-4293.194464,1149.143247
1150.508463,8364.327145,-4737.318029,1378.971896
1150.508792,8512.368333,-4589.276840,1378.971896
1150.509122,9030.512492,-3997.112087,1455.581446
1150.509451,9178.553681,-4071.132681,1455.581446
1150.509781,8660.409521,-3997.112087,1149.143247
1150.510110,7920.203579,-5255.462188,1149.143247
1150.510440,8586.388927,-4589.276840,766.095498
1150.510769,8882.471304,-5329.482782,1149.143247
1150.511099,8586.388927,-5773.606348,1302.362347
1150.511428,8734.430116,-5255.462188,229.828649
1150.511758,7624.121203,-5921.647536,383.047749
1150.512087,7846.182985,-5107.421000,1685.410096
1150.512417,7846.182985,-5995.668130,612.876398
1150.512746,8142.265362,-5107.421000,1302.362347
1150.513076,8290.306550,-5107.421000,1455.581446
1150.513405,8364.327145,-5033.400406,1455.581446
1150.513735,8290.306550,-4441.235652,1608.800546
1150.514064,8512.368333,-4737.318029,1149.143247
1150.514394,9030.512492,-3923.091493,919.314598
1150.514723,8512.368333,-4663.297435,1302.362347
1150.515053,8882.471304,-4885.359217,1149.143247
1150.515382,8734.430116,-4737.318029,919.314598
1150.515712,8290.306550,-5699.585753,1072.533697
1150.516041,8290.306550,-5921.647536,1149.143247
1150.516371,8068.244768,-6365.771101,919.314598
1150.516700,7624.121203,-6217.729913,919.314598
1150.517030,7179.997637,-6069.688724,842.705048
1150.517359,6809.894666,-6143.709319,1225.752797
1150.517689,7328.038826,-6217.729913,766.095498
1150.518018,7328.038826,-5181.441594,612.876398
1150.518348,7698.141797,-5033.400406,612.876398
1150.518677,8142.265362,-5551.544565,1378.971896
1150.519007,8734.430116,-5477.523971,1072.533697
1150.519336,8364.327145,-5107.421000,689.485948
1150.519666,7920.203579,-4589.276840,612.876398
1150.519995,8290.306550,-5847.626942,766.095498
1150.520325,8512.368333,-6365.771101,1608.800546
1150.520654,8586.388927,-6439.791695,1378.971896
1150.520984,7920.203579,-5329.482782,229.828649
1150.521313,7698.141797,-5477.523971,766.095498
1150.521643,7920.203579,-6217.729913,842.705048
1150.521972,7698.141797,-5995.668130,1685.410096
1150.522302,7698.141797,-5921.647536,612.876398
1150.522631,6883.915261,-5995.668130,536.266849
1150.522961,6957.935855,-6143.709319,995.924147
1150.523290,7254.018232,-6365.771101,1608.800546
1150.523620,7105.977043,-5847.626942,1225.752797
1150.523950,7402.059420,-6069.688724,842.705048
1150.524279,7846.182985,-6587.832884,1302.362347
1150.524609,8364.327145,-6587.832884,1762.019645
1150.524938,7994.224174,-6513.812290,1072.533697
1150.525268,6957.935855,-6661.853478,1608.800546
1150.525597,6735.874072,-6365.771101,995.924147
1150.525927,6809.894666,-6587.832884,842.705048
1150.526256,6957.935855,-6439.791695,995.924147
1150.526586,7105.977043,-5921.647536,1149.143247
1150.526915,7105.977043,-6217.729913,459.657299
1150.527245,6513.812290,-6365.771101,0.000000
1150.527574,5773.606348,-6957.935855,76.609550
1150.527904,5995.668130,-7031.956449,229.828649
1150.528233,6365.771101,-7402.059420,536.266849
1150.528563,6735.874072,-7698.141797,383.047749
1150.528892,6735.874072,-7254.018232,536.266849
1150.529222,6217.729913,-7550.100608,536.266849
1150.529551,7846.182985,-6957.935855,995.924147
1150.529881,7698.141797,-7105.977043,1378.971896
1150.530210,7402.059420,-6735.874072,1532.190996
1150.530540,6957.935855,-6143.709319,1532.190996
1150.530869,6957.935855,-6217.729913,1455.581446
1150.531199,6883.915261,-5921.647536,2221.676944
1150.531528,7031.956449,-5773.606348,1915.238745
1150.531858,7031.956449,-5403.503377,1915.238745
1150.532187,6661.853478,-5551.544565,1455.581446
1150.532517,6735.874072,-5625.565159,1225.752797
1150.532846,6587.832884,-5995.668130,1225.752797
1150.533176,6661.853478,-6217.729913,306.438199
1150.533505,6809.894666,-6365.771101,1149.143247
1150.533835,6809.894666,-6365.771101,1225.752797
1150.534164,7031.956449,-6291.750507,383.047749
1150.534494,6661.853478,-7105.977043,919.314598
1150.534823,6809.894666,-7105.977043,919.314598
1150.535153,7402.059420,-6957.935855,1149.143247
1150.535482,6735.874072,-6587.832884,919.314598
1150.535812,6439.791695,-6513.812290,995.924147
1150.536141,6513.812290,-7105.977043,689.485948
1150.536471,7105.977043,-6809.894666,1072.533697
1150.536800,7254.018232,-6587.832884,1072.533697
1150.537130,6957.935855,-6661.853478,1072.533697
1150.537459,6291.750507,-6735.874072,689.485948
1150.537789,6365.771101,-7105.977043,1072.533697
1150.538118,7031.956449,-6957.935855,1762.019645
1150.538448,7402.059420,-6661.853478,1608.800546
1150.538777,7105.977043,-6143.709319,1915.238745
1150.539107,7031.956449,-5773.606348,1225.752797
1150.539436,7328.038826,-5773.606348,995.924147
1150.539766,7031.956449,-6217.729913,1149.143247
1150.540095,7179.997637,-6217.729913,919.314598
1150.540425,7328.038826,-6365.771101,842.705048
1150.540754,7031.956449,-6365.771101,383.047749
1150.541084,7031.956449,-7105.977043,842.705048
1150.541413,7105.977043,-7550.100608,842.705048
1150.541743,6809.894666,-7328.038826,612.876398
1150.542072,6513.812290,-7550.100608,766.095498
1150.542402,6735.874072,-6957.935855,536.266849
1150.542731,6587.832884,-7698.141797,842.705048
1150.543061,6587.832884,-7476.080014,1378.971896
1150.543390,6809.894666,-6143.709319,995.924147
1150.543720,7105.977043,-5699.585753,1302.362347
1150.544049,7328.038826,-5107.421000,1378.971896
1150.544379,7772.162391,-5255.462188,1915.238745
1150.544709,7402.059420,-5477.523971,1455.581446
1150.545038,7031.956449,-5477.523971,1532.190996
1150.545368,6883.915261,-5773.606348,1225.752797
1150.545697,6883.915261,-6291.750507,1072.533697
1150.546027,6513.812290,-6513.812290,1302.362347
1150.546356,6661.853478,-7328.038826,919.314598
1150.546686,6809.894666,-6217.729913,229.828649
1150.547015,6809.894666,-6587.832884,766.095498
1150.547345,6809.894666,-6883.915261,229.828649
1150.547674,6883.915261,-6883.915261,612.876398
1150.548004,6809.894666,-6957.935855,766.095498
1150.548333,7031.956449,-6513.812290,919.314598
1150.548663,7105.977043,-6957.935855,1072.533697
1150.548992,7179.997637,-6365.771101,1378.971896
1150.549322,7476.080014,-6957.935855,459.657299
1150.549651,7179.997637,-6365.771101,1072.533697
1150.549981,7254.018232,-6809.894666,1685.410096
1150.550310,7550.100608,-6883.915261,1608.800546
1150.550640,7328.038826,-5329.482782,2374.896044
1150.550969,7105.977043,-6069.688724,1378.971896
1150.551299,6957.935855,-5995.668130,1838.629195
1150.551628,7105.977043,-6069.688724,1838.629195
1150.551958,6883.915261,-6291.750507,1532.190996
1150.552287,7031.956449,-6069.688724,1762.019645
1150.552617,6513.812290,-6217.729913,536.266849
1150.552946,6513.812290,-7105.977043,689.485948
1150.553276,6513.812290,-6735.874072,919.314598
1150.553605,6587.832884,-7105.977043,919.314598
1150.553935,6735.874072,-6883.915261,612.876398
1150.554264,6809.894666,-7031.956449,612.876398
1150.554594,6809.894666,-7698.141797,1149.143247
1150.554923,7031.956449,-7624.121203,689.485948
1150.555253,6957.935855,-7179.997637,1149.143247
1150.555582,7031.956449,-7031.956449,766.095498
1150.555912,7105.977043,-6587.832884,1072.533697
1150.556241,7402.059420,-6513.812290,842.705048
1150.556571,6809.894666,-6809.894666,1685.410096
1150.556900,6143.709319,-6143.709319,1762.019645
1150.557230,6439.791695,-5995.668130,919.314598
1150.557559,6291.750507,-6291.750507,1072.533697
1150.557888,6587.832884,-6291.750507,1072.533697
1150.558217,6809.894666,-7105.977043,1225.752797
1150.558547,7179.997637,-6365.771101,1455.581446
1150.558876,6735.874072,-6957.935855,1378.971896
1150.559205,6883.915261,-6661.853478,1149.143247
1150.559534,6809.894666,-6957.935855,612.876398
1150.559864,6883.915261,-6365.771101,536.266849
1150.560193,6883.915261,-6957.935855,689.485948
1150.560522,7105.977043,-6809.894666,536.266849
1150.560851,7476.080014,-6217.729913,919.314598
1150.561181,7698.141797,-6217.729913,766.095498
1150.561510,7179.997637,-5995.668130,1608.800546
1150.561839,7402.059420,-6217.729913,1072.533697
1150.562168,7254.018232,-5625.565159,995.924147
1150.562498,7624.121203,-5699.585753,766.095498
1150.562827,7402.059420,-6143.709319,1608.800546
1150.563156,7624.121203,-6069.688724,766.095498
1150.563485,7031.956449,-6143.709319,995.924147
1150.563815,6587.832884,-5995.668130,766.095498
1150.564144,6735.874072,-6587.832884,995.924147
1150.564473,7031.956449,-6291.750507,1149.143247
1150.564802,7254.018232,-6365.771101,1455.581446
1150.565132,7105.977043,-6661.853478,1225.752797
1150.565461,6809.894666,-6513.812290,1685.410096
1150.565790,6587.832884,-7105.977043,1915.238745
1150.566119,6883.915261,-6587.832884,842.705048
1150.566449,6735.874072,-6513.812290,995.924147
1150.566778,6513.812290,-6957.935855,689.485948
1150.567107,6587.832884,-7105.977043,536.266849
1150.567436,6661.853478,-6587.832884,536.266849
1150.567766,6883.915261,-6883.915261,306.438199
1150.568095,7105.977043,-6513.812290,536.266849
1150.568424,7254.018232,-7105.977043,842.705048
1150.568753,7254.018232,-6735.874072,995.924147
1150.569083,6957.935855,-6439.791695,1072.533697
1150.569412,7254.018232,-6513.812290,842.705048
1150.569741,7031.956449,-6809.894666,995.924147
1150.570070,6957.935855,-6809.894666,1072.533697
1150.570400,7105.977043,-6661.853478,1608.800546
1150.570729,7105.977043,-6291.750507,1072.533697
1150.571058,7105.977043,-6143.709319,1455.581446
1150.571387,7179.997637,-5773.606348,1608.800546
1150.571717,7254.018232,-5995.668130,1608.800546
1150.572046,7328.038826,-5255.462188,842.705048
1150.572375,7179.997637,-5773.606348,919.314598
1150.572704,6809.894666,-6069.688724,842.705048
1150.573034,6513.812290,-6439.791695,766.095498
1150.573363,6513.812290,-6217.729913,919.314598
1150.573692,6809.894666,-6735.874072,612.876398
1150.574021,6513.812290,-7105.977043,459.657299
1150.574351,6735.874072,-7476.080014,689.485948
1150.574680,6957.935855,-7328.038826,1072.533697
1150.575009,7328.038826,-7105.977043,1149.143247
1150.575338,6735.874072,-7105.977043,1302.362347
1150.575668,6735.874072,-7105.977043,1072.533697
1150.575997,6291.750507,-7105.977043,919.314598
1150.576326,7031.956449,-6217.729913,1225.752797
1150.576655,7550.100608,-6439.791695,1378.971896
1150.576985,7402.059420,-5995.668130,1608.800546
1150.577314,6883.915261,-5847.626942,1685.410096
1150.577643,7105.977043,-5551.544565,1302.362347
1150.577972,7179.997637,-5403.503377,1455.581446
1150.578302,7402.059420,-5773.606348,1302.362347
1150.578631,7254.018232,-6069.688724,1455.581446
1150.578960,7105.977043,-6439.791695,1225.752797
1150.579289,7105.977043,-6365.771101,995.924147
1150.579619,6513.812290,-6809.894666,842.705048
1150.579948,6587.832884,-7624.121203,995.924147
1150.580277,6513.812290,-7772.162391,995.924147
1150.580606,6365.771101,-7846.182985,689.485948
1150.580935,6439.791695,-7402.059420,306.438199
1150.581265,5995.668130,-7402.059420,459.657299
1150.581594,6291.750507,-7031.956449,612.876398
1150.581923,6735.874072,-6587.832884,536.266849
1150.582252,7105.977043,-6365.771101,842.705048
1150.582582,7550.100608,-6217.729913,919.314598
1150.582911,7402.059420,-6069.688724,1149.143247
1150.583240,7105.977043,-6217.729913,1378.971896
1150.583569,7105.977043,-6291.750507,995.924147
1150.583899,7105.977043,-6513.812290,842.705048
1150.584228,7179.997637,-6883.915261,1378.971896
1150.584557,7031.956449,-7105.977043,1455.581446
1150.584886,6513.812290,-6661.853478,1149.143247
1150.585216,6957.935855,-6513.812290,1302.362347
1150.585545,6957.935855,-7105.977043,1455.581446
1150.585874,6883.915261,-6957.935855,1378.971896
1150.586203,6439.791695,-6587.832884,766.095498
1150.586533,6439.791695,-6809.894666,766.095498
1150.586862,6587.832884,-6957.935855,766.095498
1150.587191,6809.894666,-6439.791695,919.314598
1150.587520,7105.977043,-6291.750507,689.485948
1150.587850,7402.059420,-6439.791695,842.705048
1150.588179,7846.182985,-5847.626942,1072.533697
1150.588508,7920.203579,-5625.565159,919.314598
1150.588837,8068.244768,-5477.523971,459.657299
1150.589167,8216.285956,-5551.544565,766.095498
1150.589496,8438.347739,-5995.668130,1455.581446
1150.589825,7994.224174,-6069.688724,1455.581446
1150.590154,7402.059420,-5699.585753,1072.533697
1150.590484,6661.853478,-6365.771101,766.095498
1150.590813,6217.729913,-7031.956449,842.705048
1150.591142,6513.812290,-7254.018232,1072.533697
1150.591471,6217.729913,-6291.750507,1072.533697
1150.591801,5847.626942,-6291.750507,1378.971896
1150.592130,6587.832884,-6365.771101,1072.533697
1150.592459,7031.956449,-6809.894666,1225.752797
1150.592788,7179.997637,-6587.832884,1149.143247
1150.593118,7328.038826,-6587.832884,1532.190996
1150.593447,6439.791695,-6365.771101,459.657299
1150.593776,6587.832884,-6809.894666,383.047749
1150.594105,6735.874072,-6957.935855,766.095498
1150.594435,6661.853478,-7328.038826,536.266849
1150.594764,7105.977043,-7031.956449,459.657299
1150.595093,7105.977043,-7476.080014,689.485948
1150.595422,6883.915261,-7254.018232,1149.143247
1150.595752,6735.874072,-7179.997637,995.924147
1150.596081,6513.812290,-6809.894666,1455.581446
1150.596410,6513.812290,-7179.997637,842.705048
1150.596739,6291.750507,-6809.894666,1302.362347
1150.597069,6883.915261,-6143.709319,1838.629195
1150.597398,7476.080014,-5255.462188,1608.800546
1150.597727,7402.059420,-5033.400406,1378.971896
1150.598056,7772.162391,-5329.482782,1762.019645
1150.598386,7698.141797,-5921.647536,1685.410096
1150.598715,7624.121203,-4959.379811,1378.971896
1150.599044,7105.977043,-5551.544565,612.876398
1150.599373,6661.853478,-6587.832884,689.485948
1150.599703,6513.812290,-7105.977043,766.095498
1150.600032,6735.874072,-7772.162391,612.876398
1150.600361,7031.956449,-6809.894666,536.266849
1150.600690,6809.894666,-6587.832884,1532.190996
1150.601020,6883.915261,-6957.935855,689.485948
1150.601349,7105.977043,-7105.977043,459.657299
1150.601678,6735.874072,-7254.018232,766.095498
1150.602007,6957.935855,-7105.977043,612.876398
1150.602337,6735.874072,-6735.874072,1455.581446
1150.602666,6513.812290,-6513.812290,689.485948
1150.602995,7105.977043,-6291.750507,919.314598
1150.603324,7476.080014,-6291.750507,1378.971896
1150.603654,8290.306550,-6661.853478,1762.019645
1150.603983,7920.203579,-6069.688724,1991.848295
1150.604312,7550.100608,-5329.482782,1685.410096
1150.604641,7031.956449,-5255.462188,1302.362347
1150.604971,7254.018232,-5773.606348,1378.971896
1150.605300,7402.059420,-5699.585753,2221.676944
1150.605629,6957.935855,-6217.729913,1225.752797
1150.605958,6661.853478,-6069.688724,612.876398
1150.606288,6291.750507,-6809.894666,766.095498
1150.606617,6439.791695,-7476.080014,842.705048
1150.606946,6883.915261,-7624.121203,1149.143247
1150.607275,6143.709319,-7698.141797,612.876398
1150.607605,6365.771101,-6957.935855,306.438199
1150.607934,6513.812290,-7031.956449,153.219100
1150.608263,7031.956449,-7254.018232,229.828649
1150.608592,6883.915261,-7105.977043,919.314598
1150.608922,7179.997637,-7105.977043,689.485948
1150.609251,7328.038826,-6883.915261,689.485948
1150.609580,7031.956449,-7179.997637,1149.143247
1150.609909,7031.956449,-7105.977043,1378.971896
1150.610239,6661.853478,-6587.832884,1378.971896
1150.610568,6661.853478,-6217.729913,1302.362347
1150.610897,7031.956449,-5551.544565,1762.019645
1150.611226,7550.100608,-5403.503377,1762.019645
1150.611556,7624.121203,-6143.709319,1532.190996
1150.611885,7031.956449,-6143.709319,1532.190996
1150.612214,6809.894666,-6291.750507,766.095498
1150.612543,6809.894666,-6439.791695,1225.752797
1150.612873,7105.977043,-6883.915261,1072.533697
1150.613202,6735.874072,-7254.018232,995.924147
1150.613531,6439.791695,-7476.080014,689.485948
1150.613860,6587.832884,-7179.997637,612.876398
1150.614190,6809.894666,-6587.832884,612.876398
1150.614519,7328.038826,-6957.935855,995.924147
1150.614848,7476.080014,-6217.729913,612.876398
1150.615177,7402.059420,-6587.832884,1072.533697
1150.615507,7550.100608,-5699.585753,1072.533697
1150.615836,7920.203579,-5403.503377,1302.362347
1150.616165,7994.224174,-5699.585753,1302.362347
1150.616494,7846.182985,-5921.647536,1378.971896
1150.616824,7328.038826,-6365.771101,1455.581446
1150.617153,7105.977043,-5921.647536,1072.533697
1150.617482,6735.874072,-5921.647536,689.485948
1150.617811,7031.956449,-6513.812290,1149.143247
1150.618141,6957.935855,-6513.812290,1225.752797
1150.618470,6957.935855,-7105.977043,1302.362347
1150.618799,6661.853478,-6735.874072,1149.143247
1150.619128,6143.709319,-7105.977043,1149.143247
1150.619458,6217.729913,-7105.977043,1149.143247
1150.619787,6587.832884,-6735.874072,919.314598
1150.620116,6735.874072,-6883.915261,383.047749
1150.620445,7328.038826,-6217.729913,383.047749
1150.620775,7105.977043,-6143.709319,536.266849
1150.621104,6883.915261,-6735.874072,689.485948
1150.621433,7179.997637,-6513.812290,612.876398
1150.621762,7254.018232,-7624.121203,919.314598
1150.622092,7328.038826,-7402.059420,1302.362347
1150.622421,7105.977043,-7402.059420,995.924147
1150.622750,6661.853478,-7254.018232,766.095498
1150.623079,6513.812290,-7105.977043,1072.533697
1150.623409,7254.018232,-6883.915261,1532.190996
1150.623738,7105.977043,-6513.812290,1532.190996
1150.624067,7550.100608,-6217.729913,1762.019645
1150.624396,7550.100608,-5847.626942,1685.410096
1150.624726,7254.018232,-5107.421000,1072.533697
1150.625055,7328.038826,-5033.400406,1685.410096
1150.625384,6957.935855,-5773.606348,1302.362347
1150.625713,6587.832884,-6143.709319,1302.362347
1150.626043,6365.771101,-6291.750507,689.485948
1150.626372,6735.874072,-6809.894666,766.095498
1150.626701,6957.935855,-7031.956449,689.485948
1150.627030,6883.915261,-7179.997637,689.485948
1150.627360,6513.812290,-7402.059420,459.657299
1150.627689,6587.832884,-7254.018232,383.047749
1150.628018,6957.935855,-7031.956449,76.609550
1150.628347,7402.059420,-7031.956449,1149.143247
1150.628677,7550.100608,-7031.956449,1455.581446
1150.629006,7328.038826,-6513.812290,1072.533697
1150.629335,6513.812290,-6143.709319,1072.533697
1150.629664,6439.791695,-6365.771101,1149.143247
1150.629994,6957.935855,-6439.791695,1302.362347
1150.630323,7254.018232,-5995.668130,1532.190996
1150.630652,7179.997637,-5773.606348,1532.190996
1150.630981,7105.977043,-5921.647536,1608.800546
1150.631311,7105.977043,-5551.544565,1072.533697
1150.631640,7254.018232,-6143.709319,1455.581446
1150.631969,7179.997637,-6365.771101,1302.362347
1150.632298,7328.038826,-5921.647536,1225.752797
1150.632628,7254.018232,-6365.771101,1225.752797
1150.632957,7031.956449,-7031.956449,995.924147
1150.633286,7254.018232,-7105.977043,1378.971896
1150.633615,6587.832884,-7105.977043,1072.533697
1150.633945,6809.894666,-7105.977043,919.314598
1150.634274,6365.771101,-7105.977043,-76.609550
1150.634603,6513.812290,-7328.038826,383.047749
1150.634932,6365.771101,-6957.935855,306.438199
1150.635262,6735.874072,-6957.935855,459.657299
1150.635591,6957.935855,-6587.832884,689.485948
1150.635920,7476.080014,-6883.915261,995.924147
1150.636249,7328.038826,-6957.935855,1072.533697
1150.636579,6809.894666,-7105.977043,995.924147
1150.636908,7031.956449,-6587.832884,766.095498
1150.637237,7105.977043,-6365.771101,1762.019645
1150.637566,7254.018232,-6143.709319,1532.190996
1150.637896,7328.038826,-5551.544565,1455.581446
1150.638225,6957.935855,-5477.523971,1455.581446
1150.638554,7179.997637,-6217.729913,1302.362347
1150.638883,6809.894666,-6513.812290,1455.581446
1150.639213,6735.874072,-5921.647536,1378.971896
1150.639542,6883.915261,-6735.874072,842.705048
1150.639871,6661.853478,-6957.935855,689.485948
1150.640200,6809.894666,-7328.038826,536.266849
1150.640530,6661.853478,-6735.874072,689.485948
1150.640859,7179.997637,-6587.832884,612.876398
1150.641188,7698.141797,-6661.853478,919.314598
1150.641517,7994.224174,-6217.729913,1378.971896
1150.641847,7550.100608,-6513.812290,689.485948
1150.642176,7105.977043,-6217.729913,689.485948
1150.642505,7254.018232,-5699.585753,153.219100
1150.642834,7179.997637,-6217.729913,612.876398
1150.643164,7550.100608,-6439.791695,1608.800546
1150.643493,7328.038826,-6291.750507,1532.190996
1150.643822,7031.956449,-6069.688724,1302.362347
1150.644151,6513.812290,-5847.626942,1149.143247
1150.644481,6291.750507,-7105.977043,1149.143247
1150.644810,6957.935855,-7031.956449,1302.362347
1150.645139,6957.935855,-7031.956449,1378.971896
1150.645468,6587.832884,-6513.812290,1302.362347
1150.645798,6439.791695,-6513.812290,1072.533697
1150.646127,6735.874072,-6587.832884,1225.752797
1150.646456,7105.977043,-6661.853478,1225.752797
1150.646785,7179.997637,-6439.791695,766.095498
1150.647115,6661.853478,-5995.668130,383.047749
1150.647444,5847.626942,-5699.585753,0.000000
1150.647773,6439.791695,-6883.915261,536.266849
1150.648102,7105.977043,-6957.935855,766.095498
1150.648432,7328.038826,-7179.997637,1072.533697
1150.648761,7105.977043,-7105.977043,766.095498
1150.649090,7476.080014,-7105.977043,1455.581446
1150.649419,7105.977043,-7105.977043,1072.533697
1150.649749,6957.935855,-6883.915261,1378.971896
1150.650078,6883.915261,-6957.935855,1225.752797
1150.650407,6883.915261,-6513.812290,1225.752797
1150.650736,6957.935855,-6291.750507,1685.410096
1150.651066,6809.894666,-6365.771101,995.924147
1150.651395,7476.080014,-5995.668130,1225.752797
1150.651724,7031.956449,-5921.647536,1225.752797
1150.652053,6957.935855,-6587.832884,1149.143247
1150.652383,6587.832884,-6291.750507,995.924147
1150.652712,6587.832884,-6735.874072,689.485948
1150.653041,6439.791695,-7031.956449,766.095498
1150.653370,6809.894666,-6809.894666,995.924147
1150.653700,7402.059420,-7179.997637,383.047749
1150.654029,7328.038826,-6587.832884,612.876398
1150.654358,7179.997637,-6957.935855,766.095498
1150.654687,7254.018232,-7031.956449,1302.362347
1150.655017,7550.100608,-6735.874072,995.924147
1150.655346,7254.018232,-6217.729913,919.314598
1150.655675,6957.935855,-6217.729913,689.485948
1150.656004,6735.874072,-6809.894666,766.095498
1150.656334,6661.853478,-6587.832884,1149.143247
1150.656663,7105.977043,-7105.977043,612.876398
1150.656992,7328.038826,-6587.832884,1378.971896
1150.657321,6661.853478,-6587.832884,1455.581446
1150.657650,7105.977043,-6365.771101,1455.581446
1150.657980,6809.894666,-6069.688724,1149.143247
1150.658309,7179.997637,-5921.647536,919.314598
1150.658638,7476.080014,-5847.626942,1608.800546
1150.658967,7698.141797,-5847.626942,1455.581446
1150.659297,7254.018232,-6143.709319,995.924147
1150.659626,6957.935855,-6217.729913,1762.019645
1150.659955,7179.997637,-6587.832884,1149.143247
1150.660284,7105.977043,-7105.977043,919.314598
1150.660613,6809.894666,-7105.977043,1149.143247
1150.660943,6143.709319,-7105.977043,459.657299
1150.661272,6069.688724,-7254.018232,229.828649
1150.661601,5847.626942,-7698.141797,229.828649
1150.661930,5995.668130,-7476.080014,536.266849
1150.662260,6661.853478,-7402.059420,612.876398
1150.662589,7105.977043,-7105.977043,1149.143247
1150.662918,7550.100608,-6587.832884,766.095498
1150.663247,6217.729913,-6587.832884,1455.581446
1150.663577,7105.977043,-6217.729913,1149.143247
1150.663906,7031.956449,-5847.626942,1072.533697
1150.664235,7105.977043,-5847.626942,1302.362347
1150.664564,7328.038826,-5699.585753,1455.581446
1150.664893,7179.997637,-5921.647536,1455.581446
1150.665223,7179.997637,-6513.812290,1608.800546
1150.665552,7105.977043,-6735.874072,1532.190996
1150.665881,6957.935855,-6291.750507,2145.067394
1150.666210,6735.874072,-6809.894666,995.924147
1150.666540,6365.771101,-7105.977043,689.485948
1150.666869,6439.791695,-7031.956449,153.219100
1150.667198,6513.812290,-7031.956449,1072.533697
1150.667527,7031.956449,-6365.771101,1149.143247
1150.667857,7254.018232,-6883.915261,1302.362347
1150.668186,7550.100608,-6291.750507,1149.143247
1150.668515,7328.038826,-6291.750507,536.266849
1150.668844,6883.915261,-6735.874072,1149.143247
1150.669173,6957.935855,-6291.750507,689.485948
1150.669503,7179.997637,-6883.915261,919.314598
1150.669832,7550.100608,-6513.812290,1378.971896
1150.670161,7328.038826,-6587.832884,1378.971896
1150.670490,6809.894666,-6291.750507,1378.971896
1150.670820,6957.935855,-6513.812290,1225.752797
1150.671149,6217.729913,-7179.997637,919.314598
1150.671478,6735.874072,-6661.853478,842.705048
1150.671807,6735.874072,-6661.853478,842.705048
1150.672137,6883.915261,-6809.894666,1608.800546
1150.672466,6439.791695,-6291.750507,1378.971896
1150.672795,6809.894666,-6513.812290,1225.752797
1150.673124,6957.935855,-5995.668130,995.924147
1150.673453,7328.038826,-6809.894666,536.266849
1150.673783,6661.853478,-6661.853478,536.266849
1150.674112,6661.853478,-6661.853478,689.485948
1150.674441,7031.956449,-6883.915261,306.438199
1150.674770,7254.018232,-6661.853478,689.485948
1150.675100,7105.977043,-7105.977043,383.047749
1150.675429,7254.018232,-7328.038826,1225.752797
1150.675758,7254.018232,-7105.977043,1302.362347
1150.676087,6957.935855,-6809.894666,1149.143247
1150.676417,6513.812290,-6291.750507,1838.629195
1150.676746,7031.956449,-6365.771101,1302.362347
1150.677075,7254.018232,-6069.688724,1149.143247
1150.677404,7179.997637,-5403.503377,1762.019645
1150.677733,7105.977043,-5699.585753,1608.800546
1150.678063,7254.018232,-4811.338623,1762.019645
1150.678392,7105.977043,-5625.565159,1225.752797
1150.678721,7105.977043,-6291.750507,1225.752797
1150.679050,6957.935855,-6587.832884,1149.143247
1150.679380,6957.935855,-6661.853478,766.095498
1150.679709,6809.894666,-6957.935855,919.314598
1150.680038,7031.956449,-7179.997637,766.095498
1150.680367,7254.018232,-7179.997637,536.266849
1150.680696,6809.894666,-7476.080014,995.924147
1150.681026,7031.956449,-6883.915261,383.047749
1150.681355,6809.894666,-6957.935855,536.266849
1150.681684,7105.977043,-6735.874072,536.266849
1150.682013,7179.997637,-6513.812290,995.924147
1150.682343,7624.121203,-6143.709319,919.314598
1150.682672,7105.977043,-5995.668130,919.314598
1150.683001,7105.977043,-5995.668130,919.314598
1150.683330,7328.038826,-6513.812290,1072.533697
1150.683660,7550.100608,-6957.935855,1225.752797
1150.683989,7920.203579,-6809.894666,1685.410096
1150.684318,7031.956449,-6365.771101,1532.190996
1150.684647,7031.956449,-6143.709319,995.924147
1150.684976,7105.977043,-6217.729913,1149.143247
1150.685306,7254.018232,-6217.729913,1685.410096
1150.685635,7105.977043,-6291.750507,1149.143247
1150.685964,6957.935855,-6217.729913,1378.971896
1150.686293,6735.874072,-5477.523971,1072.533697
1150.686623,6439.791695,-5847.626942,919.314598
1150.686952,6439.791695,-6217.729913,1685.410096
1150.687281,6513.812290,-6735.874072,919.314598
1150.687610,6365.771101,-7105.977043,383.047749
1150.687940,6365.771101,-7105.977043,306.438199
1150.688269,6439.791695,-7402.059420,459.657299
1150.688598,7031.956449,-7402.059420,612.876398
1150.688927,7105.977043,-7772.162391,1072.533697
1150.689256,7179.997637,-7772.162391,1149.143247
1150.689586,6809.894666,-7254.018232,1225.752797
1150.689915,7179.997637,-7328.038826,1685.410096
1150.690244,6661.853478,-6513.812290,1838.629195
1150.690573,6587.832884,-5847.626942,1685.410096
1150.690903,6883.915261,-5551.544565,1378.971896
1150.691232,7031.956449,-4811.338623,1532.190996
1150.691561,7476.080014,-5403.503377,1685.410096
1150.691890,7179.997637,-5551.544565,1302.362347
1150.692220,6809.894666,-6143.709319,1225.752797
1150.692549,6661.853478,-6291.750507,919.314598
1150.692878,6513.812290,-6809.894666,612.876398
1150.693207,6513.812290,-7179.997637,0.000000
1150.693536,6809.894666,-7698.141797,612.876398
1150.693866,7031.956449,-7402.059420,689.485948
1150.694195,7031.956449,-7179.997637,919.314598
1150.694524,7105.977043,-7105.977043,1608.800546
1150.694853,7328.038826,-6883.915261,1072.533697
1150.695183,6883.915261,-6365.771101,536.266849
1150.695512,6587.832884,-5921.647536,306.438199
1150.695841,6587.832884,-5329.482782,383.047749
1150.696170,7772.162391,-5699.585753,1225.752797
1150.696500,8364.327145,-5921.647536,1685.410096
1150.696829,8216.285956,-5921.647536,1915.238745
1150.697158,7328.038826,-5995.668130,1532.190996
1150.697487,6513.812290,-6217.729913,1378.971896
1150.697816,6809.894666,-7254.018232,995.924147
1150.698146,7105.977043,-7476.080014,1302.362347
1150.698475,7031.956449,-6957.935855,1378.971896
1150.698804,7105.977043,-6661.853478,689.485948
1150.699133,7105.977043,-6217.729913,1685.410096
1150.699463,6809.894666,-6809.894666,1302.362347
1150.699792,6587.832884,-6883.915261,995.924147
1150.700121,6439.791695,-6513.812290,612.876398
1150.700450,6439.791695,-6217.729913,0.000000
1150.700779,5921.647536,-6587.832884,766.095498
1150.701109,6661.853478,-7105.977043,689.485948
1150.701438,7105.977043,-7031.956449,995.924147
1150.701767,7105.977043,-7179.997637,842.705048
1150.702096,7476.080014,-6809.894666,459.657299
1150.702426,7105.977043,-6957.935855,766.095498
1150.702755,7031.956449,-7179.997637,995.924147
1150.703084,7031.956449,-7550.100608,1302.362347
1150.703413,6883.915261,-6809.894666,1072.533697
1150.703743,7105.977043,-5773.606348,1225.752797
1150.704072,6661.853478,-5773.606348,842.705048
1150.704401,7105.977043,-6217.729913,1455.581446
1150.704730,6809.894666,-5699.585753,1685.410096
1150.705059,7031.956449,-5403.503377,1455.581446
1150.705389,7031.956449,-5477.523971,1302.362347
1150.705718,7031.956449,-5699.585753,1225.752797
1150.706047,6957.935855,-6513.812290,1225.752797
1150.706376,6735.874072,-6143.709319,1072.533697
1150.706706,7179.997637,-6957.935855,766.095498
1150.707035,7105.977043,-7031.956449,919.314598
1150.707364,7328.038826,-7031.956449,459.657299
1150.707693,6957.935855,-7105.977043,766.095498
1150.708023,7031.956449,-7179.997637,1072.533697
1150.708352,7328.038826,-7031.956449,1072.533697
1150.708681,6809.894666,-6809.894666,842.705048
1150.709010,6587.832884,-6439.791695,689.485948
1150.709339,6365.771101,-6513.812290,1072.533697
1150.709669,7031.956449,-6661.853478,1532.190996
1150.709998,6957.935855,-6143.709319,1455.581446
1150.710327,7031.956449,-5995.668130,1149.143247
1150.710656,7031.956449,-5847.626942,1532.190996
1150.710986,7254.018232,-6217.729913,1225.752797
1150.711315,7179.997637,-5921.647536,2068.457845
1150.711644,7105.977043,-6217.729913,1608.800546
1150.711973,7328.038826,-5995.668130,1149.143247
1150.712303,7698.141797,-6217.729913,1225.752797
1150.712632,7179.997637,-6365.771101,1302.362347
1150.712961,7402.059420,-6587.832884,1225.752797
1150.713290,7031.956449,-6365.771101,842.705048
1150.713619,6365.771101,-6587.832884,536.266849
1150.713949,6439.791695,-6809.894666,306.438199
1150.714278,6735.874072,-7105.977043,459.657299
1150.714607,6291.750507,-8142.265362,1149.143247
1150.714936,6365.771101,-7179.997637,229.828649
1150.715266,6291.750507,-6661.853478,306.438199
1150.715595,6883.915261,-7179.997637,689.485948
1150.715924,7624.121203,-7105.977043,1225.752797
1150.716253,7624.121203,-6957.935855,1302.362347
1150.716583,7179.997637,-6439.791695,995.924147
1150.716912,7031.956449,-6439.791695,995.924147
1150.717241,6661.853478,-6883.915261,842.705048
1150.717570,7402.059420,-6365.771101,1915.238745
1150.717899,7105.977043,-5847.626942,1378.971896
1150.718229,6809.894666,-5921.647536,1072.533697
1150.718558,7031.956449,-5995.668130,1608.800546
1150.718887,7328.038826,-6217.729913,1378.971896
1150.719216,7031.956449,-5699.585753,1072.533697
1150.719546,6661.853478,-6291.750507,612.876398
1150.719875,6513.812290,-6661.853478,612.876398
1150.720204,6217.729913,-6735.874072,1072.533697
1150.720533,7328.038826,-6587.832884,612.876398
1150.720862,7402.059420,-6217.729913,689.485948
1150.721192,7772.162391,-7179.997637,1378.971896
1150.721521,7698.141797,-6365.771101,1455.581446
1150.721850,7402.059420,-5699.585753,995.924147
1150.722179,7402.059420,-6291.750507,459.657299
1150.722509,7402.059420,-5847.626942,536.266849
1150.722838,7550.100608,-6439.791695,1378.971896
1150.723167,7920.203579,-5995.668130,1608.800546
1150.723496,7328.038826,-5847.626942,1762.019645
1150.723826,6587.832884,-6513.812290,919.314598
1150.724155,6143.709319,-6661.853478,995.924147
1150.724484,6069.688724,-7402.059420,1149.143247
1150.724813,6587.832884,-6883.915261,1991.848295
1150.725142,6735.874072,-6957.935855,1072.533697
1150.725472,6439.791695,-6513.812290,1225.752797
1150.725801,6513.812290,-6513.812290,1225.752797
1150.726130,6735.874072,-6957.935855,1455.581446
1150.726459,6957.935855,-5921.647536,612.876398
1150.726789,6957.935855,-6513.812290,766.095498
1150.727118,6661.853478,-6365.771101,0.000000
1150.727447,6439.791695,-6735.874072,306.438199
1150.727776,6587.832884,-7624.121203,689.485948
1150.728106,7105.977043,-6883.915261,383.047749
1150.728435,7105.977043,-7254.018232,459.657299
1150.728764,6809.894666,-7105.977043,1149.143247
1150.729093,6661.853478,-7179.997637,612.876398
1150.729422,7254.018232,-7105.977043,842.705048
1150.729752,7031.956449,-6735.874072,689.485948
1150.730081,6957.935855,-6883.915261,1225.752797
1150.730410,7179.997637,-5699.585753,1532.190996
1150.730739,7328.038826,-5699.585753,1378.971896
1150.731069,6957.935855,-5033.400406,1838.629195
1150.731398,6957.935855,-5699.585753,1532.190996
1150.731727,7328.038826,-6069.688724,1532.190996
1150.732056,7476.080014,-5921.647536,1225.752797
1150.732386,7105.977043,-6143.709319,1302.362347
1150.732715,6513.812290,-6291.750507,306.438199
1150.733044,6143.709319,-7179.997637,1149.143247
1150.733373,6661.853478,-7624.121203,459.657299
1150.733702,6957.935855,-6957.935855,612.876398
1150.734032,7254.018232,-7031.956449,383.047749
1150.734361,6809.894666,-7031.956449,689.485948
1150.734690,6957.935855,-7254.018232,919.314598
1150.735019,7179.997637,-6439.791695,919.314598
1150.735349,7476.080014,-5847.626942,995.924147
1150.735678,7328.038826,-5921.647536,1302.362347
1150.736007,7328.038826,-5847.626942,1149.143247
1150.736336,7179.997637,-6365.771101,1532.190996
1150.736666,7254.018232,-5995.668130,1302.362347
1150.736995,7550.100608,-6217.729913,689.485948
1150.737324,7105.977043,-6069.688724,1532.190996
1150.737653,7031.956449,-6069.688724,1532.190996
1150.737982,7031.956449,-6735.874072,1225.752797
1150.738312,7105.977043,-6143.709319,1302.362347
1150.738641,7031.956449,-6291.750507,1378.971896
1150.738970,6735.874072,-6439.791695,1225.752797
1150.739299,6661.853478,-6217.729913,1225.752797
1150.739629,6661.853478,-6957.935855,1149.143247
1150.739958,6809.894666,-7031.956449,1302.362347
1150.740287,6439.791695,-7031.956449,689.485948
1150.740616,6661.853478,-6883.915261,536.266849
1150.740945,6439.791695,-7031.956449,459.657299
1150.741275,6291.750507,-7994.224174,306.438199
1150.741604,6365.771101,-7328.038826,689.485948
1150.741933,6735.874072,-7624.121203,766.095498
1150.742262,7402.059420,-7402.059420,842.705048
1150.742592,7476.080014,-7031.956449,1072.533697
1150.742921,6883.915261,-7105.977043,1225.752797
1150.743250,6439.791695,-6735.874072,306.438199
1150.743579,6587.832884,-6883.915261,995.924147
1150.743909,6883.915261,-5921.647536,1532.190996
1150.744238,6883.915261,-5625.565159,1072.533697
1150.744567,7031.956449,-4959.379811,1302.362347
1150.744896,7105.977043,-5551.544565,1378.971896
1150.745225,6809.894666,-6365.771101,1608.800546
1150.745555,6809.894666,-5551.544565,1378.971896
1150.745884,7105.977043,-5921.647536,766.095498
1150.746213,7105.977043,-7031.956449,689.485948
1150.746542,6883.915261,-7624.121203,612.876398
1150.746872,6883.915261,-8068.244768,766.095498
1150.747201,7031.956449,-7698.141797,536.266849
1150.747530,7402.059420,-7624.121203,995.924147
1150.747859,7402.059420,-7402.059420,1072.533697
1150.748189,7476.080014,-6809.894666,1072.533697
1150.748518,7179.997637,-5847.626942,612.876398
1150.748847,7031.956449,-5329.482782,689.485948
1150.749176,7105.977043,-5107.421000,229.828649
1150.749505,7698.141797,-4959.379811,995.924147
1150.749835,7994.224174,-4737.318029,995.924147
1150.750164,8068.244768,-5477.523971,1378.971896
1150.750493,7476.080014,-5995.668130,1455.581446
1150.750822,6957.935855,-6661.853478,1455.581446
1150.751152,6883.915261,-7031.956449,842.705048
1150.751481,7031.956449,-6957.935855,1225.752797
1150.751810,6735.874072,-7698.141797,1608.800546
1150.752139,6661.853478,-7402.059420,1378.971896
1150.752469,6439.791695,-7105.977043,229.828649
1150.752798,6439.791695,-6883.915261,1072.533697
1150.753127,6365.771101,-6587.832884,995.924147
1150.753456,6735.874072,-6291.750507,842.705048
1150.753785,6587.832884,-6735.874072,383.047749
1150.754115,6439.791695,-5921.647536,153.219100
1150.754444,6513.812290,-6735.874072,383.047749
1150.754773,7105.977043,-6513.812290,612.876398
1150.755102,7179.997637,-7402.059420,1072.533697
1150.755432,7254.018232,-7328.038826,1072.533697
1150.755761,6735.874072,-7550.100608,766.095498
1150.756090,6513.812290,-7402.059420,689.485948
1150.756419,6513.812290,-7698.141797,995.924147
1150.756749,7328.038826,-7994.224174,1762.019645
1150.757078,7402.059420,-6291.750507,1838.629195
1150.757407,7254.018232,-5625.565159,2068.457845
1150.757736,7179.997637,-5551.544565,1608.800546
1150.758065,7402.059420,-5255.462188,1455.581446
1150.758395,7254.018232,-4737.318029,1378.971896
1150.758724,7254.018232,-4737.318029,1455.581446
1150.759053,7105.977043,-5107.421000,1302.362347
1150.759382,6883.915261,-5921.647536,919.314598
1150.759712,7105.977043,-6513.812290,689.485948
1150.760041,7105.977043,-6957.935855,536.266849
1150.760370,7031.956449,-7105.977043,536.266849
1150.760699,6883.915261,-7920.203579,229.828649
1150.761029,6735.874072,-7920.203579,153.219100
1150.761358,6587.832884,-7476.080014,689.485948
1150.761687,6957.935855,-7105.977043,995.924147
1150.762016,7105.977043,-6513.812290,842.705048
1150.762346,6809.894666,-6661.853478,1072.533697
1150.762675,6661.853478,-6069.688724,842.705048
1150.763004,6587.832884,-5477.523971,1225.752797
1150.763333,7105.977043,-5773.606348,919.314598
1150.763663,7105.977043,-5625.565159,995.924147
1150.763992,7105.977043,-6513.812290,1685.410096
1150.764321,7624.121203,-5995.668130,1072.533697
1150.764650,7105.977043,-6069.688724,1302.362347
1150.764980,7179.997637,-6217.729913,995.924147
1150.765309,7328.038826,-6291.750507,995.924147
1150.765638,7402.059420,-6883.915261,1149.143247
1150.765967,7550.100608,-6809.894666,995.924147
1150.766297,6883.915261,-6883.915261,612.876398
1150.766626,6291.750507,-7105.977043,1072.533697
1150.766955,6513.812290,-7254.018232,766.095498
1150.767284,6587.832884,-6809.894666,1072.533697
1150.767613,6143.709319,-7031.956449,766.095498
1150.767943,6217.729913,-6661.853478,306.438199
1150.768272,6587.832884,-7031.956449,612.876398
1150.768601,7105.977043,-7179.997637,919.314598
1150.768930,7550.100608,-6735.874072,766.095498
1150.769260,7254.018232,-6587.832884,1072.533697
1150.769589,6809.894666,-7698.141797,1302.362347
1150.769918,7105.977043,-7402.059420,919.314598
1150.770247,7624.121203,-6957.935855,1455.581446
1150.770577,7105.977043,-6513.812290,1608.800546
1150.770906,6957.935855,-5403.503377,1149.143247
1150.771235,6735.874072,-5403.503377,1378.971896
1150.771564,6809.894666,-5773.606348,1455.581446
1150.771894,6957.935855,-5477.523971,1838.629195
1150.772223,6291.750507,-5477.523971,1302.362347
1150.772552,6661.853478,-5995.668130,919.314598
1150.772881,6587.832884,-6809.894666,1225.752797
1150.773211,6587.832884,-6883.915261,689.485948
1150.773540,6957.935855,-7476.080014,689.485948
1150.773869,7179.997637,-7031.956449,689.485948
1150.774198,7328.038826,-6809.894666,995.924147
1150.774528,7920.203579,-6883.915261,995.924147
1150.774857,8142.265362,-6513.812290,1302.362347
1150.775186,7476.080014,-6735.874072,995.924147
1150.775515,7031.956449,-6513.812290,536.266849
1150.775845,6439.791695,-5921.647536,383.047749
1150.776174,6587.832884,-5403.503377,459.657299
1150.776503,6809.894666,-5477.523971,1225.752797
1150.776832,7476.080014,-6069.688724,1685.410096
1150.777161,7624.121203,-6587.832884,1838.629195
1150.777491,7402.059420,-6143.709319,1378.971896
1150.777820,7031.956449,-5773.606348,1072.533697
1150.778149,7105.977043,-6069.688724,1072.533697
1150.778478,7105.977043,-6883.915261,1685.410096
1150.778808,7254.018232,-6809.894666,1532.190996
1150.779137,6883.915261,-6217.729913,1302.362347
1150.779466,7105.977043,-6143.709319,536.266849
1150.779795,6513.812290,-6883.915261,536.266849
1150.780125,6439.791695,-7476.080014,842.705048
1150.780454,6143.709319,-7105.977043,306.438199
1150.780783,5477.523971,-6069.688724,383.047749
1150.781112,6069.688724,-6883.915261,76.609550
1150.781442,6661.853478,-7105.977043,536.266849
1150.781771,7179.997637,-7402.059420,842.705048
1150.782100,7772.162391,-7179.997637,842.705048
1150.782429,7698.141797,-6957.935855,1149.143247
1150.782759,7476.080014,-6883.915261,1072.533697
1150.783088,7105.977043,-7402.059420,1072.533697
1150.783417,7105.977043,-7254.018232,1225.752797
1150.783746,6809.894666,-6809.894666,1532.190996
1150.784076,7031.956449,-6587.832884,1302.362347
1150.784405,6661.853478,-6513.812290,1378.971896
1150.784734,6735.874072,-6069.688724,1532.190996
1150.785063,6957.935855,-5699.585753,919.314598
1150.785393,7105.977043,-5625.565159,2145.067394
1150.785722,7105.977043,-5847.626942,1302.362347
1150.786051,7031.956449,-5995.668130,1149.143247
1150.786380,7105.977043,-6069.688724,842.705048
1150.786710,7328.038826,-6439.791695,459.657299
1150.787039,6957.935855,-6661.853478,612.876398
1150.787368,7031.956449,-7254.018232,842.705048
1150.787697,6883.915261,-7254.018232,919.314598
1150.788026,7254.018232,-7105.977043,1149.143247
1150.788356,7254.018232,-6883.915261,459.657299
1150.788685,6883.915261,-7179.997637,995.924147
1150.789014,6735.874072,-7031.956449,1378.971896
1150.789343,6661.853478,-6661.853478,612.876398
1150.789673,6365.771101,-6439.791695,919.314598
1150.790002,6735.874072,-6809.894666,919.314598
1150.790331,6735.874072,-6069.688724,995.924147
1150.790660,7031.956449,-5625.565159,1378.971896
1150.790990,7328.038826,-5773.606348,1225.752797
1150.791319,7476.080014,-5551.544565,1838.629195
1150.791648,7846.182985,-5995.668130,2068.457845
1150.791977,7698.141797,-5921.647536,1302.362347
1150.792307,7105.977043,-5699.585753,1302.362347
1150.792636,7328.038826,-6217.729913,1532.190996
1150.792965,7179.997637,-6661.853478,1225.752797
1150.793294,7031.956449,-7254.018232,1225.752797
1150.793624,6291.750507,-7179.997637,842.705048
1150.793953,5921.647536,-6735.874072,0.000000
1150.794282,5699.585753,-7624.121203,229.828649
1150.794611,6365.771101,-7846.182985,459.657299
1150.794941,6291.750507,-7105.977043,0.000000
1150.795270,6587.832884,-6661.853478,0.000000
1150.795599,6439.791695,-6809.894666,459.657299
1150.795928,6883.915261,-7105.977043,612.876398
1150.796258,7550.100608,-7179.997637,1302.362347
1150.796587,7550.100608,-6735.874072,1302.362347
1150.796916,7328.038826,-6143.709319,1225.752797
1150.797245,6513.812290,-5921.647536,1302.362347
1150.797575,6809.894666,-5995.668130,1608.800546
1150.797904,7105.977043,-6143.709319,1455.581446
1150.798233,7105.977043,-6291.750507,1762.019645
1150.798562,7031.956449,-5921.647536,1455.581446
1150.798891,6513.812290,-5699.585753,919.314598
1150.799221,6883.915261,-6513.812290,1762.019645
1150.799550,6439.791695,-6365.771101,612.876398
1150.799879,6291.750507,-7328.038826,612.876398
1150.800208,6661.853478,-7105.977043,306.438199
1150.800538,7105.977043,-6809.894666,689.485948
1150.800867,7254.018232,-6883.915261,842.705048
1150.801196,7698.141797,-7105.977043,612.876398
1150.801525,7920.203579,-6883.915261,1149.143247
1150.801855,7846.182985,-6217.729913,1072.533697
1150.802184,7476.080014,-5033.400406,612.876398
1150.802513,7402.059420,-5847.626942,919.314598
1150.802842,7624.121203,-6069.688724,1072.533697
1150.803172,7328.038826,-6291.750507,1225.752797
1150.803501,7328.038826,-6069.688724,1378.971896
1150.803830,7105.977043,-6069.688724,1072.533697
1150.804159,6587.832884,-6513.812290,919.314598
1150.804489,6143.709319,-6957.935855,1225.752797
1150.804818,6365.771101,-7031.956449,689.485948
1150.805147,6809.894666,-6883.915261,612.876398
1150.805476,6883.915261,-7031.956449,1149.143247
1150.805806,6957.935855,-6883.915261,1225.752797
1150.806135,6735.874072,-6513.812290,689.485948
1150.806464,6587.832884,-6735.874072,995.924147
1150.806793,6735.874072,-7179.997637,766.095498
1150.807123,6661.853478,-6809.894666,842.705048
1150.807452,6513.812290,-6513.812290,306.438199
1150.807781,6735.874072,-6735.874072,383.047749
1150.808110,7550.100608,-7105.977043,689.485948
1150.808440,7179.997637,-7031.956449,919.314598
1150.808769,7031.956449,-6809.894666,689.485948
1150.809098,7105.977043,-6365.771101,842.705048
1150.809427,7105.977043,-7031.956449,536.266849
1150.809756,6513.812290,-6661.853478,1532.190996
1150.810086,6883.915261,-6883.915261,1302.362347
1150.810415,7105.977043,-6217.729913,1302.362347
1150.810744,7179.997637,-5625.565159,1149.143247
1150.811073,7105.977043,-5995.668130,1685.410096
1150.811403,7179.997637,-6291.750507,1532.190996
1150.811732,7402.059420,-6365.771101,1685.410096
1150.812061,6809.894666,-5551.544565,1685.410096
1150.812390,7105.977043,-5403.503377,1149.143247
1150.812720,7179.997637,-6069.688724,1302.362347
1150.813049,6957.935855,-6809.894666,842.705048
1150.813378,6957.935855,-7105.977043,919.314598
1150.813707,7105.977043,-6957.935855,536.266849
1150.814037,7328.038826,-6809.894666,383.047749
1150.814366,7105.977043,-7402.059420,612.876398
1150.814695,7105.977043,-7254.018232,1149.143247
1150.815024,7105.977043,-6957.935855,766.095498
1150.815354,6957.935855,-6513.812290,612.876398
1150.815683,6513.812290,-6291.750507,153.219100
1150.816012,6809.894666,-6217.729913,842.705048
1150.816341,7105.977043,-6217.729913,919.314598
1150.816671,6809.894666,-5995.668130,1302.362347
1150.817000,7031.956449,-6291.750507,1608.800546
1150.817329,7328.038826,-6217.729913,2451.505594
1150.817658,7550.100608,-5995.668130,1685.410096
1150.817988,7476.080014,-6069.688724,1532.190996
1150.818317,6957.935855,-6069.688724,1532.190996
1150.818646,7105.977043,-6957.935855,1532.190996
1150.818975,7328.038826,-6439.791695,1608.800546
1150.819305,7105.977043,-6291.750507,1225.752797
1150.819634,6735.874072,-6587.832884,766.095498
1150.819963,6365.771101,-6957.935855,689.485948
1150.820292,6069.688724,-7179.997637,689.485948
1150.820621,6217.729913,-7105.977043,459.657299
1150.820951,6217.729913,-7031.956449,612.876398
1150.821280,6291.750507,-7105.977043,459.657299
1150.821609,6735.874072,-6661.853478,536.266849
1150.821938,7179.997637,-7179.997637,1072.533697
1150.822268,7402.059420,-6883.915261,1149.143247
1150.822597,7402.059420,-6883.915261,995.924147
1150.822926,7031.956449,-6809.894666,1532.190996
1150.823255,6957.935855,-6809.894666,919.314598
1150.823585,6587.832884,-6809.894666,689.485948
1150.823914,6661.853478,-7105.977043,1149.143247
1150.824243,6587.832884,-6883.915261,1378.971896
1150.824572,6809.894666,-6217.729913,1225.752797
1150.824902,7105.977043,-5847.626942,766.095498
1150.825231,7031.956449,-5699.585753,919.314598
1150.825560,6809.894666,-6143.709319,1608.800546
1150.825889,7031.956449,-6439.791695,1225.752797
1150.826219,7698.141797,-6291.750507,1455.581446
1150.826548,7105.977043,-6143.709319,919.314598
1150.826877,7105.977043,-6217.729913,1072.533697
1150.827206,7328.038826,-6587.832884,995.924147
1150.827536,7698.141797,-6661.853478,1072.533697
1150.827865,7846.182985,-6291.750507,1302.362347
1150.828194,7328.038826,-6069.688724,995.924147
1150.828523,7328.038826,-5995.668130,612.876398
1150.828853,6439.791695,-6291.750507,612.876398
1150.829182,6735.874072,-6143.709319,76.609550
1150.829511,7328.038826,-6069.688724,919.314598
1150.829840,7920.203579,-5847.626942,1532.190996
1150.830169,7624.121203,-5921.647536,1378.971896
1150.830499,7105.977043,-6143.709319,995.924147
1150.830828,7105.977043,-6513.812290,1532.190996
1150.831157,6661.853478,-6883.915261,1225.752797
1150.831486,7105.977043,-6809.894666,1455.581446
1150.831816,7105.977043,-6587.832884,1149.143247
1150.832145,6735.874072,-6143.709319,383.047749
1150.832474,6661.853478,-6513.812290,1532.190996
1150.832803,6661.853478,-7105.977043,1225.752797
1150.833133,6587.832884,-7105.977043,919.314598
1150.833462,6069.688724,-6883.915261,306.438199
1150.833791,5625.565159,-7105.977043,612.876398
1150.834120,5847.626942,-7105.977043,0.000000
1150.834450,6291.750507,-7550.100608,689.485948
1150.834779,6809.894666,-7328.038826,919.314598
1150.835108,7105.977043,-7179.997637,919.314598
1150.835437,7328.038826,-6587.832884,1685.410096
1150.835767,7179.997637,-6735.874072,1149.143247
1150.836096,7105.977043,-6957.935855,1149.143247
1150.836425,7105.977043,-6957.935855,1149.143247
1150.836754,7698.141797,-6439.791695,1532.190996
1150.837084,7550.100608,-5699.585753,1532.190996
1150.837413,7476.080014,-5847.626942,1378.971896
1150.837742,7105.977043,-6439.791695,1455.581446
1150.838071,7031.956449,-6217.729913,1608.800546
1150.838401,6883.915261,-5773.606348,995.924147
1150.838730,7031.956449,-5625.565159,1149.143247
1150.839059,7105.977043,-5921.647536,995.924147
1150.839388,7031.956449,-6587.832884,919.314598
1150.839718,6513.812290,-6661.853478,612.876398
1150.840047,7031.956449,-6809.894666,383.047749
1150.840376,7105.977043,-6661.853478,766.095498
1150.840705,7105.977043,-6735.874072,842.705048
1150.841034,7031.956449,-6957.935855,919.314598
1150.841364,7254.018232,-6217.729913,1455.581446
1150.841693,7550.100608,-6143.709319,1455.581446
1150.842022,7328.038826,-6217.729913,919.314598
1150.842351,7105.977043,-6365.771101,1072.533697
1150.842681,6513.812290,-6291.750507,1072.533697
1150.843010,6735.874072,-5773.606348,1532.190996
1150.843339,6883.915261,-6587.832884,1455.581446
1150.843668,6957.935855,-6365.771101,1455.581446
1150.843998,6809.894666,-6291.750507,1149.143247
1150.844327,6809.894666,-5921.647536,1302.362347
1150.844656,7105.977043,-6217.729913,1302.362347
1150.844985,7179.997637,-6365.771101,1225.752797
1150.845315,7328.038826,-6217.729913,1455.581446
1150.845644,6957.935855,-6217.729913,1149.143247
1150.845973,7105.977043,-6365.771101,459.657299
1150.846302,6439.791695,-6661.853478,919.314598
1150.846632,6735.874072,-7254.018232,919.314598
1150.846961,6735.874072,-7254.018232,1072.533697
1150.847290,6513.812290,-7105.977043,383.047749
1150.847619,6513.812290,-6883.915261,536.266849
1150.847949,6513.812290,-7254.018232,689.485948
1150.848278,6957.935855,-7550.100608,536.266849
1150.848607,6735.874072,-7254.018232,612.876398
1150.848936,6217.729913,-7031.956449,153.219100
1150.849266,6513.812290,-7105.977043,842.705048
1150.849595,6883.915261,-7105.977043,612.876398
1150.849924,6809.894666,-7179.997637,1149.143247
1150.850253,6883.915261,-6513.812290,995.924147
1150.850583,7476.080014,-5995.668130,1225.752797
1150.850912,7254.018232,-5773.606348,2068.457845
1150.851241,7550.100608,-5773.606348,1838.629195
1150.851570,7476.080014,-5773.606348,1762.019645
1150.851899,7550.100608,-5921.647536,1302.362347
1150.852229,7105.977043,-6143.709319,1302.362347
1150.852558,6661.853478,-6217.729913,1072.533697
1150.852887,6883.915261,-6587.832884,919.314598
1150.853216,6587.832884,-6291.750507,766.095498
1150.853546,6513.812290,-6957.935855,1149.143247
1150.853875,7254.018232,-6661.853478,919.314598
1150.854204,7476.080014,-6587.832884,1225.752797
1150.854533,7624.121203,-6069.688724,842.705048
1150.854863,7179.997637,-5847.626942,1149.143247
1150.855192,7328.038826,-5921.647536,1302.362347
1150.855521,7402.059420,-6217.729913,995.924147
1150.855850,7328.038826,-6217.729913,919.314598
1150.856180,7476.080014,-5699.585753,1225.752797
1150.856509,7328.038826,-5551.544565,766.095498
1150.856838,6957.935855,-6661.853478,1149.143247
1150.857167,6809.894666,-6809.894666,1302.362347
1150.857497,6883.915261,-7031.956449,1302.362347
1150.857826,6661.853478,-6735.874072,1149.143247
1150.858155,6809.894666,-6883.915261,842.705048
1150.858484,6735.874072,-7031.956449,919.314598
1150.858814,6809.894666,-7105.977043,1455.581446
1150.859143,6439.791695,-7105.977043,1225.752797
1150.859472,6365.771101,-6513.812290,1302.362347
1150.859801,6513.812290,-6217.729913,459.657299
1150.860131,6513.812290,-6587.832884,536.266849
1150.860460,6957.935855,-6661.853478,689.485948
1150.860789,6735.874072,-7105.977043,612.876398
1150.861119,6587.832884,-7105.977043,459.657299
1150.861448,6809.894666,-6661.853478,612.876398
1150.861777,7402.059420,-7105.977043,842.705048
1150.862107,7846.182985,-7031.956449,1225.752797
1150.862436,7328.038826,-7105.977043,842.705048
1150.862765,7179.997637,-6957.935855,689.485948
1150.863095,6809.894666,-7105.977043,766.095498
1150.863424,6809.894666,-6957.935855,1149.143247
1150.863753,7031.956449,-6365.771101,1302.362347
1150.864083,6957.935855,-6069.688724,1685.410096
1150.864412,7031.956449,-6069.688724,1072.533697
1150.864741,6809.894666,-5995.668130,1455.581446
1150.865070,7328.038826,-5773.606348,1455.581446
1150.865400,7476.080014,-5329.482782,1225.752797
1150.865729,7105.977043,-5033.400406,1225.752797
1150.866058,6661.853478,-6069.688724,612.876398
1150.866388,6735.874072,-6513.812290,612.876398
1150.866717,7105.977043,-7179.997637,1149.143247
1150.867046,7624.121203,-6661.853478,76.609550
1150.867376,7105.977043,-7105.977043,459.657299
1150.867705,6735.874072,-7254.018232,612.876398
1150.868034,6809.894666,-7550.100608,766.095498
1150.868364,6957.935855,-7031.956449,842.705048
1150.868693,7031.956449,-5995.668130,1072.533697
1150.869022,7105.977043,-6365.771101,842.705048
1150.869352,7031.956449,-5699.585753,842.705048
1150.869681,7105.977043,-6513.812290,995.924147
1150.870010,7105.977043,-6291.750507,1225.752797
1150.870340,7698.141797,-5403.503377,1302.362347
1150.870669,7772.162391,-5477.523971,1991.848295
1150.870998,7994.224174,-5847.626942,1838.629195
1150.871328,7550.100608,-5847.626942,1762.019645
1150.871657,7105.977043,-5773.606348,1455.581446
1150.871986,7179.997637,-6735.874072,1378.971896
1150.872316,6809.894666,-6957.935855,842.705048
1150.872645,6513.812290,-6957.935855,1072.533697
1150.872974,6217.729913,-6883.915261,536.266849
1150.873304,5847.626942,-7846.182985,1225.752797
1150.873633,5921.647536,-7920.203579,766.095498
1150.873962,6365.771101,-7105.977043,306.438199
1150.874292,6143.709319,-6957.935855,383.047749
1150.874621,6291.750507,-6883.915261,229.828649
1150.874950,6809.894666,-6883.915261,919.314598
1150.875280,6735.874072,-7772.162391,919.314598
1150.875609,7105.977043,-6809.894666,919.314598
1150.875938,7550.100608,-6365.771101,919.314598
1150.876268,7772.162391,-6957.935855,1302.362347
1150.876597,6883.915261,-7105.977043,1225.752797
1150.876926,6735.874072,-6883.915261,1302.362347
1150.877256,6735.874072,-6587.832884,1302.362347
1150.877585,6957.935855,-6439.791695,1302.362347
1150.877914,6809.894666,-6439.791695,1455.581446
1150.878243,6661.853478,-6439.791695,1685.410096
1150.878573,6587.832884,-5403.503377,1149.143247
1150.878902,6661.853478,-5329.482782,1225.752797
1150.879231,6661.853478,-4959.379811,1685.410096
1150.879561,7402.059420,-5773.606348,1302.362347
1150.879890,7328.038826,-5847.626942,1225.752797
1150.880219,7179.997637,-6069.688724,766.095498
1150.880549,7328.038826,-6809.894666,919.314598
1150.880878,7328.038826,-7179.997637,1532.190996
1150.881207,7476.080014,-7254.018232,1149.143247
1150.881537,7698.141797,-7031.956449,612.876398
1150.881866,7179.997637,-6439.791695,766.095498
1150.882195,6957.935855,-6735.874072,842.705048
1150.882525,7179.997637,-5995.668130,536.266849
1150.882854,7402.059420,-6217.729913,766.095498
1150.883183,7550.100608,-5995.668130,1225.752797
1150.883513,7031.956449,-5921.647536,1149.143247
1150.883842,6439.791695,-5921.647536,919.314598
1150.884171,5995.668130,-7105.977043,689.485948
1150.884501,6661.853478,-7105.977043,1072.533697
1150.884830,7105.977043,-6735.874072,1532.190996
1150.885159,7254.018232,-6587.832884,2145.067394
1150.885489,7254.018232,-7105.977043,1302.362347
1150.885818,6809.894666,-6735.874072,995.924147
1150.886147,6809.894666,-7105.977043,1378.971896
1150.886477,6809.894666,-6809.894666,995.924147
1150.886806,6439.791695,-6661.853478,1302.362347
1150.887135,6217.729913,-6883.915261,766.095498
1150.887465,6143.709319,-6883.915261,306.438199
1150.887794,6513.812290,-7179.997637,383.047749
1150.888123,7031.956449,-7105.977043,536.266849
1150.888453,7328.038826,-7105.977043,689.485948
1150.888782,7105.977043,-6957.935855,842.705048
1150.889111,6735.874072,-6513.812290,536.266849
1150.889441,6661.853478,-6809.894666,383.047749
1150.889770,6957.935855,-7031.956449,1455.581446
1150.890099,7105.977043,-7105.977043,1455.581446
1150.890429,7105.977043,-6513.812290,1532.190996
1150.890758,7105.977043,-5625.565159,1685.410096
1150.891087,7254.018232,-5773.606348,1608.800546
1150.891416,7476.080014,-5773.606348,2068.457845
1150.891746,7476.080014,-5773.606348,2068.457845
1150.892075,7402.059420,-5699.585753,1149.143247
1150.892404,6735.874072,-5329.482782,995.924147
1150.892734,5921.647536,-5995.668130,919.314598
1150.893063,6217.729913,-7105.977043,306.438199
1150.893392,6365.771101,-7476.080014,995.924147
1150.893722,7031.956449,-7402.059420,842.705048
1150.894051,7328.038826,-6883.915261,689.485948
1150.894380,7179.997637,-6883.915261,612.876398
1150.894710,7179.997637,-7402.059420,919.314598
1150.895039,7105.977043,-6513.812290,919.314598
1150.895368,6957.935855,-6439.791695,1149.143247
1150.895698,7254.018232,-5773.606348,842.705048
1150.896027,7254.018232,-5699.585753,1378.971896
1150.896356,6957.935855,-6143.709319,1302.362347
1150.896686,7105.977043,-6439.791695,1225.752797
1150.897015,7105.977043,-6439.791695,1225.752797
1150.897344,7476.080014,-6587.832884,1608.800546
1150.897674,7328.038826,-6217.729913,1149.143247
1150.898003,7179.997637,-6439.791695,1685.410096
1150.898332,7105.977043,-6587.832884,1149.143247
1150.898662,6883.915261,-6069.688724,1072.533697
1150.898991,6957.935855,-5551.544565,1072.533697
1150.899320,7105.977043,-5995.668130,919.314598
1150.899650,7179.997637,-6513.812290,1072.533697
1150.899979,7105.977043,-7105.977043,1378.971896
1150.900308,6883.915261,-6957.935855,1532.190996
1150.900638,6143.709319,-7179.997637,459.657299
1150.900967,5773.606348,-7328.038826,76.609550
1150.901296,5773.606348,-7698.141797,306.438199
1150.901626,6217.729913,-7328.038826,229.828649
1150.901955,6587.832884,-7031.956449,995.924147
1150.902284,7624.121203,-7105.977043,919.314598
1150.902614,7772.162391,-6661.853478,842.705048
1150.902943,7179.997637,-6365.771101,1149.143247
1150.903272,7254.018232,-6513.812290,1532.190996
1150.903602,7105.977043,-6439.791695,2068.457845
1150.903931,7105.977043,-5921.647536,1532.190996
1150.904260,6883.915261,-5625.565159,1302.362347
1150.904589,6883.915261,-5477.523971,1302.362347
1150.904919,7179.997637,-5477.523971,1149.143247
1150.905248,7105.977043,-6143.709319,1455.581446
1150.905577,6661.853478,-6365.771101,1149.143247
1150.905907,6661.853478,-6513.812290,842.705048
1150.906236,6957.935855,-6957.935855,612.876398
1150.906565,6661.853478,-7031.956449,1455.581446
1150.906895,6883.915261,-7846.182985,1072.533697
1150.907224,6883.915261,-6735.874072,612.876398
1150.907553,7254.018232,-6661.853478,689.485948
1150.907883,7402.059420,-7105.977043,1302.362347
1150.908212,7402.059420,-6587.832884,1149.143247
1150.908541,7105.977043,-6291.750507,612.876398
1150.908871,7179.997637,-5477.523971,842.705048
1150.909200,7105.977043,-5847.626942,536.266849
1150.909529,7698.141797,-5995.668130,1149.143247
1150.909859,7772.162391,-5625.565159,1378.971896
1150.910188,7105.977043,-5699.585753,1072.533697
1150.910517,7105.977043,-5995.668130,919.314598
1150.910847,6809.894666,-6143.709319,1532.190996
1150.911176,7550.100608,-7179.997637,1149.143247
1150.911505,7105.977043,-6661.853478,1608.800546
1150.911835,6809.894666,-6809.894666,995.924147
1150.912164,6883.915261,-6957.935855,1149.143247
1150.912493,6439.791695,-6513.812290,1608.800546
1150.912823,6735.874072,-6883.915261,919.314598
1150.913152,6809.894666,-6291.750507,1149.143247
1150.913481,6661.853478,-6291.750507,689.485948
1150.913811,6735.874072,-6809.894666,536.266849
1150.914140,6587.832884,-6217.729913,766.095498
1150.914469,6809.894666,-6809.894666,153.219100
1150.914799,7179.997637,-6439.791695,919.314598
1150.915128,7550.100608,-7179.997637,689.485948
1150.915457,7698.141797,-7254.018232,1532.190996
1150.915787,7254.018232,-7179.997637,995.924147
1150.916116,6883.915261,-7550.100608,459.657299
1150.916445,6291.750507,-7328.038826,689.485948
1150.916775,6143.709319,-7402.059420,995.924147
1150.917104,6661.853478,-6809.894666,1072.533697
1150.917433,6883.915261,-6587.832884,1608.800546
1150.917762,6809.894666,-5773.606348,1532.190996
1150.918092,7031.956449,-5847.626942,1455.581446
1150.918421,7105.977043,-5477.523971,1762.019645
1150.918750,6883.915261,-4737.318029,995.924147
1150.919080,7105.977043,-5181.441594,995.924147
1150.919409,7328.038826,-5699.585753,919.314598
1150.919738,7105.977043,-6513.812290,842.705048
1150.920068,7254.018232,-7105.977043,459.657299
1150.920397,7328.038826,-7105.977043,689.485948
1150.920726,7254.018232,-7402.059420,612.876398
1150.921056,7031.956449,-7772.162391,995.924147
1150.921385,7105.977043,-7772.162391,995.924147
1150.921714,7328.038826,-6587.832884,842.705048
1150.922044,6883.915261,-6587.832884,612.876398
1150.922373,6587.832884,-6439.791695,995.924147
1150.922702,6809.894666,-6143.709319,1225.752797
1150.923032,7105.977043,-5921.647536,1378.971896
1150.923361,7105.977043,-5699.585753,1225.752797
1150.923690,7105.977043,-5773.606348,1455.581446
1150.924020,7254.018232,-5477.523971,1838.629195
1150.924349,7550.100608,-6143.709319,1532.190996
1150.924678,7254.018232,-6291.750507,1532.190996
1150.925008,6883.915261,-6513.812290,1225.752797
1150.925337,6365.771101,-6957.935855,1225.752797
1150.925666,6661.853478,-7105.977043,919.314598
1150.925996,6513.812290,-7476.080014,1532.190996
1150.926325,6883.915261,-7550.100608,1149.143247
1150.926654,6735.874072,-7105.977043,1149.143247
1150.926984,6365.771101,-6957.935855,766.095498
1150.927313,6217.729913,-7179.997637,383.047749
1150.927642,6513.812290,-6661.853478,459.657299
1150.927972,6439.791695,-6587.832884,459.657299
1150.928301,7031.956449,-6809.894666,919.314598
1150.928630,7254.018232,-6587.832884,766.095498
1150.928960,7624.121203,-6513.812290,995.924147
1150.929289,7254.018232,-6587.832884,1072.533697
1150.929618,7328.038826,-6957.935855,1072.533697
1150.929948,7105.977043,-7105.977043,1302.362347
1150.930277,7031.956449,-7254.018232,1072.533697
1150.930606,7031.956449,-6439.791695,612.876398
1150.930935,6957.935855,-7031.956449,1302.362347
1150.931265,7105.977043,-6217.729913,1455.581446
1150.931594,7105.977043,-6217.729913,1225.752797
1150.931923,7254.018232,-5773.606348,995.924147
1150.932253,6587.832884,-5699.585753,1532.190996
1150.932582,6809.894666,-5995.668130,1149.143247
1150.932911,6883.915261,-6661.853478,995.924147
1150.933241,7105.977043,-6809.894666,612.876398
1150.933570,7031.956449,-6809.894666,995.924147
1150.933899,7179.997637,-6809.894666,766.095498
1150.934229,7550.100608,-6883.915261,536.266849
1150.934558,7254.018232,-7254.018232,919.314598
1150.934887,7550.100608,-7105.977043,842.705048
1150.935217,7105.977043,-6513.812290,383.047749
1150.935546,7031.956449,-6883.915261,383.047749
1150.935875,6809.894666,-5995.668130,229.828649
1150.936205,7105.977043,-6365.771101,842.705048
1150.936534,7550.100608,-5699.585753,1225.752797
1150.936863,7476.080014,-5107.421000,1532.190996
1150.937193,7476.080014,-5477.523971,1532.190996
1150.937522,7254.018232,-5181.441594,1915.238745
1150.937851,7105.977043,-6069.688724,1685.410096
1150.938181,7179.997637,-6069.688724,2145.067394
1150.938510,7105.977043,-6365.771101,1378.971896
1150.938839,6883.915261,-6291.750507,1378.971896
1150.939169,6661.853478,-6587.832884,1378.971896
1150.939498,6883.915261,-7031.956449,919.314598
1150.939827,6809.894666,-6809.894666,1149.143247
1150.940157,6439.791695,-7476.080014,689.485948
1150.940486,6069.688724,-7179.997637,76.609550
1150.940815,6217.729913,-7179.997637,229.828649
1150.941145,6217.729913,-7698.141797,1225.752797
1150.941474,6883.915261,-6513.812290,612.876398
1150.941803,7105.977043,-7328.038826,995.924147
1150.942133,7105.977043,-6809.894666,995.924147
1150.942462,6957.935855,-6439.791695,1072.533697
1150.942791,7031.956449,-6587.832884,995.924147
1150.943121,6809.894666,-6587.832884,995.924147
1150.943450,7105.977043,-6587.832884,1378.971896
1150.943779,7624.121203,-6143.709319,1762.019645
1150.944108,7698.141797,-6439.791695,2298.286494
1150.944438,7476.080014,-5107.421000,1225.752797
1150.944767,7328.038826,-5699.585753,1225.752797
1150.945096,7254.018232,-5921.647536,1302.362347
1150.945426,6883.915261,-6365.771101,1455.581446
1150.945755,6661.853478,-6069.688724,995.924147
1150.946084,6587.832884,-6809.894666,459.657299
1150.946414,5995.668130,-6883.915261,689.485948
1150.946743,6587.832884,-7031.956449,919.314598
1150.947072,7105.977043,-7105.977043,842.705048
1150.947402,7402.059420,-6587.832884,1072.533697
1150.947731,7105.977043,-7105.977043,459.657299
1150.948060,7179.997637,-6661.853478,842.705048
1150.948390,7550.100608,-6587.832884,612.876398
1150.948719,8068.244768,-6217.729913,919.314598
1150.949048,7846.182985,-6365.771101,1149.143247
1150.949378,7328.038826,-6735.874072,689.485948
1150.949707,6587.832884,-6883.915261,689.485948
1150.950036,6217.729913,-7031.956449,689.485948
1150.950366,6365.771101,-6883.915261,1302.362347
1150.950695,6365.771101,-6883.915261,1149.143247
1150.951024,6809.894666,-6735.874072,1532.190996
1150.951354,7402.059420,-5847.626942,1991.848295
1150.951683,6957.935855,-5329.482782,1455.581446
1150.952012,6809.894666,-5329.482782,919.314598
1150.952342,6809.894666,-5995.668130,1378.971896
1150.952671,7254.018232,-6143.709319,1225.752797
1150.953000,7105.977043,-6439.791695,1302.362347
1150.953330,7179.997637,-6291.750507,1149.143247
1150.953659,6587.832884,-6587.832884,229.828649
1150.953988,6735.874072,-6883.915261,689.485948
1150.954318,6735.874072,-7328.038826,689.485948
1150.954647,6661.853478,-7476.080014,919.314598
1150.954976,6143.709319,-7179.997637,0.000000
1150.955306,5847.626942,-7328.038826,459.657299
1150.955635,6365.771101,-7624.121203,612.876398
1150.955964,6735.874072,-7105.977043,1225.752797
1150.956294,7031.956449,-7031.956449,1149.143247
1150.956623,7105.977043,-6143.709319,1378.971896
1150.956952,7105.977043,-5995.668130,1838.629195
1150.957281,7624.121203,-5995.668130,1915.238745
1150.957611,7328.038826,-5847.626942,1762.019645
1150.957940,7772.162391,-5255.462188,2451.505594
1150.958269,7179.997637,-5625.565159,1378.971896
1150.958599,7031.956449,-6069.688724,1225.752797
1150.958924,6809.894666,-6365.771101,919.314598
1150.959254,6587.832884,-6587.832884,536.266849
1150.959583,6365.771101,-7105.977043,612.876398
1150.959912,6513.812290,-7402.059420,689.485948
1150.960242,6587.832884,-7624.121203,612.876398
1150.960571,7031.956449,-6883.915261,459.657299
1150.960900,6883.915261,-6957.935855,1302.362347
1150.961230,6957.935855,-7105.977043,1762.019645
1150.961559,7328.038826,-6661.853478,842.705048
1150.961888,7179.997637,-6365.771101,919.314598
1150.962218,7328.038826,-5551.544565,612.876398
1150.962547,7698.141797,-5107.421000,1532.190996
1150.962876,8290.306550,-5773.606348,1762.019645
1150.963206,8290.306550,-5329.482782,1762.019645
1150.963535,8142.265362,-5625.565159,1455.581446
1150.963864,7179.997637,-5477.523971,689.485948
1150.964194,6957.935855,-6365.771101,919.314598
1150.964523,6809.894666,-7105.977043,1455.581446
1150.964852,6735.874072,-7179.997637,1532.190996
1150.965182,6217.729913,-7105.977043,919.314598
1150.965511,5847.626942,-6809.894666,995.924147
1150.965840,6069.688724,-7031.956449,919.314598
1150.966169,6661.853478,-7698.141797,1225.752797
1150.966499,6735.874072,-7105.977043,995.924147
1150.966828,6143.709319,-6661.853478,306.438199
1150.967157,6735.874072,-5847.626942,0.000000
1150.967487,6883.915261,-6365.771101,306.438199
1150.967816,7105.977043,-6809.894666,766.095498
1150.968145,7105.977043,-6143.709319,1072.533697
1150.968475,7105.977043,-6291.750507,689.485948
1150.968804,7402.059420,-6809.894666,1608.800546
1150.969133,7328.038826,-7105.977043,1072.533697
1150.969463,6809.894666,-7254.018232,689.485948
1150.969792,6365.771101,-7328.038826,612.876398
1150.970121,6513.812290,-7402.059420,1302.362347
1150.970451,6883.915261,-7031.956449,1455.581446
1150.970780,7105.977043,-6587.832884,1378.971896
1150.971109,7031.956449,-5995.668130,1225.752797
1150.971439,6661.853478,-6069.688724,1455.581446
1150.971768,7476.080014,-6069.688724,1225.752797
1150.972097,7328.038826,-5625.565159,1225.752797
1150.972427,7105.977043,-5699.585753,1225.752797
1150.972756,7105.977043,-5921.647536,1225.752797
1150.973085,7105.977043,-6143.709319,1455.581446
1150.973415,7698.141797,-6809.894666,1532.190996
1150.973744,7846.182985,-6365.771101,842.705048
1150.974073,7254.018232,-7179.997637,459.657299
1150.974403,6883.915261,-7105.977043,536.266849
1150.974732,6513.812290,-7031.956449,842.705048
1150.975061,7105.977043,-7105.977043,842.705048
1150.975391,7179.997637,-6957.935855,842.705048
1150.975720,6661.853478,-6661.853478,612.876398
1150.976049,6365.771101,-5921.647536,1149.143247
1150.976379,6513.812290,-6513.812290,689.485948
1150.976708,6883.915261,-6217.729913,1072.533697
1150.977037,6809.894666,-6069.688724,1302.362347
1150.977366,6883.915261,-6513.812290,1378.971896
1150.977696,6957.935855,-5847.626942,1762.019645
1150.978025,7105.977043,-6439.791695,1838.629195
1150.978354,6957.935855,-6217.729913,1302.362347
1150.978684,6809.894666,-5921.647536,1225.752797
1150.979013,7105.977043,-6439.791695,1302.362347
1150.979342,7402.059420,-6143.709319,1532.190996
1150.979672,7179.997637,-6291.750507,1225.752797
1150.980001,6809.894666,-6217.729913,689.485948
1150.980330,6069.688724,-6661.853478,459.657299
1150.980660,6291.750507,-7031.956449,842.705048
1150.980989,6069.688724,-7402.059420,689.485948
1150.981318,5921.647536,-7402.059420,459.657299
1150.981648,6291.750507,-7328.038826,459.657299
1150.981977,6735.874072,-7254.018232,612.876398
1150.982306,7328.038826,-7105.977043,1072.533697
1150.982636,7402.059420,-7031.956449,1378.971896
1150.982965,7105.977043,-7031.956449,1302.362347
1150.983294,7105.977043,-6513.812290,1455.581446
1150.983624,7328.038826,-6661.853478,1455.581446
1150.983953,7550.100608,-6291.750507,1838.629195
1150.984282,7105.977043,-5995.668130,1838.629195
1150.984612,7550.100608,-5551.544565,1378.971896
1150.984941,6957.935855,-5551.544565,842.705048
1150.985270,7550.100608,-5921.647536,1225.752797
1150.985600,7105.977043,-5995.668130,1302.362347
1150.985929,6735.874072,-6143.709319,1072.533697
1150.986258,6217.729913,-6661.853478,842.705048
1150.986588,6439.791695,-6735.874072,919.314598
1150.986917,7031.956449,-7402.059420,995.924147
1150.987246,7328.038826,-6883.915261,1225.752797
1150.987576,7328.038826,-7254.018232,1072.533697
1150.987905,7328.038826,-7550.100608,1225.752797
1150.988234,7550.100608,-6513.812290,2298.286494
1150.988563,7105.977043,-6365.771101,842.705048
1150.988893,7179.997637,-6143.709319,689.485948
1150.989222,7031.956449,-6217.729913,995.924147
1150.989551,7105.977043,-5921.647536,919.314598
1150.989881,7179.997637,-5625.565159,1225.752797
1150.990210,7550.100608,-5477.523971,1225.752797
1150.990539,7402.059420,-5921.647536,1302.362347
1150.990869,7179.997637,-5625.565159,1378.971896
1150.991198,7179.997637,-6661.853478,1378.971896
1150.991527,6809.894666,-6291.750507,1302.362347
1150.991857,6883.915261,-6735.874072,1302.362347
1150.992186,7105.977043,-6735.874072,1455.581446
1150.992515,7105.977043,-6661.853478,1302.362347
1150.992845,6883.915261,-6883.915261,1072.533697
1150.993174,6439.791695,-7105.977043,919.314598
1150.993503,6661.853478,-7328.038826,766.095498
1150.993833,6513.812290,-7772.162391,459.657299
1150.994162,5921.647536,-7105.977043,229.828649
1150.994491,6365.771101,-6957.935855,229.828649
1150.994821,6809.894666,-7328.038826,689.485948
1150.995150,7105.977043,-7254.018232,1072.533697
1150.995479,7328.038826,-6883.915261,1072.533697
1150.995809,7328.038826,-6365.771101,229.828649
1150.996138,7105.977043,-6735.874072,536.266849
1150.996467,7105.977043,-7105.977043,1149.143247
1150.996797,6957.935855,-7105.977043,1225.752797
1150.997126,7179.997637,-6957.935855,1532.190996
1150.997455,7031.956449,-6069.688724,1608.800546
1150.997785,7179.997637,-5995.668130,1685.410096
1150.998114,7105.977043,-6513.812290,1608.800546
1150.998443,6957.935855,-6365.771101,1302.362347
1150.998773,6883.915261,-5921.647536,1762.019645
1150.999102,6809.894666,-5847.626942,1149.143247
1150.999431,7105.977043,-6217.729913,919.314598
1150.999760,7105.977043,-6291.750507,995.924147
1151.000090,7179.997637,-6291.750507,1072.533697
1151.000419,7624.121203,-6883.915261,689.485948
1151.000748,7402.059420,-6661.853478,612.876398
1151.001078,7105.977043,-6439.791695,612.876398
1151.001407,7105.977043,-6587.832884,842.705048
1151.001736,7254.018232,-6291.750507,1072.533697
1151.002066,6883.915261,-7031.956449,919.314598
1151.002395,7105.977043,-6809.894666,995.924147
1151.002724,6957.935855,-6513.812290,1149.143247
1151.003054,6735.874072,-7105.977043,1225.752797
1151.003383,6587.832884,-6365.771101,1302.362347
1151.003712,6439.791695,-6957.935855,919.314598
1151.004042,6809.894666,-6957.935855,1225.752797
1151.004371,6883.915261,-5921.647536,1455.581446
1151.004700,7105.977043,-6365.771101,1762.019645
1151.005030,7402.059420,-5995.668130,1455.581446
1151.005359,6809.894666,-5773.606348,1378.971896
1151.005688,6661.853478,-5847.626942,919.314598
1151.006018,7031.956449,-6439.791695,995.924147
1151.006347,7105.977043,-6661.853478,1608.800546
1151.006676,7328.038826,-6957.935855,919.314598
1151.007006,6661.853478,-6735.874072,766.095498
1151.007335,6217.729913,-7254.018232,536.266849
1151.007664,5921.647536,-8364.327145,766.095498
1151.007994,5551.544565,-8216.285956,536.266849
1151.008323,6069.688724,-7402.059420,612.876398
1151.008652,6513.812290,-7105.977043,689.485948
1151.008982,7031.956449,-7105.977043,919.314598
1151.009311,7624.121203,-7328.038826,1378.971896
1151.009640,7328.038826,-6883.915261,766.095498
1151.009970,7105.977043,-5625.565159,612.876398
1151.010299,7105.977043,-5921.647536,842.705048
1151.010628,7328.038826,-5847.626942,1455.581446
1151.010957,7698.141797,-5847.626942,1455.581446
1151.011287,6661.853478,-5995.668130,0.000000
1151.011616,7105.977043,-5847.626942,1072.533697
1151.011945,7105.977043,-6217.729913,1225.752797
1151.012275,7179.997637,-6883.915261,1302.362347
1151.012604,6883.915261,-6809.894666,1762.019645
1151.012933,6513.812290,-7402.059420,766.095498
1151.013263,6365.771101,-7698.141797,919.314598
1151.013592,6439.791695,-6809.894666,612.876398
1151.013921,7105.977043,-6735.874072,1455.581446
1151.014251,7550.100608,-6513.812290,1225.752797
1151.014580,7624.121203,-6587.832884,1302.362347
1151.014909,7402.059420,-6069.688724,919.314598
1151.015239,7254.018232,-5921.647536,0.000000
1151.015568,7550.100608,-5921.647536,459.657299
1151.015897,7254.018232,-5773.606348,229.828649
1151.016227,7328.038826,-6291.750507,1149.143247
1151.016556,7772.162391,-5921.647536,1378.971896
1151.016885,7772.162391,-6513.812290,1762.019645
1151.017215,7550.100608,-5773.606348,919.314598
1151.017544,6735.874072,-6439.791695,1302.362347
1151.017873,6587.832884,-7179.997637,1302.362347
1151.018203,6735.874072,-6661.853478,1838.629195
1151.018532,6957.935855,-7031.956449,842.705048
1151.018861,6513.812290,-6439.791695,1225.752797
1151.019191,6217.729913,-6439.791695,1225.752797
1151.019520,6439.791695,-6365.771101,842.705048
1151.019849,6735.874072,-6513.812290,1225.752797
1151.020179,7031.956449,-6069.688724,306.438199
1151.020508,6513.812290,-6513.812290,229.828649
1151.020837,6365.771101,-6587.832884,153.219100
1151.021167,7031.956449,-7476.080014,842.705048
1151.021496,7105.977043,-6883.915261,383.047749
1151.021825,7105.977043,-7698.141797,612.876398
1151.022154,7179.997637,-7254.018232,919.314598
1151.022484,6957.935855,-7179.997637,919.314598
1151.022813,7031.956449,-7402.059420,919.314598
1151.023142,6661.853478,-7254.018232,1838.629195
1151.023472,6513.812290,-7105.977043,1455.581446
1151.023801,7031.956449,-6365.771101,1302.362347
1151.024130,7031.956449,-5847.626942,1378.971896
1151.024460,7254.018232,-5995.668130,1455.581446
1151.024789,6957.935855,-5625.565159,1302.362347
1151.025118,6809.894666,-5625.565159,1149.143247
1151.025448,7254.018232,-5625.565159,1302.362347
1151.025777,7402.059420,-6069.688724,1149.143247
1151.026106,7254.018232,-6291.750507,536.266849
1151.026436,7031.956449,-6809.894666,842.705048
1151.026765,6957.935855,-7105.977043,689.485948
1151.027094,7328.038826,-7254.018232,919.314598
1151.027424,6957.935855,-7254.018232,842.705048
1151.027753,6883.915261,-7179.997637,536.266849
1151.028082,7179.997637,-6809.894666,919.314598
1151.028412,7179.997637,-6439.791695,766.095498
1151.028741,6957.935855,-5995.668130,919.314598
1151.029070,7402.059420,-5847.626942,1225.752797
1151.029400,7105.977043,-5551.544565,1455.581446
1151.029729,7105.977043,-5847.626942,1455.581446
1151.030058,7254.018232,-5921.647536,1302.362347
1151.030388,7328.038826,-6291.750507,1225.752797
1151.030717,7476.080014,-6365.771101,2068.457845
1151.031046,7179.997637,-6291.750507,1378.971896
1151.031376,7105.977043,-6217.729913,842.705048
1151.031705,7105.977043,-6587.832884,1532.190996
1151.032034,7179.997637,-6587.832884,1455.581446
1151.032364,6661.853478,-6735.874072,1378.971896
1151.032693,6661.853478,-6587.832884,612.876398
1151.033022,6735.874072,-6661.853478,1149.143247
1151.033351,6513.812290,-6513.812290,1225.752797
1151.033681,6957.935855,-6883.915261,1302.362347
1151.034010,6661.853478,-6883.915261,766.095498
1151.034339,6439.791695,-7031.956449,995.924147
1151.034669,6661.853478,-7105.977043,689.485948
1151.034998,6883.915261,-7031.956449,689.485948
1151.035327,6957.935855,-7105.977043,536.266849
1151.035657,6513.812290,-7105.977043,536.266849
1151.035986,6513.812290,-7624.121203,766.095498
1151.036315,6661.853478,-7328.038826,766.095498
1151.036645,6587.832884,-6957.935855,229.828649
1151.036974,6661.853478,-6809.894666,919.314598
1151.037303,6735.874072,-6661.853478,1455.581446
1151.037633,6809.894666,-6439.791695,1532.190996
1151.037962,7031.956449,-5773.606348,1762.019645
1151.038291,7105.977043,-5625.565159,1762.019645
1151.038621,7105.977043,-5477.523971,1608.800546
1151.038950,7105.977043,-5995.668130,1378.971896
1151.039279,7031.956449,-6069.688724,1302.362347
1151.039609,6957.935855,-6587.832884,1072.533697
1151.039938,6661.853478,-6735.874072,612.876398
1151.040267,6661.853478,-7254.018232,689.485948
1151.040597,7031.956449,-7179.997637,842.705048
1151.040926,7402.059420,-7179.997637,612.876398
1151.041255,7772.162391,-7031.956449,1378.971896
1151.041585,7328.038826,-6513.812290,689.485948
1151.041914,7105.977043,-6143.709319,612.876398
1151.042243,6883.915261,-6365.771101,229.828649
1151.042573,7031.956449,-5625.565159,153.219100
1151.042902,7105.977043,-6661.853478,1072.533697
1151.043231,8068.244768,-5995.668130,1455.581446
1151.043561,7772.162391,-6513.812290,2068.457845
1151.043890,7550.100608,-5921.647536,1838.629195
1151.044219,7105.977043,-5625.565159,1608.800546
1151.044548,6809.894666,-6365.771101,919.314598
1151.044878,7031.956449,-6143.709319,1378.971896
1151.045207,7179.997637,-6661.853478,1149.143247
1151.045536,7254.018232,-6735.874072,1608.800546
1151.045866,7105.977043,-6143.709319,689.485948
1151.046195,6069.688724,-6587.832884,766.095498
1151.046524,5995.668130,-6661.853478,459.657299
1151.046854,6291.750507,-7328.038826,612.876398
1151.047183,6513.812290,-6365.771101,459.657299
1151.047512,6809.894666,-6513.812290,536.266849
1151.047842,6735.874072,-7254.018232,612.876398
1151.048171,6735.874072,-6661.853478,689.485948
1151.048500,7031.956449,-7624.121203,919.314598
1151.048830,7846.182985,-7105.977043,995.924147
1151.049159,7476.080014,-6883.915261,1378.971896
1151.049488,6883.915261,-7179.997637,842.705048
1151.049818,6587.832884,-6661.853478,1455.581446
1151.050147,6661.853478,-7179.997637,689.485948
1151.050476,6883.915261,-6143.709319,1225.752797
1151.050806,7105.977043,-6069.688724,1225.752797
1151.051135,6661.853478,-6143.709319,1225.752797
1151.051464,7031.956449,-5847.626942,1225.752797
1151.051794,7179.997637,-5773.606348,842.705048
1151.052123,7105.977043,-5921.647536,1302.362347
1151.052452,7031.956449,-6439.791695,1378.971896
1151.052782,6661.853478,-6587.832884,919.314598
1151.053111,6513.812290,-6513.812290,1149.143247
1151.053440,7105.977043,-7031.956449,919.314598
1151.053770,7550.100608,-7179.997637,766.095498
1151.054099,7402.059420,-7179.997637,995.924147
1151.054428,7031.956449,-6957.935855,612.876398
1151.054758,7105.977043,-6513.812290,536.266849
1151.055087,7105.977043,-6513.812290,536.266849
1151.055416,7402.059420,-6365.771101,842.705048
1151.055745,7328.038826,-6661.853478,689.485948
1151.056075,7328.038826,-6365.771101,766.095498
1151.056404,7402.059420,-6291.750507,383.047749
1151.056733,6809.894666,-6735.874072,1072.533697
1151.057063,6735.874072,-6513.812290,1072.533697
1151.057392,6439.791695,-6957.935855,1378.971896
1151.057721,6809.894666,-6513.812290,1225.752797
1151.058051,7105.977043,-6069.688724,1378.971896
1151.058380,7476.080014,-5995.668130,1991.848295
1151.058709,7328.038826,-5699.585753,1915.238745
1151.059039,7402.059420,-5551.544565,1455.581446
1151.059368,7105.977043,-5847.626942,1532.190996
1151.059697,6809.894666,-6513.812290,1302.362347
1151.060027,6587.832884,-6809.894666,995.924147
1151.060356,6735.874072,-6957.935855,842.705048
1151.060685,6217.729913,-7179.997637,689.485948
1151.061015,6439.791695,-7402.059420,383.047749
1151.061344,6439.791695,-8068.244768,306.438199
1151.061673,6513.812290,-7698.141797,383.047749
1151.062003,6661.853478,-7179.997637,306.438199
1151.062332,6291.750507,-7254.018232,919.314598
1151.062661,7105.977043,-6587.832884,1149.143247
1151.062991,6957.935855,-7179.997637,1072.533697
1151.063320,7105.977043,-6513.812290,1225.752797
1151.063649,7254.018232,-6217.729913,1225.752797
1151.063979,7328.038826,-5255.462188,1532.190996
1151.064308,7179.997637,-5699.585753,1838.629195
1151.064637,7624.121203,-5625.565159,1378.971896
1151.064967,7328.038826,-5625.565159,1455.581446
1151.065296,7105.977043,-6217.729913,1455.581446
1151.065625,7105.977043,-6587.832884,919.314598
1151.065955,6365.771101,-6735.874072,383.047749
1151.066284,6143.709319,-7402.059420,459.657299
1151.066613,6143.709319,-7994.224174,536.266849
1151.066943,6291.750507,-7994.224174,1378.971896
1151.067272,6513.812290,-7179.997637,459.657299
1151.067601,6661.853478,-7031.956449,766.095498
1151.067931,7031.956449,-7105.977043,1302.362347
1151.068260,7105.977043,-6587.832884,1072.533697
1151.068589,7550.100608,-5699.585753,1072.533697
1151.068919,7328.038826,-5107.421000,536.266849
1151.069248,7402.059420,-5255.462188,766.095498
1151.069577,7772.162391,-5477.523971,919.314598
1151.069907,7624.121203,-5477.523971,1685.410096
1151.070236,8216.285956,-5625.565159,1838.629195
1151.070565,7624.121203,-5699.585753,1532.190996
1151.070895,6957.935855,-6217.729913,1225.752797
1151.071224,6587.832884,-7031.956449,995.924147
1151.071553,6661.853478,-6661.853478,306.438199
1151.071883,6587.832884,-7105.977043,689.485948
1151.072212,6735.874072,-6661.853478,1455.581446
1151.072541,6365.771101,-6587.832884,1149.143247
1151.072871,6217.729913,-6809.894666,1072.533697
1151.073200,6513.812290,-6143.709319,1149.143247
1151.073529,6661.853478,-6735.874072,995.924147
1151.073859,6957.935855,-6291.750507,612.876398
1151.074188,6883.915261,-5847.626942,229.828649
1151.074517,7105.977043,-6143.709319,383.047749
1151.074847,7254.018232,-6735.874072,536.266849
1151.075176,7698.141797,-7402.059420,919.314598
1151.075505,7624.121203,-7105.977043,1072.533697
1151.075835,7328.038826,-7402.059420,766.095498
1151.076164,6957.935855,-6587.832884,306.438199
1151.076493,6069.688724,-7402.059420,689.485948
1151.076823,6365.771101,-7550.100608,1225.752797
1151.077152,6661.853478,-6661.853478,1378.971896
1151.077481,7105.977043,-5847.626942,1838.629195
1151.077811,6809.894666,-5107.421000,1532.190996
1151.078140,7031.956449,-5625.565159,1838.629195
1151.078469,7179.997637,-5773.606348,1762.019645
1151.078799,7179.997637,-5329.482782,1302.362347
1151.079128,7476.080014,-5255.462188,1608.800546
1151.079457,7105.977043,-5921.647536,995.924147
1151.079787,6957.935855,-6883.915261,766.095498
1151.080116,7031.956449,-7624.121203,842.705048
1151.080445,6957.935855,-7179.997637,612.876398
1151.080775,7105.977043,-7476.080014,612.876398
1151.081104,6957.935855,-7254.018232,766.095498
1151.081433,6883.915261,-7550.100608,536.266849
1151.081763,6661.853478,-7105.977043,842.705048
1151.082092,6587.832884,-6587.832884,919.314598
1151.082421,6957.935855,-6217.729913,689.485948
1151.082751,6883.915261,-5995.668130,1149.143247
1151.083080,6587.832884,-6365.771101,1072.533697
1151.083409,6809.894666,-5921.647536,1532.190996
1151.083739,6883.915261,-5477.523971,1685.410096
1151.084068,7402.059420,-5921.647536,1685.410096
1151.084397,7402.059420,-5699.585753,1072.533697
1151.084727,7254.018232,-6365.771101,1455.581446
1151.085056,7105.977043,-6291.750507,995.924147
1151.085385,7105.977043,-6587.832884,766.095498
1151.085715,6439.791695,-6439.791695,919.314598
1151.086044,6587.832884,-6883.915261,919.314598
1151.086373,6365.771101,-7550.100608,1302.362347
1151.086703,6883.915261,-6809.894666,1149.143247
1151.087032,6143.709319,-6735.874072,459.657299
1151.087361,5995.668130,-6661.853478,919.314598
1151.087691,6439.791695,-7254.018232,766.095498
1151.088020,6291.750507,-7031.956449,919.314598
1151.088349,6957.935855,-6661.853478,229.828649
1151.088679,6809.894666,-6661.853478,536.266849
1151.089008,7476.080014,-6661.853478,1149.143247
1151.089337,7624.121203,-7105.977043,1225.752797
1151.089667,7920.203579,-5699.585753,1302.362347
1151.089996,7179.997637,-6513.812290,842.705048
1151.090325,6957.935855,-6883.915261,919.314598
1151.090655,7031.956449,-6809.894666,1149.143247
1151.090984,7105.977043,-6809.894666,1378.971896
1151.091313,6735.874072,-6143.709319,1302.362347
1151.091643,6513.812290,-6217.729913,1149.143247
1151.091972,6365.771101,-6439.791695,1072.533697
1151.092301,7031.956449,-6143.709319,1302.362347
1151.092631,6883.915261,-6513.812290,1685.410096
1151.092960,7105.977043,-6439.791695,1225.752797
1151.093289,7031.956449,-7105.977043,995.924147
1151.093619,6809.894666,-6883.915261,689.485948
1151.093948,6809.894666,-6809.894666,919.314598
1151.094277,7179.997637,-6513.812290,919.314598
1151.094607,7476.080014,-7031.956449,919.314598
1151.094936,7624.121203,-7328.038826,1149.143247
1151.095265,7179.997637,-6883.915261,689.485948
1151.095595,7105.977043,-6513.812290,842.705048
1151.095924,7031.956449,-5181.441594,536.266849
1151.096253,7179.997637,-5551.544565,766.095498
1151.096583,7772.162391,-5551.544565,1762.019645
1151.096912,8142.265362,-5255.462188,1532.190996
1151.097241,7550.100608,-5477.523971,842.705048
1151.097571,7031.956449,-5181.441594,1072.533697
1151.097900,7105.977043,-5995.668130,1225.752797
1151.098229,7402.059420,-6809.894666,2068.457845
1151.098559,7328.038826,-6513.812290,1915.238745
1151.098888,6661.853478,-6513.812290,1378.971896
1151.099217,6439.791695,-6513.812290,919.314598
1151.099547,6439.791695,-7328.038826,766.095498
1151.099876,6513.812290,-7698.141797,766.095498
1151.100205,6365.771101,-7772.162391,536.266849
1151.100535,5847.626942,-7179.997637,0.000000
1151.100864,5699.585753,-7105.977043,0.000000
1151.101193,6069.688724,-7550.100608,536.266849
1151.101523,7105.977043,-7254.018232,612.876398
1151.101852,7254.018232,-6587.832884,689.485948
1151.102181,7105.977043,-6587.832884,1072.533697
1151.102511,7105.977043,-6291.750507,612.876398
1151.102840,7105.977043,-6809.894666,1225.752797
1151.103169,7031.956449,-6291.750507,1455.581446
1151.103499,6883.915261,-6365.771101,1455.581446
1151.103828,7254.018232,-6069.688724,1455.581446
1151.104157,7550.100608,-6217.729913,1838.629195
1151.104487,7476.080014,-6217.729913,1838.629195
1151.104816,7402.059420,-5403.503377,1072.533697
1151.105145,7105.977043,-5699.585753,842.705048
1151.105475,6513.812290,-6217.729913,1302.362347
1151.105804,6661.853478,-6439.791695,1149.143247
1151.106133,6735.874072,-6735.874072,459.657299
1151.106463,6957.935855,-6143.709319,612.876398
1151.106792,7031.956449,-6143.709319,459.657299
1151.107121,7402.059420,-6587.832884,766.095498
1151.107451,7179.997637,-6587.832884,919.314598
1151.107780,7105.977043,-6809.894666,1378.971896
1151.108109,7105.977043,-6587.832884,766.095498
1151.108439,7550.100608,-6439.791695,766.095498
1151.108768,7550.100608,-7105.977043,995.924147
1151.109098,7254.018232,-7402.059420,1225.752797
1151.109427,7476.080014,-7402.059420,1149.143247
1151.109756,6439.791695,-6365.771101,842.705048
1151.110086,6365.771101,-6735.874072,1072.533697
1151.110415,6883.915261,-6661.853478,1302.362347
1151.110744,6809.894666,-5773.606348,1072.533697
1151.111074,7031.956449,-5921.647536,919.314598
1151.111403,7105.977043,-5477.523971,1225.752797
1151.111732,7328.038826,-5329.482782,1685.410096
1151.112062,7624.121203,-5625.565159,1532.190996
1151.112391,7402.059420,-5847.626942,842.705048
1151.112720,7105.977043,-6143.709319,1302.362347
1151.113050,7105.977043,-6809.894666,766.095498
1151.113379,7179.997637,-7031.956449,1378.971896
1151.113708,6883.915261,-7254.018232,689.485948
1151.114038,6883.915261,-7476.080014,306.438199
1151.114367,5847.626942,-7920.203579,689.485948
1151.114696,5995.668130,-8068.244768,383.047749
1151.115026,6365.771101,-7624.121203,459.657299
1151.115355,6143.709319,-7031.956449,306.438199
1151.115684,6439.791695,-6513.812290,0.000000
1151.116014,6661.853478,-6587.832884,919.314598
1151.116343,7105.977043,-6809.894666,689.485948
1151.116672,7105.977043,-6735.874072,1225.752797
1151.117002,6735.874072,-5625.565159,1532.190996
1151.117331,7328.038826,-5847.626942,1225.752797
1151.117660,7179.997637,-6069.688724,1685.410096
1151.117990,7254.018232,-6439.791695,1838.629195
1151.118319,7179.997637,-6365.771101,1762.019645
1151.118648,7105.977043,-6069.688724,919.314598
1151.118978,6735.874072,-6735.874072,842.705048
1151.119307,6661.853478,-6587.832884,1072.533697
1151.119636,6587.832884,-6957.935855,995.924147
1151.119966,6587.832884,-7031.956449,459.657299
1151.120295,6365.771101,-6809.894666,383.047749
1151.120624,6957.935855,-6883.915261,919.314598
1151.120954,7105.977043,-6439.791695,995.924147
1151.121283,7328.038826,-6883.915261,1378.971896
1151.121612,7476.080014,-6143.709319,919.314598
1151.121942,7624.121203,-5773.606348,919.314598
1151.122271,7476.080014,-5995.668130,536.266849
1151.122600,7772.162391,-5625.565159,919.314598
1151.122930,7846.182985,-5921.647536,1608.800546
1151.123259,7994.224174,-5847.626942,1915.238745
1151.123588,7698.141797,-6291.750507,1532.190996
1151.123918,6883.915261,-6069.688724,1072.533697
1151.124247,6587.832884,-6439.791695,995.924147
1151.124576,6735.874072,-6883.915261,1532.190996
1151.124906,6661.853478,-6365.771101,1302.362347
1151.125235,6513.812290,-6587.832884,1149.143247
1151.125564,6291.750507,-6143.709319,919.314598
1151.125894,7179.997637,-6513.812290,1072.533697
1151.126223,7105.977043,-6513.812290,995.924147
1151.126552,6513.812290,-7031.956449,766.095498
1151.126882,6291.750507,-6883.915261,306.438199
1151.127211,6217.729913,-6809.894666,153.219100
1151.127540,6439.791695,-7031.956449,1302.362347
1151.127870,6957.935855,-7846.182985,689.485948
1151.128199,6883.915261,-7624.121203,612.876398
1151.128528,6661.853478,-7328.038826,612.876398
1151.128858,7031.956449,-7254.018232,612.876398
1151.129187,6735.874072,-7105.977043,842.705048
1151.129516,7105.977043,-7328.038826,1072.533697
1151.129846,6809.894666,-7179.997637,1072.533697
1151.130175,6439.791695,-6143.709319,842.705048
1151.130504,6143.709319,-5699.585753,1991.848295
1151.130834,7105.977043,-6217.729913,1838.629195
1151.131163,7772.162391,-5995.668130,2221.676944
1151.131492,7846.182985,-5625.565159,1455.581446
1151.131822,7402.059420,-5255.462188,1532.190996
1151.132151,7698.141797,-5921.647536,1302.362347
1151.132480,7624.121203,-5625.565159,1532.190996
1151.132810,7402.059420,-6291.750507,1302.362347
1151.133139,7031.956449,-6365.771101,766.095498
1151.133468,6957.935855,-6291.750507,1455.581446
1151.133798,7105.977043,-6809.894666,383.047749
1151.134127,7179.997637,-6883.915261,919.314598
1151.134456,7105.977043,-7179.997637,842.705048
1151.134786,6883.915261,-7105.977043,919.314598
1151.135115,7031.956449,-6513.812290,689.485948
1151.135444,6957.935855,-7031.956449,689.485948
1151.135774,6883.915261,-6069.688724,995.924147
1151.136103,6883.915261,-6587.832884,919.314598
1151.136432,6883.915261,-6217.729913,1302.362347
1151.136762,7105.977043,-6439.791695,1455.581446
1151.137091,7179.997637,-6439.791695,1302.362347
1151.137420,7031.956449,-6069.688724,1685.410096
1151.137750,6957.935855,-6439.791695,1532.190996
1151.138079,7179.997637,-5847.626942,1685.410096
1151.138408,7031.956449,-5773.606348,1302.362347
1151.138738,7105.977043,-6069.688724,1149.143247
1151.139067,7031.956449,-6217.729913,1072.533697
1151.139396,6439.791695,-6883.915261,995.924147
1151.139726,6735.874072,-6957.935855,1149.143247
1151.140055,6735.874072,-7254.018232,1072.533697
1151.140384,6439.791695,-7031.956449,842.705048
1151.140714,6365.771101,-6809.894666,689.485948
1151.141043,6735.874072,-7328.038826,1225.752797
1151.141372,7105.977043,-6883.915261,306.438199
1151.141702,6661.853478,-6957.935855,536.266849
1151.142031,6883.915261,-6735.874072,459.657299
1151.142360,6735.874072,-7105.977043,229.828649
1151.142690,7031.956449,-7105.977043,76.609550
1151.143019,7105.977043,-7179.997637,919.314598
1151.143348,6809.894666,-7105.977043,1149.143247
1151.143678,6735.874072,-7031.956449,842.705048
1151.144007,6735.874072,-6809.894666,995.924147
1151.144336,7105.977043,-6439.791695,1608.800546
1151.144666,6957.935855,-6217.729913,1302.362347
1151.144995,6809.894666,-6439.791695,1378.971896
1151.145324,7179.997637,-6217.729913,1378.971896
1151.145654,7031.956449,-6143.709319,1915.238745
1151.145983,6957.935855,-6439.791695,1072.533697
1151.146312,6587.832884,-6587.832884,766.095498
1151.146642,6587.832884,-6735.874072,842.705048
1151.146971,6735.874072,-6661.853478,766.095498
1151.147300,6883.915261,-6735.874072,995.924147
1151.147630,7105.977043,-6661.853478,919.314598
1151.147959,7920.203579,-6513.812290,1072.533697
1151.148288,7698.141797,-6217.729913,1149.143247
1151.148618,8142.265362,-5847.626942,1608.800546
1151.148947,7328.038826,-6143.709319,919.314598
1151.149276,7328.038826,-5847.626942,1072.533697
1151.149606,7179.997637,-5921.647536,766.095498
1151.149935,7476.080014,-6143.709319,1302.362347
1151.150264,7031.956449,-6661.853478,1532.190996
1151.150594,6661.853478,-6143.709319,1149.143247
1151.150923,6513.812290,-6069.688724,919.314598
1151.151252,6809.894666,-6069.688724,1072.533697
1151.151582,7105.977043,-6661.853478,1072.533697
1151.151911,6883.915261,-6587.832884,1378.971896
1151.152240,6883.915261,-6365.771101,1225.752797
1151.152570,7031.956449,-5995.668130,842.705048
1151.152899,7105.977043,-6291.750507,766.095498
1151.153228,7105.977043,-6735.874072,383.047749
1151.153558,6883.915261,-7105.977043,612.876398
1151.153887,6735.874072,-7105.977043,459.657299
1151.154216,6217.729913,-7105.977043,306.438199
1151.154546,6439.791695,-7105.977043,919.314598
1151.154875,7179.997637,-7698.141797,383.047749
1151.155204,7105.977043,-7698.141797,306.438199
1151.155534,6661.853478,-7105.977043,842.705048
1151.155863,6735.874072,-6957.935855,459.657299
1151.156192,7031.956449,-6957.935855,1302.362347
1151.156522,6809.894666,-7624.121203,1072.533697
1151.156851,7105.977043,-6883.915261,1532.190996
1151.157180,7179.997637,-6143.709319,1378.971896
1151.157510,7254.018232,-5995.668130,1838.629195
1151.157839,7328.038826,-5921.647536,1762.019645
1151.158168,7328.038826,-5551.544565,1532.190996
1151.158498,7328.038826,-5551.544565,1455.581446
1151.158827,7254.018232,-5477.523971,1302.362347
1151.159156,7328.038826,-5773.606348,1455.581446
1151.159486,7179.997637,-6217.729913,842.705048
1151.159815,6883.915261,-6365.771101,1072.533697
1151.160144,6809.894666,-6513.812290,689.485948
1151.160473,7031.956449,-6883.915261,612.876398
1151.160802,6809.894666,-6587.832884,842.705048
1151.161132,7105.977043,-7254.018232,383.047749
1151.161461,6809.894666,-7328.038826,612.876398
1151.161790,7105.977043,-7254.018232,459.657299
1151.162119,7105.977043,-7105.977043,995.924147
1151.162448,7105.977043,-6365.771101,1149.143247
1151.162778,6809.894666,-6587.832884,919.314598
1151.163107,6809.894666,-6735.874072,995.924147
1151.163436,6883.915261,-6735.874072,1685.410096
1151.163765,7031.956449,-6217.729913,1302.362347
1151.164094,7254.018232,-5551.544565,1608.800546
1151.164424,7031.956449,-5995.668130,1532.190996
1151.164753,7254.018232,-5995.668130,1455.581446
1151.165082,6957.935855,-6143.709319,1302.362347
1151.165411,7105.977043,-5625.565159,1838.629195
1151.165741,7105.977043,-5921.647536,1072.533697
1151.166070,7179.997637,-6217.729913,1149.143247
1151.166399,7328.038826,-6217.729913,919.314598
1151.166728,7179.997637,-6513.812290,1225.752797
1151.167057,6735.874072,-6957.935855,689.485948
1151.167387,5699.585753,-7179.997637,536.266849
1151.167716,5995.668130,-7402.059420,536.266849
1151.168045,6957.935855,-7476.080014,383.047749
1151.168374,5995.668130,-7105.977043,1455.581446
1151.168703,6587.832884,-7328.038826,919.314598
1151.169033,6809.894666,-7402.059420,689.485948
1151.169362,7254.018232,-7105.977043,536.266849
1151.169691,7179.997637,-6809.894666,919.314598
1151.170020,7328.038826,-6661.853478,1608.800546
1151.170349,6957.935855,-6439.791695,919.314598
1151.170679,7105.977043,-6513.812290,1378.971896
1151.171008,7328.038826,-6143.709319,1608.800546
1151.171337,7254.018232,-5477.523971,1455.581446
1151.171666,7402.059420,-5847.626942,1532.190996
1151.171995,6883.915261,-6587.832884,1378.971896
1151.172325,7031.956449,-6883.915261,1378.971896
1151.172654,6957.935855,-6439.791695,1149.143247
1151.172983,6883.915261,-6217.729913,459.657299
1151.173312,6365.771101,-8142.265362,1072.533697
1151.173641,6513.812290,-7105.977043,536.266849
1151.173971,6883.915261,-6735.874072,612.876398
1151.174300,7328.038826,-6217.729913,995.924147
1151.174629,8142.265362,-6809.894666,1455.581446
1151.174958,7994.224174,-6439.791695,1302.362347
1151.175287,7476.080014,-5477.523971,153.219100
1151.175617,7105.977043,-5773.606348,76.609550
1151.175946,7105.977043,-5403.503377,1225.752797
1151.176275,7105.977043,-6587.832884,766.095498
1151.176604,7328.038826,-6587.832884,1378.971896
1151.176933,7624.121203,-6365.771101,1685.410096
1151.177263,7402.059420,-6217.729913,1762.019645
1151.177592,6883.915261,-5995.668130,1762.019645
1151.177921,6439.791695,-7105.977043,1149.143247
1151.178250,6809.894666,-6883.915261,1455.581446
1151.178579,7031.956449,-6217.729913,1302.362347
1151.178909,7105.977043,-6513.812290,1532.190996
1151.179238,6883.915261,-6291.750507,995.924147
1151.179567,6513.812290,-6365.771101,919.314598
1151.179896,6513.812290,-6809.894666,842.705048
1151.180225,6513.812290,-6809.894666,689.485948
1151.180555,6439.791695,-6809.894666,689.485948
1151.180884,6439.791695,-7105.977043,689.485948
1151.181213,6513.812290,-7402.059420,536.266849
1151.181542,7031.956449,-7179.997637,536.266849
1151.181871,6883.915261,-7920.203579,689.485948
1151.182201,7179.997637,-7624.121203,1378.971896
1151.182530,7328.038826,-7031.956449,1225.752797
1151.182859,7105.977043,-6883.915261,1149.143247
1151.183188,6957.935855,-6587.832884,1225.752797
1151.183517,7179.997637,-6587.832884,1762.019645
1151.183847,7105.977043,-6069.688724,1378.971896
1151.184176,7624.121203,-5403.503377,1838.629195
1151.184505,7105.977043,-5403.503377,1455.581446
1151.184834,7031.956449,-5625.565159,1762.019645
1151.185163,7031.956449,-5625.565159,1608.800546
1151.185493,7105.977043,-6143.709319,1532.190996
1151.185822,7105.977043,-6069.688724,1149.143247
1151.186151,7105.977043,-6513.812290,842.705048
1151.186480,7105.977043,-6883.915261,1455.581446
1151.186810,7105.977043,-7179.997637,536.266849
1151.187139,6883.915261,-7328.038826,919.314598
1151.187468,6661.853478,-7105.977043,536.266849
1151.187797,6957.935855,-6957.935855,536.266849
1151.188126,7328.038826,-6143.709319,1149.143247
1151.188456,7254.018232,-6217.729913,919.314598
1151.188785,7031.956449,-6513.812290,1225.752797
1151.189114,7031.956449,-6735.874072,1225.752797
1151.189443,7105.977043,-6217.729913,766.095498
1151.189772,7031.956449,-5921.647536,1302.362347
1151.190102,7031.956449,-6513.812290,1149.143247
1151.190431,6809.894666,-6439.791695,1149.143247
1151.190760,6957.935855,-6661.853478,1302.362347
1151.191089,7550.100608,-6513.812290,1455.581446
1151.191418,7550.100608,-6143.709319,1302.362347
1151.191748,7105.977043,-6513.812290,1532.190996
1151.192077,6883.915261,-5995.668130,1378.971896
1151.192406,6809.894666,-6587.832884,1072.533697
1151.192735,7031.956449,-6217.729913,1608.800546
1151.193064,7179.997637,-6069.688724,919.314598
1151.193394,7105.977043,-6069.688724,1608.800546
1151.193723,6957.935855,-6809.894666,995.924147
1151.194052,6883.915261,-7254.018232,459.657299
1151.194381,5773.606348,-7476.080014,612.876398
1151.194710,6513.812290,-7846.182985,383.047749
1151.195040,7031.956449,-7624.121203,459.657299
1151.195369,6439.791695,-7698.141797,995.924147
1151.195698,6439.791695,-7846.182985,459.657299
1151.196027,6439.791695,-7402.059420,536.266849
1151.196356,6587.832884,-7402.059420,919.314598
1151.196686,6883.915261,-6291.750507,1302.362347
1151.197015,6735.874072,-6587.832884,1302.362347
1151.197344,6883.915261,-6217.729913,1302.362347
1151.197673,6735.874072,-5995.668130,1378.971896
1151.198002,7105.977043,-5625.565159,1378.971896
1151.198332,7179.997637,-5403.503377,1762.019645
1151.198661,7476.080014,-5773.606348,919.314598
1151.198990,7179.997637,-6365.771101,1302.362347
1151.199319,7105.977043,-6439.791695,1302.362347
1151.199648,6957.935855,-6957.935855,1149.143247
1151.199978,6587.832884,-7105.977043,766.095498
1151.200307,6439.791695,-7105.977043,76.609550
1151.200636,6587.832884,-6291.750507,0.000000
1151.200965,6735.874072,-6513.812290,919.314598
1151.201294,6809.894666,-7179.997637,1149.143247
1151.201624,7550.100608,-6069.688724,1302.362347
1151.201953,7179.997637,-5255.462188,842.705048
1151.202282,7254.018232,-4811.338623,459.657299
1151.202611,7328.038826,-5699.585753,766.095498
1151.202940,7994.224174,-6365.771101,1762.019645
1151.203270,8512.368333,-5329.482782,1608.800546
1151.203599,8216.285956,-5699.585753,1532.190996
1151.203928,7105.977043,-5995.668130,1225.752797
1151.204257,7105.977043,-7179.997637,1225.752797
