#time,accel_x,accel_y,accel_z
1218.031485,7328.038826,-6587.832884,1225.752797
1218.031815,7254.018232,-6439.791695,995.924147
1218.032145,7031.956449,-6883.915261,1072.533697
1218.032475,6513.812290,-6883.915261,689.485948
1218.032805,6587.832884,-7031.956449,995.924147
1218.033135,6957.935855,-6957.935855,1225.752797
1218.033465,6883.915261,-6883.915261,459.657299
1218.033795,6809.894666,-6513.812290,919.314598
1218.034125,6661.853478,-6735.874072,383.047749
1218.034455,6587.832884,-7105.977043,842.705048
1218.034784,6439.791695,-6291.750507,995.924147
1218.035114,6735.874072,-6735.874072,306.438199
1218.035444,6809.894666,-6439.791695,919.314598
1218.035774,7105.977043,-6735.874072,689.485948
1218.036104,7105.977043,-6587.832884,1762.019645
1218.036434,7105.977043,-5699.585753,1302.362347
1218.036764,7179.997637,-5995.668130,995.924147
1218.037094,7402.059420,-6439.791695,1302.362347
1218.037424,7254.018232,-5921.647536,1225.752797
1218.037754,7179.997637,-5995.668130,995.924147
1218.038084,6883.915261,-6291.750507,842.705048
1218.038414,7328.038826,-5773.606348,1149.143247
1218.038744,7105.977043,-6587.832884,1149.143247
1218.039073,6957.935855,-6365.771101,766.095498
1218.039403,7105.977043,-6661.853478,766.095498
1218.039733,6661.853478,-7105.977043,842.705048
1218.040063,6735.874072,-6957.935855,995.924147
1218.040393,6735.874072,-6735.874072,1072.533697
1218.040723,6513.812290,-6439.791695,1532.190996
1218.041053,6661.853478,-6735.874072,1149.143247
1218.041383,6957.935855,-6809.894666,995.924147
1218.041713,6809.894666,-7031.956449,919.314598
1218.042043,7105.977043,-6365.771101,1149.143247
1218.042373,7179.997637,-6513.812290,459.657299
1218.042703,7031.956449,-6735.874072,1378.971896
1218.043033,7179.997637,-6735.874072,995.924147
1218.043363,7624.121203,-6587.832884,919.314598
1218.043692,7254.018232,-6439.791695,1225.752797
1218.044022,7179.997637,-6587.832884,612.876398
1218.044352,7328.038826,-6291.750507,919.314598
1218.044682,7105.977043,-6661.853478,1225.752797
1218.045012,6883.915261,-6439.791695,842.705048
1218.045342,6957.935855,-6439.791695,1455.581446
1218.045672,7105.977043,-6069.688724,1149.143247
1218.046002,7031.956449,-6513.812290,766.095498
1218.046332,6883.915261,-5773.606348,919.314598
1218.046662,6735.874072,-6217.729913,1149.143247
1218.046992,6513.812290,-6513.812290,1225.752797
1218.047322,6809.894666,-6587.832884,1072.533697
1218.047652,6587.832884,-6661.853478,1149.143247
1218.047981,6957.935855,-6809.894666,919.314598
1218.048311,6661.853478,-7105.977043,1302.362347
1218.048641,6809.894666,-7105.977043,842.705048
1218.048971,6513.812290,-7105.977043,919.314598
1218.049301,6587.832884,-6513.812290,766.095498
1218.049631,6661.853478,-7179.997637,689.485948
1218.049961,7105.977043,-5625.565159,995.924147
1218.050291,6661.853478,-6661.853478,1149.143247
1218.050621,7105.977043,-6143.709319,612.876398
1218.050951,7105.977043,-6069.688724,1225.752797
1218.051281,7179.997637,-6587.832884,1072.533697
1218.051611,7402.059420,-5995.668130,1608.800546
1218.051941,7402.059420,-6439.791695,995.924147
1218.052270,7179.997637,-6735.874072,842.705048
1218.052600,6957.935855,-6735.874072,1302.362347
1218.052930,7254.018232,-6439.791695,1225.752797
1218.053260,7179.997637,-6587.832884,995.924147
1218.053590,6735.874072,-6143.709319,1302.362347
1218.053920,6809.894666,-6439.791695,995.924147
1218.054250,6735.874072,-6587.832884,536.266849
1218.054580,6661.853478,-6587.832884,1302.362347
1218.054910,6883.915261,-6883.915261,995.924147
1218.055240,7031.956449,-6513.812290,689.485948
1218.055570,6883.915261,-6883.915261,1072.533697
1218.055900,6513.812290,-6883.915261,1532.190996
1218.056230,7105.977043,-7031.956449,1072.533697
1218.056559,6883.915261,-6883.915261,842.705048
1218.056889,7031.956449,-6809.894666,689.485948
1218.057219,7105.977043,-6735.874072,1225.752797
1218.057549,7254.018232,-6439.791695,995.924147
1218.057879,7402.059420,-6143.709319,842.705048
1218.058209,7254.018232,-6069.688724,1302.362347
1218.058539,7105.977043,-6143.709319,995.924147
1218.058869,7105.977043,-6069.688724,1149.143247
1218.059199,7476.080014,-6217.729913,536.266849
1218.059529,7105.977043,-6587.832884,766.095498
1218.059859,7105.977043,-6513.812290,1302.362347
1218.060189,7179.997637,-6365.771101,1149.143247
1218.060519,6809.894666,-6069.688724,1455.581446
1218.060849,6809.894666,-6217.729913,766.095498
1218.061178,6809.894666,-7105.977043,1378.971896
1218.061508,6661.853478,-7179.997637,1072.533697
1218.061838,6883.915261,-6661.853478,995.924147
1218.062168,7105.977043,-6957.935855,536.266849
1218.062498,6735.874072,-6365.771101,689.485948
1218.062828,6439.791695,-6883.915261,1149.143247
1218.063158,6587.832884,-7031.956449,1149.143247
1218.063488,6735.874072,-6217.729913,995.924147
1218.063818,6809.894666,-6291.750507,689.485948
1218.064148,6957.935855,-6587.832884,919.314598
1218.064478,7105.977043,-6735.874072,995.924147
1218.064808,7031.956449,-6809.894666,919.314598
1218.065138,7105.977043,-6661.853478,1378.971896
1218.065467,6809.894666,-6291.750507,689.485948
1218.065797,7254.018232,-6587.832884,1072.533697
1218.066127,7328.038826,-6661.853478,1149.143247
1218.066457,7105.977043,-6069.688724,1378.971896
1218.066787,7105.977043,-6587.832884,842.705048
1218.067117,6883.915261,-6513.812290,1149.143247
1218.067447,7105.977043,-6365.771101,1149.143247
1218.067777,7105.977043,-6291.750507,1072.533697
1218.068107,6735.874072,-6143.709319,919.314598
1218.068437,6809.894666,-6735.874072,1302.362347
1218.068767,6587.832884,-6883.915261,1225.752797
1218.069097,6587.832884,-6439.791695,536.266849
1218.069427,6735.874072,-6883.915261,689.485948
1218.069756,6883.915261,-6587.832884,766.095498
1218.070086,6957.935855,-7031.956449,995.924147
1218.070416,6883.915261,-7031.956449,919.314598
1218.070746,7031.956449,-6661.853478,1072.533697
1218.071076,7179.997637,-6291.750507,689.485948
1218.071406,7105.977043,-6217.729913,842.705048
1218.071736,6883.915261,-6513.812290,919.314598
1218.072066,7179.997637,-6439.791695,995.924147
1218.072396,7624.121203,-6365.771101,1455.581446
1218.072726,7254.018232,-6291.750507,1608.800546
1218.073056,7328.038826,-6439.791695,1225.752797
1218.073386,7328.038826,-6365.771101,1149.143247
1218.073716,7179.997637,-6587.832884,919.314598
1218.074045,7179.997637,-7031.956449,1455.581446
1218.074375,7328.038826,-6069.688724,1378.971896
1218.074705,7254.018232,-6439.791695,766.095498
1218.075035,7105.977043,-5921.647536,1225.752797
1218.075365,6809.894666,-6661.853478,995.924147
1218.075695,6883.915261,-6957.935855,1149.143247
1218.076025,6365.771101,-6587.832884,842.705048
1218.076355,6291.750507,-6439.791695,1225.752797
1218.076685,6735.874072,-6735.874072,995.924147
1218.077015,6735.874072,-6661.853478,995.924147
1218.077345,6513.812290,-6957.935855,536.266849
1218.077675,6587.832884,-7179.997637,1072.533697
1218.078005,6809.894666,-6439.791695,995.924147
1218.078335,6587.832884,-6883.915261,689.485948
1218.078664,7179.997637,-6957.935855,995.924147
1218.078994,7105.977043,-6809.894666,1072.533697
1218.079324,7328.038826,-6661.853478,995.924147
1218.079654,7105.977043,-6735.874072,1225.752797
1218.079984,7105.977043,-6291.750507,1149.143247
1218.080314,7179.997637,-5921.647536,1532.190996
1218.080644,7254.018232,-6291.750507,995.924147
1218.080974,6957.935855,-6365.771101,766.095498
1218.081304,6883.915261,-6365.771101,842.705048
1218.081634,7254.018232,-6587.832884,1149.143247
1218.081964,7550.100608,-6365.771101,1072.533697
1218.082294,6957.935855,-6217.729913,612.876398
1218.082624,6439.791695,-6661.853478,919.314598
1218.082953,6513.812290,-6957.935855,1149.143247
1218.083283,7254.018232,-6291.750507,689.485948
1218.083613,6809.894666,-6587.832884,842.705048
1218.083943,7105.977043,-6735.874072,995.924147
1218.084273,6809.894666,-7105.977043,1378.971896
1218.084603,7031.956449,-6957.935855,689.485948
1218.084933,6883.915261,-6809.894666,1455.581446
1218.085263,6957.935855,-6587.832884,842.705048
1218.085593,6661.853478,-6883.915261,689.485948
1218.085923,6809.894666,-6809.894666,766.095498
1218.086253,7402.059420,-6883.915261,919.314598
1218.086583,7402.059420,-6661.853478,919.314598
1218.086913,7105.977043,-5995.668130,1225.752797
1218.087242,7105.977043,-6217.729913,919.314598
1218.087572,7402.059420,-6143.709319,1072.533697
1218.087902,7402.059420,-6143.709319,1302.362347
1218.088232,7179.997637,-5995.668130,995.924147
1218.088562,7031.956449,-6365.771101,1225.752797
1218.088892,7179.997637,-5995.668130,1072.533697
1218.089222,7179.997637,-6217.729913,1455.581446
1218.089552,6809.894666,-6217.729913,842.705048
1218.089882,6587.832884,-6809.894666,995.924147
1218.090212,6513.812290,-7031.956449,1302.362347
1218.090542,6661.853478,-6587.832884,1072.533697
1218.090872,6587.832884,-6735.874072,1072.533697
1218.091202,6735.874072,-6291.750507,995.924147
1218.091531,6809.894666,-6957.935855,1302.362347
1218.091861,6735.874072,-7031.956449,689.485948
1218.092191,6957.935855,-6957.935855,1225.752797
1218.092521,7402.059420,-6365.771101,842.705048
1218.092851,7031.956449,-6735.874072,1149.143247
1218.093181,6809.894666,-6661.853478,1225.752797
1218.093511,6957.935855,-6883.915261,919.314598
1218.093841,7105.977043,-6217.729913,842.705048
1218.094171,6735.874072,-6513.812290,1149.143247
1218.094501,7254.018232,-6661.853478,1072.533697
1218.094831,7105.977043,-6513.812290,1378.971896
1218.095161,7031.956449,-5995.668130,842.705048
1218.095491,6661.853478,-6143.709319,995.924147
1218.095820,7105.977043,-6143.709319,1149.143247
1218.096150,7105.977043,-6365.771101,1302.362347
1218.096480,6957.935855,-6365.771101,1149.143247
1218.096810,7105.977043,-6661.853478,1608.800546
1218.097139,6587.832884,-6957.935855,1072.533697
1218.097469,6809.894666,-7031.956449,995.924147
1218.097799,6587.832884,-6661.853478,995.924147
1218.098128,6513.812290,-6735.874072,919.314598
1218.098458,6217.729913,-6439.791695,1225.752797
1218.098787,6587.832884,-7328.038826,1149.143247
1218.099117,6735.874072,-7105.977043,842.705048
1218.099447,6957.935855,-6365.771101,766.095498
1218.099776,7031.956449,-6439.791695,842.705048
1218.100106,6957.935855,-6587.832884,1072.533697
1218.100436,7105.977043,-6957.935855,995.924147
1218.100765,7328.038826,-6513.812290,919.314598
1218.101095,7402.059420,-6291.750507,919.314598
1218.101425,7550.100608,-6069.688724,612.876398
1218.101754,7179.997637,-6439.791695,995.924147
1218.102084,7624.121203,-6735.874072,1149.143247
1218.102413,7179.997637,-6143.709319,612.876398
1218.102743,7031.956449,-6587.832884,1072.533697
1218.103073,7402.059420,-6365.771101,1302.362347
1218.103402,7179.997637,-6291.750507,919.314598
1218.103732,7031.956449,-6143.709319,1225.752797
1218.104062,6957.935855,-6513.812290,1225.752797
1218.104391,7254.018232,-6291.750507,1149.143247
1218.104721,6883.915261,-6587.832884,1072.533697
1218.105050,6735.874072,-6365.771101,1225.752797
1218.105380,6809.894666,-6587.832884,1072.533697
1218.105710,6661.853478,-6957.935855,1072.533697
1218.106039,6513.812290,-6809.894666,1225.752797
1218.106369,6291.750507,-7105.977043,995.924147
1218.106699,6661.853478,-6513.812290,919.314598
1218.107028,6957.935855,-6439.791695,995.924147
1218.107358,7031.956449,-6513.812290,1762.019645
1218.107688,7254.018232,-6365.771101,1302.362347
1218.108017,7698.141797,-5847.626942,842.705048
1218.108347,7031.956449,-6217.729913,1378.971896
1218.108676,7105.977043,-6217.729913,1149.143247
1218.109006,7105.977043,-5921.647536,842.705048
1218.109336,7031.956449,-6661.853478,919.314598
1218.109665,6809.894666,-6513.812290,689.485948
1218.109995,6587.832884,-6809.894666,1072.533697
1218.110325,7031.956449,-6735.874072,842.705048
1218.110654,6735.874072,-6735.874072,1302.362347
1218.110984,6735.874072,-6143.709319,1149.143247
1218.111313,6883.915261,-6587.832884,919.314598
1218.111643,6661.853478,-6661.853478,919.314598
1218.111973,7031.956449,-6883.915261,1072.533697
1218.112302,6143.709319,-6365.771101,612.876398
1218.112632,6809.894666,-6661.853478,995.924147
1218.112962,6883.915261,-7105.977043,1072.533697
1218.113291,6809.894666,-7105.977043,842.705048
1218.113621,7031.956449,-6883.915261,229.828649
1218.113951,6513.812290,-6883.915261,842.705048
1218.114280,6883.915261,-7920.203579,995.924147
1218.114610,7105.977043,-6809.894666,842.705048
1218.114939,7105.977043,-6735.874072,995.924147
1218.115269,7402.059420,-6291.750507,1072.533697
1218.115599,7254.018232,-6143.709319,995.924147
1218.115928,7105.977043,-5995.668130,995.924147
1218.116258,7105.977043,-5995.668130,76.609550
1218.116588,7179.997637,-5773.606348,536.266849
1218.116917,7105.977043,-6365.771101,842.705048
1218.117247,6957.935855,-6587.832884,1149.143247
1218.117576,7328.038826,-6069.688724,842.705048
1218.117906,7328.038826,-5847.626942,1302.362347
1218.118236,7105.977043,-6439.791695,1149.143247
1218.118565,6883.915261,-6957.935855,1149.143247
1218.118895,6883.915261,-6661.853478,1149.143247
1218.119225,6587.832884,-6957.935855,689.485948
1218.119554,6809.894666,-6439.791695,1685.410096
1218.119884,6883.915261,-6439.791695,1149.143247
1218.120213,6735.874072,-6735.874072,1072.533697
1218.120543,6735.874072,-7031.956449,1149.143247
1218.120873,6809.894666,-6735.874072,1302.362347
1218.121202,7031.956449,-5921.647536,1149.143247
1218.121532,6883.915261,-6513.812290,1149.143247
1218.121862,6809.894666,-6513.812290,1302.362347
1218.122191,7105.977043,-6883.915261,919.314598
1218.122521,7550.100608,-6661.853478,1378.971896
1218.122851,7105.977043,-6661.853478,1378.971896
1218.123180,7031.956449,-6735.874072,1072.533697
1218.123510,7105.977043,-6439.791695,1225.752797
1218.123839,7254.018232,-6365.771101,1225.752797
1218.124169,7105.977043,-6439.791695,995.924147
1218.124499,6809.894666,-6291.750507,1149.143247
1218.124828,6957.935855,-6587.832884,536.266849
1218.125158,6957.935855,-6513.812290,1072.533697
1218.125488,6809.894666,-6513.812290,842.705048
1218.125817,7105.977043,-7031.956449,1072.533697
1218.126147,6735.874072,-7031.956449,842.705048
1218.126476,6365.771101,-6661.853478,1225.752797
1218.126806,6143.709319,-7254.018232,842.705048
1218.127136,6735.874072,-6587.832884,1225.752797
1218.127465,6883.915261,-6883.915261,842.705048
1218.127795,6809.894666,-7105.977043,1072.533697
1218.128125,6735.874072,-6439.791695,1149.143247
1218.128454,6735.874072,-6957.935855,766.095498
1218.128784,6809.894666,-6735.874072,919.314598
1218.129114,6957.935855,-6513.812290,1149.143247
1218.129443,7328.038826,-6587.832884,842.705048
1218.129773,7328.038826,-6513.812290,995.924147
1218.130102,7179.997637,-6661.853478,1225.752797
1218.130432,7105.977043,-6587.832884,842.705048
1218.130762,7328.038826,-6143.709319,689.485948
1218.131091,7328.038826,-6069.688724,842.705048
1218.131421,7179.997637,-6513.812290,842.705048
1218.131751,7402.059420,-6365.771101,1685.410096
1218.132080,7402.059420,-6365.771101,1072.533697
1218.132410,7402.059420,-6217.729913,919.314598
1218.132739,6957.935855,-6291.750507,1072.533697
1218.133069,6809.894666,-6957.935855,1072.533697
1218.133399,6809.894666,-6587.832884,919.314598
1218.133728,6957.935855,-6439.791695,842.705048
1218.134058,7031.956449,-6883.915261,919.314598
1218.134388,7105.977043,-6291.750507,1149.143247
1218.134717,6661.853478,-6957.935855,1532.190996
1218.135047,6957.935855,-7105.977043,766.095498
1218.135377,6587.832884,-6809.894666,1072.533697
1218.135706,7031.956449,-6735.874072,612.876398
1218.136036,6883.915261,-6439.791695,1072.533697
1218.136365,7031.956449,-6217.729913,1225.752797
1218.136695,7179.997637,-6513.812290,995.924147
1218.137025,7254.018232,-6439.791695,1149.143247
1218.137354,7105.977043,-6291.750507,995.924147
1218.137684,7179.997637,-6365.771101,1302.362347
1218.138014,7105.977043,-6291.750507,1302.362347
1218.138343,7328.038826,-6661.853478,919.314598
1218.138673,6143.709319,-6439.791695,995.924147
1218.139002,7105.977043,-6661.853478,1072.533697
1218.139332,7105.977043,-6439.791695,919.314598
1218.139662,6957.935855,-6587.832884,1455.581446
1218.139991,6439.791695,-6513.812290,1149.143247
1218.140321,6513.812290,-6587.832884,766.095498
1218.140651,6439.791695,-6365.771101,459.657299
1218.140980,6587.832884,-6587.832884,612.876398
1218.141310,6735.874072,-6661.853478,1072.533697
1218.141640,6809.894666,-6809.894666,766.095498
1218.141969,6809.894666,-7105.977043,1532.190996
1218.142299,6883.915261,-7179.997637,1378.971896
1218.142628,6809.894666,-6661.853478,842.705048
1218.142958,6661.853478,-7105.977043,536.266849
1218.143288,6957.935855,-7105.977043,1149.143247
1218.143617,7105.977043,-7031.956449,919.314598
1218.143947,7179.997637,-6217.729913,995.924147
1218.144277,7105.977043,-6365.771101,1072.533697
1218.144606,7105.977043,-6143.709319,842.705048
1218.144936,7105.977043,-6217.729913,1378.971896
1218.145265,7254.018232,-5995.668130,1838.629195
1218.145595,7402.059420,-6069.688724,919.314598
1218.145925,7105.977043,-6069.688724,1072.533697
1218.146254,7550.100608,-5033.400406,919.314598
1218.146584,7994.224174,-5403.503377,1225.752797
1218.146914,8364.327145,-4737.318029,1302.362347
1218.147243,8216.285956,-5773.606348,1302.362347
1218.147573,7624.121203,-6439.791695,919.314598
1218.147903,6661.853478,-6809.894666,459.657299
1218.148232,5699.585753,-7179.997637,383.047749
1218.148562,6513.812290,-6883.915261,0.000000
1218.148891,7031.956449,-7698.141797,919.314598
1218.149221,7624.121203,-7105.977043,1149.143247
1218.149551,7994.224174,-6439.791695,1532.190996
1218.149880,7994.224174,-4145.153275,1072.533697
1218.150210,8290.306550,-4737.318029,842.705048
1218.150540,7920.203579,-4885.359217,1072.533697
1218.150869,8660.409521,-3923.091493,1149.143247
1218.151199,9400.615463,-3923.091493,1225.752797
1218.151528,8438.347739,-3330.926739,1685.410096
1218.151858,8364.327145,-4589.276840,1225.752797
1218.152188,8882.471304,-4293.194464,1608.800546
1218.152517,8956.491898,-4219.173869,842.705048
1218.152847,8956.491898,-5847.626942,1302.362347
1218.153177,8586.388927,-5699.585753,1608.800546
1218.153506,8364.327145,-5255.462188,306.438199
1218.153836,7476.080014,-5551.544565,536.266849
1218.154165,7772.162391,-4959.379811,842.705048
1218.154495,8216.285956,-5255.462188,1915.238745
1218.154825,8808.450710,-5403.503377,1838.629195
1218.155154,8586.388927,-4959.379811,1302.362347
1218.155484,8216.285956,-3997.112087,1302.362347
1218.155814,8586.388927,-3775.050304,1378.971896
1218.156143,9252.574275,-4071.132681,919.314598
1218.156473,9474.636058,-3552.988522,1225.752797
1218.156803,9400.615463,-3849.070898,1378.971896
1218.157132,9474.636058,-3330.926739,919.314598
1218.157462,9104.533087,-4071.132681,612.876398
1218.157791,8956.491898,-5477.523971,842.705048
1218.158121,8586.388927,-5773.606348,1225.752797
1218.158451,8882.471304,-5995.668130,1378.971896
1218.158780,8068.244768,-5699.585753,766.095498
1218.159110,7179.997637,-5699.585753,612.876398
1218.159440,8068.244768,-5477.523971,1608.800546
1218.159769,8364.327145,-4737.318029,919.314598
1218.160099,8290.306550,-4589.276840,1072.533697
1218.160428,8808.450710,-4293.194464,995.924147
1218.160758,8882.471304,-4737.318029,689.485948
1218.161088,8882.471304,-4737.318029,306.438199
1218.161417,8142.265362,-5107.421000,536.266849
1218.161747,8290.306550,-5921.647536,383.047749
1218.162077,8364.327145,-6735.874072,-306.438199
1218.162406,7994.224174,-6661.853478,0.000000
1218.162736,8364.327145,-5773.606348,229.828649
1218.163066,9696.697840,-4515.256246,612.876398
1218.163395,10362.883188,-4811.338623,2068.457845
1218.163725,9548.656652,-4737.318029,1455.581446
1218.164054,9104.533087,-3775.050304,1532.190996
1218.164384,8882.471304,-2516.700203,1455.581446
1218.164714,8586.388927,-3404.947333,1378.971896
1218.165043,8438.347739,-3701.029710,2145.067394
1218.165373,9548.656652,-3701.029710,2068.457845
1218.165703,9992.780217,-3849.070898,1838.629195
1218.166032,9104.533087,-3849.070898,1149.143247
1218.166362,8512.368333,-4589.276840,842.705048
1218.166691,7994.224174,-5329.482782,536.266849
1218.167021,7550.100608,-5847.626942,-383.047749
1218.167351,7105.977043,-7550.100608,0.000000
1218.167680,6883.915261,-6587.832884,-306.438199
1218.168010,7105.977043,-6957.935855,0.000000
1218.168340,7698.141797,-7031.956449,306.438199
1218.168669,7698.141797,-7624.121203,1149.143247
1218.168999,7476.080014,-7179.997637,1302.362347
1218.169329,6439.791695,-7031.956449,995.924147
1218.169658,5477.523971,-6069.688724,1302.362347
1218.169988,6735.874072,-6513.812290,1685.410096
1218.170317,7624.121203,-5847.626942,1915.238745
1218.170647,8216.285956,-5699.585753,2298.286494
1218.170977,8512.368333,-5477.523971,2451.505594
1218.171306,7994.224174,-5181.441594,1455.581446
1218.171636,7476.080014,-5403.503377,766.095498
1218.171966,7179.997637,-5255.462188,306.438199
1218.172295,7105.977043,-5181.441594,-229.828649
1218.172625,7328.038826,-5625.565159,0.000000
1218.172954,7254.018232,-5255.462188,-153.219100
1218.173284,7328.038826,-5107.421000,-536.266849
1218.173614,7846.182985,-6143.709319,306.438199
1218.173943,8290.306550,-7254.018232,1685.410096
1218.174273,7698.141797,-7846.182985,1685.410096
1218.174603,6513.812290,-8660.409521,1991.848295
1218.174932,5995.668130,-8290.306550,1762.019645
1218.175262,6143.709319,-8586.388927,1762.019645
1218.175592,6513.812290,-7105.977043,1762.019645
1218.175921,6143.709319,-7402.059420,1608.800546
1218.176251,5403.503377,-7402.059420,919.314598
1218.176580,4737.318029,-6661.853478,0.000000
1218.176910,4589.276840,-6291.750507,0.000000
1218.177240,5625.565159,-6143.709319,689.485948
1218.177569,6439.791695,-5921.647536,459.657299
1218.177899,7105.977043,-4589.276840,995.924147
1218.178229,7994.224174,-3997.112087,1225.752797
1218.178558,8956.491898,-3849.070898,2604.724693
1218.178888,9548.656652,-5107.421000,2911.162892
1218.179217,9252.574275,-5477.523971,3064.381992
1218.179547,8586.388927,-5847.626942,2145.067394
1218.179877,7476.080014,-6957.935855,2068.457845
1218.180206,6587.832884,-7698.141797,1685.410096
1218.180536,5921.647536,-7624.121203,1378.971896
1218.180866,6217.729913,-6883.915261,1149.143247
1218.181195,6809.894666,-6291.750507,459.657299
1218.181525,6957.935855,-5625.565159,229.828649
1218.181855,6957.935855,-6883.915261,-536.266849
1218.182184,6513.812290,-6513.812290,-153.219100
1218.182514,6513.812290,-6735.874072,-383.047749
1218.182843,6587.832884,-6735.874072,229.828649
1218.183173,6957.935855,-7105.977043,1685.410096
1218.183503,7402.059420,-8364.327145,1838.629195
1218.183832,7179.997637,-7698.141797,2681.334243
1218.184162,7105.977043,-7105.977043,2451.505594
1218.184492,6957.935855,-6217.729913,2068.457845
1218.184821,6439.791695,-5625.565159,1991.848295
1218.185151,6143.709319,-6735.874072,689.485948
1218.185480,5699.585753,-6439.791695,306.438199
1218.185810,5477.523971,-6439.791695,-229.828649
1218.186140,6143.709319,-7402.059420,0.000000
1218.186469,6365.771101,-6735.874072,0.000000
1218.186799,6365.771101,-7698.141797,153.219100
1218.187129,7179.997637,-7254.018232,459.657299
1218.187458,7328.038826,-7328.038826,842.705048
1218.187788,8216.285956,-6735.874072,1762.019645
1218.188118,8586.388927,-5699.585753,2145.067394
1218.188447,8956.491898,-5699.585753,2451.505594
1218.188777,8808.450710,-5107.421000,2451.505594
1218.189106,7772.162391,-4663.297435,2374.896044
1218.189436,7994.224174,-3775.050304,1149.143247
1218.189766,7624.121203,-3108.864956,612.876398
1218.190095,7772.162391,-3997.112087,306.438199
1218.190425,7402.059420,-5181.441594,-153.219100
1218.190755,6291.750507,-7179.997637,153.219100
1218.191084,6143.709319,-7550.100608,76.609550
1218.191414,6143.709319,-9178.553681,612.876398
1218.191743,6365.771101,-8882.471304,919.314598
1218.192073,6069.688724,-9178.553681,919.314598
1218.192403,6809.894666,-9252.574275,919.314598
1218.192732,6513.812290,-7846.182985,1149.143247
1218.193062,5847.626942,-7476.080014,766.095498
1218.193392,5773.606348,-6883.915261,612.876398
1218.193721,5625.565159,-5699.585753,153.219100
1218.194051,6587.832884,-6069.688724,0.000000
1218.194380,7105.977043,-5329.482782,612.876398
1218.194710,7105.977043,-5551.544565,1225.752797
1218.195040,7994.224174,-5551.544565,995.924147
1218.195369,7846.182985,-5255.462188,1608.800546
1218.195699,7698.141797,-6587.832884,1149.143247
1218.196029,7624.121203,-6587.832884,1378.971896
1218.196358,7402.059420,-7772.162391,1838.629195
1218.196688,7550.100608,-7254.018232,2298.286494
1218.197018,7328.038826,-6291.750507,2068.457845
1218.197347,7031.956449,-6513.812290,1532.190996
1218.197677,5995.668130,-6143.709319,766.095498
1218.198006,5107.421000,-6587.832884,76.609550
1218.198336,5773.606348,-5847.626942,-383.047749
1218.198665,6513.812290,-4885.359217,0.000000
1218.198995,7476.080014,-5477.523971,995.924147
1218.199324,8068.244768,-5921.647536,1762.019645
1218.199653,8586.388927,-6439.791695,1532.190996
1218.199982,8364.327145,-6957.935855,2451.505594
1218.200312,7994.224174,-7624.121203,2451.505594
1218.200641,7994.224174,-8142.265362,2298.286494
1218.200970,7328.038826,-7550.100608,1762.019645
1218.201299,6291.750507,-7105.977043,1532.190996
1218.201629,5625.565159,-6587.832884,229.828649
1218.201958,5477.523971,-6587.832884,0.000000
1218.202287,5181.441594,-7179.997637,0.000000
1218.202616,4959.379811,-6513.812290,-306.438199
1218.202946,4885.359217,-6291.750507,-459.657299
1218.203275,5033.400406,-7105.977043,536.266849
1218.203604,6809.894666,-6809.894666,1532.190996
1218.203933,8142.265362,-6217.729913,1991.848295
1218.204263,9104.533087,-5107.421000,2298.286494
1218.204592,9326.594869,-5699.585753,2757.943793
1218.204921,8882.471304,-6291.750507,3294.210641
1218.205251,9030.512492,-5921.647536,2451.505594
1218.205580,7920.203579,-6069.688724,1685.410096
1218.205909,7105.977043,-5181.441594,1072.533697
1218.206238,6439.791695,-5921.647536,612.876398
1218.206568,6069.688724,-5921.647536,153.219100
1218.206897,5921.647536,-6957.935855,-229.828649
1218.207226,5773.606348,-6513.812290,0.000000
1218.207555,6513.812290,-6587.832884,0.000000
1218.207885,6513.812290,-7698.141797,306.438199
1218.208214,6513.812290,-8586.388927,919.314598
1218.208543,6957.935855,-8660.409521,1072.533697
1218.208872,6809.894666,-8586.388927,1225.752797
1218.209202,6957.935855,-8068.244768,1149.143247
1218.209531,7179.997637,-7920.203579,1149.143247
1218.209860,6957.935855,-7105.977043,1378.971896
1218.210189,6661.853478,-5921.647536,536.266849
1218.210519,6883.915261,-5995.668130,0.000000
1218.210848,7179.997637,-4515.256246,383.047749
1218.211177,7179.997637,-5329.482782,0.000000
1218.211506,7105.977043,-5033.400406,306.438199
1218.211836,7402.059420,-5847.626942,536.266849
1218.212165,7624.121203,-6883.915261,766.095498
1218.212494,8068.244768,-6291.750507,1991.848295
1218.212823,7994.224174,-6439.791695,1915.238745
1218.213153,8290.306550,-6365.771101,1838.629195
1218.213482,7920.203579,-6217.729913,1838.629195
1218.213811,7105.977043,-6365.771101,1378.971896
1218.214141,6587.832884,-6587.832884,766.095498
1218.214470,5847.626942,-5847.626942,229.828649
1218.214799,6513.812290,-5773.606348,76.609550
1218.215128,6957.935855,-5699.585753,766.095498
1218.215458,7105.977043,-5995.668130,842.705048
1218.215787,7476.080014,-6365.771101,536.266849
1218.216116,7328.038826,-6291.750507,1072.533697
1218.216445,7476.080014,-7105.977043,1072.533697
1218.216775,8512.368333,-7328.038826,1532.190996
1218.217104,8216.285956,-7328.038826,1838.629195
1218.217433,7550.100608,-7624.121203,1532.190996
1218.217762,6809.894666,-7105.977043,2068.457845
1218.218092,6513.812290,-6809.894666,612.876398
1218.218421,5107.421000,-7105.977043,0.000000
1218.218750,5329.482782,-6587.832884,306.438199
1218.219079,5181.441594,-7031.956449,0.000000
1218.219409,4885.359217,-6957.935855,0.000000
1218.219738,5107.421000,-7031.956449,0.000000
1218.220067,5773.606348,-7476.080014,536.266849
1218.220396,6809.894666,-7920.203579,1455.581446
1218.220726,6957.935855,-7254.018232,1838.629195
1218.221055,7624.121203,-6957.935855,2145.067394
1218.221384,7920.203579,-6439.791695,2681.334243
1218.221714,8956.491898,-5107.421000,2298.286494
1218.222043,8586.388927,-5847.626942,2451.505594
1218.222372,8290.306550,-4515.256246,1072.533697
1218.222701,7328.038826,-4441.235652,842.705048
1218.223031,7105.977043,-4737.318029,0.000000
1218.223360,6365.771101,-4663.297435,-153.219100
1218.223689,7031.956449,-5995.668130,76.609550
1218.224018,7550.100608,-6661.853478,229.828649
1218.224348,7105.977043,-6735.874072,612.876398
1218.224677,6661.853478,-8586.388927,842.705048
1218.225006,6365.771101,-8808.450710,1455.581446
1218.225335,6661.853478,-9474.636058,1225.752797
1218.225665,6513.812290,-8956.491898,1225.752797
1218.225994,5921.647536,-8438.347739,1532.190996
1218.226323,5625.565159,-8660.409521,1149.143247
1218.226652,5625.565159,-7402.059420,766.095498
1218.226982,5773.606348,-6587.832884,153.219100
1218.227311,6809.894666,-5329.482782,536.266849
1218.227640,6735.874072,-4145.153275,153.219100
1218.227969,7105.977043,-4515.256246,689.485948
1218.228299,7624.121203,-4441.235652,612.876398
1218.228628,8290.306550,-5033.400406,1685.410096
1218.228957,8734.430116,-5625.565159,1455.581446
1218.229286,8882.471304,-6439.791695,1991.848295
1218.229616,8438.347739,-7105.977043,1762.019645
1218.229945,8216.285956,-7698.141797,1608.800546
1218.230274,7920.203579,-8142.265362,1915.238745
1218.230604,6809.894666,-7179.997637,919.314598
1218.230933,6069.688724,-6735.874072,459.657299
1218.231262,5625.565159,-5773.606348,0.000000
1218.231591,5551.544565,-5551.544565,-306.438199
1218.231921,6439.791695,-6143.709319,229.828649
1218.232250,6735.874072,-5847.626942,459.657299
1218.232579,7179.997637,-5773.606348,919.314598
1218.232908,7846.182985,-5255.462188,1225.752797
1218.233238,8512.368333,-6291.750507,1915.238745
1218.233567,8734.430116,-6661.853478,2451.505594
1218.233896,9030.512492,-6291.750507,2221.676944
1218.234225,8438.347739,-6291.750507,2068.457845
1218.234555,7105.977043,-7402.059420,1991.848295
1218.234884,6883.915261,-7402.059420,1302.362347
1218.235213,5033.400406,-7698.141797,153.219100
1218.235542,4367.215058,-8068.244768,-306.438199
1218.235872,3627.009116,-7846.182985,-842.705048
1218.236201,3849.070898,-7846.182985,-766.095498
1218.236530,4737.318029,-7772.162391,-383.047749
1218.236859,5477.523971,-7476.080014,229.828649
1218.237189,6809.894666,-7772.162391,1532.190996
1218.237518,7846.182985,-6587.832884,2374.896044
1218.237847,8660.409521,-5625.565159,2604.724693
1218.238177,9400.615463,-5033.400406,3064.381992
1218.238506,10214.842000,-4219.173869,2757.943793
1218.238835,9992.780217,-4441.235652,2451.505594
1218.239164,8512.368333,-4293.194464,2298.286494
1218.239494,7624.121203,-3627.009116,612.876398
1218.239823,6883.915261,-4663.297435,0.000000
1218.240152,6883.915261,-5625.565159,306.438199
1218.240481,6217.729913,-6735.874072,536.266849
1218.240811,5255.462188,-7254.018232,-229.828649
1218.241140,5181.441594,-8216.285956,0.000000
1218.241469,5329.482782,-8660.409521,766.095498
1218.241798,6143.709319,-9178.553681,1302.362347
1218.242128,6143.709319,-9770.718434,1685.410096
1218.242457,6217.729913,-8438.347739,1149.143247
1218.242786,5551.544565,-7994.224174,842.705048
1218.243115,5773.606348,-7698.141797,1149.143247
1218.243445,6513.812290,-6957.935855,842.705048
1218.243774,6735.874072,-5995.668130,1532.190996
1218.244103,7254.018232,-4959.379811,459.657299
1218.244432,7772.162391,-4959.379811,306.438199
1218.244762,7624.121203,-4959.379811,459.657299
1218.245091,7698.141797,-5477.523971,766.095498
1218.245420,8142.265362,-5847.626942,995.924147
1218.245749,7994.224174,-6069.688724,1608.800546
1218.246079,7846.182985,-6217.729913,1762.019645
1218.246408,7624.121203,-6291.750507,1608.800546
1218.246737,8068.244768,-5699.585753,2145.067394
1218.247067,7328.038826,-6291.750507,1685.410096
1218.247396,6513.812290,-5625.565159,842.705048
1218.247725,5699.585753,-6069.688724,383.047749
1218.248054,6217.729913,-5921.647536,153.219100
1218.248384,6957.935855,-5773.606348,842.705048
1218.248713,6735.874072,-5921.647536,383.047749
1218.249042,7179.997637,-5625.565159,1072.533697
1218.249371,7920.203579,-6365.771101,1532.190996
1218.249701,8290.306550,-6735.874072,1072.533697
1218.250030,8142.265362,-7402.059420,2145.067394
1218.250359,7698.141797,-7254.018232,1685.410096
1218.250688,7550.100608,-7624.121203,1302.362347
1218.251018,7105.977043,-7402.059420,1149.143247
1218.251347,6809.894666,-7179.997637,842.705048
1218.251676,5773.606348,-7698.141797,76.609550
1218.252005,4737.318029,-7402.059420,0.000000
1218.252335,4589.276840,-7402.059420,-766.095498
1218.252664,5329.482782,-7105.977043,-229.828649
1218.252993,6365.771101,-6291.750507,0.000000
1218.253322,6291.750507,-7105.977043,0.000000
1218.253652,6957.935855,-6883.915261,1149.143247
1218.253981,7994.224174,-6587.832884,1302.362347
1218.254310,8808.450710,-6883.915261,2221.676944
1218.254640,8808.450710,-6513.812290,2451.505594
1218.254969,8808.450710,-6217.729913,2757.943793
1218.255298,8882.471304,-5181.441594,2757.943793
1218.255627,8586.388927,-4663.297435,2451.505594
1218.255957,7772.162391,-3997.112087,1608.800546
1218.256286,7105.977043,-3923.091493,536.266849
1218.256615,6291.750507,-4959.379811,-306.438199
1218.256944,5107.421000,-5773.606348,-459.657299
1218.257274,5181.441594,-7105.977043,0.000000
1218.257603,5329.482782,-7254.018232,383.047749
1218.257932,5847.626942,-8734.430116,689.485948
1218.258261,6735.874072,-8734.430116,1225.752797
1218.258591,7550.100608,-9326.594869,1838.629195
1218.258920,7328.038826,-8216.285956,1991.848295
1218.259249,6735.874072,-8364.327145,766.095498
1218.259578,6513.812290,-8068.244768,1225.752797
1218.259908,6365.771101,-7031.956449,842.705048
1218.260237,6439.791695,-6291.750507,689.485948
1218.260566,6143.709319,-6439.791695,536.266849
1218.260895,6365.771101,-5107.421000,612.876398
1218.261225,7105.977043,-4589.276840,919.314598
1218.261554,7254.018232,-4589.276840,1072.533697
1218.261883,7846.182985,-4663.297435,1378.971896
1218.262212,7105.977043,-5477.523971,1149.143247
1218.262542,7624.121203,-6809.894666,1762.019645
1218.262871,7624.121203,-6069.688724,1225.752797
1218.263200,7179.997637,-7402.059420,1302.362347
1218.263530,7105.977043,-6439.791695,2451.505594
1218.263859,7402.059420,-7698.141797,1685.410096
1218.264188,7031.956449,-7105.977043,1149.143247
1218.264517,6661.853478,-6587.832884,459.657299
1218.264847,6291.750507,-5921.647536,0.000000
1218.265176,6291.750507,-5329.482782,383.047749
1218.265505,6587.832884,-6291.750507,153.219100
1218.265834,6809.894666,-6513.812290,229.828649
1218.266164,7624.121203,-6439.791695,536.266849
1218.266493,7772.162391,-7105.977043,1225.752797
1218.266822,7920.203579,-7402.059420,1608.800546
1218.267151,8142.265362,-7105.977043,1838.629195
1218.267481,7994.224174,-6735.874072,1608.800546
1218.267810,7402.059420,-6883.915261,1608.800546
1218.268139,7031.956449,-6587.832884,1685.410096
1218.268468,6513.812290,-6661.853478,919.314598
1218.268798,5625.565159,-6365.771101,306.438199
1218.269127,4959.379811,-6587.832884,-459.657299
1218.269456,4737.318029,-7105.977043,-153.219100
1218.269785,5921.647536,-7624.121203,153.219100
1218.270115,6069.688724,-7328.038826,689.485948
1218.270444,6883.915261,-7402.059420,1225.752797
1218.270773,7550.100608,-7254.018232,1378.971896
1218.271102,7994.224174,-7105.977043,2374.896044
1218.271432,8068.244768,-6217.729913,2374.896044
1218.271761,8216.285956,-5329.482782,2451.505594
1218.272090,8734.430116,-4663.297435,1915.238745
1218.272420,8586.388927,-3923.091493,1838.629195
1218.272749,7994.224174,-3552.988522,1149.143247
1218.273078,7476.080014,-4663.297435,459.657299
1218.273407,7105.977043,-5181.441594,459.657299
1218.273737,6365.771101,-5403.503377,-536.266849
1218.274066,6365.771101,-7031.956449,536.266849
1218.274395,6513.812290,-6957.935855,459.657299
1218.274724,7105.977043,-8586.388927,919.314598
1218.275054,6883.915261,-9622.677246,1838.629195
1218.275383,6587.832884,-9400.615463,1762.019645
1218.275712,6809.894666,-8364.327145,1225.752797
1218.276041,5847.626942,-7920.203579,1149.143247
1218.276371,5477.523971,-8068.244768,766.095498
1218.276700,5181.441594,-7698.141797,459.657299
1218.277029,5255.462188,-5847.626942,459.657299
1218.277358,5773.606348,-5329.482782,229.828649
1218.277688,6809.894666,-4441.235652,536.266849
1218.278017,7105.977043,-4737.318029,842.705048
1218.278346,7179.997637,-5255.462188,1072.533697
1218.278675,8068.244768,-4737.318029,1378.971896
1218.279005,8808.450710,-5699.585753,1455.581446
1218.279334,8734.430116,-6883.915261,1532.190996
1218.279663,8216.285956,-7328.038826,1685.410096
1218.279993,7624.121203,-7550.100608,1915.238745
1218.280322,7105.977043,-7846.182985,1455.581446
1218.280651,6439.791695,-7624.121203,1302.362347
1218.280980,5773.606348,-6809.894666,459.657299
1218.281310,5699.585753,-5921.647536,-383.047749
1218.281639,6291.750507,-5921.647536,-229.828649
1218.281968,6217.729913,-5625.565159,229.828649
1218.282297,6513.812290,-5847.626942,536.266849
1218.282627,7254.018232,-5181.441594,536.266849
1218.282956,7846.182985,-5699.585753,995.924147
1218.283285,8586.388927,-5995.668130,1225.752797
1218.283614,8586.388927,-7254.018232,2451.505594
1218.283944,8438.347739,-7846.182985,2298.286494
1218.284273,7920.203579,-7179.997637,1685.410096
1218.284602,7105.977043,-6957.935855,1149.143247
1218.284931,6439.791695,-6883.915261,919.314598
1218.285261,5403.503377,-7698.141797,612.876398
1218.285590,4737.318029,-7328.038826,-383.047749
1218.285919,4663.297435,-7402.059420,-383.047749
1218.286248,4959.379811,-6143.709319,-766.095498
1218.286578,5625.565159,-6957.935855,76.609550
1218.286907,6365.771101,-6957.935855,919.314598
1218.287236,7105.977043,-6513.812290,1532.190996
1218.287565,8142.265362,-5847.626942,1762.019645
1218.287895,9030.512492,-5107.421000,2298.286494
1218.288224,9326.594869,-5699.585753,2451.505594
1218.288553,9326.594869,-5773.606348,2528.115143
1218.288883,8956.491898,-5033.400406,1991.848295
1218.289212,8216.285956,-5107.421000,995.924147
1218.289541,7328.038826,-5255.462188,919.314598
1218.289870,7698.141797,-5403.503377,919.314598
1218.290200,7254.018232,-5847.626942,383.047749
1218.290529,6069.688724,-6143.709319,76.609550
1218.290858,5181.441594,-7105.977043,459.657299
1218.291187,5255.462188,-7624.121203,0.000000
1218.291517,5773.606348,-8364.327145,689.485948
1218.291846,5773.606348,-9252.574275,1225.752797
1218.292175,6217.729913,-9104.533087,766.095498
1218.292504,6587.832884,-8734.430116,1149.143247
1218.292834,6143.709319,-8660.409521,1378.971896
1218.293163,6513.812290,-7846.182985,1685.410096
1218.293492,6957.935855,-6291.750507,383.047749
1218.293821,6513.812290,-5477.523971,1072.533697
1218.294151,6809.894666,-4811.338623,536.266849
1218.294480,7624.121203,-5033.400406,0.000000
1218.294809,7698.141797,-6143.709319,766.095498
1218.295138,7624.121203,-5329.482782,612.876398
1218.295468,7624.121203,-6069.688724,1225.752797
1218.295797,7550.100608,-5699.585753,1762.019645
1218.296126,7476.080014,-6439.791695,1685.410096
1218.296456,7105.977043,-6809.894666,2451.505594
1218.296785,7624.121203,-5477.523971,1302.362347
1218.297114,7402.059420,-6365.771101,1302.362347
1218.297443,7031.956449,-6217.729913,1149.143247
1218.297772,6365.771101,-5847.626942,459.657299
1218.298101,6143.709319,-6069.688724,153.219100
1218.298430,6661.853478,-5699.585753,919.314598
1218.298759,7402.059420,-6143.709319,612.876398
1218.299088,7846.182985,-5847.626942,919.314598
1218.299417,7846.182985,-5847.626942,1225.752797
1218.299746,7105.977043,-6587.832884,1302.362347
1218.300076,7476.080014,-7698.141797,1378.971896
1218.300405,7328.038826,-8068.244768,1838.629195
1218.300734,7105.977043,-8142.265362,1685.410096
1218.301063,6513.812290,-7772.162391,1455.581446
1218.301392,6069.688724,-7624.121203,919.314598
1218.301721,5403.503377,-8068.244768,153.219100
1218.302050,5255.462188,-7846.182985,459.657299
1218.302379,5329.482782,-6883.915261,-76.609550
1218.302708,5551.544565,-6587.832884,-229.828649
1218.303037,6069.688724,-6365.771101,0.000000
1218.303366,6661.853478,-6661.853478,0.000000
1218.303695,7031.956449,-7105.977043,1072.533697
1218.304024,7772.162391,-6661.853478,1532.190996
1218.304353,7994.224174,-6735.874072,2451.505594
1218.304682,8808.450710,-5995.668130,2374.896044
1218.305011,8512.368333,-6587.832884,2451.505594
1218.305340,8956.491898,-5551.544565,2528.115143
1218.305669,8364.327145,-4071.132681,2145.067394
1218.305999,8216.285956,-3849.070898,1378.971896
1218.306328,7254.018232,-3478.967927,842.705048
1218.306657,7179.997637,-4737.318029,383.047749
1218.306986,6735.874072,-5699.585753,383.047749
1218.307315,6069.688724,-6069.688724,536.266849
1218.307644,5773.606348,-6883.915261,76.609550
1218.307973,6291.750507,-7624.121203,383.047749
1218.308302,6957.935855,-8364.327145,1455.581446
1218.308631,7105.977043,-9104.533087,1915.238745
1218.308960,7254.018232,-8512.368333,1915.238745
1218.309289,6365.771101,-8216.285956,1762.019645
1218.309618,6143.709319,-7698.141797,842.705048
1218.309947,5995.668130,-7105.977043,766.095498
1218.310276,6143.709319,-6735.874072,229.828649
1218.310605,5921.647536,-6661.853478,229.828649
1218.310934,6217.729913,-5699.585753,76.609550
1218.311263,6809.894666,-5107.421000,153.219100
1218.311592,7105.977043,-5699.585753,919.314598
1218.311922,7179.997637,-5625.565159,1072.533697
1218.312251,7476.080014,-5995.668130,1149.143247
1218.312580,8216.285956,-6439.791695,1838.629195
1218.312909,7698.141797,-6439.791695,2068.457845
1218.313238,7402.059420,-7179.997637,2298.286494
1218.313567,7994.224174,-6587.832884,1838.629195
1218.313896,7105.977043,-6957.935855,1838.629195
1218.314225,6957.935855,-6661.853478,1072.533697
1218.314554,6587.832884,-5995.668130,612.876398
1218.314883,6661.853478,-5699.585753,536.266849
1218.315212,7105.977043,-6069.688724,0.000000
1218.315541,6809.894666,-6069.688724,229.828649
1218.315870,6883.915261,-5847.626942,306.438199
1218.316199,7179.997637,-5921.647536,1072.533697
1218.316528,7772.162391,-6809.894666,1149.143247
1218.316857,7846.182985,-7254.018232,2068.457845
1218.317186,8142.265362,-7179.997637,2298.286494
1218.317516,8216.285956,-6957.935855,2221.676944
1218.317845,7105.977043,-7179.997637,2145.067394
1218.318174,6069.688724,-7402.059420,459.657299
1218.318503,5107.421000,-7624.121203,536.266849
1218.318832,5255.462188,-7402.059420,306.438199
1218.319161,4959.379811,-6809.894666,0.000000
1218.319490,5181.441594,-6439.791695,-306.438199
1218.319819,5329.482782,-7105.977043,-229.828649
1218.320148,5625.565159,-7328.038826,536.266849
1218.320477,6069.688724,-8068.244768,919.314598
1218.320806,7105.977043,-7031.956449,1838.629195
1218.321135,7550.100608,-6439.791695,2298.286494
1218.321464,7994.224174,-5699.585753,2221.676944
1218.321793,8882.471304,-4959.379811,2374.896044
1218.322122,9400.615463,-4515.256246,2374.896044
1218.322451,9474.636058,-3849.070898,2374.896044
1218.322780,8512.368333,-4293.194464,1302.362347
1218.323109,7772.162391,-4441.235652,153.219100
1218.323439,7105.977043,-5477.523971,0.000000
1218.323768,6587.832884,-6365.771101,153.219100
1218.324097,6809.894666,-6217.729913,689.485948
1218.324426,6513.812290,-7402.059420,536.266849
1218.324755,7105.977043,-7254.018232,536.266849
1218.325084,6661.853478,-8734.430116,1302.362347
1218.325413,6957.935855,-8882.471304,1762.019645
1218.325742,6365.771101,-8364.327145,1455.581446
1218.326071,5921.647536,-8586.388927,1608.800546
1218.326400,5699.585753,-7105.977043,1072.533697
1218.326729,5625.565159,-7402.059420,229.828649
1218.327058,5625.565159,-6883.915261,153.219100
1218.327387,6143.709319,-5255.462188,459.657299
1218.327716,6957.935855,-5181.441594,306.438199
1218.328045,7476.080014,-4811.338623,76.609550
1218.328374,7254.018232,-5921.647536,0.000000
1218.328703,7179.997637,-6809.894666,842.705048
1218.329032,7402.059420,-7179.997637,1455.581446
1218.329362,7772.162391,-7550.100608,1302.362347
1218.329691,7772.162391,-6661.853478,1685.410096
1218.330020,7698.141797,-6883.915261,2221.676944
1218.330349,8142.265362,-6809.894666,1455.581446
1218.330678,7031.956449,-5773.606348,1225.752797
1218.331007,6661.853478,-5403.503377,383.047749
1218.331336,6661.853478,-4885.359217,76.609550
1218.331665,7105.977043,-4367.215058,0.000000
1218.331994,7179.997637,-4885.359217,0.000000
1218.332323,7105.977043,-6365.771101,842.705048
1218.332652,7550.100608,-5847.626942,1072.533697
1218.332981,8512.368333,-6217.729913,1378.971896
1218.333310,8734.430116,-6365.771101,2145.067394
1218.333639,8512.368333,-7550.100608,2221.676944
1218.333968,7772.162391,-7846.182985,2068.457845
1218.334297,7105.977043,-7328.038826,1532.190996
1218.334626,6809.894666,-7254.018232,995.924147
1218.334955,6069.688724,-7105.977043,689.485948
1218.335285,5329.482782,-7105.977043,76.609550
1218.335614,4589.276840,-7254.018232,0.000000
1218.335943,4441.235652,-7179.997637,-919.314598
1218.336272,4293.194464,-6661.853478,-536.266849
1218.336601,5255.462188,-7402.059420,76.609550
1218.336930,6143.709319,-7105.977043,1378.971896
1218.337259,6735.874072,-7550.100608,1532.190996
1218.337588,7476.080014,-6587.832884,2451.505594
1218.337917,7994.224174,-6069.688724,2604.724693
1218.338246,8734.430116,-6291.750507,2604.724693
1218.338575,9326.594869,-5625.565159,3064.381992
1218.338904,9104.533087,-4737.318029,2681.334243
1218.339233,8216.285956,-3849.070898,842.705048
1218.339562,7105.977043,-4737.318029,766.095498
1218.339891,7105.977043,-4737.318029,536.266849
1218.340220,7105.977043,-5921.647536,383.047749
1218.340549,6365.771101,-5477.523971,0.000000
1218.340879,5847.626942,-6883.915261,459.657299
1218.341208,5551.544565,-7994.224174,383.047749
1218.341537,6143.709319,-8734.430116,1072.533697
1218.341866,6587.832884,-8882.471304,1608.800546
1218.342195,6513.812290,-7994.224174,689.485948
1218.342524,6143.709319,-9178.553681,1225.752797
1218.342853,5847.626942,-8956.491898,1149.143247
1218.343182,6069.688724,-8290.306550,1072.533697
1218.343511,5995.668130,-6957.935855,383.047749
1218.343840,6661.853478,-5847.626942,306.438199
1218.344169,7179.997637,-5181.441594,0.000000
1218.344498,8216.285956,-4737.318029,459.657299
1218.344827,7846.182985,-5181.441594,383.047749
1218.345156,7698.141797,-5329.482782,1149.143247
1218.345485,7254.018232,-5921.647536,689.485948
1218.345814,7476.080014,-6809.894666,1225.752797
1218.346143,7846.182985,-7031.956449,1762.019645
1218.346472,7402.059420,-6883.915261,2374.896044
1218.346802,7624.121203,-6809.894666,2145.067394
1218.347131,7624.121203,-6217.729913,1685.410096
1218.347460,7105.977043,-6217.729913,1225.752797
1218.347789,6957.935855,-4737.318029,306.438199
1218.348118,6587.832884,-5255.462188,689.485948
1218.348447,7031.956449,-5255.462188,383.047749
1218.348776,7105.977043,-5107.421000,919.314598
1218.349105,7402.059420,-5477.523971,1072.533697
1218.349434,7624.121203,-5107.421000,689.485948
1218.349763,8216.285956,-5995.668130,1225.752797
1218.350092,7994.224174,-7624.121203,1838.629195
1218.350421,7920.203579,-7624.121203,1608.800546
1218.350750,6513.812290,-7772.162391,1225.752797
1218.351079,6291.750507,-7920.203579,1225.752797
1218.351408,6291.750507,-7920.203579,995.924147
1218.351737,5255.462188,-8882.471304,612.876398
1218.352066,4885.359217,-7920.203579,-229.828649
1218.352395,4441.235652,-6957.935855,-842.705048
1218.352725,4959.379811,-7105.977043,-76.609550
1218.353054,5921.647536,-6291.750507,0.000000
1218.353383,6661.853478,-6809.894666,229.828649
1218.353712,7105.977043,-6809.894666,1149.143247
1218.354041,7698.141797,-6587.832884,1532.190996
1218.354370,8290.306550,-7105.977043,2298.286494
1218.354699,8364.327145,-6143.709319,2451.505594
1218.355028,8438.347739,-6513.812290,2374.896044
1218.355357,8364.327145,-5477.523971,2068.457845
1218.355686,7698.141797,-4959.379811,1302.362347
1218.356015,7698.141797,-4885.359217,1685.410096
1218.356344,7624.121203,-4515.256246,1149.143247
1218.356673,7179.997637,-4515.256246,459.657299
1218.357002,6439.791695,-5033.400406,229.828649
1218.357331,5995.668130,-5995.668130,459.657299
1218.357660,6439.791695,-7031.956449,459.657299
1218.357989,6809.894666,-7846.182985,689.485948
1218.358318,7179.997637,-7994.224174,1455.581446
1218.358648,7179.997637,-7846.182985,1608.800546
1218.358977,7105.977043,-8142.265362,1685.410096
1218.359306,7105.977043,-8660.409521,1915.238745
1218.359635,6365.771101,-7402.059420,919.314598
1218.359964,5847.626942,-7254.018232,536.266849
1218.360293,5995.668130,-5995.668130,306.438199
1218.360622,5995.668130,-5699.585753,229.828649
1218.360951,6439.791695,-5773.606348,306.438199
1218.361280,6661.853478,-5699.585753,459.657299
1218.361609,6883.915261,-5699.585753,689.485948
1218.361938,7402.059420,-5255.462188,1149.143247
1218.362267,7402.059420,-6069.688724,1685.410096
1218.362596,7994.224174,-6809.894666,2145.067394
1218.362925,8068.244768,-6513.812290,2068.457845
1218.363254,7994.224174,-5921.647536,1838.629195
1218.363583,7698.141797,-5995.668130,1608.800546
1218.363912,7328.038826,-6291.750507,1225.752797
1218.364241,6735.874072,-6291.750507,689.485948
1218.364571,6143.709319,-6291.750507,306.438199
1218.364900,6439.791695,-6069.688724,689.485948
1218.365229,6883.915261,-5773.606348,0.000000
1218.365558,6513.812290,-6069.688724,306.438199
1218.365887,6513.812290,-6217.729913,536.266849
1218.366216,7698.141797,-6513.812290,536.266849
1218.366545,7846.182985,-7031.956449,1532.190996
1218.366874,7846.182985,-7846.182985,1685.410096
1218.367203,7402.059420,-8068.244768,1762.019645
1218.367532,7105.977043,-7772.162391,1685.410096
1218.367861,6587.832884,-8216.285956,1608.800546
1218.368190,5773.606348,-8290.306550,689.485948
1218.368519,5329.482782,-7550.100608,612.876398
1218.368848,5255.462188,-7476.080014,0.000000
1218.369177,4663.297435,-6809.894666,-536.266849
1218.369506,4885.359217,-6735.874072,-383.047749
1218.369835,5847.626942,-7698.141797,383.047749
1218.370165,6291.750507,-7031.956449,919.314598
1218.370494,6735.874072,-6735.874072,1225.752797
1218.370823,7624.121203,-6439.791695,2451.505594
1218.371152,7994.224174,-5921.647536,2451.505594
1218.371481,9104.533087,-5625.565159,2681.334243
1218.371810,9326.594869,-4737.318029,2757.943793
1218.372139,8660.409521,-4367.215058,1685.410096
1218.372468,8586.388927,-4367.215058,1532.190996
1218.372797,7994.224174,-4441.235652,1149.143247
1218.373126,7476.080014,-4885.359217,612.876398
1218.373455,7031.956449,-5403.503377,153.219100
1218.373784,6883.915261,-5921.647536,76.609550
1218.374113,7031.956449,-6513.812290,0.000000
1218.374442,6809.894666,-7105.977043,612.876398
1218.374771,6291.750507,-8438.347739,536.266849
1218.375100,5699.585753,-8882.471304,459.657299
1218.375429,5625.565159,-8808.450710,1149.143247
1218.375758,6217.729913,-8734.430116,1455.581446
1218.376088,6587.832884,-8660.409521,1762.019645
1218.376417,6439.791695,-7402.059420,1455.581446
1218.376746,6069.688724,-6809.894666,689.485948
1218.377075,6217.729913,-6291.750507,229.828649
1218.377404,6661.853478,-5181.441594,229.828649
1218.377733,6735.874072,-5107.421000,76.609550
1218.378062,7179.997637,-5255.462188,536.266849
1218.378391,7402.059420,-5847.626942,459.657299
1218.378720,7772.162391,-7179.997637,1072.533697
1218.379049,7920.203579,-7402.059420,1838.629195
1218.379378,7994.224174,-7328.038826,1302.362347
1218.379707,7328.038826,-7698.141797,1608.800546
1218.380036,7254.018232,-7105.977043,1225.752797
1218.380365,7402.059420,-7179.997637,995.924147
1218.380694,7105.977043,-6735.874072,919.314598
1218.381023,6735.874072,-6069.688724,919.314598
1218.381352,6661.853478,-4959.379811,383.047749
1218.381681,7179.997637,-4737.318029,0.000000
1218.382011,7328.038826,-5107.421000,306.438199
1218.382340,7920.203579,-5773.606348,1149.143247
1218.382669,8290.306550,-5699.585753,1532.190996
1218.382998,8586.388927,-4811.338623,1762.019645
1218.383327,8216.285956,-6291.750507,1762.019645
1218.383656,7994.224174,-7031.956449,1915.238745
1218.383985,7624.121203,-8364.327145,1991.848295
1218.384314,6809.894666,-8364.327145,1455.581446
1218.384643,5625.565159,-7328.038826,536.266849
1218.384972,4219.173869,-7846.182985,153.219100
1218.385301,4441.235652,-7698.141797,0.000000
1218.385630,4367.215058,-7698.141797,-766.095498
1218.385959,4441.235652,-7031.956449,-689.485948
1218.386288,4811.338623,-6809.894666,-229.828649
1218.386617,5773.606348,-6809.894666,0.000000
1218.386946,6587.832884,-7105.977043,1302.362347
1218.387275,7550.100608,-7105.977043,1762.019645
1218.387604,8808.450710,-6661.853478,2298.286494
1218.387934,8882.471304,-6365.771101,2757.943793
1218.388263,8956.491898,-5773.606348,2528.115143
1218.388592,9178.553681,-4885.359217,2298.286494
1218.388921,9622.677246,-4219.173869,1762.019645
1218.389250,8660.409521,-3849.070898,1225.752797
1218.389579,7550.100608,-4515.256246,1072.533697
1218.389908,6809.894666,-4885.359217,153.219100
1218.390237,6217.729913,-5699.585753,-383.047749
1218.390566,5477.523971,-6217.729913,-842.705048
1218.390895,5477.523971,-7550.100608,153.219100
1218.391224,5921.647536,-8438.347739,919.314598
1218.391553,6735.874072,-7920.203579,1378.971896
1218.391882,7031.956449,-7994.224174,1838.629195
1218.392211,7031.956449,-7920.203579,1685.410096
1218.392540,7105.977043,-7994.224174,1608.800546
1218.392869,6069.688724,-8142.265362,1149.143247
1218.393198,5847.626942,-7550.100608,689.485948
1218.393527,6143.709319,-5699.585753,459.657299
1218.393857,6291.750507,-5773.606348,229.828649
1218.394186,6217.729913,-5625.565159,459.657299
1218.394515,7105.977043,-5329.482782,383.047749
1218.394844,7179.997637,-5033.400406,306.438199
1218.395173,7254.018232,-6217.729913,229.828649
1218.395502,7105.977043,-6587.832884,1072.533697
1218.395831,7772.162391,-7105.977043,1608.800546
1218.396160,7920.203579,-7328.038826,1915.238745
1218.396489,7254.018232,-7105.977043,2681.334243
1218.396818,7476.080014,-6883.915261,2221.676944
1218.397147,7624.121203,-5921.647536,1685.410096
1218.397476,7179.997637,-6513.812290,1378.971896
1218.397805,6957.935855,-4811.338623,536.266849
1218.398134,6883.915261,-5329.482782,383.047749
1218.398463,7105.977043,-5699.585753,383.047749
1218.398792,6957.935855,-5625.565159,842.705048
1218.399121,7105.977043,-5699.585753,919.314598
1218.399451,7698.141797,-5995.668130,1072.533697
1218.399780,7920.203579,-6809.894666,1149.143247
1218.400109,7328.038826,-7846.182985,1685.410096
1218.400438,7179.997637,-8290.306550,1149.143247
1218.400767,6439.791695,-7920.203579,1149.143247
1218.401096,5995.668130,-8216.285956,1455.581446
1218.401425,6069.688724,-7920.203579,919.314598
1218.401754,5699.585753,-8142.265362,995.924147
1218.402083,5329.482782,-7105.977043,306.438199
1218.402412,5033.400406,-6365.771101,76.609550
1218.402741,5921.647536,-6217.729913,-76.609550
1218.403070,6365.771101,-6069.688724,229.828649
1218.403399,6957.935855,-6439.791695,383.047749
1218.403728,7254.018232,-6661.853478,1072.533697
1218.404057,7402.059420,-6809.894666,2068.457845
1218.404386,8882.471304,-6957.935855,2221.676944
1218.404715,8808.450710,-6735.874072,2298.286494
1218.405044,8364.327145,-5995.668130,2374.896044
1218.405373,8512.368333,-5477.523971,2145.067394
1218.405702,9030.512492,-4885.359217,1915.238745
1218.406031,7846.182985,-4441.235652,1608.800546
1218.406361,7105.977043,-4219.173869,1225.752797
1218.406690,6735.874072,-4145.153275,0.000000
1218.407019,6439.791695,-5921.647536,153.219100
1218.407348,6069.688724,-6365.771101,383.047749
1218.407677,6291.750507,-7698.141797,612.876398
1218.408006,6439.791695,-7920.203579,1072.533697
1218.408335,6513.812290,-8216.285956,1149.143247
1218.408664,7105.977043,-8512.368333,1532.190996
1218.408993,7698.141797,-8142.265362,1838.629195
1218.409322,7328.038826,-8216.285956,1455.581446
1218.409651,6513.812290,-7402.059420,1072.533697
1218.409980,6143.709319,-6957.935855,306.438199
1218.410309,6217.729913,-5773.606348,306.438199
1218.410638,6365.771101,-5329.482782,306.438199
1218.410967,6661.853478,-5477.523971,76.609550
1218.411296,7105.977043,-5551.544565,689.485948
1218.411625,7179.997637,-5477.523971,1302.362347
1218.411954,7179.997637,-5921.647536,919.314598
1218.412283,7031.956449,-6735.874072,1762.019645
1218.412612,7179.997637,-7994.224174,1838.629195
1218.412941,6883.915261,-7772.162391,1608.800546
1218.413271,7105.977043,-7254.018232,1915.238745
1218.413600,7179.997637,-7402.059420,1685.410096
1218.413929,7550.100608,-6883.915261,1532.190996
1218.414258,7031.956449,-6217.729913,1455.581446
1218.414587,6661.853478,-5551.544565,536.266849
1218.414916,6883.915261,-5329.482782,689.485948
1218.415245,6809.894666,-4737.318029,306.438199
1218.415574,6883.915261,-5329.482782,459.657299
1218.415903,7105.977043,-5477.523971,612.876398
1218.416232,7624.121203,-5847.626942,919.314598
1218.416561,8364.327145,-6661.853478,1915.238745
1218.416890,8216.285956,-7550.100608,2145.067394
1218.417219,7476.080014,-8290.306550,1915.238745
1218.417548,6661.853478,-8142.265362,1685.410096
1218.417877,5773.606348,-7846.182985,842.705048
1218.418206,5625.565159,-8512.368333,995.924147
1218.418535,5773.606348,-7846.182985,536.266849
1218.418864,5625.565159,-6809.894666,0.000000
1218.419193,5551.544565,-6069.688724,689.485948
1218.419522,6143.709319,-5921.647536,76.609550
1218.419851,6439.791695,-6439.791695,459.657299
1218.420181,6513.812290,-6587.832884,1072.533697
1218.420510,6587.832884,-5921.647536,1072.533697
1218.420839,7105.977043,-5773.606348,536.266849
1218.421168,7846.182985,-5847.626942,2681.334243
1218.421497,8586.388927,-6365.771101,2681.334243
1218.421826,9104.533087,-5995.668130,2451.505594
1218.422155,8068.244768,-5033.400406,2604.724693
1218.422484,7698.141797,-5107.421000,919.314598
1218.422813,7105.977043,-4885.359217,383.047749
1218.423142,6809.894666,-5773.606348,153.219100
1218.423471,6883.915261,-6143.709319,0.000000
1218.423800,6735.874072,-5773.606348,153.219100
1218.424129,6587.832884,-6513.812290,153.219100
1218.424458,6439.791695,-6957.935855,766.095498
1218.424787,6809.894666,-7402.059420,689.485948
1218.425116,7031.956449,-8068.244768,1455.581446
1218.425445,7179.997637,-8660.409521,1685.410096
1218.425774,6661.853478,-7920.203579,1608.800546
1218.426103,6587.832884,-8142.265362,1532.190996
1218.426432,6513.812290,-7179.997637,1225.752797
1218.426761,6883.915261,-7031.956449,1455.581446
1218.427091,6439.791695,-6587.832884,536.266849
1218.427420,5847.626942,-6069.688724,153.219100
1218.427749,5921.647536,-5403.503377,0.000000
1218.428078,6217.729913,-6291.750507,0.000000
1218.428407,7105.977043,-6439.791695,383.047749
1218.428736,7105.977043,-7031.956449,1149.143247
1218.429065,7402.059420,-7031.956449,1455.581446
1218.429394,7624.121203,-6661.853478,1608.800546
1218.429723,7179.997637,-6957.935855,1762.019645
1218.430052,7550.100608,-6883.915261,1762.019645
1218.430381,7254.018232,-6587.832884,1838.629195
1218.430710,7476.080014,-5921.647536,1072.533697
1218.431039,7105.977043,-5477.523971,689.485948
1218.431368,6735.874072,-4811.338623,1532.190996
1218.431697,7179.997637,-4885.359217,689.485948
1218.432026,7105.977043,-4959.379811,536.266849
1218.432355,7254.018232,-5921.647536,1149.143247
1218.432684,7476.080014,-5773.606348,1302.362347
1218.433013,7624.121203,-5921.647536,1532.190996
1218.433342,7920.203579,-7031.956449,2145.067394
1218.433672,8142.265362,-6883.915261,2145.067394
1218.434001,7624.121203,-7328.038826,2221.676944
1218.434330,6809.894666,-7772.162391,2374.896044
1218.434659,5847.626942,-7402.059420,995.924147
1218.434988,4811.338623,-7476.080014,76.609550
1218.435317,4737.318029,-7254.018232,-306.438199
1218.435646,4441.235652,-7624.121203,-459.657299
1218.435975,4811.338623,-7624.121203,0.000000
1218.436304,5625.565159,-7476.080014,153.219100
1218.436633,5921.647536,-6883.915261,306.438199
1218.436962,6735.874072,-7254.018232,842.705048
1218.437291,7624.121203,-7402.059420,1838.629195
1218.437620,8142.265362,-6883.915261,1762.019645
1218.437949,8142.265362,-6809.894666,1838.629195
1218.438278,7698.141797,-6365.771101,2298.286494
1218.438607,8068.244768,-5847.626942,1915.238745
1218.438936,8734.430116,-5107.421000,1378.971896
1218.439265,7994.224174,-4515.256246,1378.971896
1218.439594,7254.018232,-4737.318029,689.485948
1218.439923,6587.832884,-4589.276840,842.705048
1218.440252,6513.812290,-4441.235652,383.047749
1218.440582,6809.894666,-5551.544565,-229.828649
1218.440911,7031.956449,-6291.750507,612.876398
1218.441240,6957.935855,-7328.038826,1149.143247
1218.441569,7105.977043,-8142.265362,1762.019645
1218.441898,7328.038826,-8142.265362,2298.286494
1218.442227,7179.997637,-8364.327145,1991.848295
1218.442556,6883.915261,-7846.182985,1685.410096
1218.442885,6439.791695,-7994.224174,1455.581446
1218.443214,6439.791695,-7476.080014,995.924147
1218.443543,6735.874072,-6587.832884,766.095498
1218.443872,5847.626942,-5847.626942,229.828649
1218.444201,6217.729913,-5773.606348,0.000000
1218.444530,6439.791695,-5773.606348,229.828649
1218.444859,6735.874072,-5847.626942,0.000000
1218.445188,7179.997637,-5995.668130,536.266849
1218.445517,7328.038826,-6587.832884,1149.143247
1218.445846,7698.141797,-6957.935855,1378.971896
1218.446175,8142.265362,-6957.935855,1838.629195
1218.446504,8586.388927,-6735.874072,1762.019645
1218.446833,7254.018232,-6439.791695,1455.581446
1218.447162,7105.977043,-6587.832884,1608.800546
1218.447492,7105.977043,-6217.729913,842.705048
1218.447821,6587.832884,-5477.523971,536.266849
1218.448150,6883.915261,-5699.585753,919.314598
1218.448479,6809.894666,-5477.523971,383.047749
1218.448808,6957.935855,-5995.668130,919.314598
1218.449137,6883.915261,-5847.626942,1225.752797
1218.449466,7179.997637,-6291.750507,1149.143247
1218.449795,7920.203579,-6291.750507,1149.143247
1218.450124,7698.141797,-7698.141797,2221.676944
1218.450453,8142.265362,-7698.141797,2145.067394
1218.450782,7698.141797,-7179.997637,2374.896044
1218.451111,6661.853478,-6735.874072,919.314598
1218.451440,5995.668130,-7031.956449,612.876398
1218.451769,5329.482782,-7550.100608,383.047749
1218.452098,5625.565159,-7402.059420,0.000000
1218.452427,5107.421000,-6735.874072,0.000000
1218.452756,5181.441594,-6365.771101,-306.438199
1218.453085,6069.688724,-7179.997637,153.219100
1218.453414,6809.894666,-7031.956449,536.266849
1218.453743,6809.894666,-7179.997637,1072.533697
1218.454072,7772.162391,-7550.100608,536.266849
1218.454402,7328.038826,-7179.997637,2298.286494
1218.454731,8142.265362,-7105.977043,2298.286494
1218.455060,8290.306550,-6217.729913,2374.896044
1218.455389,8364.327145,-6291.750507,2834.553343
1218.455718,7920.203579,-5329.482782,1838.629195
1218.456047,7254.018232,-4737.318029,995.924147
1218.456376,7624.121203,-4589.276840,689.485948
1218.456705,7179.997637,-4663.297435,383.047749
1218.457034,7254.018232,-4737.318029,766.095498
1218.457363,6365.771101,-5921.647536,0.000000
1218.457692,6069.688724,-7254.018232,0.000000
1218.458021,6439.791695,-6957.935855,766.095498
1218.458350,7328.038826,-7846.182985,1149.143247
1218.458679,7402.059420,-7772.162391,1991.848295
1218.459008,7105.977043,-7698.141797,1378.971896
1218.459337,7179.997637,-7624.121203,1302.362347
1218.459666,6661.853478,-7698.141797,1149.143247
1218.459995,5847.626942,-7402.059420,306.438199
1218.460324,6291.750507,-6069.688724,1149.143247
1218.460653,6143.709319,-6069.688724,153.219100
1218.460982,6513.812290,-5477.523971,0.000000
1218.461312,6809.894666,-5699.585753,766.095498
1218.461641,7846.182985,-4885.359217,306.438199
1218.461970,7624.121203,-5699.585753,1378.971896
1218.462299,7624.121203,-5921.647536,1455.581446
1218.462628,8068.244768,-5921.647536,1608.800546
1218.462957,7105.977043,-6735.874072,2145.067394
1218.463286,7624.121203,-7698.141797,1762.019645
1218.463615,7328.038826,-6587.832884,1225.752797
1218.463944,7031.956449,-6513.812290,1378.971896
1218.464273,6587.832884,-7031.956449,1149.143247
1218.464602,6809.894666,-6291.750507,689.485948
1218.464931,6143.709319,-6291.750507,383.047749
1218.465260,6217.729913,-5921.647536,0.000000
1218.465589,6439.791695,-5995.668130,76.609550
1218.465918,7105.977043,-6365.771101,1072.533697
1218.466247,7624.121203,-6439.791695,1685.410096
1218.466576,7698.141797,-7031.956449,1762.019645
1218.466905,7624.121203,-7179.997637,2221.676944
1218.467234,7624.121203,-7698.141797,1991.848295
1218.467563,7698.141797,-7846.182985,2604.724693
1218.467893,7328.038826,-6883.915261,1532.190996
1218.468222,6217.729913,-7476.080014,306.438199
1218.468551,5329.482782,-7031.956449,306.438199
1218.468880,5403.503377,-6957.935855,0.000000
1218.469209,5773.606348,-6217.729913,-383.047749
1218.469538,5921.647536,-5773.606348,0.000000
1218.469867,5625.565159,-7105.977043,153.219100
1218.470196,5921.647536,-7402.059420,536.266849
1218.470525,6143.709319,-7105.977043,2145.067394
1218.470854,6735.874072,-6809.894666,1915.238745
1218.471183,7920.203579,-5033.400406,2374.896044
1218.471512,8586.388927,-5329.482782,2528.115143
1218.471841,8808.450710,-5255.462188,2374.896044
1218.472170,9400.615463,-5181.441594,2221.676944
1218.472499,8216.285956,-4811.338623,1302.362347
1218.472828,7254.018232,-4663.297435,459.657299
1218.473157,6365.771101,-5329.482782,459.657299
1218.473486,7031.956449,-6143.709319,229.828649
1218.473815,7624.121203,-6513.812290,0.000000
1218.474144,6957.935855,-6587.832884,229.828649
1218.474473,6439.791695,-7476.080014,766.095498
1218.474803,6957.935855,-7698.141797,1532.190996
1218.475132,6735.874072,-7550.100608,1072.533697
1218.475461,6439.791695,-8956.491898,995.924147
1218.475790,5995.668130,-8586.388927,1685.410096
1218.476119,5995.668130,-8216.285956,1149.143247
1218.476448,5921.647536,-7402.059420,689.485948
1218.476777,6217.729913,-6587.832884,1685.410096
1218.477106,6809.894666,-6513.812290,229.828649
1218.477435,7254.018232,-5329.482782,536.266849
1218.477764,6957.935855,-5107.421000,306.438199
1218.478093,7105.977043,-5699.585753,76.609550
1218.478422,7328.038826,-5181.441594,459.657299
1218.478751,7254.018232,-6809.894666,919.314598
1218.479080,7550.100608,-7105.977043,1378.971896
1218.479409,7624.121203,-6957.935855,1762.019645
1218.479738,7920.203579,-7105.977043,1608.800546
1218.480067,7772.162391,-6291.750507,1762.019645
1218.480396,7698.141797,-6291.750507,1685.410096
1218.480725,7624.121203,-5921.647536,1072.533697
1218.481054,7031.956449,-5773.606348,919.314598
1218.481383,7031.956449,-5107.421000,-229.828649
1218.481713,7105.977043,-4959.379811,459.657299
1218.482042,7476.080014,-5329.482782,689.485948
1218.482371,7698.141797,-5773.606348,995.924147
1218.482700,7550.100608,-5995.668130,1302.362347
1218.483029,7846.182985,-5995.668130,1685.410096
1218.483358,8216.285956,-7254.018232,2068.457845
1218.483687,7920.203579,-7328.038826,2068.457845
1218.484016,7476.080014,-7698.141797,2298.286494
1218.484345,6439.791695,-7402.059420,1991.848295
1218.484674,6143.709319,-7402.059420,919.314598
1218.485003,5181.441594,-7328.038826,612.876398
1218.485332,4811.338623,-7476.080014,229.828649
1218.485661,5181.441594,-7179.997637,-229.828649
1218.485990,4737.318029,-7105.977043,0.000000
1218.486319,5107.421000,-7031.956449,-76.609550
1218.486648,5995.668130,-7105.977043,459.657299
1218.486977,7031.956449,-7846.182985,459.657299
1218.487306,7105.977043,-7031.956449,1302.362347
1218.487635,7698.141797,-7402.059420,1762.019645
1218.487964,8438.347739,-7105.977043,2068.457845
1218.488293,8290.306550,-7105.977043,2528.115143
1218.488623,8290.306550,-6217.729913,2068.457845
1218.488952,8364.327145,-4811.338623,1378.971896
1218.489281,7994.224174,-4293.194464,1378.971896
1218.489610,7624.121203,-4219.173869,842.705048
1218.489939,7031.956449,-4441.235652,612.876398
1218.490268,7476.080014,-4663.297435,153.219100
1218.490597,7105.977043,-5107.421000,383.047749
1218.490926,6661.853478,-5773.606348,229.828649
1218.491255,6661.853478,-7031.956449,919.314598
1218.491584,7105.977043,-8142.265362,1149.143247
1218.491913,7031.956449,-8734.430116,2068.457845
1218.492242,6661.853478,-8586.388927,1991.848295
1218.492571,6735.874072,-8438.347739,1608.800546
1218.492900,5995.668130,-8216.285956,1072.533697
1218.493229,5551.544565,-8142.265362,536.266849
1218.493558,5699.585753,-7105.977043,919.314598
1218.493887,6069.688724,-6069.688724,383.047749
1218.494216,6513.812290,-5699.585753,-153.219100
1218.494545,6365.771101,-5033.400406,153.219100
1218.494874,6661.853478,-5995.668130,0.000000
1218.495203,7105.977043,-6069.688724,919.314598
1218.495533,7179.997637,-6587.832884,1302.362347
1218.495862,7624.121203,-7031.956449,1455.581446
1218.496191,8216.285956,-5551.544565,2374.896044
1218.496520,8882.471304,-6069.688724,1762.019645
1218.496849,7624.121203,-6513.812290,1838.629195
1218.497178,7402.059420,-6661.853478,1838.629195
1218.497507,7031.956449,-5477.523971,1149.143247
1218.497836,6439.791695,-4737.318029,689.485948
1218.498165,6587.832884,-5329.482782,536.266849
1218.498494,7031.956449,-6291.750507,229.828649
1218.498823,6735.874072,-6957.935855,842.705048
1218.499152,6661.853478,-6069.688724,689.485948
1218.499481,6661.853478,-5921.647536,1302.362347
1218.499810,7624.121203,-6735.874072,1455.581446
1218.500140,7846.182985,-7550.100608,2451.505594
1218.500469,7920.203579,-7476.080014,2221.676944
1218.500798,7105.977043,-6883.915261,1838.629195
1218.501127,6809.894666,-7254.018232,1149.143247
1218.501456,6513.812290,-7476.080014,766.095498
1218.501785,5847.626942,-7402.059420,536.266849
1218.502114,5403.503377,-7772.162391,0.000000
1218.502443,4737.318029,-6439.791695,-306.438199
1218.502772,5033.400406,-6365.771101,-229.828649
1218.503102,5699.585753,-7179.997637,-536.266849
1218.503431,6513.812290,-7105.977043,612.876398
1218.503760,6883.915261,-7402.059420,1149.143247
1218.504089,7402.059420,-7698.141797,1455.581446
1218.504418,7476.080014,-7328.038826,2451.505594
1218.504747,8438.347739,-6661.853478,2451.505594
1218.505076,8660.409521,-5995.668130,2451.505594
1218.505405,7994.224174,-4589.276840,2757.943793
1218.505734,7994.224174,-4737.318029,1762.019645
1218.506063,7550.100608,-4737.318029,1532.190996
1218.506393,7624.121203,-4367.215058,229.828649
1218.506722,7105.977043,-4737.318029,459.657299
1218.507051,7328.038826,-4145.153275,459.657299
1218.507380,6439.791695,-6069.688724,536.266849
1218.507709,6883.915261,-7402.059420,536.266849
1218.508038,6735.874072,-7772.162391,1072.533697
1218.508367,7031.956449,-8290.306550,1762.019645
1218.508696,6735.874072,-7994.224174,1608.800546
1218.509025,6513.812290,-8586.388927,1455.581446
1218.509354,5921.647536,-8068.244768,995.924147
1218.509684,6513.812290,-7328.038826,842.705048
1218.510013,6217.729913,-6735.874072,229.828649
1218.510342,6513.812290,-7105.977043,842.705048
1218.510671,6291.750507,-5773.606348,76.609550
1218.511000,6513.812290,-5033.400406,0.000000
1218.511329,6809.894666,-5847.626942,229.828649
1218.511658,7402.059420,-5773.606348,1149.143247
1218.511987,8068.244768,-5699.585753,1072.533697
1218.512316,8216.285956,-5995.668130,1378.971896
1218.512645,8216.285956,-6661.853478,1762.019645
1218.512975,7920.203579,-8068.244768,1532.190996
1218.513304,6957.935855,-7105.977043,1685.410096
1218.513633,6883.915261,-6513.812290,1302.362347
1218.513962,7105.977043,-6661.853478,1302.362347
1218.514291,7031.956449,-5329.482782,1072.533697
1218.514620,6587.832884,-5773.606348,689.485948
1218.514949,6143.709319,-5699.585753,383.047749
1218.515278,6365.771101,-5995.668130,536.266849
1218.515607,6217.729913,-6735.874072,459.657299
1218.515937,6513.812290,-6439.791695,1225.752797
1218.516266,7476.080014,-7105.977043,1149.143247
1218.516595,8364.327145,-7476.080014,1991.848295
1218.516924,8808.450710,-7846.182985,2451.505594
1218.517253,8290.306550,-7550.100608,2374.896044
1218.517582,7402.059420,-6735.874072,1455.581446
1218.517911,6291.750507,-7179.997637,766.095498
1218.518240,5477.523971,-7254.018232,306.438199
1218.518569,5033.400406,-7031.956449,459.657299
1218.518898,4959.379811,-6291.750507,76.609550
1218.519228,5551.544565,-6365.771101,0.000000
1218.519557,5551.544565,-5995.668130,383.047749
1218.519886,6069.688724,-6513.812290,766.095498
1218.520215,6143.709319,-7624.121203,919.314598
1218.520544,7105.977043,-6809.894666,1072.533697
1218.520873,7105.977043,-6365.771101,1991.848295
1218.521202,8290.306550,-5995.668130,2145.067394
1218.521531,8956.491898,-5995.668130,2911.162892
1218.521860,9104.533087,-5921.647536,2604.724693
1218.522189,9178.553681,-5181.441594,1838.629195
1218.522519,8142.265362,-4515.256246,1378.971896
1218.522848,7105.977043,-4589.276840,383.047749
1218.523177,7031.956449,-4663.297435,383.047749
1218.523506,6439.791695,-5847.626942,153.219100
1218.523835,6883.915261,-5847.626942,229.828649
1218.524164,6291.750507,-6291.750507,76.609550
1218.524493,6291.750507,-7328.038826,383.047749
1218.524822,6957.935855,-8364.327145,1225.752797
1218.525151,7624.121203,-8956.491898,2068.457845
1218.525480,7402.059420,-8734.430116,1455.581446
1218.525810,6883.915261,-8142.265362,1915.238745
1218.526139,6365.771101,-7994.224174,1532.190996
1218.526468,6439.791695,-7179.997637,1225.752797
1218.526797,6439.791695,-6365.771101,612.876398
1218.527126,6069.688724,-6365.771101,153.219100
1218.527455,6365.771101,-5477.523971,306.438199
1218.527784,6735.874072,-5477.523971,229.828649
1218.528113,6883.915261,-6069.688724,0.000000
1218.528442,7105.977043,-5181.441594,229.828649
1218.528772,6809.894666,-6661.853478,919.314598
1218.529101,7179.997637,-6957.935855,1149.143247
1218.529430,7772.162391,-7105.977043,1532.190996
1218.529759,8438.347739,-6661.853478,1685.410096
1218.530088,7920.203579,-6439.791695,1991.848295
1218.530417,8142.265362,-6143.709319,1838.629195
1218.530746,7920.203579,-5921.647536,1225.752797
1218.531075,7476.080014,-5033.400406,76.609550
1218.531404,7105.977043,-4959.379811,383.047749
1218.531733,6957.935855,-5329.482782,229.828649
1218.532063,7105.977043,-5107.421000,459.657299
1218.532392,6587.832884,-5995.668130,689.485948
1218.532721,7254.018232,-6291.750507,1532.190996
1218.533050,7402.059420,-7254.018232,1378.971896
1218.533379,7328.038826,-7254.018232,1608.800546
1218.533708,7328.038826,-7476.080014,1685.410096
1218.534037,6957.935855,-7920.203579,1838.629195
1218.534366,6439.791695,-8142.265362,1762.019645
1218.534695,6513.812290,-7550.100608,995.924147
1218.535024,5551.544565,-7105.977043,689.485948
1218.535354,5181.441594,-7105.977043,229.828649
1218.535683,5033.400406,-6217.729913,-459.657299
1218.536012,4959.379811,-6365.771101,-536.266849
1218.536341,5107.421000,-7179.997637,-612.876398
1218.536670,6069.688724,-7476.080014,766.095498
1218.536999,6883.915261,-7105.977043,1149.143247
1218.537328,7105.977043,-7550.100608,1608.800546
1218.537657,7105.977043,-7624.121203,1685.410096
1218.537986,7624.121203,-7624.121203,1915.238745
1218.538315,7994.224174,-7846.182985,1991.848295
1218.538645,7994.224174,-5255.462188,1302.362347
1218.538974,8290.306550,-4663.297435,1685.410096
1218.539303,8586.388927,-3849.070898,1225.752797
1218.539632,8364.327145,-3775.050304,1072.533697
1218.539961,7550.100608,-4293.194464,306.438199
1218.540290,7624.121203,-4219.173869,689.485948
1218.540619,7105.977043,-5477.523971,306.438199
1218.540948,7031.956449,-6069.688724,689.485948
1218.541277,6957.935855,-7698.141797,919.314598
1218.541607,6735.874072,-8512.368333,1149.143247
1218.541936,7328.038826,-8734.430116,1762.019645
1218.542265,6735.874072,-8734.430116,1915.238745
1218.542594,6365.771101,-8734.430116,1225.752797
1218.542923,5921.647536,-8068.244768,612.876398
1218.543252,5477.523971,-8216.285956,1072.533697
1218.543581,5255.462188,-7105.977043,0.000000
1218.543910,5773.606348,-6069.688724,229.828649
1218.544239,6217.729913,-5403.503377,0.000000
1218.544568,6587.832884,-5477.523971,306.438199
1218.544898,6957.935855,-5329.482782,383.047749
1218.545227,7624.121203,-5625.565159,612.876398
1218.545556,7846.182985,-5773.606348,1302.362347
1218.545885,7920.203579,-6217.729913,1455.581446
1218.546214,8438.347739,-7031.956449,2145.067394
1218.546543,8290.306550,-7254.018232,2145.067394
1218.546872,7772.162391,-6661.853478,1685.410096
1218.547201,7105.977043,-6957.935855,1455.581446
1218.547530,6883.915261,-5995.668130,842.705048
1218.547859,6957.935855,-6217.729913,459.657299
1218.548189,6587.832884,-5551.544565,459.657299
1218.548518,6365.771101,-5699.585753,766.095498
1218.548847,6587.832884,-6143.709319,229.828649
1218.549176,6735.874072,-6143.709319,536.266849
1218.549505,6513.812290,-5847.626942,1455.581446
1218.549834,7624.121203,-6809.894666,1838.629195
1218.550163,8216.285956,-6809.894666,2528.115143
1218.550492,8512.368333,-6809.894666,1915.238745
1218.550821,7920.203579,-6809.894666,1762.019645
1218.551150,7105.977043,-6735.874072,995.924147
1218.551480,6291.750507,-7254.018232,306.438199
1218.551809,5477.523971,-7254.018232,229.828649
1218.552138,5255.462188,-7772.162391,0.000000
1218.552467,5181.441594,-7624.121203,-919.314598
1218.552796,4959.379811,-7846.182985,0.000000
1218.553125,5255.462188,-7772.162391,0.000000
1218.553454,5625.565159,-7254.018232,229.828649
1218.553783,6365.771101,-7179.997637,689.485948
1218.554112,6735.874072,-7031.956449,1072.533697
1218.554442,7550.100608,-7105.977043,2298.286494
1218.554771,8882.471304,-6143.709319,2757.943793
1218.555100,8882.471304,-5921.647536,2681.334243
1218.555429,9104.533087,-4737.318029,2757.943793
1218.555758,8734.430116,-4737.318029,1762.019645
1218.556087,8216.285956,-4737.318029,1532.190996
1218.556416,7624.121203,-3701.029710,612.876398
1218.556745,7254.018232,-4589.276840,76.609550
1218.557074,7550.100608,-5477.523971,0.000000
1218.557403,6883.915261,-6883.915261,459.657299
1218.557733,6365.771101,-7476.080014,612.876398
1218.558062,6291.750507,-8216.285956,1072.533697
1218.558391,6439.791695,-8734.430116,1455.581446
1218.558720,6217.729913,-8882.471304,1302.362347
1218.559049,5995.668130,-8438.347739,1532.190996
1218.559378,6217.729913,-7476.080014,995.924147
1218.559707,6513.812290,-7105.977043,689.485948
1218.560036,7105.977043,-6291.750507,1532.190996
1218.560365,6883.915261,-5699.585753,612.876398
1218.560694,7105.977043,-5033.400406,459.657299
1218.561024,7402.059420,-4663.297435,383.047749
1218.561353,7698.141797,-5033.400406,766.095498
1218.561682,7402.059420,-5847.626942,1149.143247
1218.562011,7624.121203,-6291.750507,1685.410096
1218.562340,7328.038826,-6587.832884,1532.190996
1218.562669,7179.997637,-6809.894666,1302.362347
1218.562998,7328.038826,-7550.100608,1608.800546
1218.563327,7105.977043,-7846.182985,1915.238745
1218.563656,6587.832884,-7105.977043,1455.581446
1218.563985,6143.709319,-6735.874072,1072.533697
1218.564315,6587.832884,-5107.421000,459.657299
1218.564644,6513.812290,-5329.482782,459.657299
1218.564973,6735.874072,-6143.709319,689.485948
1218.565302,7254.018232,-5699.585753,766.095498
1218.565631,7550.100608,-5921.647536,383.047749
1218.565960,7698.141797,-5847.626942,153.219100
1218.566289,7994.224174,-6217.729913,1608.800546
1218.566618,8734.430116,-7254.018232,1991.848295
1218.566947,8364.327145,-7772.162391,2145.067394
1218.567277,7550.100608,-7698.141797,1915.238745
1218.567606,7105.977043,-7476.080014,766.095498
1218.567935,6069.688724,-7105.977043,689.485948
1218.568264,5255.462188,-7328.038826,229.828649
1218.568593,4737.318029,-7476.080014,0.000000
1218.568922,4737.318029,-6883.915261,0.000000
1218.569251,5329.482782,-6513.812290,0.000000
1218.569580,5477.523971,-6513.812290,0.000000
1218.569909,6217.729913,-6439.791695,689.485948
1218.570238,6809.894666,-7402.059420,766.095498
1218.570568,7476.080014,-7179.997637,2374.896044
1218.570897,7698.141797,-6883.915261,2145.067394
1218.571226,8142.265362,-6587.832884,2145.067394
1218.571555,8660.409521,-6217.729913,2374.896044
1218.571884,8512.368333,-6661.853478,2298.286494
1218.572213,7994.224174,-5625.565159,2068.457845
1218.572542,7772.162391,-5033.400406,1685.410096
1218.572871,7550.100608,-4441.235652,612.876398
1218.573200,7105.977043,-3923.091493,383.047749
1218.573529,7105.977043,-5107.421000,0.000000
1218.573859,6809.894666,-5403.503377,0.000000
1218.574188,6217.729913,-6661.853478,383.047749
1218.574517,6291.750507,-7179.997637,689.485948
1218.574846,6809.894666,-7846.182985,1072.533697
1218.575175,7772.162391,-8290.306550,1608.800546
1218.575504,7402.059420,-8290.306550,1762.019645
1218.575833,7031.956449,-9178.553681,1762.019645
1218.576162,6809.894666,-7476.080014,1608.800546
1218.576491,6587.832884,-7328.038826,1072.533697
1218.576820,6069.688724,-6291.750507,766.095498
1218.577150,6069.688724,-5921.647536,76.609550
1218.577479,6143.709319,-5995.668130,0.000000
1218.577808,6365.771101,-5181.441594,229.828649
1218.578137,6809.894666,-5329.482782,842.705048
1218.578466,7550.100608,-5477.523971,919.314598
1218.578795,7624.121203,-6069.688724,1378.971896
1218.579124,7328.038826,-7105.977043,1225.752797
1218.579453,6957.935855,-7105.977043,1455.581446
1218.579782,7105.977043,-6957.935855,1762.019645
1218.580112,7624.121203,-7254.018232,1608.800546
1218.580441,7550.100608,-6735.874072,1685.410096
1218.580770,7550.100608,-6587.832884,1302.362347
1218.581099,7772.162391,-6291.750507,842.705048
1218.581428,6957.935855,-5625.565159,689.485948
1218.581757,7031.956449,-5329.482782,229.828649
1218.582086,6883.915261,-5255.462188,536.266849
1218.582415,6439.791695,-6069.688724,612.876398
1218.582744,6957.935855,-5551.544565,0.000000
1218.583073,7550.100608,-6735.874072,1685.410096
1218.583403,8290.306550,-6439.791695,1838.629195
1218.583732,7772.162391,-7254.018232,2221.676944
1218.584061,6957.935855,-7105.977043,2528.115143
1218.584390,6735.874072,-7105.977043,1378.971896
1218.584719,6217.729913,-7550.100608,919.314598
1218.585048,5551.544565,-7328.038826,919.314598
1218.585377,4885.359217,-7328.038826,76.609550
1218.585706,5551.544565,-7105.977043,-229.828649
1218.586035,5181.441594,-7179.997637,76.609550
1218.586364,5921.647536,-7179.997637,0.000000
1218.586694,6069.688724,-7402.059420,612.876398
1218.587023,6365.771101,-7254.018232,229.828649
1218.587352,6809.894666,-7402.059420,919.314598
1218.587681,7254.018232,-6809.894666,1762.019645
1218.588010,7994.224174,-6587.832884,2145.067394
1218.588339,8290.306550,-6143.709319,2374.896044
1218.588668,8142.265362,-5477.523971,2374.896044
1218.588997,8216.285956,-4737.318029,1532.190996
1218.589326,8364.327145,-3775.050304,1608.800546
1218.589655,8068.244768,-4145.153275,919.314598
1218.589985,7328.038826,-5033.400406,612.876398
1218.590314,6735.874072,-5107.421000,383.047749
1218.590643,6883.915261,-5847.626942,76.609550
1218.590972,6513.812290,-6883.915261,459.657299
1218.591301,6809.894666,-7846.182985,1072.533697
1218.591630,7402.059420,-8438.347739,1455.581446
1218.591959,7105.977043,-9326.594869,2221.676944
1218.592288,6513.812290,-8068.244768,1608.800546
1218.592617,6143.709319,-8142.265362,689.485948
1218.592947,6291.750507,-7031.956449,536.266849
1218.593276,5921.647536,-7179.997637,536.266849
1218.593605,5477.523971,-6587.832884,0.000000
1218.593934,6069.688724,-5847.626942,306.438199
1218.594263,6735.874072,-5847.626942,229.828649
1218.594592,6957.935855,-5403.503377,229.828649
1218.594921,7179.997637,-5699.585753,536.266849
1218.595250,7920.203579,-6735.874072,919.314598
1218.595579,7846.182985,-6735.874072,1225.752797
1218.595908,7920.203579,-6587.832884,1532.190996
1218.596238,8216.285956,-7105.977043,2221.676944
1218.596567,8364.327145,-6217.729913,2068.457845
1218.596896,7772.162391,-6291.750507,1378.971896
1218.597225,6957.935855,-6069.688724,1302.362347
1218.597554,6735.874072,-5255.462188,1149.143247
1218.597883,6809.894666,-4811.338623,842.705048
1218.598212,6957.935855,-4367.215058,919.314598
1218.598541,7105.977043,-5403.503377,536.266849
1218.598870,7105.977043,-5921.647536,612.876398
1218.599199,6809.894666,-6365.771101,1225.752797
1218.599529,6661.853478,-6291.750507,1072.533697
1218.599858,7179.997637,-7179.997637,1455.581446
1218.600187,8068.244768,-7698.141797,2528.115143
1218.600516,7772.162391,-8586.388927,2451.505594
1218.600845,7476.080014,-7772.162391,1685.410096
1218.601175,6291.750507,-7105.977043,995.924147
1218.601504,5921.647536,-7105.977043,306.438199
1218.601833,5477.523971,-7105.977043,612.876398
1218.602162,5477.523971,-7105.977043,689.485948
1218.602491,5921.647536,-6143.709319,0.000000
1218.602821,5921.647536,-6365.771101,0.000000
1218.603150,6069.688724,-6809.894666,306.438199
1218.603479,6735.874072,-7179.997637,766.095498
1218.603808,7328.038826,-7476.080014,842.705048
1218.604137,6957.935855,-7328.038826,1302.362347
1218.604467,7402.059420,-7994.224174,1915.238745
1218.604796,8290.306550,-6735.874072,2528.115143
1218.605125,8290.306550,-6735.874072,2298.286494
1218.605454,7476.080014,-4737.318029,2374.896044
1218.605783,7328.038826,-5033.400406,1608.800546
1218.606113,7698.141797,-4663.297435,689.485948
1218.606442,7328.038826,-3849.070898,766.095498
1218.606771,7105.977043,-3701.029710,0.000000
1218.607100,7105.977043,-4515.256246,0.000000
1218.607430,7105.977043,-5995.668130,536.266849
1218.607759,6439.791695,-7550.100608,536.266849
1218.608088,6735.874072,-7550.100608,919.314598
1218.608417,7105.977043,-8734.430116,1149.143247
1218.608746,6957.935855,-9770.718434,1149.143247
1218.609076,6809.894666,-8882.471304,1838.629195
1218.609405,6661.853478,-8808.450710,1072.533697
1218.609734,5625.565159,-7476.080014,995.924147
1218.610063,5403.503377,-7402.059420,689.485948
1218.610392,5477.523971,-6439.791695,306.438199
1218.610722,6587.832884,-4959.379811,76.609550
1218.611051,6957.935855,-4737.318029,229.828649
1218.611380,7624.121203,-4737.318029,612.876398
1218.611709,7698.141797,-5551.544565,1072.533697
1218.612038,8290.306550,-5107.421000,1149.143247
1218.612368,8364.327145,-6513.812290,1455.581446
1218.612697,8216.285956,-6513.812290,1532.190996
1218.613026,7624.121203,-7105.977043,1991.848295
1218.613355,7328.038826,-8290.306550,2145.067394
1218.613685,7105.977043,-7179.997637,1532.190996
1218.614014,6143.709319,-6883.915261,1072.533697
1218.614343,6069.688724,-5773.606348,842.705048
1218.614672,5847.626942,-5995.668130,995.924147
1218.615001,6143.709319,-6217.729913,383.047749
1218.615331,6513.812290,-5551.544565,536.266849
1218.615660,6513.812290,-4885.359217,306.438199
1218.615989,7550.100608,-5699.585753,766.095498
1218.616318,7698.141797,-5551.544565,1685.410096
1218.616647,8512.368333,-6735.874072,2451.505594
1218.616977,9252.574275,-6365.771101,2451.505594
1218.617306,8364.327145,-6809.894666,2834.553343
1218.617635,7550.100608,-6957.935855,1915.238745
1218.617964,6809.894666,-7031.956449,1685.410096
1218.618293,5625.565159,-7105.977043,306.438199
1218.618623,4737.318029,-7698.141797,0.000000
1218.618952,4441.235652,-7624.121203,919.314598
1218.619281,5033.400406,-6957.935855,0.000000
1218.619610,4811.338623,-7105.977043,0.000000
1218.619940,4885.359217,-7179.997637,0.000000
1218.620269,5773.606348,-7698.141797,1225.752797
1218.620598,7031.956449,-7476.080014,1225.752797
1218.620927,7179.997637,-7105.977043,1915.238745
1218.621256,7624.121203,-6661.853478,1838.629195
1218.621586,8216.285956,-5773.606348,2298.286494
1218.621915,8438.347739,-5995.668130,2987.772442
1218.622244,8512.368333,-5625.565159,1838.629195
1218.622573,8290.306550,-4663.297435,1302.362347
1218.622902,7994.224174,-4219.173869,766.095498
1218.623232,7476.080014,-4737.318029,459.657299
1218.623561,7550.100608,-4811.338623,306.438199
1218.623890,7105.977043,-6143.709319,0.000000
1218.624219,6439.791695,-6809.894666,0.000000
1218.624548,6143.709319,-7624.121203,306.438199
1218.624878,6735.874072,-8734.430116,1149.143247
1218.625207,7179.997637,-8734.430116,1685.410096
1218.625536,6735.874072,-8142.265362,1378.971896
1218.625865,6365.771101,-8660.409521,1225.752797
1218.626195,6439.791695,-7550.100608,1149.143247
1218.626524,6957.935855,-6883.915261,1072.533697
1218.626853,6809.894666,-6513.812290,689.485948
1218.627182,6439.791695,-5551.544565,536.266849
1218.627511,6587.832884,-5329.482782,153.219100
1218.627841,7179.997637,-5329.482782,612.876398
1218.628170,7105.977043,-5551.544565,612.876398
1218.628499,7772.162391,-5921.647536,1072.533697
1218.628828,7624.121203,-6217.729913,1149.143247
1218.629157,7105.977043,-6883.915261,1302.362347
1218.629487,7105.977043,-7846.182985,1685.410096
1218.629816,7105.977043,-7476.080014,1685.410096
1218.630145,6957.935855,-6957.935855,1225.752797
1218.630474,6513.812290,-7031.956449,995.924147
1218.630804,6735.874072,-7105.977043,1225.752797
1218.631133,7031.956449,-5625.565159,229.828649
1218.631462,6661.853478,-5255.462188,229.828649
1218.631791,6809.894666,-5181.441594,0.000000
1218.632120,7476.080014,-5255.462188,459.657299
1218.632450,8216.285956,-4885.359217,766.095498
1218.632779,7920.203579,-5255.462188,1072.533697
1218.633108,7698.141797,-6957.935855,1302.362347
1218.633437,8290.306550,-7105.977043,2068.457845
1218.633766,8068.244768,-8068.244768,2451.505594
1218.634096,7772.162391,-6957.935855,2374.896044
1218.634425,6587.832884,-7105.977043,1838.629195
1218.634754,5847.626942,-7994.224174,995.924147
1218.635083,5181.441594,-7846.182985,919.314598
1218.635412,4885.359217,-6809.894666,306.438199
1218.635742,5033.400406,-6365.771101,0.000000
1218.636071,5107.421000,-6735.874072,-229.828649
1218.636400,5255.462188,-7105.977043,459.657299
1218.636729,5699.585753,-7402.059420,383.047749
1218.637059,6883.915261,-7179.997637,689.485948
1218.637388,7179.997637,-7402.059420,1455.581446
1218.637717,8364.327145,-6883.915261,2298.286494
1218.638046,8660.409521,-6735.874072,2221.676944
1218.638375,8512.368333,-6587.832884,2374.896044
1218.638705,8364.327145,-5329.482782,1762.019645
1218.639034,7994.224174,-4737.318029,1225.752797
1218.639363,7624.121203,-4441.235652,1072.533697
1218.639692,7476.080014,-3997.112087,536.266849
1218.640021,7105.977043,-3997.112087,383.047749
1218.640351,7031.956449,-5107.421000,306.438199
1218.640680,6957.935855,-5625.565159,459.657299
1218.641009,7105.977043,-6735.874072,766.095498
1218.641338,6883.915261,-7476.080014,995.924147
1218.641667,6809.894666,-8290.306550,1532.190996
1218.641997,7105.977043,-9400.615463,1838.629195
1218.642326,6439.791695,-8586.388927,1532.190996
1218.642655,6365.771101,-8660.409521,1762.019645
1218.642984,6365.771101,-7402.059420,1532.190996
1218.643314,6291.750507,-7105.977043,1072.533697
1218.643643,5921.647536,-6587.832884,0.000000
1218.643972,5921.647536,-5921.647536,76.609550
1218.644301,6365.771101,-5403.503377,0.000000
1218.644630,7254.018232,-5255.462188,0.000000
1218.644960,6809.894666,-5255.462188,689.485948
1218.645289,7328.038826,-5699.585753,689.485948
1218.645618,8068.244768,-6661.853478,1225.752797
1218.645947,8142.265362,-6661.853478,1685.410096
1218.646276,8142.265362,-7550.100608,1149.143247
1218.646606,8142.265362,-7105.977043,2145.067394
1218.646935,7476.080014,-7105.977043,1455.581446
1218.647264,6957.935855,-7179.997637,1072.533697
1218.647593,6809.894666,-6513.812290,1072.533697
1218.647922,6143.709319,-5403.503377,459.657299
1218.648252,6587.832884,-5551.544565,612.876398
1218.648581,6587.832884,-4737.318029,0.000000
1218.648910,6587.832884,-5329.482782,0.000000
1218.649239,6661.853478,-5625.565159,1072.533697
1218.649569,7031.956449,-5699.585753,1149.143247
1218.649898,7772.162391,-7105.977043,1915.238745
1218.650227,8438.347739,-6513.812290,2145.067394
1218.650556,8068.244768,-7920.203579,2528.115143
1218.650885,7476.080014,-7772.162391,1838.629195
1218.651215,6735.874072,-7920.203579,1608.800546
1218.651544,5921.647536,-8216.285956,689.485948
1218.651873,5329.482782,-7476.080014,153.219100
1218.652202,4737.318029,-7031.956449,-306.438199
1218.652531,5107.421000,-7254.018232,-459.657299
1218.652861,5625.565159,-7105.977043,-229.828649
1218.653190,5699.585753,-7105.977043,76.609550
1218.653519,5995.668130,-7105.977043,459.657299
1218.653848,6587.832884,-6365.771101,1685.410096
1218.654177,7624.121203,-6217.729913,1608.800546
1218.654507,8438.347739,-6143.709319,2068.457845
1218.654836,8734.430116,-6291.750507,2911.162892
1218.655165,8956.491898,-5625.565159,2681.334243
1218.655494,8660.409521,-4663.297435,1608.800546
1218.655824,7698.141797,-4441.235652,1072.533697
1218.656153,7328.038826,-5329.482782,689.485948
1218.656482,7179.997637,-5625.565159,689.485948
1218.656811,7105.977043,-5329.482782,766.095498
1218.657140,7031.956449,-5995.668130,536.266849
1218.657470,6365.771101,-6069.688724,0.000000
1218.657799,5773.606348,-7698.141797,612.876398
1218.658128,5995.668130,-8882.471304,1915.238745
1218.658457,6513.812290,-8586.388927,1302.362347
1218.658786,6587.832884,-8660.409521,1685.410096
1218.659116,6587.832884,-7994.224174,1532.190996
1218.659445,6661.853478,-7624.121203,1455.581446
1218.659774,6883.915261,-7179.997637,1915.238745
1218.660103,6587.832884,-6513.812290,689.485948
1218.660433,6439.791695,-5477.523971,153.219100
1218.660762,6735.874072,-4959.379811,306.438199
1218.661091,7179.997637,-4737.318029,536.266849
1218.661420,7254.018232,-4885.359217,536.266849
1218.661749,7179.997637,-5625.565159,842.705048
1218.662079,7624.121203,-6365.771101,1532.190996
1218.662408,7920.203579,-7179.997637,1378.971896
1218.662737,7402.059420,-6365.771101,2145.067394
1218.663066,7105.977043,-7105.977043,1838.629195
1218.663395,7031.956449,-7624.121203,1532.190996
1218.663725,6587.832884,-7179.997637,1532.190996
1218.664054,6365.771101,-6513.812290,995.924147
1218.664383,6587.832884,-5551.544565,0.000000
1218.664712,6587.832884,-5329.482782,0.000000
1218.665041,6809.894666,-5625.565159,306.438199
1218.665371,7105.977043,-6143.709319,612.876398
1218.665700,7179.997637,-5033.400406,842.705048
1218.666029,7698.141797,-5403.503377,536.266849
1218.666358,7624.121203,-6069.688724,1532.190996
1218.666688,8290.306550,-7105.977043,1838.629195
1218.667017,8216.285956,-7476.080014,2374.896044
1218.667346,7920.203579,-7179.997637,1991.848295
1218.667675,6957.935855,-7031.956449,1608.800546
1218.668004,6661.853478,-7105.977043,1225.752797
1218.668334,5403.503377,-7105.977043,842.705048
1218.668663,4885.359217,-6883.915261,-229.828649
1218.668992,4811.338623,-6957.935855,0.000000
1218.669321,5403.503377,-6439.791695,0.000000
1218.669650,6143.709319,-6809.894666,153.219100
1218.669980,6587.832884,-6439.791695,689.485948
1218.670309,7105.977043,-6883.915261,1455.581446
1218.670638,7476.080014,-7328.038826,1685.410096
1218.670967,7550.100608,-6957.935855,1991.848295
1218.671296,7698.141797,-7179.997637,2374.896044
1218.671626,7772.162391,-6143.709319,2145.067394
1218.671955,8142.265362,-5921.647536,2221.676944
1218.672284,7846.182985,-5403.503377,2374.896044
1218.672613,8142.265362,-4959.379811,1455.581446
1218.672943,7772.162391,-4589.276840,842.705048
1218.673272,7105.977043,-4367.215058,536.266849
1218.673601,7031.956449,-4737.318029,229.828649
1218.673930,6957.935855,-6069.688724,76.609550
1218.674259,6661.853478,-6587.832884,383.047749
1218.674589,6735.874072,-7698.141797,766.095498
1218.674918,6587.832884,-8438.347739,1455.581446
1218.675247,6957.935855,-8660.409521,1455.581446
1218.675576,6513.812290,-9104.533087,1532.190996
1218.675905,6217.729913,-9474.636058,1378.971896
1218.676235,6069.688724,-8586.388927,1072.533697
1218.676564,6069.688724,-7105.977043,1072.533697
1218.676893,5847.626942,-6217.729913,383.047749
1218.677222,6069.688724,-5403.503377,459.657299
1218.677551,6217.729913,-4589.276840,459.657299
1218.677881,6439.791695,-4737.318029,919.314598
1218.678210,6809.894666,-5329.482782,536.266849
1218.678539,7105.977043,-5625.565159,1072.533697
1218.678868,7402.059420,-5847.626942,1225.752797
1218.679198,7476.080014,-6957.935855,1991.848295
1218.679527,7476.080014,-7550.100608,1838.629195
1218.679856,7402.059420,-7846.182985,1991.848295
1218.680185,7254.018232,-7550.100608,1685.410096
1218.680514,6883.915261,-7476.080014,1225.752797
1218.680844,6587.832884,-6587.832884,689.485948
1218.681173,6439.791695,-6143.709319,689.485948
1218.681502,6587.832884,-5551.544565,306.438199
1218.681831,6587.832884,-4885.359217,0.000000
1218.682160,6735.874072,-5551.544565,153.219100
1218.682490,7994.224174,-4737.318029,1378.971896
1218.682819,7624.121203,-5107.421000,1072.533697
1218.683148,7994.224174,-6217.729913,1762.019645
1218.683477,8438.347739,-7031.956449,2604.724693
1218.683807,8512.368333,-7031.956449,2145.067394
1218.684136,7994.224174,-7105.977043,2528.115143
1218.684465,7105.977043,-6883.915261,1455.581446
1218.684794,6069.688724,-7772.162391,612.876398
1218.685123,5477.523971,-8290.306550,536.266849
1218.685453,5107.421000,-7105.977043,383.047749
1218.685782,5033.400406,-7179.997637,-306.438199
1218.686111,5255.462188,-6143.709319,-306.438199
1218.686440,5255.462188,-7105.977043,0.000000
1218.686769,5921.647536,-7328.038826,459.657299
1218.687099,6883.915261,-6957.935855,1225.752797
1218.687428,7328.038826,-7105.977043,1378.971896
1218.687757,7698.141797,-6217.729913,2068.457845
1218.688086,8438.347739,-6365.771101,2068.457845
1218.688415,8808.450710,-5847.626942,2298.286494
1218.688745,8882.471304,-5551.544565,2145.067394
1218.689074,8290.306550,-5107.421000,1608.800546
1218.689403,7994.224174,-4515.256246,842.705048
1218.689732,7846.182985,-4515.256246,536.266849
1218.690062,7698.141797,-4885.359217,0.000000
1218.690391,6883.915261,-5995.668130,76.609550
1218.690720,6513.812290,-6587.832884,612.876398
1218.691049,6365.771101,-7476.080014,229.828649
1218.691378,5699.585753,-7772.162391,766.095498
1218.691708,6439.791695,-8586.388927,1838.629195
1218.692037,6735.874072,-8882.471304,1991.848295
1218.692366,6957.935855,-7846.182985,2221.676944
1218.692695,6587.832884,-7328.038826,1532.190996
1218.693024,6735.874072,-7179.997637,1532.190996
1218.693354,6587.832884,-6587.832884,919.314598
1218.693683,6587.832884,-6439.791695,612.876398
1218.694012,6513.812290,-5995.668130,153.219100
1218.694341,6735.874072,-5625.565159,229.828649
1218.694670,7254.018232,-6365.771101,0.000000
1218.695000,7105.977043,-5625.565159,766.095498
1218.695329,7105.977043,-6439.791695,536.266849
1218.695658,7550.100608,-6957.935855,1149.143247
1218.695987,7254.018232,-7402.059420,1991.848295
1218.696317,7402.059420,-7550.100608,1915.238745
1218.696646,7698.141797,-6957.935855,1838.629195
1218.696975,7105.977043,-6143.709319,1378.971896
1218.697304,6661.853478,-6365.771101,1072.533697
1218.697633,7105.977043,-5995.668130,1149.143247
1218.697963,7105.977043,-4959.379811,766.095498
1218.698292,7105.977043,-5329.482782,536.266849
1218.698621,7328.038826,-4885.359217,766.095498
1218.698950,7105.977043,-6069.688724,1149.143247
1218.699280,6957.935855,-6513.812290,842.705048
1218.699609,6957.935855,-6217.729913,1378.971896
1218.699938,7550.100608,-6809.894666,1838.629195
1218.700267,7920.203579,-7328.038826,2145.067394
1218.700597,7698.141797,-7920.203579,2528.115143
1218.700926,7254.018232,-7550.100608,1915.238745
1218.701255,6069.688724,-7179.997637,1149.143247
1218.701584,5255.462188,-7476.080014,383.047749
1218.701914,4959.379811,-7328.038826,-383.047749
1218.702243,4811.338623,-6291.750507,229.828649
1218.702572,5625.565159,-6513.812290,-383.047749
1218.702901,6291.750507,-6883.915261,76.609550
1218.703231,6513.812290,-7031.956449,689.485948
1218.703560,6957.935855,-6883.915261,1072.533697
1218.703889,7402.059420,-6809.894666,1225.752797
1218.704218,7624.121203,-6439.791695,1532.190996
1218.704548,8142.265362,-6587.832884,2068.457845
1218.704877,8438.347739,-6365.771101,2528.115143
1218.705206,9252.574275,-5403.503377,2987.772442
1218.705535,8882.471304,-4737.318029,1608.800546
1218.705865,7846.182985,-4145.153275,1608.800546
1218.706194,7105.977043,-4589.276840,995.924147
1218.706523,6809.894666,-4959.379811,306.438199
1218.706852,6735.874072,-4737.318029,229.828649
1218.707182,6439.791695,-6291.750507,383.047749
1218.707511,5995.668130,-6957.935855,0.000000
1218.707840,5847.626942,-7846.182985,383.047749
1218.708169,6143.709319,-8808.450710,995.924147
1218.708499,6217.729913,-9770.718434,1838.629195
1218.708828,7031.956449,-8734.430116,1532.190996
1218.709157,6735.874072,-8734.430116,1608.800546
1218.709486,6587.832884,-7846.182985,1378.971896
1218.709816,6365.771101,-7031.956449,995.924147
1218.710145,6143.709319,-6513.812290,536.266849
1218.710474,6217.729913,-5255.462188,229.828649
1218.710803,6513.812290,-5107.421000,0.000000
1218.711133,7179.997637,-4663.297435,229.828649
1218.711462,7402.059420,-5403.503377,919.314598
1218.711791,7328.038826,-5699.585753,766.095498
1218.712120,7624.121203,-6069.688724,1225.752797
1218.712450,7920.203579,-6883.915261,1608.800546
1218.712779,7698.141797,-7328.038826,2757.943793
1218.713108,7476.080014,-7772.162391,1762.019645
1218.713437,7328.038826,-7550.100608,1455.581446
1218.713767,6661.853478,-7105.977043,1378.971896
1218.714096,6587.832884,-6809.894666,1225.752797
1218.714425,7031.956449,-5699.585753,612.876398
1218.714754,6365.771101,-5403.503377,536.266849
1218.715084,6513.812290,-5403.503377,306.438199
1218.715413,6735.874072,-5403.503377,306.438199
1218.715742,7328.038826,-4811.338623,383.047749
1218.716071,7402.059420,-5329.482782,612.876398
1218.716401,8142.265362,-6143.709319,1532.190996
1218.716730,8734.430116,-6735.874072,1991.848295
1218.717059,8290.306550,-7772.162391,2221.676944
1218.717388,7920.203579,-7402.059420,2681.334243
1218.717718,6661.853478,-7105.977043,1149.143247
1218.718047,6069.688724,-7846.182985,459.657299
1218.718376,5625.565159,-7846.182985,153.219100
1218.718706,5329.482782,-7254.018232,0.000000
1218.719035,5033.400406,-7105.977043,0.000000
1218.719364,5329.482782,-6143.709319,153.219100
1218.719693,5847.626942,-6587.832884,0.000000
1218.720023,6439.791695,-6513.812290,612.876398
1218.720352,6587.832884,-6513.812290,842.705048
1218.720681,7105.977043,-6587.832884,1225.752797
1218.721010,7920.203579,-6143.709319,2374.896044
1218.721340,8512.368333,-5773.606348,2451.505594
1218.721669,8882.471304,-5847.626942,2298.286494
1218.721998,8882.471304,-4811.338623,2681.334243
1218.722327,8660.409521,-4959.379811,1685.410096
1218.722657,7550.100608,-5255.462188,919.314598
1218.722986,7402.059420,-4811.338623,919.314598
1218.723315,7476.080014,-5033.400406,153.219100
1218.723644,6735.874072,-5033.400406,536.266849
1218.723974,5995.668130,-6587.832884,306.438199
1218.724303,5847.626942,-7179.997637,76.609550
1218.724632,5551.544565,-8364.327145,229.828649
1218.724961,5921.647536,-8734.430116,995.924147
1218.725291,6587.832884,-8808.450710,1455.581446
1218.725620,6809.894666,-9030.512492,1302.362347
1218.725949,6365.771101,-8512.368333,1149.143247
1218.726278,5921.647536,-7698.141797,1455.581446
1218.726608,6217.729913,-6957.935855,919.314598
1218.726937,6735.874072,-6439.791695,383.047749
1218.727266,6735.874072,-5477.523971,306.438199
1218.727595,6809.894666,-4885.359217,383.047749
1218.727925,6735.874072,-5255.462188,1302.362347
1218.728254,7402.059420,-5625.565159,1225.752797
1218.728583,7179.997637,-5847.626942,1455.581446
1218.728912,7105.977043,-6069.688724,1072.533697
1218.729242,7031.956449,-7031.956449,1762.019645
1218.729571,7105.977043,-7402.059420,1838.629195
1218.729900,7105.977043,-7698.141797,2145.067394
1218.730229,7105.977043,-6957.935855,1685.410096
1218.730559,7179.997637,-6513.812290,1149.143247
1218.730888,7105.977043,-5699.585753,612.876398
1218.731217,6957.935855,-5773.606348,612.876398
1218.731546,7105.977043,-5699.585753,459.657299
1218.731876,7328.038826,-5403.503377,612.876398
1218.732205,7476.080014,-5255.462188,459.657299
1218.732534,7772.162391,-5255.462188,459.657299
1218.732863,7402.059420,-5995.668130,919.314598
1218.733193,7698.141797,-7105.977043,1225.752797
1218.733522,7846.182985,-7254.018232,2374.896044
1218.733851,8586.388927,-6587.832884,2298.286494
1218.734180,8290.306550,-6661.853478,2221.676944
1218.734510,6735.874072,-7105.977043,1838.629195
1218.734839,5329.482782,-7698.141797,842.705048
1218.735168,4737.318029,-7402.059420,-229.828649
1218.735497,4515.256246,-6587.832884,-536.266849
1218.735827,4885.359217,-6957.935855,-306.438199
1218.736156,5847.626942,-6735.874072,0.000000
1218.736485,6143.709319,-7698.141797,919.314598
1218.736814,6069.688724,-7476.080014,689.485948
1218.737144,6513.812290,-7105.977043,766.095498
1218.737473,7254.018232,-6735.874072,1149.143247
1218.737802,8142.265362,-6809.894666,1762.019645
1218.738131,8438.347739,-6439.791695,2374.896044
1218.738461,9104.533087,-5403.503377,3064.381992
1218.738790,8882.471304,-5033.400406,2145.067394
1218.739119,8734.430116,-4293.194464,1608.800546
1218.739449,8216.285956,-4145.153275,1225.752797
1218.739778,7550.100608,-3775.050304,536.266849
1218.740107,6587.832884,-4219.173869,536.266849
1218.740436,6883.915261,-5699.585753,229.828649
1218.740766,6735.874072,-6883.915261,612.876398
1218.741095,6735.874072,-7402.059420,612.876398
1218.741424,6439.791695,-8734.430116,536.266849
1218.741753,6661.853478,-8586.388927,1378.971896
1218.742083,6291.750507,-9326.594869,1378.971896
1218.742412,6365.771101,-9178.553681,1685.410096
1218.742741,6365.771101,-8142.265362,1225.752797
1218.743070,5847.626942,-7920.203579,919.314598
1218.743400,5995.668130,-6587.832884,919.314598
1218.743729,5921.647536,-6291.750507,383.047749
1218.744058,5921.647536,-5625.565159,153.219100
1218.744387,6735.874072,-5625.565159,459.657299
1218.744717,7550.100608,-5699.585753,919.314598
1218.745046,7402.059420,-5625.565159,842.705048
1218.745375,7105.977043,-6587.832884,1149.143247
1218.745704,7105.977043,-7031.956449,1072.533697
1218.746034,7402.059420,-7105.977043,2068.457845
1218.746363,7402.059420,-7772.162391,1455.581446
1218.746692,7550.100608,-7179.997637,1991.848295
1218.747021,7402.059420,-6587.832884,1455.581446
1218.747351,6809.894666,-5921.647536,1225.752797
1218.747680,6069.688724,-5255.462188,1149.143247
1218.748009,6809.894666,-5107.421000,689.485948
1218.748338,6217.729913,-4959.379811,229.828649
1218.748668,6587.832884,-4737.318029,536.266849
1218.748997,7105.977043,-6217.729913,1378.971896
1218.749326,7402.059420,-6069.688724,1225.752797
1218.749655,7920.203579,-6661.853478,1455.581446
1218.749985,8290.306550,-6291.750507,2221.676944
1218.750314,8142.265362,-7105.977043,2374.896044
1218.750643,7550.100608,-7105.977043,1762.019645
1218.750972,6809.894666,-7624.121203,1378.971896
1218.751302,5995.668130,-7328.038826,842.705048
1218.751631,5699.585753,-7254.018232,459.657299
1218.751960,5255.462188,-7402.059420,0.000000
1218.752289,4811.338623,-6883.915261,0.000000
1218.752619,4959.379811,-7105.977043,-536.266849
1218.752948,5329.482782,-6883.915261,-766.095498
1218.753277,5921.647536,-7179.997637,306.438199
1218.753606,6513.812290,-7328.038826,689.485948
1218.753936,7402.059420,-7105.977043,1225.752797
1218.754265,7698.141797,-6661.853478,1455.581446
1218.754594,8512.368333,-6513.812290,1685.410096
1218.754923,9030.512492,-6809.894666,2757.943793
1218.755253,9252.574275,-5181.441594,2681.334243
1218.755582,8660.409521,-5329.482782,2145.067394
1218.755911,7846.182985,-4515.256246,1378.971896
1218.756240,7179.997637,-4737.318029,919.314598
1218.756570,7105.977043,-4885.359217,76.609550
1218.756899,6439.791695,-5255.462188,612.876398
1218.757228,6513.812290,-5847.626942,229.828649
1218.757557,6143.709319,-6217.729913,76.609550
1218.757887,5847.626942,-8290.306550,842.705048
1218.758216,6809.894666,-9400.615463,1608.800546
1218.758545,6661.853478,-8956.491898,1225.752797
1218.758875,6957.935855,-8364.327145,1532.190996
1218.759204,6661.853478,-8290.306550,1455.581446
1218.759533,6735.874072,-7476.080014,1378.971896
1218.759862,7254.018232,-7105.977043,1225.752797
1218.760192,6809.894666,-6069.688724,536.266849
1218.760521,6513.812290,-5329.482782,689.485948
1218.760850,6735.874072,-4811.338623,229.828649
1218.761179,7254.018232,-5403.503377,919.314598
1218.761509,6883.915261,-5329.482782,306.438199
1218.761838,6809.894666,-5773.606348,612.876398
1218.762167,7105.977043,-6809.894666,1302.362347
1218.762496,7550.100608,-6809.894666,1762.019645
1218.762826,7254.018232,-7105.977043,1455.581446
1218.763155,7105.977043,-7105.977043,1455.581446
1218.763484,7031.956449,-7179.997637,1608.800546
1218.763813,6661.853478,-7105.977043,1149.143247
1218.764143,6883.915261,-6143.709319,1762.019645
1218.764472,6883.915261,-5477.523971,1378.971896
1218.764801,7105.977043,-4589.276840,689.485948
1218.765130,6957.935855,-5329.482782,842.705048
1218.765460,6957.935855,-5773.606348,612.876398
1218.765789,7254.018232,-6143.709319,459.657299
1218.766118,7624.121203,-6217.729913,1302.362347
1218.766447,8142.265362,-6365.771101,1225.752797
1218.766777,7846.182985,-7105.977043,2374.896044
1218.767106,7920.203579,-8142.265362,2298.286494
1218.767435,7476.080014,-8068.244768,1149.143247
1218.767764,6291.750507,-7402.059420,842.705048
1218.768094,5625.565159,-7698.141797,229.828649
1218.768423,5477.523971,-7402.059420,76.609550
1218.768752,5107.421000,-7031.956449,306.438199
1218.769081,5033.400406,-6957.935855,-306.438199
1218.769411,5995.668130,-6513.812290,153.219100
1218.769740,6365.771101,-6513.812290,383.047749
1218.770069,6735.874072,-6513.812290,612.876398
1218.770398,7031.956449,-6217.729913,2068.457845
1218.770728,7550.100608,-6661.853478,1532.190996
1218.771057,8290.306550,-6439.791695,2298.286494
1218.771386,8956.491898,-5995.668130,2604.724693
1218.771715,9104.533087,-5403.503377,2451.505594
1218.772045,8586.388927,-5033.400406,2145.067394
1218.772374,7550.100608,-4885.359217,1762.019645
1218.772703,7105.977043,-5033.400406,536.266849
1218.773032,7179.997637,-4737.318029,229.828649
1218.773362,7402.059420,-4811.338623,459.657299
1218.773691,6809.894666,-5773.606348,229.828649
1218.774020,6587.832884,-6735.874072,459.657299
1218.774349,6735.874072,-7698.141797,0.000000
1218.774679,6735.874072,-8438.347739,995.924147
1218.775008,6661.853478,-8882.471304,1302.362347
1218.775337,7105.977043,-9104.533087,1838.629195
1218.775666,7031.956449,-7920.203579,1915.238745
1218.775996,6661.853478,-7846.182985,1149.143247
1218.776325,6587.832884,-7328.038826,1072.533697
1218.776654,6439.791695,-6365.771101,919.314598
1218.776983,6291.750507,-5921.647536,153.219100
1218.777313,6143.709319,-4959.379811,0.000000
1218.777642,6587.832884,-5403.503377,383.047749
1218.777971,6513.812290,-6217.729913,842.705048
1218.778300,6957.935855,-5847.626942,1685.410096
1218.778630,7031.956449,-5847.626942,842.705048
1218.778959,7105.977043,-6587.832884,1149.143247
1218.779288,7550.100608,-7254.018232,1532.190996
1218.779618,6735.874072,-7328.038826,1838.629195
1218.779947,7105.977043,-7772.162391,1838.629195
1218.780276,7328.038826,-6291.750507,1225.752797
1218.780605,7254.018232,-6217.729913,919.314598
1218.780935,7254.018232,-5477.523971,1225.752797
1218.781264,7254.018232,-5255.462188,995.924147
1218.781593,7179.997637,-4737.318029,0.000000
1218.781922,7105.977043,-5181.441594,383.047749
1218.782252,7105.977043,-5921.647536,612.876398
1218.782581,8068.244768,-6513.812290,766.095498
1218.782910,7624.121203,-6587.832884,919.314598
1218.783239,7105.977043,-7328.038826,1225.752797
1218.783569,7624.121203,-8068.244768,2374.896044
1218.783898,7476.080014,-7550.100608,2374.896044
1218.784227,7179.997637,-8142.265362,1991.848295
1218.784556,6439.791695,-6883.915261,1072.533697
1218.784886,5551.544565,-7254.018232,689.485948
1218.785215,5181.441594,-7031.956449,229.828649
1218.785544,5107.421000,-6365.771101,0.000000
1218.785873,5107.421000,-6439.791695,0.000000
1218.786203,5995.668130,-5625.565159,-383.047749
1218.786532,6291.750507,-7031.956449,689.485948
1218.786861,7105.977043,-6883.915261,536.266849
1218.787190,7105.977043,-7254.018232,1608.800546
1218.787520,7254.018232,-6661.853478,1225.752797
1218.787849,7846.182985,-6883.915261,1838.629195
1218.788178,8290.306550,-6809.894666,2145.067394
1218.788507,8290.306550,-6291.750507,2451.505594
1218.788837,8216.285956,-5995.668130,1762.019645
1218.789166,7624.121203,-4811.338623,1149.143247
1218.789495,7476.080014,-4737.318029,536.266849
1218.789824,7105.977043,-4737.318029,1149.143247
1218.790154,6957.935855,-5107.421000,0.000000
1218.790483,6957.935855,-5403.503377,76.609550
1218.790812,6883.915261,-6439.791695,536.266849
1218.791141,7254.018232,-7105.977043,766.095498
1218.791471,7179.997637,-7402.059420,1149.143247
1218.791800,7105.977043,-8216.285956,1455.581446
1218.792129,6587.832884,-8808.450710,1455.581446
1218.792458,6217.729913,-8956.491898,1762.019645
1218.792788,6365.771101,-7772.162391,1685.410096
1218.793117,5995.668130,-6809.894666,766.095498
1218.793446,6365.771101,-6291.750507,689.485948
1218.793775,6291.750507,-5847.626942,536.266849
1218.794105,5921.647536,-5921.647536,76.609550
1218.794434,6587.832884,-5403.503377,459.657299
1218.794763,6883.915261,-5403.503377,383.047749
1218.795092,7105.977043,-6069.688724,919.314598
1218.795422,7402.059420,-6587.832884,1378.971896
1218.795751,7476.080014,-6809.894666,1378.971896
1218.796080,7624.121203,-7254.018232,1915.238745
1218.796409,7920.203579,-7328.038826,995.924147
1218.796739,7772.162391,-7254.018232,2068.457845
1218.797068,7476.080014,-6809.894666,1455.581446
1218.797397,7105.977043,-6143.709319,1302.362347
1218.797726,6143.709319,-5921.647536,306.438199
1218.798056,6291.750507,-5699.585753,383.047749
1218.798385,7105.977043,-4515.256246,306.438199
1218.798714,7105.977043,-5033.400406,612.876398
1218.799044,7105.977043,-5847.626942,1149.143247
1218.799373,7476.080014,-5847.626942,1225.752797
1218.799702,7254.018232,-6661.853478,1302.362347
1218.800031,7179.997637,-6809.894666,1685.410096
1218.800361,7550.100608,-7920.203579,1915.238745
1218.800690,7476.080014,-7476.080014,1608.800546
1218.801019,6809.894666,-7624.121203,1685.410096
1218.801348,6069.688724,-7994.224174,842.705048
1218.801677,5477.523971,-7105.977043,536.266849
1218.802006,5625.565159,-7772.162391,0.000000
1218.802335,5255.462188,-6661.853478,383.047749
1218.802664,5255.462188,-6883.915261,0.000000
1218.802994,5847.626942,-6513.812290,0.000000
1218.803323,6439.791695,-7105.977043,689.485948
1218.803652,6661.853478,-6735.874072,1455.581446
1218.803981,7698.141797,-6291.750507,1532.190996
1218.804310,8142.265362,-6143.709319,1685.410096
1218.804639,8660.409521,-6069.688724,2068.457845
1218.804968,8734.430116,-6291.750507,2987.772442
1218.805297,8808.450710,-5255.462188,2298.286494
1218.805626,8660.409521,-4589.276840,1685.410096
1218.805956,7994.224174,-4367.215058,1532.190996
1218.806285,7698.141797,-4737.318029,919.314598
1218.806614,6883.915261,-5625.565159,153.219100
1218.806943,6217.729913,-6069.688724,306.438199
1218.807272,5921.647536,-6661.853478,0.000000
1218.807601,5921.647536,-7105.977043,153.219100
1218.807930,5773.606348,-8438.347739,842.705048
1218.808259,5847.626942,-8956.491898,1378.971896
1218.808589,6069.688724,-9104.533087,1072.533697
1218.808918,6365.771101,-8364.327145,1532.190996
1218.809247,7105.977043,-7994.224174,1608.800546
1218.809576,7105.977043,-6587.832884,1685.410096
1218.809905,7254.018232,-6069.688724,842.705048
1218.810234,7179.997637,-5403.503377,306.438199
1218.810563,7031.956449,-4959.379811,306.438199
1218.810892,7179.997637,-4885.359217,306.438199
1218.811221,7846.182985,-4959.379811,612.876398
1218.811551,7698.141797,-5699.585753,766.095498
1218.811880,7179.997637,-6439.791695,1072.533697
1218.812209,6809.894666,-7254.018232,1532.190996
1218.812538,7105.977043,-6883.915261,1685.410096
1218.812867,7105.977043,-7698.141797,919.314598
1218.813196,7105.977043,-6957.935855,1608.800546
1218.813525,7031.956449,-7254.018232,1991.848295
1218.813854,7105.977043,-6587.832884,1532.190996
1218.814183,6735.874072,-5255.462188,1838.629195
1218.814513,6735.874072,-5181.441594,919.314598
1218.814842,7179.997637,-4589.276840,306.438199
1218.815171,7254.018232,-5033.400406,689.485948
1218.815500,7254.018232,-6143.709319,1302.362347
1218.815829,6883.915261,-5847.626942,689.485948
1218.816158,7254.018232,-6217.729913,459.657299
1218.816487,7550.100608,-7402.059420,1302.362347
1218.816816,7772.162391,-8068.244768,1915.238745
1218.817145,7476.080014,-9178.553681,2068.457845
1218.817475,6809.894666,-7994.224174,1532.190996
1218.817804,5625.565159,-8216.285956,919.314598
1218.818133,5551.544565,-7994.224174,459.657299
1218.818462,5329.482782,-7254.018232,689.485948
1218.818791,4885.359217,-6439.791695,459.657299
1218.819120,5033.400406,-5773.606348,-689.485948
1218.819449,5625.565159,-5847.626942,0.000000
1218.819778,7179.997637,-6143.709319,229.828649
1218.820107,7476.080014,-6735.874072,1378.971896
1218.820437,7254.018232,-6439.791695,1072.533697
1218.820766,7698.141797,-7031.956449,1455.581446
1218.821095,7920.203579,-7105.977043,2145.067394
1218.821424,8438.347739,-6365.771101,2757.943793
1218.821753,8586.388927,-6365.771101,2298.286494
1218.822082,8734.430116,-5477.523971,1915.238745
1218.822411,7624.121203,-5551.544565,2068.457845
1218.822740,7402.059420,-5255.462188,919.314598
1218.823070,6957.935855,-4811.338623,919.314598
1218.823399,7254.018232,-4663.297435,76.609550
1218.823728,6513.812290,-5477.523971,76.609550
1218.824057,6439.791695,-6217.729913,229.828649
1218.824386,6735.874072,-7402.059420,383.047749
1218.824715,6735.874072,-7994.224174,229.828649
1218.825044,6735.874072,-8364.327145,1302.362347
1218.825373,7179.997637,-8512.368333,1378.971896
1218.825702,7105.977043,-8364.327145,1455.581446
1218.826032,6661.853478,-8142.265362,995.924147
1218.826361,6291.750507,-7550.100608,1072.533697
1218.826690,6291.750507,-6735.874072,1072.533697
1218.827019,6587.832884,-5847.626942,612.876398
1218.827348,6587.832884,-4885.359217,229.828649
1218.827677,6735.874072,-4737.318029,0.000000
1218.828006,6587.832884,-5995.668130,459.657299
1218.828335,7105.977043,-5773.606348,1225.752797
1218.828664,7476.080014,-5699.585753,1225.752797
1218.828994,7402.059420,-6513.812290,1532.190996
1218.829323,7254.018232,-6217.729913,1685.410096
1218.829652,7031.956449,-7624.121203,1608.800546
1218.829981,7179.997637,-7476.080014,1838.629195
1218.830310,7254.018232,-6217.729913,1532.190996
1218.830639,7328.038826,-6513.812290,1455.581446
1218.830968,6735.874072,-5699.585753,1149.143247
1218.831297,6661.853478,-6069.688724,459.657299
1218.831626,6809.894666,-5477.523971,0.000000
1218.831956,6661.853478,-5921.647536,612.876398
1218.832285,7105.977043,-5255.462188,689.485948
1218.832614,7402.059420,-5995.668130,1072.533697
1218.832943,7698.141797,-5995.668130,2221.676944
1218.833272,8068.244768,-6587.832884,2145.067394
1218.833601,8290.306550,-7031.956449,1991.848295
1218.833930,8216.285956,-7031.956449,2374.896044
1218.834259,7105.977043,-7772.162391,1608.800546
1218.834588,6513.812290,-7031.956449,1762.019645
1218.834918,5255.462188,-7698.141797,612.876398
1218.835247,4885.359217,-7476.080014,612.876398
1218.835576,4589.276840,-7105.977043,-612.876398
1218.835905,4811.338623,-6957.935855,-459.657299
1218.836234,5551.544565,-6439.791695,0.000000
1218.836563,5329.482782,-7328.038826,0.000000
1218.836892,6143.709319,-7698.141797,842.705048
1218.837221,6809.894666,-7254.018232,1225.752797
1218.837551,7920.203579,-6957.935855,1915.238745
1218.837880,8882.471304,-6143.709319,2145.067394
1218.838209,9474.636058,-5921.647536,2987.772442
1218.838538,9326.594869,-6143.709319,2604.724693
1218.838867,8808.450710,-4737.318029,1838.629195
1218.839196,8068.244768,-4367.215058,1072.533697
1218.839525,7550.100608,-4293.194464,689.485948
1218.839854,7402.059420,-4663.297435,919.314598
1218.840183,7031.956449,-5551.544565,229.828649
1218.840513,6217.729913,-5995.668130,-229.828649
1218.840842,6143.709319,-7328.038826,0.000000
1218.841171,6365.771101,-7698.141797,229.828649
1218.841500,6291.750507,-8882.471304,766.095498
1218.841829,6365.771101,-8882.471304,1455.581446
1218.842158,6513.812290,-8364.327145,1225.752797
1218.842487,6513.812290,-8290.306550,1225.752797
1218.842816,6291.750507,-6957.935855,1532.190996
1218.843145,6365.771101,-6883.915261,1455.581446
1218.843475,6809.894666,-5995.668130,689.485948
1218.843804,6365.771101,-5551.544565,459.657299
1218.844133,6513.812290,-6217.729913,383.047749
1218.844462,7105.977043,-6069.688724,0.000000
1218.844791,7179.997637,-6143.709319,306.438199
1218.845120,6957.935855,-6809.894666,689.485948
1218.845449,6883.915261,-6809.894666,995.924147
1218.845778,7476.080014,-7846.182985,1378.971896
1218.846107,7179.997637,-7179.997637,1532.190996
1218.846437,7254.018232,-7031.956449,1455.581446
1218.846766,7328.038826,-7031.956449,1685.410096
1218.847095,7698.141797,-5699.585753,1685.410096
