#time,accel_x,accel_y,accel_z
1482.583986,7328.038826,-5995.668130,919.314598
1482.584317,7254.018232,-6365.771101,766.095498
1482.584647,7105.977043,-6439.791695,842.705048
1482.584978,6661.853478,-6217.729913,766.095498
1482.585308,6661.853478,-6735.874072,842.705048
1482.585639,6957.935855,-6513.812290,1685.410096
1482.585969,7031.956449,-6217.729913,1072.533697
1482.586300,7179.997637,-6439.791695,689.485948
1482.586630,7031.956449,-6735.874072,1455.581446
1482.586961,7105.977043,-6661.853478,1225.752797
1482.587291,6809.894666,-6735.874072,919.314598
1482.587622,6661.853478,-6365.771101,919.314598
1482.587952,6957.935855,-7031.956449,919.314598
1482.588283,7105.977043,-6587.832884,995.924147
1482.588613,7179.997637,-6365.771101,1225.752797
1482.588943,7105.977043,-6217.729913,995.924147
1482.589274,7179.997637,-6809.894666,1149.143247
1482.589604,6513.812290,-6365.771101,1225.752797
1482.589935,6883.915261,-6439.791695,919.314598
1482.590265,7105.977043,-5847.626942,842.705048
1482.590596,7179.997637,-6217.729913,1149.143247
1482.590926,7105.977043,-6587.832884,1225.752797
1482.591257,7031.956449,-6661.853478,1455.581446
1482.591587,7031.956449,-5477.523971,1762.019645
1482.591918,6957.935855,-6365.771101,995.924147
1482.592248,6217.729913,-6809.894666,842.705048
1482.592579,6439.791695,-6883.915261,1149.143247
1482.592909,6735.874072,-7402.059420,1072.533697
1482.593240,7105.977043,-6809.894666,1455.581446
1482.593570,6735.874072,-6809.894666,766.095498
1482.593901,6587.832884,-6809.894666,1072.533697
1482.594231,6217.729913,-7105.977043,1225.752797
1482.594562,6513.812290,-7328.038826,995.924147
1482.594892,6439.791695,-7105.977043,1149.143247
1482.595223,6809.894666,-7105.977043,1072.533697
1482.595553,7179.997637,-7105.977043,919.314598
1482.595884,7105.977043,-6291.750507,1302.362347
1482.596214,6957.935855,-6587.832884,1072.533697
1482.596545,6957.935855,-6291.750507,919.314598
1482.596875,7105.977043,-6809.894666,1302.362347
1482.597206,6883.915261,-6661.853478,995.924147
1482.597536,7105.977043,-6439.791695,1455.581446
1482.597867,7402.059420,-6143.709319,1302.362347
1482.598197,7254.018232,-5921.647536,995.924147
1482.598528,7105.977043,-5847.626942,995.924147
1482.598858,7105.977043,-6069.688724,995.924147
1482.599189,7179.997637,-5921.647536,995.924147
1482.599519,7031.956449,-6217.729913,995.924147
1482.599850,6735.874072,-6439.791695,842.705048
1482.600180,6735.874072,-6883.915261,766.095498
1482.600511,7105.977043,-6513.812290,842.705048
1482.600841,7031.956449,-6365.771101,1225.752797
1482.601172,6883.915261,-6661.853478,1149.143247
1482.601502,6957.935855,-6661.853478,1149.143247
1482.601833,7031.956449,-6513.812290,766.095498
1482.602163,6957.935855,-6587.832884,689.485948
1482.602494,7031.956449,-6587.832884,842.705048
1482.602824,7105.977043,-6735.874072,919.314598
1482.603155,7328.038826,-6513.812290,1149.143247
1482.603485,7105.977043,-6365.771101,1455.581446
1482.603816,7772.162391,-7031.956449,919.314598
1482.604146,7105.977043,-6439.791695,1225.752797
1482.604477,6957.935855,-6883.915261,842.705048
1482.604807,7105.977043,-6587.832884,995.924147
1482.605138,7328.038826,-5921.647536,1072.533697
1482.605468,7476.080014,-6439.791695,1225.752797
1482.605799,6957.935855,-6587.832884,1455.581446
1482.606129,6809.894666,-6735.874072,1225.752797
1482.606460,7105.977043,-6439.791695,1149.143247
1482.606790,6587.832884,-6587.832884,1608.800546
1482.607121,6365.771101,-6513.812290,919.314598
1482.607451,6365.771101,-6957.935855,919.314598
1482.607782,7031.956449,-7179.997637,1302.362347
1482.608112,6735.874072,-6513.812290,1225.752797
1482.608442,6735.874072,-5921.647536,919.314598
1482.608773,6439.791695,-7031.956449,1302.362347
1482.609103,6513.812290,-7105.977043,1302.362347
1482.609434,6957.935855,-7179.997637,766.095498
1482.609764,6957.935855,-6365.771101,919.314598
1482.610095,6957.935855,-6957.935855,689.485948
1482.610425,7031.956449,-7031.956449,1225.752797
1482.610756,7031.956449,-6439.791695,1378.971896
1482.611086,7105.977043,-6883.915261,689.485948
1482.611417,6957.935855,-5921.647536,1072.533697
1482.611747,6513.812290,-6661.853478,1762.019645
1482.612078,7105.977043,-6587.832884,919.314598
1482.612408,7105.977043,-6143.709319,919.314598
1482.612739,7328.038826,-6513.812290,1838.629195
1482.613069,7476.080014,-6069.688724,612.876398
1482.613400,7105.977043,-6365.771101,1225.752797
1482.613730,7105.977043,-6513.812290,1225.752797
1482.614061,7105.977043,-6069.688724,1072.533697
1482.614391,7105.977043,-5995.668130,919.314598
1482.614722,6661.853478,-6587.832884,995.924147
1482.615052,6735.874072,-6735.874072,1072.533697
1482.615383,6883.915261,-6587.832884,1072.533697
1482.615713,7105.977043,-6809.894666,1302.362347
1482.616044,6735.874072,-6365.771101,1149.143247
1482.616374,6957.935855,-6291.750507,1225.752797
1482.616705,7031.956449,-6661.853478,612.876398
1482.617035,7031.956449,-6291.750507,995.924147
1482.617366,6439.791695,-6291.750507,1149.143247
1482.617696,7105.977043,-6587.832884,1072.533697
1482.618027,7402.059420,-6587.832884,1225.752797
1482.618357,7179.997637,-6661.853478,1149.143247
1482.618688,7105.977043,-6513.812290,842.705048
1482.619018,7179.997637,-6587.832884,1072.533697
1482.619349,7031.956449,-7105.977043,1149.143247
1482.619679,7105.977043,-6439.791695,919.314598
1482.620010,7254.018232,-5921.647536,995.924147
1482.620340,7402.059420,-6069.688724,1762.019645
1482.620671,7105.977043,-5921.647536,766.095498
1482.621001,7105.977043,-6587.832884,1455.581446
1482.621332,7105.977043,-6217.729913,1149.143247
1482.621662,6735.874072,-6365.771101,842.705048
1482.621993,6661.853478,-6217.729913,1378.971896
1482.622323,6439.791695,-7328.038826,1225.752797
1482.622654,6809.894666,-7031.956449,1225.752797
1482.622984,6809.894666,-6883.915261,995.924147
1482.623315,6513.812290,-6957.935855,1149.143247
1482.623645,6143.709319,-6735.874072,1225.752797
1482.623976,6513.812290,-7105.977043,1072.533697
1482.624306,6587.832884,-7031.956449,1072.533697
1482.624637,6291.750507,-6587.832884,842.705048
1482.624967,7031.956449,-7031.956449,689.485948
1482.625298,7105.977043,-6587.832884,1608.800546
1482.625628,7105.977043,-6291.750507,1225.752797
1482.625959,7105.977043,-6883.915261,919.314598
1482.626289,6883.915261,-6661.853478,919.314598
1482.626620,7105.977043,-7105.977043,766.095498
1482.626950,6809.894666,-6661.853478,689.485948
1482.627281,6957.935855,-6291.750507,1072.533697
1482.627611,7179.997637,-6069.688724,919.314598
1482.627941,6883.915261,-5995.668130,1149.143247
1482.628272,7105.977043,-6439.791695,1149.143247
1482.628602,7254.018232,-5995.668130,919.314598
1482.628933,7105.977043,-5921.647536,1072.533697
1482.629263,6883.915261,-6069.688724,995.924147
1482.629594,6291.750507,-5995.668130,1302.362347
1482.629924,7179.997637,-6661.853478,919.314598
1482.630255,7031.956449,-6143.709319,1302.362347
1482.630585,6809.894666,-6365.771101,766.095498
1482.630916,6735.874072,-6809.894666,1455.581446
1482.631246,7105.977043,-6513.812290,1455.581446
1482.631577,7179.997637,-6809.894666,536.266849
1482.631907,6809.894666,-6069.688724,1149.143247
1482.632238,6957.935855,-6661.853478,842.705048
1482.632568,7105.977043,-6587.832884,1685.410096
1482.632899,7402.059420,-6439.791695,1378.971896
1482.633229,7105.977043,-6217.729913,766.095498
1482.633560,7031.956449,-6513.812290,689.485948
1482.633890,7105.977043,-6957.935855,1455.581446
1482.634221,6957.935855,-7031.956449,1378.971896
1482.634551,7179.997637,-6365.771101,1149.143247
1482.634882,7328.038826,-6069.688724,995.924147
1482.635212,7328.038826,-6365.771101,1072.533697
1482.635543,7031.956449,-6365.771101,1149.143247
1482.635873,7105.977043,-6291.750507,1302.362347
1482.636204,7105.977043,-6291.750507,1149.143247
1482.636534,6513.812290,-6143.709319,1072.533697
1482.636865,6365.771101,-6809.894666,919.314598
1482.637195,7031.956449,-7105.977043,1302.362347
1482.637526,6661.853478,-6883.915261,1225.752797
1482.637856,6587.832884,-6883.915261,995.924147
1482.638187,6661.853478,-7031.956449,766.095498
1482.638517,6957.935855,-7105.977043,919.314598
1482.638848,6291.750507,-7105.977043,842.705048
1482.639178,6513.812290,-7031.956449,612.876398
1482.639509,6587.832884,-6809.894666,1149.143247
1482.639839,6957.935855,-7105.977043,842.705048
1482.640170,7179.997637,-6587.832884,1072.533697
1482.640500,7105.977043,-6661.853478,1455.581446
1482.640831,7105.977043,-6513.812290,1072.533697
1482.641161,7179.997637,-6513.812290,919.314598
1482.641492,6735.874072,-6587.832884,842.705048
1482.641822,7179.997637,-6587.832884,1149.143247
1482.642153,7179.997637,-6365.771101,1149.143247
1482.642483,7476.080014,-6661.853478,1378.971896
1482.642814,7105.977043,-6291.750507,1149.143247
1482.643144,7254.018232,-5995.668130,1225.752797
1482.643475,7105.977043,-6217.729913,689.485948
1482.643805,7031.956449,-6291.750507,1072.533697
1482.644136,6735.874072,-6439.791695,842.705048
1482.644466,6883.915261,-6513.812290,919.314598
1482.644797,7031.956449,-6513.812290,1608.800546
1482.645127,7105.977043,-6439.791695,1225.752797
1482.645458,7105.977043,-6587.832884,842.705048
1482.645788,6291.750507,-6513.812290,1225.752797
1482.646119,6735.874072,-7105.977043,612.876398
1482.646449,6809.894666,-6809.894666,995.924147
1482.646780,6661.853478,-6513.812290,919.314598
1482.647110,7031.956449,-6661.853478,842.705048
1482.647440,7254.018232,-6587.832884,995.924147
1482.647771,7698.141797,-6513.812290,612.876398
1482.648101,7254.018232,-6365.771101,919.314598
1482.648432,7105.977043,-6291.750507,995.924147
1482.648762,7105.977043,-6513.812290,766.095498
1482.649093,7105.977043,-6365.771101,995.924147
1482.649423,7402.059420,-6439.791695,995.924147
1482.649754,7179.997637,-6217.729913,995.924147
1482.650084,7402.059420,-6365.771101,842.705048
1482.650414,7105.977043,-6587.832884,995.924147
1482.650744,6957.935855,-6513.812290,1378.971896
1482.651073,6957.935855,-6439.791695,1149.143247
1482.651403,6735.874072,-6439.791695,919.314598
1482.651733,6809.894666,-6661.853478,689.485948
1482.652062,6809.894666,-6587.832884,919.314598
1482.652392,7105.977043,-6291.750507,536.266849
1482.652722,7105.977043,-6661.853478,995.924147
1482.653051,6883.915261,-7031.956449,1225.752797
1482.653381,6735.874072,-7031.956449,1149.143247
1482.653711,6661.853478,-7179.997637,1149.143247
1482.654040,6439.791695,-7031.956449,536.266849
1482.654370,6439.791695,-7105.977043,995.924147
1482.654700,6957.935855,-7031.956449,842.705048
1482.655029,7105.977043,-6735.874072,1455.581446
1482.655359,6957.935855,-6587.832884,1302.362347
1482.655689,7254.018232,-6587.832884,689.485948
1482.656018,7031.956449,-6661.853478,919.314598
1482.656348,6883.915261,-6661.853478,766.095498
1482.656678,7031.956449,-6069.688724,842.705048
1482.657007,7031.956449,-5921.647536,1838.629195
1482.657337,7254.018232,-6217.729913,1149.143247
1482.657667,7179.997637,-6069.688724,1302.362347
1482.657997,7105.977043,-5995.668130,842.705048
1482.658326,7328.038826,-6587.832884,1302.362347
1482.658656,6735.874072,-6143.709319,919.314598
1482.658986,6661.853478,-6735.874072,995.924147
1482.659315,6809.894666,-6661.853478,1072.533697
1482.659645,6883.915261,-6587.832884,1149.143247
1482.659975,7105.977043,-6957.935855,919.314598
1482.660304,7031.956449,-6513.812290,919.314598
1482.660634,6809.894666,-6365.771101,1225.752797
1482.660964,7031.956449,-6809.894666,1072.533697
1482.661293,7105.977043,-6513.812290,1455.581446
1482.661623,7105.977043,-6883.915261,1225.752797
1482.661953,7031.956449,-6661.853478,842.705048
1482.662282,7105.977043,-6661.853478,919.314598
1482.662612,7105.977043,-6439.791695,1072.533697
1482.662942,7031.956449,-6513.812290,1149.143247
1482.663271,7105.977043,-6439.791695,995.924147
1482.663601,7105.977043,-6661.853478,995.924147
1482.663931,7031.956449,-6439.791695,1225.752797
1482.664260,7328.038826,-5921.647536,919.314598
1482.664590,7624.121203,-6439.791695,1072.533697
1482.664920,7179.997637,-6217.729913,1072.533697
1482.665249,6957.935855,-6291.750507,1149.143247
1482.665579,7105.977043,-6217.729913,766.095498
1482.665909,7031.956449,-6217.729913,1072.533697
1482.666238,6513.812290,-6291.750507,919.314598
1482.666568,6513.812290,-6957.935855,842.705048
1482.666898,6735.874072,-6957.935855,1149.143247
1482.667227,6809.894666,-6513.812290,1072.533697
1482.667557,6883.915261,-6217.729913,1302.362347
1482.667887,6513.812290,-6883.915261,1685.410096
1482.668216,6883.915261,-6735.874072,995.924147
1482.668546,6661.853478,-7105.977043,919.314598
1482.668876,6291.750507,-6587.832884,1072.533697
1482.669205,7105.977043,-7031.956449,842.705048
1482.669535,7105.977043,-6735.874072,919.314598
1482.669865,7105.977043,-6291.750507,919.314598
1482.670194,7031.956449,-6587.832884,842.705048
1482.670524,7402.059420,-6439.791695,1225.752797
1482.670854,7105.977043,-7031.956449,842.705048
1482.671183,7105.977043,-6587.832884,842.705048
1482.671513,7031.956449,-6069.688724,995.924147
1482.671843,7179.997637,-6217.729913,919.314598
1482.672172,7920.203579,-6587.832884,1378.971896
1482.672502,7105.977043,-6217.729913,1302.362347
1482.672832,7105.977043,-6217.729913,1072.533697
1482.673161,6883.915261,-6143.709319,995.924147
1482.673491,6883.915261,-6439.791695,766.095498
1482.673821,6587.832884,-6883.915261,612.876398
1482.674150,6809.894666,-6883.915261,919.314598
1482.674480,7105.977043,-6365.771101,1149.143247
1482.674810,7105.977043,-6217.729913,995.924147
1482.675139,7031.956449,-6809.894666,1532.190996
1482.675469,6957.935855,-7105.977043,1762.019645
1482.675799,6883.915261,-6957.935855,842.705048
1482.676128,6735.874072,-6587.832884,612.876398
1482.676458,6661.853478,-6883.915261,1072.533697
1482.676788,6957.935855,-6661.853478,1072.533697
1482.677117,7328.038826,-6661.853478,1302.362347
1482.677447,7105.977043,-6439.791695,995.924147
1482.677777,7105.977043,-6291.750507,689.485948
1482.678106,7105.977043,-6513.812290,766.095498
1482.678436,7105.977043,-6883.915261,1072.533697
1482.678766,7105.977043,-6365.771101,842.705048
1482.679095,7031.956449,-5847.626942,766.095498
1482.679425,7402.059420,-6143.709319,1302.362347
1482.679755,7624.121203,-5921.647536,1455.581446
1482.680084,6809.894666,-6365.771101,1072.533697
1482.680414,6735.874072,-6365.771101,842.705048
1482.680744,6661.853478,-6513.812290,842.705048
1482.681073,6587.832884,-6217.729913,1302.362347
1482.681403,6735.874072,-6735.874072,766.095498
1482.681733,6883.915261,-6883.915261,1072.533697
1482.682062,6587.832884,-6957.935855,1302.362347
1482.682392,6217.729913,-6587.832884,536.266849
1482.682722,6513.812290,-6513.812290,1149.143247
1482.683051,6661.853478,-6957.935855,995.924147
1482.683381,6809.894666,-7031.956449,842.705048
1482.683711,6735.874072,-6883.915261,995.924147
1482.684040,6809.894666,-6735.874072,459.657299
1482.684370,7328.038826,-6291.750507,1149.143247
1482.684700,7254.018232,-6661.853478,766.095498
1482.685029,6809.894666,-7031.956449,919.314598
1482.685359,7105.977043,-6587.832884,919.314598
1482.685689,7402.059420,-6883.915261,1455.581446
1482.686018,6809.894666,-6291.750507,842.705048
1482.686348,7105.977043,-5847.626942,766.095498
1482.686678,7105.977043,-6365.771101,1225.752797
1482.687007,7105.977043,-6069.688724,1225.752797
1482.687337,7105.977043,-6143.709319,919.314598
1482.687667,7105.977043,-6069.688724,995.924147
1482.687996,7402.059420,-6513.812290,1072.533697
1482.688326,7179.997637,-6217.729913,1072.533697
1482.688656,7105.977043,-6735.874072,1149.143247
1482.688985,6883.915261,-7031.956449,919.314598
1482.689315,7179.997637,-6513.812290,919.314598
1482.689645,6809.894666,-6587.832884,842.705048
1482.689975,6661.853478,-6365.771101,1072.533697
1482.690304,6883.915261,-7031.956449,919.314598
1482.690634,6957.935855,-6957.935855,689.485948
1482.690964,6587.832884,-6587.832884,1072.533697
1482.691293,6809.894666,-6661.853478,842.705048
1482.691623,7328.038826,-6587.832884,1149.143247
1482.691953,7328.038826,-6439.791695,1685.410096
1482.692282,7105.977043,-6513.812290,919.314598
1482.692612,7254.018232,-6365.771101,536.266849
1482.692942,7031.956449,-6735.874072,995.924147
1482.693271,6957.935855,-6365.771101,995.924147
1482.693601,7031.956449,-6661.853478,1072.533697
1482.693931,7328.038826,-6143.709319,919.314598
1482.694260,7402.059420,-6439.791695,1225.752797
1482.694590,6883.915261,-6365.771101,766.095498
1482.694920,6587.832884,-5773.606348,1225.752797
1482.695249,7105.977043,-6069.688724,995.924147
1482.695579,6735.874072,-6439.791695,1072.533697
1482.695909,6513.812290,-6587.832884,995.924147
1482.696238,6883.915261,-6809.894666,1072.533697
1482.696568,6883.915261,-6661.853478,1378.971896
1482.696898,6735.874072,-6513.812290,842.705048
1482.697227,6661.853478,-6809.894666,536.266849
1482.697557,6587.832884,-6809.894666,1149.143247
1482.697887,7105.977043,-6809.894666,229.828649
1482.698216,6513.812290,-7105.977043,995.924147
1482.698546,6587.832884,-7105.977043,995.924147
1482.698876,7105.977043,-6957.935855,919.314598
1482.699205,6809.894666,-5995.668130,1685.410096
1482.699535,7031.956449,-6661.853478,1225.752797
1482.699865,7254.018232,-6365.771101,766.095498
1482.700194,7328.038826,-5477.523971,919.314598
1482.700524,7550.100608,-5107.421000,1072.533697
1482.700854,8512.368333,-5033.400406,689.485948
1482.701183,8808.450710,-5107.421000,1072.533697
1482.701513,8290.306550,-5995.668130,1072.533697
1482.701843,7402.059420,-6735.874072,689.485948
1482.702172,6217.729913,-7402.059420,689.485948
1482.702502,6439.791695,-7179.997637,76.609550
1482.702832,6661.853478,-6735.874072,612.876398
1482.703161,7550.100608,-6883.915261,1378.971896
1482.703491,8290.306550,-6439.791695,1762.019645
1482.703821,8734.430116,-4959.379811,2068.457845
1482.704150,8512.368333,-4145.153275,1532.190996
1482.704480,7624.121203,-4811.338623,995.924147
1482.704810,8068.244768,-4737.318029,1608.800546
1482.705139,8438.347739,-4515.256246,1378.971896
1482.705469,8290.306550,-4811.338623,1225.752797
1482.705799,7772.162391,-4367.215058,459.657299
1482.706128,7772.162391,-5921.647536,536.266849
1482.706458,8512.368333,-4811.338623,689.485948
1482.706788,8734.430116,-5551.544565,1225.752797
1482.707117,8734.430116,-6069.688724,689.485948
1482.707447,8290.306550,-5551.544565,383.047749
1482.707777,7698.141797,-6291.750507,612.876398
1482.708106,7698.141797,-5403.503377,995.924147
1482.708436,7920.203579,-4737.318029,842.705048
1482.708766,8734.430116,-4293.194464,1149.143247
1482.709095,8956.491898,-4145.153275,1225.752797
1482.709425,9326.594869,-3775.050304,1838.629195
1482.709755,9696.697840,-3256.906145,1991.848295
1482.710084,9844.739029,-3478.967927,1532.190996
1482.710414,9696.697840,-2516.700203,1378.971896
1482.710744,9474.636058,-2886.803174,1302.362347
1482.711073,9622.677246,-3552.988522,1302.362347
1482.711403,9992.780217,-3404.947333,1455.581446
1482.711733,9992.780217,-4737.318029,1532.190996
1482.712062,9474.636058,-4145.153275,842.705048
1482.712392,8290.306550,-5181.441594,1378.971896
1482.712722,8068.244768,-5181.441594,842.705048
1482.713051,7402.059420,-5403.503377,1225.752797
1482.713381,7105.977043,-5921.647536,995.924147
1482.713711,7476.080014,-5329.482782,536.266849
1482.714040,7402.059420,-5921.647536,1072.533697
1482.714370,8364.327145,-4737.318029,995.924147
1482.714700,8512.368333,-5033.400406,612.876398
1482.715029,8216.285956,-5477.523971,153.219100
1482.715359,8438.347739,-4663.297435,0.000000
1482.715689,9326.594869,-4293.194464,0.000000
1482.716018,10807.006753,-3552.988522,919.314598
1482.716348,11029.068536,-4737.318029,842.705048
1482.716678,10362.883188,-3923.091493,1532.190996
1482.717007,9622.677246,-3701.029710,842.705048
1482.717337,9770.718434,-4145.153275,1302.362347
1482.717667,8660.409521,-4367.215058,1149.143247
1482.717996,8734.430116,-4737.318029,1838.629195
1482.718326,8364.327145,-4367.215058,1991.848295
1482.718656,8882.471304,-4515.256246,1838.629195
1482.718985,8660.409521,-3404.947333,2757.943793
1482.719315,8956.491898,-3627.009116,1915.238745
1482.719645,8734.430116,-3775.050304,1838.629195
1482.719974,9178.553681,-3627.009116,1072.533697
1482.720304,9326.594869,-4145.153275,919.314598
1482.720634,9622.677246,-3552.988522,919.314598
1482.720963,9548.656652,-4293.194464,76.609550
1482.721293,9548.656652,-4367.215058,0.000000
1482.721623,8956.491898,-4589.276840,0.000000
1482.721953,9326.594869,-5995.668130,-306.438199
1482.722282,8808.450710,-5921.647536,306.438199
1482.722612,8660.409521,-6883.915261,689.485948
1482.722942,8142.265362,-6809.894666,1149.143247
1482.723271,7994.224174,-5551.544565,1302.362347
1482.723601,8660.409521,-5403.503377,1762.019645
1482.723931,8808.450710,-5329.482782,2451.505594
1482.724260,9030.512492,-4441.235652,2298.286494
1482.724590,9770.718434,-2812.782580,1915.238745
1482.724920,10066.800811,-1184.329507,1685.410096
1482.725249,10881.027347,-962.267725,1455.581446
1482.725579,10288.862594,-1184.329507,383.047749
1482.725909,10066.800811,-1258.350101,0.000000
1482.726238,10140.821405,-2072.576638,306.438199
1482.726568,10584.944971,-3627.009116,76.609550
1482.726898,9474.636058,-7031.956449,383.047749
1482.727227,8216.285956,-6513.812290,612.876398
1482.727557,6809.894666,-9474.636058,0.000000
1482.727887,5847.626942,-9474.636058,76.609550
1482.728216,5773.606348,-8364.327145,536.266849
1482.728546,6809.894666,-9030.512492,995.924147
1482.728876,7254.018232,-5847.626942,766.095498
1482.729205,7624.121203,-5033.400406,1072.533697
1482.729535,8808.450710,-3849.070898,1915.238745
1482.729865,9252.574275,-1850.514855,1225.752797
1482.730194,10362.883188,-1702.473667,1302.362347
1482.730524,10881.027347,148.041188,1838.629195
1482.730854,11843.295072,518.144159,766.095498
1482.731183,12509.480420,444.123565,995.924147
1482.731513,12805.562797,0.000000,1225.752797
1482.731843,13027.624579,-2072.576638,1838.629195
1482.732172,12139.377449,-2294.638420,1532.190996
1482.732502,9474.636058,-4959.379811,1302.362347
1482.732832,8364.327145,-7772.162391,1302.362347
1482.733161,6365.771101,-9400.615463,1302.362347
1482.733491,4441.235652,-9548.656652,383.047749
1482.733821,3108.864956,-9400.615463,-1532.190996
1482.734150,2738.761985,-8364.327145,-842.705048
1482.734480,5847.626942,-6957.935855,-229.828649
1482.734810,8142.265362,-6957.935855,919.314598
1482.735139,9696.697840,-4811.338623,2298.286494
1482.735469,10140.821405,-1998.556043,1685.410096
1482.735799,10881.027347,-74.020594,1149.143247
1482.736128,10881.027347,0.000000,1915.238745
1482.736458,12435.459826,666.185348,1378.971896
1482.736788,13249.686362,-888.247130,1149.143247
1482.737117,14063.912898,-740.205942,2834.553343
1482.737447,13915.871710,-3182.885551,2757.943793
1482.737777,13397.727550,-2886.803174,2451.505594
1482.738106,10584.944971,-4515.256246,1915.238745
1482.738436,7328.038826,-6513.812290,1149.143247
1482.738766,5255.462188,-7402.059420,0.000000
1482.739095,3108.864956,-7624.121203,-1378.971896
1482.739425,1924.535449,-8808.450710,-2374.896044
1482.739755,3478.967927,-9178.553681,-612.876398
1482.740084,7254.018232,-4515.256246,-306.438199
1482.740414,10807.006753,-4367.215058,153.219100
1482.740744,12435.459826,-2738.761985,2374.896044
1482.741073,12879.583391,-1480.411884,2604.724693
1482.741403,12953.603985,-1184.329507,1838.629195
1482.741733,11325.150913,-1332.370696,2145.067394
1482.742062,10288.862594,-3108.864956,1762.019645
1482.742392,9474.636058,-4737.318029,459.657299
1482.742722,7994.224174,-6217.729913,1302.362347
1482.743051,7328.038826,-8808.450710,2374.896044
1482.743381,8142.265362,-8068.244768,2298.286494
1482.743711,6661.853478,-5921.647536,919.314598
1482.744040,4885.359217,-4885.359217,-1532.190996
1482.744370,5255.462188,-3552.988522,-1225.752797
1482.744700,7624.121203,-4293.194464,0.000000
1482.745029,9770.718434,-3108.864956,536.266849
1482.745359,10807.006753,-1776.494261,2451.505594
1482.745689,11843.295072,-1184.329507,1685.410096
1482.746018,12065.356855,-1480.411884,1072.533697
1482.746348,11399.171507,-3182.885551,2451.505594
1482.746678,11251.130318,-5255.462188,2298.286494
1482.747007,10732.986159,-3849.070898,1915.238745
1482.747337,8882.471304,-4885.359217,1302.362347
1482.747667,7846.182985,-4737.318029,229.828649
1482.747996,6809.894666,-5625.565159,0.000000
1482.748326,5995.668130,-8068.244768,612.876398
1482.748656,5699.585753,-8364.327145,153.219100
1482.748985,6069.688724,-7994.224174,536.266849
1482.749315,6365.771101,-5329.482782,-153.219100
1482.749645,6513.812290,-4737.318029,0.000000
1482.749974,7920.203579,-6217.729913,1072.533697
1482.750304,9918.759623,-3478.967927,1378.971896
1482.750634,10807.006753,-2072.576638,1838.629195
1482.750963,11473.192101,518.144159,1532.190996
1482.751293,12435.459826,444.123565,1838.629195
1482.751623,11917.315666,-2664.741391,1838.629195
1482.751952,10584.944971,-2442.679609,1225.752797
1482.752282,9770.718434,-4293.194464,995.924147
1482.752611,9992.780217,-3552.988522,1302.362347
1482.752941,9400.615463,-5181.441594,1762.019645
1482.753270,9104.533087,-7105.977043,1455.581446
1482.753599,8808.450710,-4663.297435,1072.533697
1482.753928,8068.244768,-5107.421000,383.047749
1482.754258,8216.285956,-4959.379811,459.657299
1482.754587,8364.327145,-4737.318029,766.095498
1482.754916,7846.182985,-4367.215058,-383.047749
1482.755245,7328.038826,-3923.091493,-612.876398
1482.755574,8734.430116,-4737.318029,1072.533697
1482.755904,10807.006753,-4959.379811,2374.896044
1482.756233,11399.171507,-5329.482782,2145.067394
1482.756562,9770.718434,-3478.967927,1532.190996
1482.756891,8808.450710,-2368.659014,-76.609550
1482.757221,7994.224174,-6143.709319,76.609550
1482.757550,8290.306550,-7476.080014,2221.676944
1482.757879,8734.430116,-4959.379811,842.705048
1482.758208,9326.594869,-2738.761985,0.000000
1482.758538,9770.718434,-2960.823768,1838.629195
1482.758867,10510.924376,-4885.359217,2451.505594
1482.759196,10955.047942,-3108.864956,2298.286494
1482.759525,9400.615463,-1332.370696,1072.533697
1482.759854,8956.491898,-2220.617826,0.000000
1482.760184,8808.450710,-3034.844362,1378.971896
1482.760513,8438.347739,-3775.050304,995.924147
1482.760842,8364.327145,-5107.421000,1149.143247
1482.761171,9474.636058,-4515.256246,1149.143247
1482.761501,10436.903782,-3775.050304,1149.143247
1482.761830,10066.800811,-5181.441594,1455.581446
1482.762159,9030.512492,-5773.606348,1608.800546
1482.762488,8438.347739,-5847.626942,919.314598
1482.762817,7328.038826,-5181.441594,459.657299
1482.763147,7402.059420,-6661.853478,919.314598
1482.763476,7920.203579,-5699.585753,1685.410096
1482.763805,7846.182985,-5033.400406,1072.533697
1482.764134,7994.224174,-3775.050304,459.657299
1482.764464,8068.244768,-4589.276840,0.000000
1482.764793,7105.977043,-6069.688724,1072.533697
1482.765122,7328.038826,-5773.606348,536.266849
1482.765451,7550.100608,-4737.318029,459.657299
1482.765781,8660.409521,-3849.070898,1455.581446
1482.766110,10881.027347,-5403.503377,1532.190996
1482.766439,10436.903782,-4737.318029,2374.896044
1482.766768,10140.821405,-4737.318029,2221.676944
1482.767097,9400.615463,-4219.173869,383.047749
1482.767427,7920.203579,-2960.823768,229.828649
1482.767756,7550.100608,-3997.112087,842.705048
1482.768085,10140.821405,-3627.009116,612.876398
1482.768414,11029.068536,-3330.926739,1378.971896
1482.768744,10140.821405,-3923.091493,1762.019645
1482.769073,8882.471304,-4441.235652,766.095498
1482.769402,7476.080014,-5625.565159,229.828649
1482.769731,5625.565159,-6809.894666,-229.828649
1482.770061,5847.626942,-7105.977043,-76.609550
1482.770390,6883.915261,-7624.121203,459.657299
1482.770719,7402.059420,-9252.574275,1838.629195
1482.771048,7624.121203,-8068.244768,1225.752797
1482.771377,7402.059420,-6365.771101,919.314598
1482.771707,7105.977043,-6587.832884,306.438199
1482.772036,6809.894666,-6217.729913,689.485948
1482.772365,7624.121203,-4959.379811,1225.752797
1482.772694,8290.306550,-6217.729913,459.657299
1482.773024,8068.244768,-3182.885551,612.876398
1482.773353,8216.285956,-4071.132681,1149.143247
1482.773682,9178.553681,-5033.400406,689.485948
1482.774011,8882.471304,-4219.173869,1532.190996
1482.774341,7994.224174,-5625.565159,1455.581446
1482.774670,8512.368333,-4293.194464,612.876398
1482.774999,8586.388927,-5699.585753,1378.971896
1482.775328,7994.224174,-5329.482782,1302.362347
1482.775657,7920.203579,-6439.791695,1302.362347
1482.775987,7105.977043,-5921.647536,995.924147
1482.776316,6143.709319,-6735.874072,842.705048
1482.776645,5995.668130,-7179.997637,612.876398
1482.776974,6069.688724,-7179.997637,0.000000
1482.777304,5329.482782,-7698.141797,153.219100
1482.777633,5625.565159,-7994.224174,919.314598
1482.777962,6143.709319,-7698.141797,1378.971896
1482.778291,7550.100608,-6365.771101,1378.971896
1482.778620,8956.491898,-4293.194464,1991.848295
1482.778950,9918.759623,-4145.153275,2604.724693
1482.779279,9326.594869,-4885.359217,1991.848295
1482.779608,7105.977043,-5107.421000,2987.772442
1482.779937,6439.791695,-5033.400406,612.876398
1482.780267,6883.915261,-3997.112087,689.485948
1482.780596,6809.894666,-5625.565159,1455.581446
1482.780925,8216.285956,-6291.750507,1225.752797
1482.781254,8364.327145,-6217.729913,1225.752797
1482.781584,6439.791695,-8364.327145,1225.752797
1482.781913,5847.626942,-6291.750507,766.095498
1482.782242,5625.565159,-7179.997637,153.219100
1482.782571,5625.565159,-7624.121203,1149.143247
1482.782900,7105.977043,-9030.512492,1838.629195
1482.783230,7772.162391,-8734.430116,1608.800546
1482.783559,7254.018232,-7402.059420,1762.019645
1482.783888,6365.771101,-7624.121203,2068.457845
1482.784217,6365.771101,-6735.874072,612.876398
1482.784547,5551.544565,-6809.894666,306.438199
1482.784876,5403.503377,-8142.265362,842.705048
1482.785205,6365.771101,-7328.038826,842.705048
1482.785534,6291.750507,-6809.894666,1455.581446
1482.785864,5995.668130,-7476.080014,1378.971896
1482.786193,6365.771101,-6883.915261,1072.533697
1482.786522,6217.729913,-7031.956449,1225.752797
1482.786851,5403.503377,-8882.471304,1455.581446
1482.787180,7328.038826,-8364.327145,1838.629195
1482.787510,7994.224174,-5477.523971,1685.410096
1482.787839,7624.121203,-4663.297435,1838.629195
1482.788168,7846.182985,-4663.297435,1302.362347
1482.788497,8438.347739,-3330.926739,1838.629195
1482.788827,8216.285956,-4811.338623,995.924147
1482.789156,6809.894666,-6291.750507,1378.971896
1482.789485,5107.421000,-7402.059420,229.828649
1482.789814,3997.112087,-6809.894666,-766.095498
1482.790143,4885.359217,-9474.636058,383.047749
1482.790473,6513.812290,-8438.347739,1532.190996
1482.790802,8438.347739,-7105.977043,1915.238745
1482.791131,8068.244768,-7698.141797,1455.581446
1482.791460,7698.141797,-5625.565159,1302.362347
1482.791790,6439.791695,-6587.832884,76.609550
1482.792119,5921.647536,-6365.771101,0.000000
1482.792448,5847.626942,-6291.750507,766.095498
1482.792777,6809.894666,-6957.935855,612.876398
1482.793107,8512.368333,-6883.915261,1225.752797
1482.793436,8068.244768,-6809.894666,1608.800546
1482.793765,7624.121203,-5551.544565,1455.581446
1482.794094,6883.915261,-6439.791695,153.219100
1482.794423,6291.750507,-6513.812290,76.609550
1482.794753,6587.832884,-6291.750507,-383.047749
1482.795082,6513.812290,-7402.059420,612.876398
1482.795411,7476.080014,-6883.915261,536.266849
1482.795740,7105.977043,-6069.688724,536.266849
1482.796070,7105.977043,-6513.812290,536.266849
1482.796399,7994.224174,-6217.729913,842.705048
1482.796728,8586.388927,-5033.400406,1378.971896
1482.797057,8512.368333,-4959.379811,1532.190996
1482.797387,8512.368333,-4441.235652,1149.143247
1482.797716,7550.100608,-4737.318029,383.047749
1482.798045,6365.771101,-6217.729913,1225.752797
1482.798374,8290.306550,-5477.523971,1072.533697
1482.798703,9326.594869,-5181.441594,1455.581446
1482.799033,8808.450710,-6735.874072,2145.067394
1482.799362,8068.244768,-7105.977043,1378.971896
1482.799691,7031.956449,-5181.441594,306.438199
1482.800020,6069.688724,-6069.688724,459.657299
1482.800350,5921.647536,-7031.956449,229.828649
1482.800679,7476.080014,-6069.688724,1302.362347
1482.801008,6735.874072,-7994.224174,1455.581446
1482.801337,5847.626942,-9178.553681,766.095498
1482.801667,4885.359217,-7698.141797,0.000000
1482.801996,4219.173869,-8956.491898,-306.438199
1482.802325,4737.318029,-9474.636058,229.828649
1482.802654,6365.771101,-8586.388927,1302.362347
1482.802983,7402.059420,-7254.018232,536.266849
1482.803313,7698.141797,-8068.244768,1762.019645
1482.803642,7772.162391,-6957.935855,1838.629195
1482.803971,6735.874072,-5847.626942,536.266849
1482.804300,6217.729913,-5033.400406,919.314598
1482.804630,7179.997637,-5995.668130,1225.752797
1482.804959,8364.327145,-6217.729913,1072.533697
1482.805288,7772.162391,-6143.709319,1991.848295
1482.805617,7031.956449,-5329.482782,689.485948
1482.805946,6883.915261,-5477.523971,1455.581446
1482.806276,6661.853478,-7328.038826,1455.581446
1482.806605,7328.038826,-5033.400406,1838.629195
1482.806934,7920.203579,-5921.647536,2145.067394
1482.807263,7994.224174,-6661.853478,2068.457845
1482.807593,7105.977043,-5773.606348,1838.629195
1482.807922,6513.812290,-6661.853478,2068.457845
1482.808251,7402.059420,-5921.647536,2298.286494
1482.808580,7624.121203,-4219.173869,842.705048
1482.808910,7328.038826,-5773.606348,1915.238745
1482.809239,6735.874072,-7254.018232,2221.676944
1482.809568,6513.812290,-6365.771101,842.705048
1482.809897,5921.647536,-4219.173869,766.095498
1482.810226,6069.688724,-6735.874072,766.095498
1482.810556,7179.997637,-7698.141797,1532.190996
1482.810885,7550.100608,-7624.121203,1532.190996
1482.811214,6661.853478,-8364.327145,1608.800546
1482.811543,6143.709319,-7179.997637,689.485948
1482.811873,5403.503377,-6957.935855,76.609550
1482.812202,4589.276840,-7846.182985,-153.219100
1482.812531,5625.565159,-7994.224174,1072.533697
1482.812860,7920.203579,-6809.894666,1532.190996
1482.813190,7624.121203,-7994.224174,1378.971896
1482.813519,6513.812290,-7031.956449,1608.800546
1482.813848,5847.626942,-5403.503377,229.828649
1482.814177,5995.668130,-7994.224174,229.828649
1482.814506,7105.977043,-7254.018232,1532.190996
1482.814836,7402.059420,-7105.977043,2145.067394
1482.815165,7550.100608,-7328.038826,1302.362347
1482.815494,6513.812290,-6883.915261,1762.019645
1482.815823,6439.791695,-4811.338623,229.828649
1482.816153,7031.956449,-6661.853478,306.438199
1482.816482,7772.162391,-5255.462188,1532.190996
1482.816811,9030.512492,-4515.256246,1532.190996
1482.817140,9030.512492,-5033.400406,2068.457845
1482.817470,7328.038826,-3997.112087,1608.800546
1482.817799,6291.750507,-5255.462188,383.047749
1482.818128,6217.729913,-6957.935855,306.438199
1482.818457,7476.080014,-6809.894666,1149.143247
1482.818786,7846.182985,-6661.853478,1762.019645
1482.819116,7105.977043,-7105.977043,1225.752797
1482.819445,6513.812290,-8216.285956,919.314598
1482.819774,6735.874072,-5699.585753,0.000000
1482.820103,6809.894666,-6735.874072,689.485948
1482.820433,7254.018232,-6513.812290,1532.190996
1482.820762,8290.306550,-4663.297435,1532.190996
1482.821091,7328.038826,-6661.853478,766.095498
1482.821420,6957.935855,-5773.606348,995.924147
1482.821749,5773.606348,-6143.709319,229.828649
1482.822079,5477.523971,-6587.832884,766.095498
1482.822408,6587.832884,-7846.182985,842.705048
1482.822737,7920.203579,-7402.059420,1149.143247
1482.823066,7624.121203,-7698.141797,1225.752797
1482.823396,6957.935855,-8438.347739,1072.533697
1482.823725,6439.791695,-6365.771101,76.609550
1482.824054,6365.771101,-6957.935855,-76.609550
1482.824383,6587.832884,-7920.203579,995.924147
1482.824713,7698.141797,-4885.359217,1072.533697
1482.825042,8512.368333,-6513.812290,766.095498
1482.825371,8142.265362,-5107.421000,536.266849
1482.825700,6809.894666,-5773.606348,612.876398
1482.826029,6439.791695,-6513.812290,306.438199
1482.826359,7105.977043,-6291.750507,536.266849
1482.826688,7920.203579,-6217.729913,1455.581446
1482.827017,8512.368333,-5773.606348,1378.971896
1482.827346,8216.285956,-6291.750507,1149.143247
1482.827676,7105.977043,-5773.606348,919.314598
1482.828005,7550.100608,-4885.359217,536.266849
1482.828334,8586.388927,-5403.503377,1455.581446
1482.828663,8956.491898,-4663.297435,1991.848295
1482.828993,8660.409521,-6069.688724,1685.410096
1482.829322,7179.997637,-6513.812290,2298.286494
1482.829651,6069.688724,-5773.606348,0.000000
1482.829980,4071.132681,-7772.162391,-383.047749
1482.830309,4071.132681,-7772.162391,766.095498
1482.830639,5551.544565,-8438.347739,459.657299
1482.830968,6587.832884,-7105.977043,1225.752797
1482.831297,6587.832884,-8808.450710,1455.581446
1482.831626,7254.018232,-7105.977043,536.266849
1482.831956,7179.997637,-7179.997637,842.705048
1482.832285,6439.791695,-7402.059420,1072.533697
1482.832614,7550.100608,-5847.626942,766.095498
1482.832943,7994.224174,-5921.647536,919.314598
1482.833273,7772.162391,-7402.059420,1762.019645
1482.833602,7105.977043,-6217.729913,1149.143247
1482.833931,7031.956449,-5403.503377,766.095498
1482.834260,5625.565159,-8290.306550,459.657299
1482.834589,5181.441594,-6587.832884,536.266849
1482.834919,5921.647536,-7105.977043,306.438199
1482.835248,6513.812290,-8512.368333,229.828649
1482.835577,7179.997637,-5255.462188,229.828649
1482.835906,7254.018232,-5995.668130,766.095498
1482.836236,7550.100608,-7031.956449,1072.533697
1482.836565,8734.430116,-5773.606348,2834.553343
1482.836894,9104.533087,-5329.482782,2987.772442
1482.837223,8364.327145,-5033.400406,2374.896044
1482.837552,7402.059420,-5477.523971,1991.848295
1482.837882,7031.956449,-4441.235652,1991.848295
1482.838211,6365.771101,-6883.915261,1455.581446
1482.838540,7254.018232,-5477.523971,1225.752797
1482.838869,5995.668130,-6439.791695,842.705048
1482.839199,5921.647536,-7994.224174,459.657299
1482.839528,4959.379811,-8068.244768,919.314598
1482.839857,5403.503377,-7179.997637,919.314598
1482.840186,6809.894666,-7179.997637,612.876398
1482.840516,7031.956449,-7994.224174,1991.848295
1482.840845,6587.832884,-7179.997637,459.657299
1482.841174,6661.853478,-7476.080014,919.314598
1482.841503,6883.915261,-6587.832884,1072.533697
1482.841832,7179.997637,-6069.688724,1302.362347
1482.842162,6291.750507,-7698.141797,1838.629195
1482.842491,6735.874072,-6291.750507,1455.581446
1482.842820,6365.771101,-7105.977043,766.095498
1482.843149,6217.729913,-7624.121203,1378.971896
1482.843479,5699.585753,-6957.935855,1072.533697
1482.843808,6365.771101,-6217.729913,766.095498
1482.844137,7179.997637,-6143.709319,1149.143247
1482.844466,8216.285956,-5773.606348,919.314598
1482.844796,8438.347739,-4071.132681,919.314598
1482.845125,8364.327145,-5329.482782,1455.581446
1482.845454,8364.327145,-6217.729913,995.924147
1482.845783,6587.832884,-5551.544565,842.705048
1482.846112,5847.626942,-7402.059420,1378.971896
1482.846442,6587.832884,-7105.977043,766.095498
1482.846771,6883.915261,-6809.894666,842.705048
1482.847100,7105.977043,-7476.080014,1225.752797
1482.847429,7550.100608,-6069.688724,1455.581446
1482.847759,7402.059420,-6513.812290,1915.238745
1482.848088,7402.059420,-4737.318029,536.266849
1482.848417,6439.791695,-7772.162391,1378.971896
1482.848746,7624.121203,-3923.091493,689.485948
1482.849076,8068.244768,-5625.565159,842.705048
1482.849405,7772.162391,-6883.915261,1838.629195
1482.849734,7328.038826,-5181.441594,919.314598
1482.850063,7179.997637,-7105.977043,0.000000
1482.850392,6513.812290,-7920.203579,919.314598
1482.850722,6143.709319,-5625.565159,919.314598
1482.851051,6883.915261,-8068.244768,842.705048
1482.851380,6069.688724,-8956.491898,1455.581446
1482.851709,5477.523971,-7476.080014,995.924147
1482.852039,5847.626942,-7920.203579,689.485948
1482.852368,6439.791695,-6957.935855,1225.752797
1482.852697,7179.997637,-6069.688724,1149.143247
1482.853026,7105.977043,-6809.894666,383.047749
1482.853355,7105.977043,-5551.544565,995.924147
1482.853685,6809.894666,-5477.523971,229.828649
1482.854014,6439.791695,-7476.080014,536.266849
1482.854343,6809.894666,-6661.853478,1072.533697
1482.854672,6883.915261,-7920.203579,612.876398
1482.855002,7624.121203,-7105.977043,1072.533697
1482.855331,7254.018232,-7550.100608,153.219100
1482.855660,6513.812290,-6365.771101,1225.752797
1482.855989,6957.935855,-5329.482782,842.705048
1482.856318,7254.018232,-6661.853478,766.095498
1482.856648,7179.997637,-4811.338623,1685.410096
1482.856977,7476.080014,-6143.709319,1915.238745
1482.857306,7772.162391,-6439.791695,2145.067394
1482.857635,6365.771101,-4663.297435,766.095498
1482.857965,5847.626942,-5403.503377,689.485948
1482.858294,6735.874072,-6217.729913,1532.190996
1482.858623,7624.121203,-7846.182985,1838.629195
1482.858952,7846.182985,-6809.894666,2451.505594
1482.859281,7476.080014,-6883.915261,1455.581446
1482.859611,6439.791695,-6217.729913,1149.143247
1482.859940,5847.626942,-5551.544565,153.219100
1482.860269,5995.668130,-7846.182985,919.314598
1482.860598,7031.956449,-5477.523971,612.876398
1482.860928,7328.038826,-7402.059420,919.314598
1482.861257,7920.203579,-6883.915261,1685.410096
1482.861586,6809.894666,-6069.688724,842.705048
1482.861915,5773.606348,-7624.121203,766.095498
1482.862244,5699.585753,-8068.244768,689.485948
1482.862574,6957.935855,-6809.894666,842.705048
1482.862903,7254.018232,-7254.018232,1532.190996
1482.863232,7105.977043,-8216.285956,1149.143247
1482.863561,5921.647536,-8586.388927,842.705048
1482.863891,5551.544565,-7550.100608,383.047749
1482.864220,6069.688724,-7402.059420,0.000000
1482.864549,7105.977043,-5699.585753,689.485948
1482.864878,8290.306550,-4959.379811,1225.752797
1482.865208,9252.574275,-6661.853478,1532.190996
1482.865537,8586.388927,-4515.256246,1225.752797
1482.865866,6291.750507,-4959.379811,689.485948
1482.866195,6365.771101,-6883.915261,842.705048
1482.866524,7254.018232,-5699.585753,842.705048
1482.866854,6661.853478,-6587.832884,1685.410096
1482.867183,7328.038826,-6735.874072,1608.800546
1482.867512,7624.121203,-6291.750507,1302.362347
1482.867841,6883.915261,-5625.565159,995.924147
1482.868171,7105.977043,-6291.750507,1455.581446
1482.868500,7698.141797,-5995.668130,1455.581446
1482.868829,7772.162391,-5921.647536,1915.238745
1482.869158,6587.832884,-7179.997637,766.095498
1482.869487,6365.771101,-7179.997637,536.266849
1482.869817,5995.668130,-4885.359217,229.828649
1482.870146,5699.585753,-6883.915261,383.047749
1482.870475,6587.832884,-6439.791695,2145.067394
1482.870804,8290.306550,-6291.750507,1532.190996
1482.871134,8364.327145,-7254.018232,1762.019645
1482.871463,7402.059420,-5403.503377,1532.190996
1482.871792,6365.771101,-4737.318029,459.657299
1482.872121,7031.956449,-7105.977043,153.219100
1482.872450,6735.874072,-7698.141797,919.314598
1482.872780,7994.224174,-6143.709319,2068.457845
1482.873109,7698.141797,-7105.977043,1455.581446
1482.873438,6439.791695,-7846.182985,919.314598
1482.873767,5255.462188,-7402.059420,306.438199
1482.874097,5255.462188,-8068.244768,0.000000
1482.874426,5551.544565,-8438.347739,919.314598
1482.874755,6587.832884,-5921.647536,689.485948
1482.875084,6513.812290,-8734.430116,842.705048
1482.875413,5995.668130,-7698.141797,612.876398
1482.875743,6291.750507,-5995.668130,612.876398
1482.876072,8068.244768,-6217.729913,1762.019645
1482.876401,8734.430116,-4959.379811,1915.238745
1482.876730,8364.327145,-4219.173869,1455.581446
1482.877060,8512.368333,-5921.647536,1685.410096
1482.877389,8142.265362,-5107.421000,1608.800546
1482.877718,6735.874072,-5107.421000,689.485948
1482.878047,6365.771101,-6143.709319,0.000000
1482.878376,6513.812290,-6513.812290,1149.143247
1482.878706,7402.059420,-6143.709319,1685.410096
1482.879035,7328.038826,-7105.977043,1838.629195
1482.879364,6513.812290,-7179.997637,1455.581446
1482.879693,6439.791695,-6217.729913,383.047749
1482.880023,5477.523971,-5847.626942,153.219100
1482.880352,6143.709319,-6883.915261,842.705048
1482.880681,7772.162391,-6217.729913,1378.971896
1482.881010,8882.471304,-5995.668130,2528.115143
1482.881339,9252.574275,-6883.915261,1838.629195
1482.881669,8142.265362,-5477.523971,2068.457845
1482.881998,6883.915261,-5773.606348,1072.533697
1482.882327,5921.647536,-7550.100608,536.266849
1482.882656,4737.318029,-7105.977043,536.266849
1482.882986,5551.544565,-8882.471304,995.924147
1482.883315,7624.121203,-8586.388927,1378.971896
1482.883644,7105.977043,-7105.977043,1072.533697
1482.883973,6439.791695,-7994.224174,229.828649
1482.884302,6587.832884,-7105.977043,766.095498
1482.884632,7105.977043,-6439.791695,689.485948
1482.884961,7105.977043,-5995.668130,459.657299
1482.885290,7328.038826,-6957.935855,459.657299
1482.885619,7105.977043,-6513.812290,153.219100
1482.885949,6143.709319,-7105.977043,76.609550
1482.886278,5551.544565,-7254.018232,689.485948
1482.886607,7846.182985,-6439.791695,1378.971896
1482.886936,8808.450710,-4589.276840,1762.019645
1482.887266,7624.121203,-7105.977043,1685.410096
1482.887595,6883.915261,-5773.606348,1838.629195
1482.887924,7179.997637,-4589.276840,536.266849
1482.888253,7105.977043,-6439.791695,1455.581446
1482.888582,8142.265362,-5107.421000,2374.896044
1482.888912,7920.203579,-5625.565159,1072.533697
1482.889241,7402.059420,-6365.771101,1302.362347
1482.889570,5921.647536,-6587.832884,459.657299
1482.889899,5847.626942,-6735.874072,153.219100
1482.890229,6735.874072,-6587.832884,306.438199
1482.890558,6365.771101,-7179.997637,842.705048
1482.890887,7105.977043,-7031.956449,919.314598
1482.891216,7402.059420,-7772.162391,1149.143247
1482.891545,7105.977043,-7698.141797,842.705048
1482.891875,6069.688724,-6291.750507,612.876398
1482.892204,6735.874072,-8438.347739,1225.752797
1482.892533,7179.997637,-7698.141797,1225.752797
1482.892862,6957.935855,-6513.812290,1608.800546
1482.893192,6587.832884,-8808.450710,1149.143247
1482.893521,6439.791695,-7476.080014,995.924147
1482.893850,5625.565159,-6069.688724,229.828649
1482.894179,5329.482782,-7254.018232,0.000000
1482.894508,6513.812290,-6217.729913,1149.143247
1482.894838,8512.368333,-5995.668130,1762.019645
1482.895167,8808.450710,-6735.874072,1685.410096
1482.895496,7624.121203,-5403.503377,1302.362347
1482.895825,6809.894666,-4293.194464,842.705048
1482.896155,7105.977043,-6809.894666,1378.971896
1482.896484,7105.977043,-5995.668130,2145.067394
1482.896813,7994.224174,-5921.647536,2298.286494
1482.897142,7920.203579,-6513.812290,1532.190996
1482.897471,7328.038826,-5773.606348,1838.629195
1482.897801,6291.750507,-7550.100608,1302.362347
1482.898130,6809.894666,-5329.482782,1685.410096
1482.898459,6513.812290,-6513.812290,1685.410096
1482.898788,6661.853478,-6217.729913,842.705048
1482.899118,7105.977043,-6439.791695,1302.362347
1482.899447,6957.935855,-7772.162391,689.485948
1482.899776,6291.750507,-5773.606348,842.705048
1482.900105,6735.874072,-7105.977043,1072.533697
1482.900434,7179.997637,-5921.647536,919.314598
1482.900764,7698.141797,-3923.091493,1608.800546
1482.901093,8512.368333,-6809.894666,1991.848295
1482.901422,8068.244768,-5329.482782,1762.019645
1482.901751,5477.523971,-7254.018232,1225.752797
1482.902081,4441.235652,-7846.182985,383.047749
1482.902410,4367.215058,-7105.977043,383.047749
1482.902739,4959.379811,-8734.430116,766.095498
1482.903068,6069.688724,-7698.141797,2451.505594
1482.903397,7772.162391,-7994.224174,1532.190996
1482.903727,8512.368333,-5699.585753,612.876398
1482.904056,7476.080014,-5773.606348,1915.238745
1482.904385,8068.244768,-5033.400406,459.657299
1482.904714,7476.080014,-5625.565159,306.438199
1482.905044,5477.523971,-7624.121203,766.095498
1482.905373,6735.874072,-8364.327145,383.047749
1482.905702,7105.977043,-5921.647536,689.485948
1482.906031,6587.832884,-7550.100608,1225.752797
1482.906360,6735.874072,-7476.080014,995.924147
1482.906690,7105.977043,-6069.688724,995.924147
1482.907019,6957.935855,-6587.832884,689.485948
1482.907348,6587.832884,-7772.162391,919.314598
1482.907677,6513.812290,-5255.462188,383.047749
1482.908007,7031.956449,-6735.874072,919.314598
1482.908336,7920.203579,-6883.915261,2298.286494
1482.908665,9178.553681,-4885.359217,2068.457845
1482.908994,9400.615463,-4737.318029,2451.505594
1482.909324,8438.347739,-5107.421000,1455.581446
1482.909653,7105.977043,-5181.441594,612.876398
1482.909982,4959.379811,-5551.544565,-459.657299
1482.910311,4811.338623,-7772.162391,-229.828649
1482.910640,5995.668130,-7105.977043,229.828649
1482.910970,6365.771101,-7254.018232,612.876398
1482.911299,7476.080014,-7772.162391,2068.457845
1482.911628,8660.409521,-5847.626942,1302.362347
1482.911957,7179.997637,-6661.853478,995.924147
1482.912287,6587.832884,-7031.956449,1302.362347
1482.912616,6957.935855,-5625.565159,76.609550
1482.912945,7698.141797,-4811.338623,689.485948
1482.913274,7920.203579,-6217.729913,1072.533697
1482.913603,8068.244768,-5921.647536,689.485948
1482.913933,7179.997637,-6513.812290,842.705048
1482.914262,7179.997637,-6883.915261,306.438199
1482.914591,7179.997637,-7105.977043,842.705048
1482.914920,7920.203579,-6069.688724,1378.971896
1482.915250,7254.018232,-7846.182985,689.485948
1482.915579,6069.688724,-6587.832884,229.828649
1482.915908,6217.729913,-5477.523971,153.219100
1482.916237,7328.038826,-6513.812290,229.828649
1482.916566,8512.368333,-5255.462188,1455.581446
1482.916896,8882.471304,-5477.523971,2068.457845
1482.917225,8512.368333,-7105.977043,1149.143247
1482.917554,7179.997637,-6735.874072,1072.533697
1482.917883,5847.626942,-5551.544565,229.828649
1482.918213,5477.523971,-7550.100608,536.266849
1482.918542,6883.915261,-7402.059420,1225.752797
1482.918871,7476.080014,-7328.038826,1685.410096
1482.919200,6957.935855,-7846.182985,1762.019645
1482.919529,5847.626942,-7402.059420,689.485948
1482.919859,5551.544565,-7031.956449,229.828649
1482.920188,6069.688724,-7476.080014,612.876398
1482.920517,7254.018232,-5625.565159,919.314598
1482.920846,8216.285956,-3552.988522,689.485948
1482.921176,8512.368333,-6883.915261,1685.410096
1482.921505,8512.368333,-6217.729913,2145.067394
1482.921834,6883.915261,-5995.668130,383.047749
1482.922163,5847.626942,-7254.018232,919.314598
1482.922492,6069.688724,-7402.059420,1149.143247
1482.922822,6365.771101,-7698.141797,995.924147
1482.923151,6365.771101,-8364.327145,1072.533697
1482.923480,6735.874072,-7624.121203,1225.752797
1482.923809,7328.038826,-5699.585753,1149.143247
1482.924139,7624.121203,-6069.688724,1072.533697
1482.924468,7105.977043,-5921.647536,1455.581446
1482.924797,7476.080014,-4737.318029,1838.629195
1482.925126,7550.100608,-4885.359217,1532.190996
1482.925455,7476.080014,-5033.400406,1225.752797
1482.925785,6883.915261,-5403.503377,1685.410096
1482.926114,5625.565159,-6661.853478,1455.581446
1482.926443,5033.400406,-7105.977043,1838.629195
1482.926772,5403.503377,-6883.915261,536.266849
1482.927102,6069.688724,-7105.977043,1072.533697
1482.927431,6957.935855,-7179.997637,689.485948
1482.927760,7105.977043,-6513.812290,1455.581446
1482.928089,6217.729913,-6513.812290,689.485948
1482.928419,6365.771101,-6957.935855,306.438199
1482.928748,7624.121203,-6217.729913,1378.971896
1482.929077,8142.265362,-6365.771101,995.924147
1482.929406,7772.162391,-7105.977043,1302.362347
1482.929735,6439.791695,-6957.935855,919.314598
1482.930065,5847.626942,-7105.977043,0.000000
1482.930394,6365.771101,-6735.874072,536.266849
1482.930723,6883.915261,-7031.956449,1532.190996
1482.931052,7624.121203,-7105.977043,1762.019645
1482.931382,6439.791695,-8290.306550,995.924147
1482.931711,5625.565159,-6365.771101,766.095498
1482.932040,6587.832884,-7105.977043,995.924147
1482.932369,7772.162391,-6439.791695,1149.143247
1482.932698,8660.409521,-5181.441594,1762.019645
1482.933028,7994.224174,-6291.750507,1455.581446
1482.933357,8290.306550,-6735.874072,1532.190996
1482.933686,7328.038826,-6069.688724,1225.752797
1482.934015,6439.791695,-6291.750507,-306.438199
1482.934345,5921.647536,-6957.935855,383.047749
1482.934674,6735.874072,-7105.977043,612.876398
1482.935003,7402.059420,-7846.182985,1455.581446
1482.935332,7105.977043,-8142.265362,1762.019645
1482.935661,6735.874072,-5329.482782,229.828649
1482.935991,6143.709319,-6217.729913,0.000000
1482.936320,6439.791695,-6809.894666,459.657299
1482.936649,7179.997637,-6217.729913,1685.410096
1482.936978,7994.224174,-6883.915261,2145.067394
1482.937308,7698.141797,-4589.276840,766.095498
1482.937637,7105.977043,-5699.585753,1072.533697
1482.937966,7476.080014,-5995.668130,1685.410096
1482.938295,7846.182985,-5477.523971,1149.143247
1482.938624,7254.018232,-6513.812290,2221.676944
1482.938954,6069.688724,-5625.565159,919.314598
1482.939283,5329.482782,-7624.121203,383.047749
1482.939612,4811.338623,-6883.915261,0.000000
1482.939941,5847.626942,-7179.997637,76.609550
1482.940271,7105.977043,-8142.265362,1455.581446
1482.940600,8216.285956,-6217.729913,1532.190996
1482.940929,8660.409521,-5477.523971,1838.629195
1482.941258,8290.306550,-6365.771101,1302.362347
1482.941587,7031.956449,-4737.318029,229.828649
1482.941917,5625.565159,-6735.874072,383.047749
1482.942246,5699.585753,-8808.450710,689.485948
1482.942575,6735.874072,-7920.203579,1838.629195
1482.942904,7179.997637,-7179.997637,1302.362347
1482.943234,7105.977043,-7328.038826,1072.533697
1482.943563,6661.853478,-6661.853478,842.705048
1482.943892,6143.709319,-6883.915261,306.438199
1482.944221,6957.935855,-6439.791695,153.219100
1482.944550,8290.306550,-4515.256246,766.095498
1482.944880,8290.306550,-5551.544565,1225.752797
1482.945209,7846.182985,-6883.915261,1072.533697
1482.945538,7402.059420,-7179.997637,1838.629195
1482.945867,7402.059420,-5477.523971,1838.629195
1482.946197,8142.265362,-6365.771101,1455.581446
1482.946526,7624.121203,-7550.100608,2528.115143
1482.946855,7105.977043,-6661.853478,1838.629195
1482.947184,6661.853478,-6661.853478,1072.533697
1482.947513,4885.359217,-6735.874072,306.438199
1482.947843,4589.276840,-5625.565159,153.219100
1482.948172,6439.791695,-6883.915261,842.705048
1482.948501,7624.121203,-6439.791695,1225.752797
1482.948830,7179.997637,-5551.544565,1455.581446
1482.949160,7328.038826,-6439.791695,1762.019645
1482.949489,7254.018232,-7105.977043,0.000000
1482.949818,5625.565159,-5551.544565,536.266849
1482.950147,6069.688724,-7402.059420,919.314598
1482.950477,8290.306550,-7179.997637,1302.362347
1482.950806,8512.368333,-6069.688724,1378.971896
1482.951135,7920.203579,-8882.471304,2528.115143
1482.951464,7846.182985,-7476.080014,2068.457845
1482.951793,6143.709319,-5107.421000,536.266849
1482.952123,4589.276840,-6661.853478,842.705048
1482.952452,6957.935855,-6809.894666,1532.190996
1482.952781,8808.450710,-4959.379811,1608.800546
1482.953110,6735.874072,-9548.656652,1302.362347
1482.953439,6069.688724,-3478.967927,-306.438199
1482.953768,5477.523971,-5477.523971,76.609550
1482.954098,6143.709319,-8512.368333,229.828649
1482.954427,8068.244768,-6883.915261,2451.505594
1482.954756,9030.512492,-7476.080014,2528.115143
1482.955085,7179.997637,-7624.121203,1072.533697
1482.955414,4811.338623,-7846.182985,689.485948
1482.955743,5181.441594,-5773.606348,459.657299
1482.956072,6143.709319,-5551.544565,383.047749
1482.956401,7105.977043,-6587.832884,1838.629195
1482.956730,8364.327145,-5329.482782,2451.505594
1482.957060,9400.615463,-5773.606348,2068.457845
1482.957389,9400.615463,-4515.256246,2298.286494
1482.957718,7772.162391,-3034.844362,689.485948
1482.958047,6957.935855,-5033.400406,459.657299
1482.958376,5921.647536,-6291.750507,0.000000
1482.958705,5477.523971,-7624.121203,306.438199
1482.959034,7031.956449,-7994.224174,995.924147
1482.959363,7328.038826,-8512.368333,612.876398
1482.959692,5699.585753,-7698.141797,229.828649
1482.960021,4663.297435,-8290.306550,0.000000
1482.960351,6513.812290,-7105.977043,459.657299
1482.960680,7920.203579,-4885.359217,919.314598
1482.961009,7402.059420,-6291.750507,1685.410096
1482.961338,8216.285956,-6291.750507,612.876398
1482.961667,7402.059420,-5847.626942,229.828649
1482.961996,6957.935855,-6735.874072,995.924147
1482.962325,7254.018232,-6809.894666,1455.581446
1482.962654,8290.306550,-5477.523971,1608.800546
1482.962983,8216.285956,-5699.585753,1532.190996
1482.963312,7846.182985,-8142.265362,1072.533697
1482.963642,6439.791695,-6587.832884,459.657299
1482.963971,5107.421000,-6587.832884,0.000000
1482.964300,5625.565159,-8290.306550,-536.266849
1482.964629,6735.874072,-6661.853478,1072.533697
1482.964958,7846.182985,-7031.956449,919.314598
1482.965287,8216.285956,-7105.977043,689.485948
1482.965616,7550.100608,-6957.935855,1072.533697
1482.965945,7105.977043,-6291.750507,536.266849
1482.966274,6957.935855,-5995.668130,153.219100
1482.966603,7476.080014,-4515.256246,459.657299
1482.966933,8068.244768,-6291.750507,1685.410096
1482.967262,8808.450710,-8068.244768,2298.286494
1482.967591,7920.203579,-6291.750507,1762.019645
1482.967920,6217.729913,-4959.379811,459.657299
1482.968249,6587.832884,-5477.523971,995.924147
1482.968578,7031.956449,-5107.421000,842.705048
1482.968907,7179.997637,-6661.853478,1072.533697
1482.969236,6957.935855,-6809.894666,1532.190996
1482.969565,7105.977043,-6365.771101,612.876398
1482.969894,6069.688724,-5995.668130,229.828649
1482.970224,4959.379811,-7994.224174,842.705048
1482.970553,5847.626942,-8956.491898,306.438199
1482.970882,6883.915261,-6513.812290,229.828649
1482.971211,6291.750507,-8586.388927,842.705048
1482.971540,7105.977043,-8290.306550,1991.848295
1482.971869,7402.059420,-7031.956449,1532.190996
1482.972198,6957.935855,-6439.791695,1072.533697
1482.972527,6587.832884,-5181.441594,919.314598
1482.972856,6957.935855,-5773.606348,995.924147
1482.973186,7105.977043,-7402.059420,1072.533697
1482.973515,6513.812290,-7179.997637,1225.752797
1482.973844,6957.935855,-5921.647536,1072.533697
1482.974173,7846.182985,-6217.729913,766.095498
1482.974502,7105.977043,-8438.347739,1455.581446
1482.974831,7254.018232,-4811.338623,2068.457845
1482.975160,8216.285956,-6587.832884,1685.410096
1482.975489,7698.141797,-6513.812290,689.485948
1482.975818,5329.482782,-5329.482782,766.095498
1482.976147,5403.503377,-8142.265362,1455.581446
1482.976477,7698.141797,-6661.853478,1302.362347
1482.976806,7772.162391,-5625.565159,2298.286494
1482.977135,7772.162391,-6217.729913,1991.848295
1482.977464,7254.018232,-6439.791695,2681.334243
1482.977793,7476.080014,-3775.050304,689.485948
1482.978122,5921.647536,-5181.441594,995.924147
1482.978451,5921.647536,-6587.832884,1072.533697
1482.978780,6439.791695,-6809.894666,1072.533697
1482.979109,7105.977043,-7105.977043,842.705048
1482.979438,6513.812290,-7698.141797,1685.410096
1482.979768,6809.894666,-6735.874072,919.314598
1482.980097,7624.121203,-7105.977043,1608.800546
1482.980426,7105.977043,-6513.812290,1762.019645
1482.980755,7328.038826,-6439.791695,995.924147
1482.981084,7105.977043,-5921.647536,459.657299
1482.981413,6957.935855,-5033.400406,612.876398
1482.981742,6143.709319,-7105.977043,919.314598
1482.982071,6587.832884,-7328.038826,1378.971896
1482.982400,7920.203579,-7624.121203,1149.143247
1482.982729,7994.224174,-6365.771101,842.705048
1482.983059,7105.977043,-6661.853478,1608.800546
1482.983388,6735.874072,-8956.491898,1532.190996
1482.983717,6143.709319,-6587.832884,459.657299
1482.984046,5625.565159,-6883.915261,229.828649
1482.984375,6291.750507,-8068.244768,1149.143247
1482.984704,7698.141797,-7254.018232,1455.581446
1482.985033,7328.038826,-7402.059420,1608.800546
1482.985362,6217.729913,-7550.100608,229.828649
1482.985691,5551.544565,-6513.812290,153.219100
1482.986020,5921.647536,-6291.750507,919.314598
1482.986350,7031.956449,-7624.121203,842.705048
1482.986679,7994.224174,-5995.668130,1378.971896
1482.987008,7328.038826,-6143.709319,1532.190996
1482.987337,7550.100608,-6735.874072,1072.533697
1482.987666,7846.182985,-4441.235652,1302.362347
1482.987995,7550.100608,-5995.668130,1072.533697
1482.988324,7920.203579,-6365.771101,995.924147
1482.988653,7550.100608,-5625.565159,1149.143247
1482.988982,7772.162391,-6513.812290,1532.190996
1482.989312,7402.059420,-7105.977043,1072.533697
1482.989641,6587.832884,-6587.832884,459.657299
1482.989970,5773.606348,-6217.729913,1225.752797
1482.990299,5699.585753,-6513.812290,689.485948
1482.990628,7031.956449,-6217.729913,1378.971896
1482.990957,7402.059420,-6587.832884,1455.581446
1482.991286,7402.059420,-7698.141797,1455.581446
1482.991615,6365.771101,-5329.482782,1072.533697
1482.991944,6365.771101,-6439.791695,995.924147
1482.992273,6957.935855,-7402.059420,1532.190996
1482.992603,7920.203579,-5403.503377,1532.190996
1482.992932,8364.327145,-5477.523971,1302.362347
1482.993261,8290.306550,-4959.379811,1532.190996
1482.993590,7105.977043,-5255.462188,153.219100
1482.993919,5995.668130,-5847.626942,229.828649
1482.994248,6439.791695,-7994.224174,2145.067394
1482.994577,8216.285956,-6513.812290,689.485948
1482.994906,6957.935855,-7179.997637,1072.533697
1482.995235,5699.585753,-8586.388927,842.705048
1482.995564,5625.565159,-7846.182985,689.485948
1482.995894,4959.379811,-6735.874072,-995.924147
1482.996223,5033.400406,-6957.935855,383.047749
1482.996552,7402.059420,-5995.668130,459.657299
1482.996881,8290.306550,-6587.832884,1302.362347
1482.997210,7772.162391,-7846.182985,1685.410096
1482.997539,7031.956449,-7179.997637,536.266849
1482.997868,6957.935855,-6365.771101,995.924147
1482.998197,7254.018232,-7105.977043,1685.410096
1482.998526,7624.121203,-6661.853478,1378.971896
1482.998855,8586.388927,-5625.565159,1915.238745
1482.999185,7846.182985,-6439.791695,1378.971896
1482.999514,7179.997637,-6587.832884,919.314598
1482.999843,6143.709319,-5551.544565,1072.533697
1483.000172,5181.441594,-6661.853478,0.000000
1483.000501,5477.523971,-7179.997637,689.485948
1483.000830,6143.709319,-8068.244768,995.924147
1483.001159,6069.688724,-8734.430116,842.705048
1483.001488,5477.523971,-7994.224174,612.876398
1483.001817,4959.379811,-7402.059420,0.000000
1483.002146,5181.441594,-8586.388927,536.266849
1483.002476,5329.482782,-10732.986159,612.876398
1483.002805,5995.668130,-8142.265362,842.705048
1483.003134,6661.853478,-9030.512492,459.657299
1483.003463,7105.977043,-6735.874072,766.095498
1483.003792,6957.935855,-6291.750507,536.266849
1483.004121,7328.038826,-7994.224174,1455.581446
1483.004450,8068.244768,-6143.709319,1915.238745
1483.004779,7624.121203,-5181.441594,1072.533697
1483.005108,6661.853478,-6587.832884,919.314598
1483.005438,5033.400406,-6957.935855,383.047749
1483.005767,4367.215058,-7846.182985,1685.410096
1483.006096,4737.318029,-7402.059420,842.705048
1483.006425,5551.544565,-7254.018232,1149.143247
1483.006754,6809.894666,-5921.647536,2145.067394
1483.007083,7105.977043,-7476.080014,1915.238745
1483.007412,6957.935855,-8290.306550,2145.067394
1483.007741,5329.482782,-6735.874072,1072.533697
1483.008070,4441.235652,-7328.038826,536.266849
1483.008399,4589.276840,-7476.080014,383.047749
1483.008729,5551.544565,-7698.141797,1991.848295
1483.009058,6587.832884,-8142.265362,612.876398
1483.009387,5921.647536,-8956.491898,995.924147
1483.009716,3552.988522,-9696.697840,0.000000
1483.010045,3108.864956,-10436.903782,153.219100
1483.010374,2812.782580,-11695.253884,-383.047749
1483.010703,2072.576638,-11177.109724,229.828649
1483.011032,2516.700203,-10584.944971,-229.828649
1483.011361,4071.132681,-11843.295072,1608.800546
1483.011690,5107.421000,-7846.182985,2681.334243
1483.012020,5847.626942,-7031.956449,2834.553343
1483.012349,6957.935855,-6217.729913,3140.991542
1483.012678,6217.729913,-4293.194464,2221.676944
1483.013007,6365.771101,-5329.482782,2681.334243
1483.013336,6439.791695,-6587.832884,2221.676944
1483.013665,4959.379811,-6809.894666,1072.533697
1483.013994,3478.967927,-9178.553681,536.266849
1483.014323,2294.638420,-11177.109724,0.000000
1483.014652,2516.700203,-12509.480420,76.609550
1483.014981,3404.947333,-12509.480420,689.485948
1483.015311,3923.091493,-12805.562797,153.219100
1483.015640,4737.318029,-11177.109724,306.438199
1483.015969,4663.297435,-10436.903782,612.876398
1483.016298,5107.421000,-9696.697840,1302.362347
1483.016627,3256.906145,-9474.636058,-229.828649
1483.016956,3256.906145,-7920.203579,1455.581446
1483.017285,6365.771101,-6587.832884,2068.457845
1483.017614,8956.491898,-5255.462188,2451.505594
1483.017943,8882.471304,-3330.926739,3983.696590
1483.018272,8364.327145,-4663.297435,3370.820191
1483.018602,8438.347739,-3701.029710,2068.457845
1483.018931,4811.338623,-7550.100608,1149.143247
1483.019260,2072.576638,-10066.800811,842.705048
1483.019589,1776.494261,-11251.130318,-536.266849
1483.019918,2072.576638,-12361.439231,0.000000
1483.020247,2442.679609,-12213.398043,383.047749
1483.020576,4959.379811,-11399.171507,1302.362347
1483.020905,6735.874072,-7550.100608,1685.410096
1483.021234,5847.626942,-7179.997637,995.924147
1483.021564,5107.421000,-8142.265362,1915.238745
1483.021893,5107.421000,-5551.544565,76.609550
1483.022222,4589.276840,-6735.874072,306.438199
1483.022551,5477.523971,-7105.977043,1762.019645
1483.022880,7550.100608,-6217.729913,1685.410096
1483.023209,9104.533087,-5625.565159,2145.067394
1483.023538,8364.327145,-6957.935855,2374.896044
1483.023867,6513.812290,-8438.347739,1762.019645
1483.024196,4589.276840,-9548.656652,-229.828649
1483.024525,2812.782580,-10881.027347,-689.485948
1483.024855,2294.638420,-11399.171507,-1149.143247
1483.025184,4145.153275,-12435.459826,383.047749
1483.025513,5921.647536,-11769.274478,2068.457845
1483.025842,6069.688724,-9030.512492,306.438199
1483.026171,5107.421000,-7031.956449,-459.657299
1483.026500,4737.318029,-8216.285956,919.314598
1483.026829,4441.235652,-9474.636058,1378.971896
1483.027158,2812.782580,-8364.327145,0.000000
1483.027487,2368.659014,-5995.668130,995.924147
1483.027816,6513.812290,-7105.977043,1532.190996
1483.028146,7994.224174,-7550.100608,4213.525239
1483.028475,6365.771101,-7846.182985,3600.648841
1483.028804,4885.359217,-6883.915261,919.314598
1483.029133,4367.215058,-7105.977043,-995.924147
1483.029462,2886.803174,-12361.439231,766.095498
1483.029791,2738.761985,-13989.892304,1378.971896
1483.030120,2590.720797,-12361.439231,0.000000
1483.030449,2442.679609,-10955.047942,-919.314598
1483.030778,2664.741391,-10658.965565,1455.581446
1483.031107,4367.215058,-9474.636058,1838.629195
1483.031437,5329.482782,-8364.327145,1455.581446
1483.031766,4367.215058,-5699.585753,76.609550
1483.032095,4811.338623,-5107.421000,-612.876398
1483.032424,5625.565159,-7402.059420,612.876398
1483.032753,5847.626942,-8586.388927,2451.505594
1483.033082,5847.626942,-8438.347739,766.095498
1483.033411,4885.359217,-8882.471304,0.000000
1483.033740,4367.215058,-10140.821405,1072.533697
1483.034069,5181.441594,-12953.603985,1762.019645
1483.034398,5921.647536,-12287.418637,2145.067394
1483.034728,5181.441594,-9400.615463,689.485948
1483.035057,5033.400406,-7105.977043,-612.876398
1483.035386,5551.544565,-6587.832884,1072.533697
1483.035715,6439.791695,-8956.491898,3064.381992
1483.036044,6365.771101,-8808.450710,2681.334243
1483.036373,4515.256246,-7328.038826,1915.238745
1483.036702,2960.823768,-6365.771101,766.095498
1483.037031,3182.885551,-6809.894666,-76.609550
1483.037360,4367.215058,-8216.285956,1378.971896
1483.037690,5107.421000,-8586.388927,1378.971896
1483.038019,5255.462188,-8290.306550,1455.581446
1483.038348,5181.441594,-7624.121203,2068.457845
1483.038677,5773.606348,-9326.594869,1762.019645
1483.039006,6957.935855,-8586.388927,1532.190996
1483.039335,6735.874072,-7402.059420,919.314598
1483.039664,6513.812290,-7920.203579,1532.190996
1483.039993,6587.832884,-7476.080014,1838.629195
1483.040322,7031.956449,-6957.935855,1532.190996
1483.040651,6513.812290,-6069.688724,459.657299
1483.040981,4737.318029,-7402.059420,459.657299
1483.041310,3775.050304,-9918.759623,689.485948
1483.041639,3182.885551,-10436.903782,459.657299
1483.041968,3849.070898,-9474.636058,612.876398
1483.042297,4663.297435,-7402.059420,459.657299
1483.042626,5477.523971,-7624.121203,842.705048
1483.042955,6069.688724,-9252.574275,1991.848295
1483.043284,6143.709319,-9252.574275,1685.410096
1483.043613,6513.812290,-8068.244768,1915.238745
1483.043942,6291.750507,-7105.977043,1378.971896
1483.044272,5255.462188,-8216.285956,1225.752797
1483.044601,4885.359217,-9770.718434,2068.457845
1483.044930,4737.318029,-10658.965565,1532.190996
1483.045259,3923.091493,-10140.821405,1072.533697
1483.045588,3182.885551,-9030.512492,536.266849
1483.045917,2442.679609,-8956.491898,0.000000
1483.046246,3182.885551,-11029.068536,0.000000
1483.046575,3330.926739,-10807.006753,1225.752797
1483.046904,3997.112087,-9474.636058,1149.143247
1483.047233,5181.441594,-7698.141797,1378.971896
1483.047563,6143.709319,-5921.647536,1455.581446
1483.047892,6957.935855,-6513.812290,1225.752797
1483.048221,6513.812290,-6439.791695,1608.800546
1483.048550,5477.523971,-7328.038826,612.876398
1483.048879,5477.523971,-8660.409521,383.047749
1483.049208,4293.194464,-9844.739029,612.876398
1483.049537,3552.988522,-11547.212695,1149.143247
1483.049866,2516.700203,-11917.315666,842.705048
1483.050195,1406.391290,-12361.439231,766.095498
1483.050524,1702.473667,-12657.521608,-76.609550
1483.050854,2294.638420,-11103.089130,0.000000
1483.051183,3552.988522,-9178.553681,689.485948
1483.051512,4959.379811,-7476.080014,995.924147
1483.051841,6365.771101,-6217.729913,2145.067394
1483.052170,6809.894666,-6217.729913,2145.067394
1483.052499,7254.018232,-6217.729913,2374.896044
1483.052828,7254.018232,-5699.585753,2451.505594
1483.053157,6661.853478,-5551.544565,1685.410096
1483.053486,5847.626942,-5995.668130,1149.143247
1483.053816,5847.626942,-6957.935855,612.876398
1483.054145,6809.894666,-7994.224174,612.876398
1483.054474,6661.853478,-8586.388927,1225.752797
1483.054803,6735.874072,-8512.368333,1685.410096
1483.055132,5329.482782,-10066.800811,459.657299
1483.055461,3552.988522,-11029.068536,536.266849
1483.055790,3182.885551,-11177.109724,689.485948
1483.056119,3330.926739,-10140.821405,229.828649
1483.056448,3775.050304,-10510.924376,-229.828649
1483.056777,3330.926739,-10510.924376,842.705048
1483.057107,3997.112087,-10362.883188,919.314598
1483.057436,4145.153275,-8956.491898,1225.752797
1483.057765,4293.194464,-7105.977043,1608.800546
1483.058094,4737.318029,-6069.688724,383.047749
1483.058423,6291.750507,-4071.132681,1532.190996
1483.058752,7476.080014,-3701.029710,1685.410096
1483.059081,8438.347739,-5181.441594,2528.115143
1483.059410,8660.409521,-7254.018232,3217.601092
1483.059739,7328.038826,-8660.409521,3064.381992
1483.060069,6143.709319,-8808.450710,1915.238745
1483.060398,4367.215058,-10510.924376,1762.019645
1483.060727,3775.050304,-10955.047942,919.314598
1483.061056,3034.844362,-10066.800811,689.485948
1483.061385,2664.741391,-9918.759623,153.219100
1483.061714,3182.885551,-9252.574275,0.000000
1483.062043,3627.009116,-7846.182985,-76.609550
1483.062372,3478.967927,-7624.121203,229.828649
1483.062701,4515.256246,-7772.162391,0.000000
1483.063030,5403.503377,-7328.038826,842.705048
1483.063360,5995.668130,-7698.141797,1225.752797
1483.063689,5847.626942,-8216.285956,1225.752797
1483.064018,5255.462188,-8660.409521,1838.629195
1483.064347,5551.544565,-10807.006753,2221.676944
1483.064676,5699.585753,-11103.089130,2298.286494
1483.065005,5551.544565,-10066.800811,2757.943793
1483.065334,5033.400406,-9696.697840,2451.505594
1483.065663,4959.379811,-9474.636058,2604.724693
1483.065992,4515.256246,-8364.327145,2298.286494
1483.066321,4219.173869,-7846.182985,2145.067394
1483.066651,4811.338623,-6809.894666,1838.629195
1483.066980,5329.482782,-6661.853478,2068.457845
1483.067309,5329.482782,-6587.832884,1532.190996
1483.067638,5107.421000,-7698.141797,1838.629195
1483.067967,5033.400406,-8660.409521,1532.190996
1483.068296,4145.153275,-9622.677246,1378.971896
1483.068625,3256.906145,-10140.821405,1302.362347
1483.068954,3775.050304,-11103.089130,1762.019645
1483.069283,4589.276840,-10658.965565,2451.505594
1483.069613,5551.544565,-9696.697840,3447.429741
1483.069942,7031.956449,-8438.347739,3983.696590
1483.070271,7179.997637,-7031.956449,4443.353888
1483.070600,7105.977043,-5847.626942,3983.696590
1483.070929,6809.894666,-4663.297435,2681.334243
1483.071258,7031.956449,-4441.235652,2757.943793
1483.071587,7105.977043,-4737.318029,2681.334243
1483.071916,6809.894666,-6069.688724,2528.115143
1483.072245,6217.729913,-6587.832884,2681.334243
1483.072574,5551.544565,-7624.121203,2451.505594
1483.072904,4441.235652,-8438.347739,2987.772442
1483.073233,5181.441594,-8956.491898,3064.381992
1483.073562,5551.544565,-8808.450710,3140.991542
1483.073891,6143.709319,-7624.121203,3907.087040
1483.074220,7031.956449,-6439.791695,4749.792088
1483.074549,7994.224174,-5329.482782,4826.401637
1483.074878,8290.306550,-4515.256246,4826.401637
1483.075207,8364.327145,-4071.132681,4519.963438
1483.075536,8512.368333,-4071.132681,4519.963438
1483.075866,9030.512492,-4071.132681,4749.792088
1483.076195,9400.615463,-4589.276840,4903.011187
1483.076524,8808.450710,-4367.215058,4596.572988
1483.076853,8660.409521,-4737.318029,3983.696590
1483.077182,7846.182985,-6069.688724,3447.429741
1483.077511,6217.729913,-8068.244768,3600.648841
1483.077840,4885.359217,-9622.677246,3447.429741
1483.078169,3997.112087,-10362.883188,3064.381992
1483.078498,3997.112087,-10362.883188,2757.943793
1483.078827,3775.050304,-10436.903782,3600.648841
1483.079157,3997.112087,-10140.821405,4903.011187
1483.079486,4737.318029,-9104.533087,4519.963438
1483.079815,5329.482782,-7105.977043,4519.963438
1483.080144,6735.874072,-6513.812290,4826.401637
1483.080473,8364.327145,-5033.400406,6205.373534
1483.080802,9474.636058,-4367.215058,6205.373534
1483.081131,9400.615463,-3330.926739,5669.106685
1483.081460,9326.594869,-2220.617826,5132.839837
1483.081789,9326.594869,-3404.947333,4979.620737
1483.082119,8734.430116,-4441.235652,5209.449386
1483.082448,7994.224174,-5625.565159,4903.011187
1483.082777,7476.080014,-7105.977043,4213.525239
1483.083106,6809.894666,-7846.182985,4290.134789
1483.083435,6069.688724,-9326.594869,4519.963438
1483.083764,5847.626942,-10214.842000,4443.353888
1483.084093,4293.194464,-9696.697840,3907.087040
1483.084422,2738.761985,-9474.636058,3217.601092
1483.084751,2368.659014,-9400.615463,2681.334243
1483.085080,3775.050304,-8142.265362,3753.867940
1483.085410,5699.585753,-7476.080014,4596.572988
1483.085739,7772.162391,-5773.606348,5056.230287
1483.086068,9252.574275,-4071.132681,5669.106685
1483.086397,9474.636058,-3034.844362,6128.763984
1483.086726,9474.636058,-1998.556043,6128.763984
1483.087055,9474.636058,-888.247130,4519.963438
1483.087384,8956.491898,-2442.679609,4136.915689
1483.087713,8216.285956,-4737.318029,4290.134789
1483.088042,7772.162391,-7105.977043,3753.867940
1483.088371,6513.812290,-9030.512492,3064.381992
1483.088701,4959.379811,-9918.759623,2451.505594
1483.089030,3923.091493,-10807.006753,2374.896044
1483.089359,4219.173869,-11177.109724,2834.553343
1483.089688,4589.276840,-9696.697840,3830.477490
1483.090017,6143.709319,-7031.956449,3447.429741
1483.090346,7476.080014,-5033.400406,3907.087040
1483.090675,9030.512492,-4441.235652,4749.792088
1483.091004,10066.800811,-4367.215058,4290.134789
1483.091333,9844.739029,-3478.967927,3753.867940
1483.091663,8512.368333,-4293.194464,2911.162892
1483.091992,7254.018232,-5403.503377,2528.115143
1483.092321,6957.935855,-6809.894666,2911.162892
1483.092650,6217.729913,-7698.141797,3294.210641
1483.092979,6439.791695,-8586.388927,3447.429741
1483.093308,6365.771101,-8438.347739,3677.258390
1483.093637,6365.771101,-8660.409521,3830.477490
1483.093966,6661.853478,-8956.491898,4060.306139
1483.094295,7476.080014,-7179.997637,4290.134789
1483.094624,7254.018232,-6365.771101,3677.258390
1483.094954,7179.997637,-4811.338623,4136.915689
1483.095283,7698.141797,-3256.906145,4366.744339
1483.095612,8808.450710,-2294.638420,3830.477490
1483.095941,8882.471304,-2886.803174,4366.744339
1483.096270,8512.368333,-3256.906145,3524.039291
1483.096599,8068.244768,-5255.462188,3524.039291
1483.096928,6735.874072,-7698.141797,3140.991542
1483.097257,5551.544565,-9030.512492,3064.381992
1483.097586,4959.379811,-10807.006753,2374.896044
1483.097916,4515.256246,-11029.068536,3370.820191
1483.098245,4589.276840,-9918.759623,3217.601092
1483.098574,5107.421000,-8512.368333,3140.991542
1483.098903,5847.626942,-5847.626942,3447.429741
1483.099232,6439.791695,-5847.626942,3677.258390
1483.099561,7328.038826,-5329.482782,4826.401637
1483.099890,8142.265362,-4071.132681,5132.839837
1483.100219,8956.491898,-3849.070898,5286.058936
1483.100548,9992.780217,-2368.659014,5515.887586
1483.100877,9844.739029,-2220.617826,5362.668486
1483.101207,9030.512492,-4441.235652,4443.353888
1483.101536,7550.100608,-6069.688724,4213.525239
1483.101865,5699.585753,-8142.265362,3064.381992
1483.102194,4885.359217,-10066.800811,3064.381992
1483.102523,4663.297435,-11843.295072,3524.039291
1483.102852,4737.318029,-11917.315666,4060.306139
1483.103181,4071.132681,-10140.821405,2911.162892
1483.103510,3404.947333,-7179.997637,2374.896044
1483.103839,4737.318029,-4737.318029,2528.115143
1483.104169,7105.977043,-4441.235652,4749.792088
1483.104498,9770.718434,-3404.947333,5745.716235
1483.104827,11103.089130,-2886.803174,6205.373534
1483.105156,10362.883188,-2368.659014,5975.544884
1483.105485,9474.636058,-2738.761985,5209.449386
1483.105814,8290.306550,-5329.482782,4596.572988
1483.106143,7328.038826,-6809.894666,4749.792088
1483.106472,7772.162391,-7476.080014,3370.820191
1483.106801,7254.018232,-8438.347739,3294.210641
1483.107130,5847.626942,-9104.533087,3830.477490
1483.107460,5551.544565,-9104.533087,3370.820191
1483.107789,5033.400406,-7920.203579,3677.258390
1483.108118,4071.132681,-7624.121203,4213.525239
1483.108447,6217.729913,-7254.018232,4979.620737
1483.108776,7550.100608,-5699.585753,5132.839837
1483.109105,6809.894666,-5329.482782,4903.011187
1483.109434,6513.812290,-4737.318029,3983.696590
1483.109763,7031.956449,-4441.235652,4519.963438
1483.110092,8216.285956,-4663.297435,4596.572988
1483.110422,7920.203579,-4145.153275,4290.134789
1483.110751,7772.162391,-4293.194464,4749.792088
1483.111080,7402.059420,-6587.832884,4136.915689
1483.111409,7105.977043,-8882.471304,4519.963438
1483.111738,7550.100608,-9030.512492,5132.839837
1483.112067,7179.997637,-8808.450710,4673.182538
1483.112396,6957.935855,-8586.388927,3064.381992
1483.112725,4145.153275,-7994.224174,2604.724693
1483.113054,3923.091493,-8660.409521,2528.115143
1483.113383,6365.771101,-5995.668130,3370.820191
1483.113713,7328.038826,-3923.091493,3600.648841
1483.114042,7772.162391,-3552.988522,5209.449386
1483.114371,8216.285956,-3997.112087,4136.915689
1483.114700,8808.450710,-5921.647536,4903.011187
1483.115029,8956.491898,-5625.565159,5362.668486
1483.115358,8512.368333,-6439.791695,5822.325785
1483.115687,7179.997637,-6587.832884,3830.477490
1483.116016,5773.606348,-9178.553681,3140.991542
1483.116345,5181.441594,-9992.780217,4596.572988
1483.116674,5921.647536,-7920.203579,3524.039291
1483.117004,6439.791695,-5551.544565,3064.381992
1483.117333,6587.832884,-5995.668130,3064.381992
1483.117662,7031.956449,-7402.059420,3753.867940
1483.117991,7105.977043,-5699.585753,4749.792088
1483.118320,6735.874072,-4885.359217,2987.772442
1483.118649,6439.791695,-5773.606348,2451.505594
1483.118978,7105.977043,-5551.544565,3294.210641
1483.119307,8512.368333,-4293.194464,3447.429741
1483.119636,8734.430116,-4663.297435,3064.381992
1483.119966,8142.265362,-6365.771101,4673.182538
1483.120295,7994.224174,-8216.285956,2911.162892
1483.120624,7550.100608,-8216.285956,3064.381992
1483.120953,6735.874072,-8364.327145,4519.963438
1483.121282,5921.647536,-9844.739029,4826.401637
1483.121611,5551.544565,-10584.944971,4213.525239
1483.121940,4737.318029,-7179.997637,4826.401637
1483.122269,6513.812290,-4293.194464,3983.696590
1483.122598,7994.224174,-3404.947333,4826.401637
1483.122927,7624.121203,-3552.988522,4749.792088
1483.123257,5847.626942,-3997.112087,3447.429741
1483.123586,6439.791695,-3701.029710,3677.258390
1483.123915,7920.203579,-2960.823768,3677.258390
1483.124244,9104.533087,-4737.318029,3600.648841
1483.124573,8512.368333,-6217.729913,4903.011187
1483.124902,8068.244768,-8956.491898,3677.258390
1483.125231,6957.935855,-7920.203579,2068.457845
1483.125560,5625.565159,-8438.347739,2374.896044
1483.125889,6661.853478,-11547.212695,3447.429741
1483.126219,5181.441594,-11843.295072,3907.087040
1483.126548,3034.844362,-9992.780217,2987.772442
1483.126877,3849.070898,-7698.141797,3140.991542
1483.127206,7624.121203,-4885.359217,4673.182538
1483.127535,9474.636058,-4959.379811,5898.935335
1483.127864,9104.533087,-5181.441594,6971.469032
1483.128193,8660.409521,-1628.453072,5515.887586
1483.128522,8216.285956,-296.082377,3370.820191
1483.128851,7772.162391,-1406.391290,3294.210641
1483.129180,8438.347739,-3330.926739,4366.744339
1483.129510,9844.739029,-6069.688724,4290.134789
1483.129839,8808.450710,-7476.080014,3370.820191
1483.130168,5921.647536,-9844.739029,2451.505594
1483.130497,4737.318029,-11843.295072,3217.601092
1483.130826,4145.153275,-12139.377449,2911.162892
1483.131155,3627.009116,-11399.171507,2298.286494
1483.131484,4219.173869,-8290.306550,2374.896044
1483.131813,5995.668130,-7402.059420,3907.087040
1483.132142,7846.182985,-5921.647536,4366.744339
1483.132472,8068.244768,-2886.803174,4366.744339
1483.132801,8290.306550,-2220.617826,3677.258390
1483.133130,9326.594869,-1702.473667,3600.648841
1483.133459,9918.759623,-2146.597232,3753.867940
1483.133788,10288.862594,-2664.741391,4060.306139
1483.134117,10066.800811,-3034.844362,2604.724693
1483.134446,8512.368333,-6735.874072,1532.190996
1483.134775,5995.668130,-8808.450710,1149.143247
1483.135104,4589.276840,-10955.047942,1455.581446
1483.135433,4145.153275,-13471.748144,995.924147
1483.135763,3552.988522,-12583.501014,1685.410096
1483.136092,3256.906145,-11695.253884,1532.190996
1483.136421,4219.173869,-8808.450710,1991.848295
1483.136750,4737.318029,-7402.059420,1532.190996
1483.137079,5181.441594,-5477.523971,2374.896044
1483.137408,7328.038826,-2960.823768,3140.991542
1483.137737,9400.615463,-3256.906145,3600.648841
1483.138066,9622.677246,-1406.391290,3753.867940
1483.138395,8808.450710,-370.102971,2987.772442
1483.138724,10066.800811,-1258.350101,1608.800546
1483.139054,10362.883188,-3849.070898,1608.800546
1483.139383,9400.615463,-6661.853478,3370.820191
1483.139712,8734.430116,-8290.306550,2451.505594
1483.140041,6809.894666,-10732.986159,995.924147
1483.140370,3552.988522,-12139.377449,612.876398
1483.140699,2738.761985,-11769.274478,0.000000
1483.141028,2960.823768,-11843.295072,-995.924147
1483.141357,2812.782580,-9252.574275,689.485948
1483.141686,4589.276840,-6513.812290,-459.657299
1483.142016,7105.977043,-5181.441594,919.314598
1483.142345,9326.594869,-4293.194464,2221.676944
1483.142674,10066.800811,-2738.761985,3217.601092
1483.143003,9252.574275,-2294.638420,842.705048
1483.143332,8290.306550,-3701.029710,1378.971896
1483.143661,8808.450710,-3108.864956,1532.190996
1483.143990,9844.739029,-4885.359217,1225.752797
1483.144319,9548.656652,-6661.853478,1149.143247
1483.144648,7254.018232,-7179.997637,1532.190996
1483.144977,6587.832884,-11473.192101,612.876398
1483.145307,4959.379811,-9918.759623,153.219100
1483.145636,3849.070898,-9844.739029,459.657299
1483.145965,5403.503377,-9844.739029,0.000000
1483.146294,5699.585753,-7476.080014,306.438199
1483.146623,5033.400406,-6439.791695,536.266849
1483.146952,5995.668130,-4219.173869,612.876398
1483.147281,7920.203579,-4071.132681,842.705048
1483.147610,7698.141797,-3552.988522,2068.457845
1483.147939,7254.018232,-4811.338623,2298.286494
1483.148269,8364.327145,-7328.038826,2451.505594
1483.148598,7994.224174,-4589.276840,2604.724693
1483.148927,6809.894666,-6439.791695,459.657299
1483.149256,7105.977043,-7179.997637,1608.800546
1483.149585,7402.059420,-6661.853478,995.924147
1483.149914,7105.977043,-8956.491898,689.485948
1483.150243,6069.688724,-7328.038826,689.485948
1483.150572,6587.832884,-9252.574275,689.485948
1483.150901,6143.709319,-6735.874072,-766.095498
1483.151230,5181.441594,-7105.977043,0.000000
1483.151560,7031.956449,-6439.791695,1149.143247
1483.151889,8512.368333,-5255.462188,689.485948
1483.152218,8142.265362,-6809.894666,1225.752797
1483.152547,7846.182985,-4663.297435,1915.238745
1483.152876,7772.162391,-4737.318029,536.266849
1483.153205,7328.038826,-5921.647536,995.924147
1483.153534,6143.709319,-5625.565159,1302.362347
1483.153863,6809.894666,-5551.544565,689.485948
1483.154193,7772.162391,-7179.997637,1225.752797
1483.154522,7624.121203,-8068.244768,2145.067394
1483.154851,6809.894666,-7994.224174,306.438199
1483.155180,4959.379811,-9252.574275,0.000000
1483.155509,5033.400406,-8364.327145,1149.143247
1483.155839,6513.812290,-7254.018232,153.219100
1483.156168,6513.812290,-6883.915261,842.705048
1483.156497,6735.874072,-5995.668130,1762.019645
1483.156826,7328.038826,-5107.421000,842.705048
1483.157155,6735.874072,-5625.565159,306.438199
1483.157485,6513.812290,-4367.215058,1302.362347
1483.157814,8438.347739,-3923.091493,1225.752797
1483.158143,8586.388927,-6143.709319,1838.629195
1483.158472,7994.224174,-6291.750507,2528.115143
1483.158801,7550.100608,-6217.729913,766.095498
1483.159131,6661.853478,-7994.224174,612.876398
1483.159460,6291.750507,-7846.182985,1762.019645
1483.159789,6069.688724,-7772.162391,-76.609550
1483.160118,5995.668130,-9622.677246,229.828649
1483.160448,6069.688724,-8586.388927,2068.457845
1483.160777,7105.977043,-6661.853478,383.047749
1483.161106,7105.977043,-6513.812290,1072.533697
1483.161435,6883.915261,-4811.338623,2451.505594
1483.161764,7846.182985,-4219.173869,1149.143247
1483.162094,7772.162391,-4367.215058,383.047749
1483.162423,6587.832884,-3256.906145,536.266849
1483.162752,7624.121203,-4441.235652,-842.705048
1483.163081,8142.265362,-6957.935855,842.705048
1483.163410,7254.018232,-8364.327145,1762.019645
1483.163740,6661.853478,-9030.512492,1378.971896
1483.164069,7105.977043,-9030.512492,1072.533697
1483.164398,7105.977043,-9252.574275,2068.457845
1483.164727,6735.874072,-8882.471304,1838.629195
1483.165057,6291.750507,-8734.430116,2068.457845
1483.165386,5403.503377,-6365.771101,919.314598
1483.165715,5921.647536,-3701.029710,76.609550
1483.166044,7550.100608,-4145.153275,1378.971896
1483.166373,7920.203579,-3256.906145,1302.362347
1483.166703,7550.100608,-4441.235652,1915.238745
1483.167032,6439.791695,-2738.761985,1149.143247
1483.167361,6217.729913,-4515.256246,919.314598
1483.167690,7105.977043,-6587.832884,2068.457845
1483.168019,7031.956449,-7328.038826,1915.238745
1483.168349,6883.915261,-9178.553681,1378.971896
1483.168678,6809.894666,-7994.224174,1225.752797
1483.169007,5995.668130,-8808.450710,76.609550
1483.169336,6513.812290,-9474.636058,1302.362347
1483.169666,7105.977043,-7846.182985,1685.410096
1483.169995,7179.997637,-7031.956449,229.828649
1483.170324,6587.832884,-6217.729913,995.924147
1483.170653,6513.812290,-4737.318029,1225.752797
1483.170982,7179.997637,-4811.338623,536.266849
1483.171312,7846.182985,-4515.256246,1991.848295
1483.171641,7624.121203,-3923.091493,919.314598
1483.171970,8660.409521,-5107.421000,536.266849
1483.172299,8660.409521,-5847.626942,1915.238745
1483.172628,8068.244768,-7402.059420,2068.457845
1483.172958,7550.100608,-7624.121203,306.438199
1483.173287,5995.668130,-7254.018232,689.485948
1483.173616,6217.729913,-7105.977043,153.219100
1483.173945,7550.100608,-8142.265362,536.266849
1483.174275,8216.285956,-9400.615463,1762.019645
1483.174604,7698.141797,-7624.121203,766.095498
1483.174933,6587.832884,-7179.997637,383.047749
1483.175262,5181.441594,-6809.894666,459.657299
1483.175591,4811.338623,-5921.647536,383.047749
1483.175921,6735.874072,-7105.977043,2145.067394
1483.176250,7994.224174,-5625.565159,2298.286494
1483.176579,7328.038826,-5699.585753,1915.238745
1483.176908,6365.771101,-6069.688724,842.705048
1483.177237,5551.544565,-5847.626942,459.657299
1483.177567,5551.544565,-5255.462188,-76.609550
1483.177896,6513.812290,-5625.565159,-383.047749
1483.178225,7624.121203,-7254.018232,995.924147
1483.178554,8734.430116,-8290.306550,2221.676944
1483.178883,7254.018232,-7105.977043,1455.581446
1483.179213,5995.668130,-6513.812290,459.657299
1483.179542,5699.585753,-6735.874072,459.657299
1483.179871,6365.771101,-6587.832884,919.314598
1483.180200,7031.956449,-7624.121203,1915.238745
1483.180530,7550.100608,-4885.359217,2604.724693
1483.180859,7624.121203,-4737.318029,1532.190996
1483.181188,6661.853478,-5033.400406,1302.362347
1483.181517,5773.606348,-5255.462188,919.314598
1483.181846,6439.791695,-5255.462188,842.705048
1483.182176,7920.203579,-5995.668130,766.095498
1483.182505,7698.141797,-6069.688724,1838.629195
1483.182834,8068.244768,-6365.771101,1302.362347
1483.183163,7624.121203,-6883.915261,842.705048
1483.183492,6439.791695,-7031.956449,689.485948
1483.183822,6217.729913,-7772.162391,536.266849
1483.184151,6735.874072,-7624.121203,842.705048
1483.184480,6809.894666,-6661.853478,1455.581446
1483.184809,6883.915261,-7105.977043,919.314598
1483.185139,6809.894666,-6439.791695,1072.533697
1483.185468,7105.977043,-6587.832884,1532.190996
1483.185797,7772.162391,-7846.182985,1302.362347
1483.186126,8512.368333,-7254.018232,1685.410096
1483.186455,7179.997637,-5107.421000,766.095498
1483.186785,5181.441594,-4515.256246,-1762.019645
1483.187114,5255.462188,-5773.606348,-1455.581446
1483.187443,6809.894666,-6217.729913,995.924147
1483.187772,8512.368333,-6439.791695,919.314598
1483.188101,8956.491898,-6143.709319,3140.991542
1483.188431,8586.388927,-7179.997637,2451.505594
1483.188760,7624.121203,-7772.162391,1608.800546
1483.189089,5773.606348,-6809.894666,459.657299
1483.189418,5477.523971,-5921.647536,383.047749
1483.189748,6735.874072,-4885.359217,0.000000
1483.190077,7624.121203,-5847.626942,0.000000
1483.190406,7254.018232,-7476.080014,766.095498
1483.190735,6883.915261,-7031.956449,0.000000
1483.191064,6513.812290,-7328.038826,-459.657299
1483.191394,6069.688724,-8586.388927,689.485948
1483.191723,6587.832884,-6957.935855,1378.971896
1483.192052,7179.997637,-6587.832884,153.219100
1483.192381,7254.018232,-6513.812290,1455.581446
1483.192710,7402.059420,-4959.379811,1532.190996
1483.193040,6439.791695,-5033.400406,-536.266849
1483.193369,5699.585753,-4811.338623,76.609550
1483.193698,6587.832884,-5255.462188,1302.362347
1483.194027,8512.368333,-7105.977043,1532.190996
1483.194357,8290.306550,-6883.915261,1762.019645
1483.194686,7179.997637,-7105.977043,919.314598
1483.195015,7179.997637,-7179.997637,153.219100
1483.195344,6587.832884,-7031.956449,919.314598
1483.195673,6587.832884,-6735.874072,0.000000
1483.196003,7105.977043,-6809.894666,0.000000
1483.196332,7254.018232,-7179.997637,1302.362347
1483.196661,6661.853478,-6735.874072,1455.581446
1483.196990,5477.523971,-7254.018232,995.924147
1483.197319,5403.503377,-5995.668130,1225.752797
1483.197649,5847.626942,-5995.668130,919.314598
1483.197978,6957.935855,-7698.141797,1608.800546
1483.198307,7328.038826,-7254.018232,2834.553343
1483.198636,7031.956449,-7105.977043,1685.410096
1483.198965,5847.626942,-5699.585753,-383.047749
1483.199295,5329.482782,-6291.750507,459.657299
1483.199624,6513.812290,-6291.750507,919.314598
1483.199953,7550.100608,-6439.791695,1685.410096
1483.200282,8216.285956,-7105.977043,2911.162892
1483.200612,8438.347739,-6661.853478,2451.505594
1483.200941,7105.977043,-6587.832884,1225.752797
1483.201270,6143.709319,-7772.162391,1685.410096
1483.201599,6365.771101,-6143.709319,1608.800546
1483.201928,6661.853478,-5551.544565,-306.438199
1483.202258,5551.544565,-7402.059420,306.438199
1483.202587,5551.544565,-6291.750507,459.657299
1483.202916,6957.935855,-5329.482782,0.000000
1483.203245,7698.141797,-6439.791695,1378.971896
1483.203574,7846.182985,-5921.647536,2604.724693
1483.203904,9474.636058,-6809.894666,2834.553343
1483.204233,9770.718434,-7846.182985,3983.696590
1483.204562,8364.327145,-4737.318029,2298.286494
1483.204891,7328.038826,-5995.668130,766.095498
1483.205221,6735.874072,-5995.668130,995.924147
1483.205550,6291.750507,-5107.421000,459.657299
1483.205879,6661.853478,-6883.915261,0.000000
1483.206208,6957.935855,-5477.523971,-306.438199
1483.206537,6217.729913,-7550.100608,229.828649
1483.206867,6513.812290,-9178.553681,536.266849
1483.207196,6143.709319,-8512.368333,1608.800546
1483.207525,6957.935855,-8660.409521,1991.848295
1483.207854,7698.141797,-7402.059420,1455.581446
1483.208183,6661.853478,-6735.874072,1532.190996
1483.208513,7624.121203,-5773.606348,1991.848295
1483.208842,7698.141797,-4737.318029,1608.800546
1483.209171,6809.894666,-4219.173869,1762.019645
1483.209500,6735.874072,-3775.050304,995.924147
1483.209830,7179.997637,-5625.565159,2374.896044
1483.210159,8512.368333,-6291.750507,2221.676944
1483.210488,6957.935855,-5847.626942,612.876398
1483.210817,5107.421000,-6661.853478,536.266849
1483.211146,5403.503377,-7920.203579,-306.438199
1483.211476,5551.544565,-8068.244768,-766.095498
1483.211805,5033.400406,-8216.285956,229.828649
1483.212134,6439.791695,-8290.306550,229.828649
1483.212463,7402.059420,-7846.182985,459.657299
1483.212792,7031.956449,-7402.059420,2374.896044
1483.213122,7402.059420,-8660.409521,3140.991542
1483.213451,8586.388927,-6439.791695,2451.505594
1483.213780,7328.038826,-3478.967927,995.924147
1483.214109,7031.956449,-5107.421000,766.095498
1483.214439,7550.100608,-5625.565159,919.314598
1483.214768,7254.018232,-5403.503377,76.609550
1483.215097,5773.606348,-6217.729913,0.000000
1483.215426,4885.359217,-5995.668130,383.047749
1483.215755,5329.482782,-7624.121203,0.000000
1483.216085,6069.688724,-9252.574275,1149.143247
1483.216414,7179.997637,-9178.553681,2374.896044
1483.216743,8660.409521,-7031.956449,1225.752797
1483.217072,7476.080014,-7105.977043,1225.752797
1483.217401,6957.935855,-6217.729913,1991.848295
1483.217731,7550.100608,-5551.544565,1302.362347
1483.218060,7772.162391,-5699.585753,1225.752797
1483.218389,7105.977043,-5699.585753,1762.019645
1483.218718,5995.668130,-7105.977043,612.876398
1483.219047,6735.874072,-5551.544565,766.095498
1483.219377,6365.771101,-6661.853478,1149.143247
1483.219706,7402.059420,-6883.915261,2068.457845
1483.220035,8290.306550,-7179.997637,1685.410096
1483.220364,7698.141797,-7328.038826,1762.019645
1483.220694,6439.791695,-6217.729913,766.095498
1483.221023,6069.688724,-6217.729913,229.828649
1483.221352,5995.668130,-5477.523971,-306.438199
1483.221681,7031.956449,-6661.853478,76.609550
1483.222010,8142.265362,-6143.709319,1149.143247
1483.222340,8660.409521,-6291.750507,536.266849
1483.222669,7846.182985,-7476.080014,689.485948
1483.222998,6365.771101,-6587.832884,0.000000
1483.223327,6143.709319,-8438.347739,229.828649
1483.223656,6439.791695,-7254.018232,689.485948
1483.223986,6735.874072,-6143.709319,1149.143247
1483.224315,8660.409521,-5921.647536,1915.238745
1483.224644,9400.615463,-4589.276840,2451.505594
1483.224973,8142.265362,-5921.647536,2604.724693
1483.225303,7476.080014,-5403.503377,2451.505594
1483.225632,6661.853478,-4441.235652,306.438199
1483.225961,6513.812290,-5329.482782,536.266849
1483.226290,6661.853478,-6957.935855,0.000000
1483.226619,6587.832884,-8364.327145,766.095498
1483.226949,6513.812290,-6809.894666,0.000000
1483.227278,4811.338623,-8290.306550,-383.047749
1483.227607,4589.276840,-7994.224174,689.485948
1483.227936,5995.668130,-9400.615463,1302.362347
1483.228265,7328.038826,-8512.368333,1072.533697
1483.228595,7328.038826,-5625.565159,1608.800546
1483.228924,7402.059420,-6661.853478,2528.115143
1483.229253,8290.306550,-5181.441594,1991.848295
1483.229582,7328.038826,-3923.091493,1532.190996
1483.229912,7402.059420,-4219.173869,612.876398
1483.230241,8512.368333,-4441.235652,1149.143247
1483.230570,8660.409521,-6217.729913,1378.971896
1483.230899,7031.956449,-6587.832884,459.657299
1483.231228,5995.668130,-5625.565159,0.000000
1483.231558,5625.565159,-7254.018232,-383.047749
1483.231887,5255.462188,-8068.244768,-306.438199
1483.232216,6143.709319,-9474.636058,1838.629195
1483.232545,7772.162391,-9030.512492,1762.019645
1483.232874,7328.038826,-7624.121203,1072.533697
1483.233204,6143.709319,-5403.503377,1532.190996
1483.233533,7476.080014,-5255.462188,919.314598
1483.233862,8882.471304,-4515.256246,1225.752797
1483.234191,8882.471304,-4737.318029,2221.676944
1483.234521,8512.368333,-5107.421000,1302.362347
1483.234850,7402.059420,-4219.173869,612.876398
1483.235179,6957.935855,-7105.977043,842.705048
1483.235508,5477.523971,-7846.182985,383.047749
1483.235837,5847.626942,-8734.430116,536.266849
1483.236167,6809.894666,-8882.471304,1149.143247
1483.236496,6661.853478,-7105.977043,1149.143247
1483.236825,5699.585753,-8290.306550,1225.752797
1483.237154,6069.688724,-7031.956449,0.000000
1483.237483,6291.750507,-5181.441594,76.609550
1483.237813,7624.121203,-5921.647536,459.657299
1483.238142,8142.265362,-5255.462188,1608.800546
1483.238471,8956.491898,-4737.318029,1838.629195
1483.238800,8364.327145,-4959.379811,842.705048
1483.239129,6513.812290,-5551.544565,842.705048
1483.239459,6217.729913,-6513.812290,536.266849
1483.239788,6217.729913,-7476.080014,919.314598
1483.240117,6513.812290,-7550.100608,612.876398
1483.240446,6587.832884,-7476.080014,1455.581446
1483.240776,6883.915261,-7846.182985,1149.143247
1483.241105,6809.894666,-8068.244768,2068.457845
1483.241434,7179.997637,-7105.977043,1378.971896
1483.241763,7105.977043,-4885.359217,-383.047749
1483.242092,7179.997637,-6069.688724,0.000000
1483.242422,7624.121203,-6587.832884,1225.752797
1483.242751,7105.977043,-5995.668130,612.876398
1483.243080,5551.544565,-6217.729913,-459.657299
1483.243409,5181.441594,-6957.935855,842.705048
1483.243738,6439.791695,-7698.141797,1072.533697
1483.244068,7920.203579,-7772.162391,1072.533697
1483.244397,7105.977043,-7105.977043,1685.410096
1483.244726,7105.977043,-6883.915261,1072.533697
1483.245055,7105.977043,-7402.059420,1991.848295
1483.245385,6365.771101,-4367.215058,459.657299
1483.245714,7031.956449,-4589.276840,0.000000
1483.246043,8438.347739,-5699.585753,1991.848295
1483.246372,9474.636058,-4737.318029,1762.019645
1483.246701,7920.203579,-6883.915261,1608.800546
1483.247031,6143.709319,-6365.771101,1149.143247
1483.247360,5181.441594,-7476.080014,-306.438199
1483.247689,5699.585753,-8216.285956,153.219100
1483.248018,5921.647536,-8364.327145,2298.286494
1483.248347,7031.956449,-7920.203579,1915.238745
1483.248677,7402.059420,-5625.565159,1762.019645
1483.249006,5403.503377,-6217.729913,1072.533697
1483.249335,6143.709319,-5403.503377,1072.533697
1483.249664,7624.121203,-5033.400406,1532.190996
1483.249994,8808.450710,-5773.606348,1685.410096
1483.250323,8734.430116,-5699.585753,2221.676944
1483.250652,7920.203579,-5107.421000,1378.971896
1483.250981,6587.832884,-6143.709319,-383.047749
1483.251310,5773.606348,-7031.956449,689.485948
1483.251640,6217.729913,-7698.141797,1685.410096
1483.251969,6809.894666,-8660.409521,306.438199
1483.252298,5995.668130,-8808.450710,919.314598
1483.252627,5847.626942,-7920.203579,1072.533697
1483.252956,7105.977043,-8216.285956,995.924147
1483.253286,7994.224174,-7105.977043,1378.971896
1483.253615,7402.059420,-5477.523971,1608.800546
1483.253944,8290.306550,-4737.318029,1685.410096
1483.254273,9030.512492,-4293.194464,1608.800546
1483.254603,8068.244768,-4515.256246,1685.410096
1483.254932,6735.874072,-5181.441594,842.705048
1483.255261,6439.791695,-6439.791695,459.657299
1483.255590,5995.668130,-7328.038826,612.876398
1483.255920,6069.688724,-7105.977043,1302.362347
1483.256249,7031.956449,-8438.347739,1685.410096
1483.256578,7254.018232,-9400.615463,1915.238745
1483.256907,6291.750507,-8956.491898,1532.190996
1483.257237,4811.338623,-6069.688724,-995.924147
1483.257566,4663.297435,-5551.544565,-689.485948
1483.257895,6661.853478,-6513.812290,1149.143247
1483.258224,8660.409521,-5551.544565,1302.362347
1483.258554,8512.368333,-5403.503377,1072.533697
1483.258883,7402.059420,-5033.400406,1378.971896
1483.259212,7179.997637,-5403.503377,612.876398
1483.259541,6513.812290,-5699.585753,1072.533697
1483.259871,5477.523971,-5921.647536,1378.971896
1483.260200,7105.977043,-7846.182985,1991.848295
1483.260529,7846.182985,-6365.771101,2834.553343
1483.260858,6883.915261,-6957.935855,1608.800546
1483.261188,5995.668130,-6735.874072,1455.581446
1483.261517,6957.935855,-6143.709319,536.266849
1483.261846,7179.997637,-5699.585753,459.657299
1483.262175,7328.038826,-6365.771101,919.314598
1483.262504,7624.121203,-6217.729913,1378.971896
1483.262834,7846.182985,-5329.482782,689.485948
1483.263163,6957.935855,-6809.894666,689.485948
1483.263492,6217.729913,-5995.668130,1915.238745
1483.263821,6735.874072,-5921.647536,1302.362347
1483.264151,7105.977043,-7624.121203,1532.190996
1483.264480,6661.853478,-6217.729913,1762.019645
1483.264809,6883.915261,-7254.018232,842.705048
1483.265138,6957.935855,-7920.203579,1149.143247
1483.265468,6809.894666,-6513.812290,995.924147
1483.265797,7624.121203,-6587.832884,383.047749
1483.266126,8586.388927,-6217.729913,1455.581446
1483.266455,8734.430116,-6439.791695,689.485948
1483.266785,7550.100608,-6883.915261,-153.219100
1483.267114,6291.750507,-5625.565159,0.000000
1483.267443,5625.565159,-8142.265362,-459.657299
1483.267772,6587.832884,-7105.977043,1072.533697
1483.268102,6587.832884,-7254.018232,1838.629195
1483.268431,6809.894666,-7105.977043,1225.752797
1483.268760,6217.729913,-6291.750507,1225.752797
1483.269089,6069.688724,-6513.812290,1532.190996
1483.269419,7105.977043,-5255.462188,689.485948
1483.269748,7254.018232,-5033.400406,1302.362347
1483.270077,7328.038826,-6217.729913,1532.190996
1483.270406,7920.203579,-6291.750507,689.485948
1483.270736,7846.182985,-6069.688724,1225.752797
1483.271065,6957.935855,-6365.771101,459.657299
1483.271394,6217.729913,-6883.915261,459.657299
1483.271723,5847.626942,-7105.977043,153.219100
1483.272053,6439.791695,-8364.327145,229.828649
1483.272382,6735.874072,-8216.285956,612.876398
1483.272711,6439.791695,-7550.100608,1532.190996
1483.273040,5625.565159,-7772.162391,1072.533697
1483.273369,5477.523971,-5551.544565,0.000000
1483.273699,5921.647536,-5181.441594,536.266849
1483.274028,7920.203579,-6883.915261,1915.238745
1483.274357,9992.780217,-5477.523971,3294.210641
1483.274686,8808.450710,-5107.421000,1455.581446
1483.275016,6661.853478,-4367.215058,0.000000
1483.275345,6439.791695,-5107.421000,76.609550
1483.275674,7846.182985,-5329.482782,1072.533697
1483.276003,7328.038826,-6439.791695,536.266849
1483.276333,7105.977043,-8734.430116,2528.115143
1483.276662,7846.182985,-8512.368333,2681.334243
1483.276991,7031.956449,-8438.347739,1532.190996
1483.277320,4737.318029,-6439.791695,1072.533697
1483.277650,4959.379811,-6291.750507,-536.266849
1483.277979,7179.997637,-7772.162391,536.266849
1483.278308,7624.121203,-6439.791695,1378.971896
1483.278637,7328.038826,-6365.771101,1149.143247
1483.278967,7476.080014,-6587.832884,2298.286494
1483.279296,7105.977043,-5847.626942,1072.533697
1483.279625,5403.503377,-6661.853478,995.924147
1483.279954,6587.832884,-6661.853478,2834.553343
1483.280284,9252.574275,-6291.750507,2681.334243
1483.280613,8808.450710,-5551.544565,2374.896044
1483.280942,6957.935855,-6587.832884,2451.505594
1483.281271,6661.853478,-6513.812290,76.609550
1483.281601,6735.874072,-7254.018232,76.609550
1483.281930,5773.606348,-7624.121203,76.609550
1483.282259,6217.729913,-7698.141797,-306.438199
1483.282588,7105.977043,-6365.771101,153.219100
1483.282917,7105.977043,-6957.935855,919.314598
1483.283247,7402.059420,-7105.977043,1608.800546
1483.283576,8364.327145,-6217.729913,1532.190996
1483.283905,8142.265362,-6439.791695,1915.238745
1483.284234,7846.182985,-6735.874072,2451.505594
1483.284564,7846.182985,-4589.276840,2374.896044
1483.284893,7105.977043,-4885.359217,2298.286494
1483.285222,6143.709319,-6069.688724,2068.457845
1483.285551,5033.400406,-5255.462188,1225.752797
1483.285881,5033.400406,-5773.606348,0.000000
1483.286210,6069.688724,-5995.668130,536.266849
1483.286539,6439.791695,-7254.018232,689.485948
1483.286868,6883.915261,-8290.306550,842.705048
1483.287198,6069.688724,-7846.182985,229.828649
1483.287527,6365.771101,-7105.977043,536.266849
1483.287856,7698.141797,-6291.750507,1991.848295
1483.288185,7846.182985,-6735.874072,1455.581446
1483.288515,6513.812290,-6069.688724,1072.533697
1483.288844,5847.626942,-6291.750507,459.657299
1483.289173,6439.791695,-6365.771101,383.047749
1483.289502,6809.894666,-5995.668130,1532.190996
1483.289832,7476.080014,-7105.977043,1991.848295
1483.290161,8438.347739,-6957.935855,1608.800546
1483.290490,7994.224174,-6439.791695,1072.533697
1483.290819,5773.606348,-6809.894666,459.657299
1483.291149,6069.688724,-7105.977043,153.219100
1483.291478,6809.894666,-7402.059420,766.095498
1483.291807,6957.935855,-5551.544565,306.438199
1483.292136,6957.935855,-6883.915261,536.266849
1483.292466,8142.265362,-7402.059420,2604.724693
1483.292795,7994.224174,-6883.915261,1455.581446
1483.293124,7328.038826,-6883.915261,995.924147
1483.293453,6217.729913,-5921.647536,1762.019645
1483.293782,7179.997637,-6809.894666,1455.581446
1483.294112,7624.121203,-7476.080014,1072.533697
1483.294441,6291.750507,-6439.791695,766.095498
1483.294770,5921.647536,-6439.791695,-306.438199
1483.295099,5921.647536,-6217.729913,-229.828649
1483.295429,5699.585753,-7031.956449,1991.848295
1483.295758,6735.874072,-7105.977043,1532.190996
1483.296087,8586.388927,-7179.997637,2681.334243
1483.296416,8438.347739,-7105.977043,2987.772442
1483.296746,7402.059420,-6661.853478,2451.505594
1483.297075,6439.791695,-6365.771101,2298.286494
1483.297404,6217.729913,-4293.194464,919.314598
1483.297733,5773.606348,-4219.173869,-306.438199
1483.298063,6587.832884,-5625.565159,1302.362347
1483.298392,7476.080014,-6735.874072,1225.752797
1483.298721,7179.997637,-6883.915261,842.705048
1483.299050,5773.606348,-6957.935855,1072.533697
1483.299380,5625.565159,-6513.812290,995.924147
1483.299709,6587.832884,-6735.874072,919.314598
1483.300038,7179.997637,-8364.327145,2374.896044
1483.300367,8660.409521,-7105.977043,2528.115143
1483.300697,8512.368333,-5107.421000,995.924147
1483.301026,7105.977043,-6735.874072,2068.457845
1483.301355,6217.729913,-5181.441594,1072.533697
1483.301684,6587.832884,-6069.688724,76.609550
1483.302014,6365.771101,-5699.585753,919.314598
1483.302343,6365.771101,-6143.709319,76.609550
1483.302672,7254.018232,-7105.977043,383.047749
1483.303001,7105.977043,-7624.121203,919.314598
1483.303331,6365.771101,-7550.100608,153.219100
1483.303660,6291.750507,-6069.688724,-383.047749
1483.303989,7031.956449,-8068.244768,1149.143247
1483.304318,8438.347739,-7920.203579,1302.362347
1483.304647,8956.491898,-6217.729913,2451.505594
1483.304977,7105.977043,-6587.832884,1838.629195
1483.305306,7328.038826,-4737.318029,1149.143247
1483.305635,7105.977043,-5477.523971,1225.752797
1483.305964,7624.121203,-6439.791695,1991.848295
1483.306294,7698.141797,-6513.812290,1532.190996
1483.306623,7772.162391,-6809.894666,1532.190996
1483.306952,6513.812290,-7772.162391,1072.533697
1483.307281,4885.359217,-7476.080014,-306.438199
1483.307611,4737.318029,-6439.791695,-612.876398
1483.307940,5107.421000,-7698.141797,0.000000
1483.308269,7624.121203,-7550.100608,2068.457845
1483.308598,8068.244768,-6587.832884,2068.457845
1483.308928,6883.915261,-8808.450710,2834.553343
1483.309257,6957.935855,-6587.832884,2451.505594
1483.309586,7476.080014,-5181.441594,1991.848295
1483.309915,7179.997637,-4737.318029,842.705048
1483.310245,7105.977043,-4737.318029,1225.752797
1483.310574,7920.203579,-4737.318029,919.314598
1483.310903,7105.977043,-5403.503377,0.000000
1483.311232,5403.503377,-5477.523971,-76.609550
1483.311562,5181.441594,-7179.997637,306.438199
1483.311891,6587.832884,-8586.388927,995.924147
1483.312220,7994.224174,-7772.162391,2221.676944
1483.312549,7994.224174,-8586.388927,2604.724693
1483.312879,8364.327145,-7179.997637,2221.676944
1483.313208,7624.121203,-5625.565159,1149.143247
1483.313537,6587.832884,-4811.338623,919.314598
1483.313866,6291.750507,-3849.070898,-229.828649
1483.314195,7994.224174,-4959.379811,766.095498
1483.314525,7772.162391,-4885.359217,1455.581446
1483.314854,6809.894666,-6217.729913,1072.533697
1483.315183,6365.771101,-6661.853478,1455.581446
1483.315512,5477.523971,-7550.100608,459.657299
1483.315842,6069.688724,-9326.594869,1149.143247
1483.316171,8216.285956,-9178.553681,2681.334243
1483.316500,8734.430116,-7254.018232,2145.067394
1483.316829,7179.997637,-5921.647536,-229.828649
1483.317159,5107.421000,-4959.379811,-612.876398
1483.317488,5699.585753,-5329.482782,-689.485948
1483.317817,7105.977043,-4885.359217,0.000000
1483.318146,8290.306550,-5921.647536,1149.143247
1483.318476,9104.533087,-6809.894666,2145.067394
1483.318805,8586.388927,-6735.874072,1225.752797
1483.319134,6735.874072,-8216.285956,842.705048
1483.319463,5329.482782,-7105.977043,153.219100
1483.319793,5625.565159,-5551.544565,-766.095498
1483.320122,6661.853478,-7328.038826,536.266849
1483.320451,7994.224174,-6735.874072,2528.115143
1483.320780,9030.512492,-6291.750507,1378.971896
1483.321110,7994.224174,-7179.997637,1762.019645
1483.321439,6883.915261,-5551.544565,1302.362347
1483.321768,7698.141797,-5033.400406,689.485948
1483.322097,8734.430116,-7698.141797,1608.800546
1483.322427,7476.080014,-4589.276840,229.828649
1483.322756,5625.565159,-5847.626942,-1455.581446
1483.323085,5107.421000,-8068.244768,76.609550
1483.323414,4737.318029,-6365.771101,-689.485948
1483.323744,4885.359217,-7772.162391,-612.876398
1483.324073,6069.688724,-6513.812290,842.705048
1483.324402,7772.162391,-7476.080014,2068.457845
1483.324731,8734.430116,-8438.347739,2528.115143
1483.325060,7698.141797,-5699.585753,2451.505594
1483.325390,7846.182985,-4515.256246,842.705048
1483.325719,8216.285956,-4441.235652,459.657299
1483.326048,6217.729913,-4737.318029,383.047749
1483.326377,6513.812290,-5625.565159,0.000000
1483.326707,6957.935855,-5181.441594,-306.438199
1483.327036,5995.668130,-6883.915261,-383.047749
1483.327365,5847.626942,-8290.306550,229.828649
1483.327694,6587.832884,-9252.574275,1991.848295
1483.328024,7476.080014,-9474.636058,1455.581446
1483.328353,7105.977043,-8364.327145,1915.238745
1483.328682,6957.935855,-5921.647536,1302.362347
1483.329011,6587.832884,-6291.750507,766.095498
1483.329341,7254.018232,-5255.462188,842.705048
1483.329670,7476.080014,-4145.153275,1378.971896
1483.329999,8512.368333,-4959.379811,1225.752797
1483.330328,8808.450710,-5255.462188,2145.067394
1483.330658,6587.832884,-5773.606348,1149.143247
1483.330987,6217.729913,-8216.285956,459.657299
1483.331316,6069.688724,-7105.977043,306.438199
1483.331645,5921.647536,-8216.285956,0.000000
1483.331975,6809.894666,-9400.615463,766.095498
1483.332304,8142.265362,-7698.141797,1915.238745
1483.332633,7994.224174,-7920.203579,1378.971896
1483.332962,6513.812290,-7254.018232,1149.143247
1483.333292,5625.565159,-6069.688724,1685.410096
1483.333621,6957.935855,-5107.421000,1149.143247
1483.333950,7328.038826,-4441.235652,1378.971896
1483.334279,7994.224174,-4293.194464,2298.286494
1483.334608,9252.574275,-4293.194464,1991.848295
1483.334938,7624.121203,-5995.668130,995.924147
1483.335267,5551.544565,-5921.647536,1225.752797
1483.335596,5033.400406,-6365.771101,153.219100
1483.335925,6513.812290,-7105.977043,612.876398
1483.336255,6957.935855,-7476.080014,1838.629195
1483.336584,6587.832884,-8956.491898,2068.457845
1483.336913,7105.977043,-8068.244768,2298.286494
1483.337242,7179.997637,-7772.162391,1608.800546
1483.337572,6883.915261,-5255.462188,612.876398
1483.337901,6957.935855,-5699.585753,0.000000
1483.338230,8142.265362,-8438.347739,2681.334243
1483.338559,7846.182985,-4663.297435,1838.629195
1483.338889,5773.606348,-6439.791695,229.828649
1483.339218,4737.318029,-6587.832884,1915.238745
1483.339547,5329.482782,-6365.771101,1532.190996
1483.339876,5847.626942,-8142.265362,995.924147
1483.340206,5403.503377,-6809.894666,1225.752797
1483.340535,6587.832884,-6143.709319,1302.362347
1483.340864,8216.285956,-7105.977043,2298.286494
1483.341193,7328.038826,-6069.688724,2145.067394
1483.341523,6809.894666,-4959.379811,1072.533697
1483.341852,7846.182985,-5847.626942,766.095498
1483.342181,7550.100608,-5699.585753,842.705048
1483.342510,6883.915261,-6809.894666,1149.143247
1483.342840,7476.080014,-7328.038826,1302.362347
1483.343169,7624.121203,-7254.018232,766.095498
1483.343498,5995.668130,-6587.832884,689.485948
1483.343827,6069.688724,-8364.327145,1685.410096
1483.344157,7254.018232,-8216.285956,1532.190996
1483.344486,7179.997637,-6735.874072,995.924147
1483.344815,6069.688724,-5921.647536,689.485948
1483.345144,6291.750507,-5625.565159,1532.190996
1483.345473,8142.265362,-4515.256246,1532.190996
1483.345803,7920.203579,-5033.400406,1149.143247
1483.346132,8068.244768,-5329.482782,1532.190996
1483.346461,8216.285956,-5329.482782,1072.533697
1483.346790,6883.915261,-5921.647536,0.000000
1483.347120,5107.421000,-7105.977043,-383.047749
1483.347449,5329.482782,-6735.874072,-459.657299
1483.347778,6587.832884,-7698.141797,0.000000
1483.348107,7920.203579,-9918.759623,2145.067394
1483.348437,8364.327145,-9474.636058,3217.601092
1483.348766,7105.977043,-6587.832884,1149.143247
1483.349095,5107.421000,-5847.626942,0.000000
1483.349424,5181.441594,-4663.297435,153.219100
1483.349754,7994.224174,-4219.173869,1149.143247
1483.350083,9696.697840,-6217.729913,2374.896044
1483.350412,8586.388927,-4071.132681,1838.629195
1483.350741,6513.812290,-3997.112087,612.876398
1483.351071,6143.709319,-6513.812290,-842.705048
1483.351400,5033.400406,-7402.059420,-153.219100
1483.351729,4737.318029,-7254.018232,-229.828649
1483.352058,6735.874072,-8882.471304,383.047749
1483.352388,8290.306550,-9178.553681,1608.800546
1483.352717,8586.388927,-8586.388927,1302.362347
1483.353046,6883.915261,-7179.997637,536.266849
1483.353375,5921.647536,-7698.141797,-995.924147
1483.353705,5921.647536,-9252.574275,0.000000
1483.354034,7846.182985,-6143.709319,1915.238745
1483.354363,8808.450710,-4367.215058,1685.410096
1483.354692,8808.450710,-5921.647536,2451.505594
1483.355022,7105.977043,-4737.318029,1915.238745
1483.355351,5255.462188,-5329.482782,0.000000
1483.355680,4737.318029,-6217.729913,-766.095498
1483.356009,5847.626942,-6365.771101,306.438199
1483.356338,7624.121203,-8734.430116,1685.410096
1483.356668,8068.244768,-6957.935855,383.047749
1483.356997,6513.812290,-7994.224174,1532.190996
1483.357326,6587.832884,-8734.430116,1762.019645
1483.357655,7624.121203,-6957.935855,1072.533697
1483.357985,6883.915261,-5921.647536,1072.533697
1483.358314,7328.038826,-5699.585753,1991.848295
1483.358643,8882.471304,-6143.709319,1608.800546
1483.358972,7994.224174,-6143.709319,3064.381992
1483.359302,6365.771101,-7254.018232,2145.067394
1483.359631,5551.544565,-5107.421000,383.047749
1483.359960,4885.359217,-5181.441594,536.266849
1483.360289,4737.318029,-7179.997637,1455.581446
1483.360619,5921.647536,-7550.100608,1838.629195
1483.360948,7105.977043,-7179.997637,2068.457845
1483.361277,7105.977043,-7254.018232,1838.629195
1483.361606,7994.224174,-4959.379811,2145.067394
1483.361936,9326.594869,-4441.235652,1149.143247
1483.362265,8364.327145,-5773.606348,766.095498
1483.362594,6957.935855,-5995.668130,459.657299
1483.362923,6439.791695,-6365.771101,383.047749
1483.363253,6291.750507,-6143.709319,0.000000
1483.363582,6291.750507,-6365.771101,2068.457845
1483.363911,6957.935855,-7105.977043,2528.115143
1483.364240,7550.100608,-6513.812290,1225.752797
1483.364570,6291.750507,-7698.141797,1072.533697
1483.364899,5995.668130,-7550.100608,1149.143247
1483.365228,7254.018232,-6143.709319,76.609550
1483.365557,7624.121203,-5699.585753,76.609550
1483.365887,7179.997637,-5477.523971,0.000000
1483.366216,8068.244768,-5847.626942,536.266849
1483.366545,8216.285956,-4811.338623,-536.266849
1483.366874,6291.750507,-6365.771101,-1072.533697
1483.367204,5847.626942,-7402.059420,-76.609550
1483.367533,6883.915261,-6735.874072,76.609550
1483.367862,6069.688724,-7772.162391,-1225.752797
1483.368191,5551.544565,-7698.141797,-919.314598
1483.368521,6365.771101,-7994.224174,-919.314598
1483.368850,7624.121203,-7698.141797,-1532.190996
1483.369179,6143.709319,-7179.997637,-536.266849
1483.369508,5773.606348,-6291.750507,-919.314598
1483.369838,7105.977043,-5181.441594,-1225.752797
1483.370167,7550.100608,-6661.853478,-766.095498
1483.370496,8734.430116,-7031.956449,0.000000
1483.370825,9770.718434,-5329.482782,153.219100
1483.371155,9548.656652,-5181.441594,-1302.362347
1483.371484,6661.853478,-7624.121203,-1762.019645
1483.371813,5625.565159,-7402.059420,-1149.143247
1483.372142,6735.874072,-6217.729913,-3217.601092
1483.372472,6439.791695,-6809.894666,-1991.848295
1483.372801,5625.565159,-6735.874072,-383.047749
1483.373130,7031.956449,-5921.647536,-1455.581446
1483.373459,7105.977043,-8586.388927,-612.876398
1483.373789,6143.709319,-6587.832884,-1225.752797
1483.374118,6217.729913,-4959.379811,-2451.505594
1483.374447,7698.141797,-6069.688724,-3217.601092
1483.374776,7994.224174,-5625.565159,-1685.410096
1483.375106,8364.327145,-5551.544565,-1838.629195
1483.375435,8068.244768,-5033.400406,-2834.553343
1483.375764,5329.482782,-5995.668130,-2987.772442
1483.376093,4737.318029,-7402.059420,-2145.067394
1483.376423,6217.729913,-8290.306550,-2987.772442
1483.376752,7328.038826,-8142.265362,-1762.019645
1483.377081,7254.018232,-8068.244768,-306.438199
1483.377410,7031.956449,-8068.244768,-1455.581446
1483.377740,6513.812290,-5255.462188,-3217.601092
1483.378069,5625.565159,-5847.626942,-2604.724693
1483.378398,6809.894666,-5995.668130,-2298.286494
1483.378727,8142.265362,-4219.173869,-2834.553343
1483.379056,8290.306550,-5773.606348,-995.924147
1483.379386,8808.450710,-5477.523971,-536.266849
1483.379715,8956.491898,-4515.256246,-2145.067394
1483.380044,6291.750507,-5107.421000,-3064.381992
1483.380373,5107.421000,-7772.162391,-3294.210641
1483.380703,5921.647536,-9696.697840,-2145.067394
1483.381032,6513.812290,-8142.265362,-2221.676944
1483.381361,6587.832884,-7772.162391,-1838.629195
1483.381690,7698.141797,-8068.244768,-919.314598
1483.382020,7994.224174,-7105.977043,-995.924147
1483.382349,6735.874072,-7179.997637,-1455.581446
1483.382678,6809.894666,-6217.729913,-766.095498
1483.383007,7624.121203,-4737.318029,-2068.457845
1483.383337,8216.285956,-6217.729913,-2221.676944
1483.383666,7624.121203,-5699.585753,-1915.238745
1483.383995,7698.141797,-4811.338623,-2528.115143
1483.384324,7550.100608,-5773.606348,-3830.477490
1483.384654,6513.812290,-5847.626942,-3064.381992
1483.384983,5847.626942,-7624.121203,-2604.724693
1483.385312,6217.729913,-8290.306550,-2834.553343
1483.385641,4737.318029,-9474.636058,-2145.067394
1483.385971,5033.400406,-9030.512492,-2068.457845
1483.386300,7476.080014,-7179.997637,-919.314598
1483.386629,8512.368333,-5995.668130,-229.828649
1483.386958,8882.471304,-5847.626942,459.657299
1483.387288,8438.347739,-4959.379811,0.000000
1483.387617,7328.038826,-4737.318029,-1149.143247
1483.387946,6439.791695,-4441.235652,-1685.410096
1483.388275,5921.647536,-5921.647536,-1991.848295
1483.388605,5847.626942,-5995.668130,-2681.334243
1483.388934,5995.668130,-5625.565159,-2834.553343
1483.389263,6291.750507,-6661.853478,-1915.238745
1483.389592,6735.874072,-5995.668130,-2681.334243
1483.389922,6217.729913,-9104.533087,-2145.067394
1483.390251,6439.791695,-8808.450710,-1378.971896
1483.390580,6143.709319,-8586.388927,-1225.752797
1483.390909,6143.709319,-8586.388927,-1685.410096
1483.391239,5699.585753,-7624.121203,-766.095498
1483.391568,7031.956449,-7031.956449,-536.266849
1483.391897,8882.471304,-5033.400406,153.219100
1483.392226,9548.656652,-3182.885551,306.438199
1483.392556,9326.594869,-4737.318029,0.000000
1483.392885,8586.388927,-5107.421000,-1302.362347
1483.393214,7254.018232,-6661.853478,-1532.190996
1483.393543,6217.729913,-5921.647536,-3064.381992
1483.393873,5107.421000,-5699.585753,-4366.744339
1483.394202,5625.565159,-8068.244768,-3600.648841
1483.394531,6365.771101,-8956.491898,-2987.772442
1483.394860,6661.853478,-8734.430116,-2068.457845
1483.395190,6809.894666,-6587.832884,-2451.505594
1483.395519,6735.874072,-7698.141797,-2528.115143
1483.395848,7105.977043,-7772.162391,-919.314598
1483.396177,8290.306550,-7105.977043,229.828649
1483.396507,9178.553681,-6365.771101,0.000000
