#time,accel_x,accel_y,accel_z
1176.090216,7254.018232,-6513.812290,1072.533697
1176.090546,7031.956449,-6291.750507,1072.533697
1176.090876,6809.894666,-6661.853478,689.485948
1176.091207,7105.977043,-6513.812290,1302.362347
1176.091537,6809.894666,-6587.832884,766.095498
1176.091868,7105.977043,-6217.729913,842.705048
1176.092198,6957.935855,-6587.832884,919.314598
1176.092528,7105.977043,-6587.832884,919.314598
1176.092859,6883.915261,-6735.874072,1455.581446
1176.093189,6957.935855,-6439.791695,919.314598
1176.093520,7105.977043,-6587.832884,919.314598
1176.093850,7031.956449,-6809.894666,995.924147
1176.094181,7328.038826,-7105.977043,1455.581446
1176.094511,7105.977043,-6735.874072,1225.752797
1176.094841,6735.874072,-6661.853478,1225.752797
1176.095172,6809.894666,-6809.894666,766.095498
1176.095502,6735.874072,-6439.791695,842.705048
1176.095833,6735.874072,-6661.853478,919.314598
1176.096163,6957.935855,-6661.853478,919.314598
1176.096493,6809.894666,-6587.832884,995.924147
1176.096824,6957.935855,-6291.750507,1072.533697
1176.097154,6513.812290,-6439.791695,1149.143247
1176.097485,6587.832884,-6587.832884,1072.533697
1176.097815,7031.956449,-6661.853478,1072.533697
1176.098146,7105.977043,-6661.853478,1149.143247
1176.098476,6883.915261,-6587.832884,1149.143247
1176.098806,7105.977043,-6217.729913,459.657299
1176.099137,6957.935855,-6883.915261,612.876398
1176.099467,6809.894666,-6809.894666,1302.362347
1176.099798,6957.935855,-6661.853478,1072.533697
1176.100128,7105.977043,-6217.729913,1225.752797
1176.100458,7254.018232,-6513.812290,842.705048
1176.100789,7105.977043,-6661.853478,1149.143247
1176.101119,7031.956449,-6365.771101,919.314598
1176.101450,6661.853478,-6809.894666,919.314598
1176.101780,7179.997637,-6365.771101,995.924147
1176.102111,6809.894666,-6291.750507,995.924147
1176.102441,7031.956449,-6587.832884,1072.533697
1176.102771,7550.100608,-6809.894666,1225.752797
1176.103102,7105.977043,-6365.771101,919.314598
1176.103432,6809.894666,-6217.729913,689.485948
1176.103763,6957.935855,-6809.894666,919.314598
1176.104093,7031.956449,-6439.791695,842.705048
1176.104423,7105.977043,-6291.750507,1072.533697
1176.104754,6883.915261,-5847.626942,919.314598
1176.105084,6735.874072,-6291.750507,1302.362347
1176.105415,6883.915261,-6217.729913,306.438199
1176.105745,6883.915261,-6735.874072,919.314598
1176.106076,7031.956449,-6587.832884,766.095498
1176.106406,7328.038826,-6809.894666,1762.019645
1176.106736,7031.956449,-6439.791695,919.314598
1176.107067,7105.977043,-6365.771101,1072.533697
1176.107397,7105.977043,-6439.791695,1378.971896
1176.107728,7328.038826,-6291.750507,1072.533697
1176.108058,7624.121203,-6587.832884,766.095498
1176.108388,6883.915261,-6513.812290,919.314598
1176.108719,6735.874072,-6365.771101,766.095498
1176.109049,6661.853478,-6365.771101,612.876398
1176.109380,6957.935855,-6513.812290,1149.143247
1176.109710,6957.935855,-6217.729913,612.876398
1176.110041,6883.915261,-6513.812290,919.314598
1176.110371,6883.915261,-6809.894666,1072.533697
1176.110701,6883.915261,-6957.935855,842.705048
1176.111032,6809.894666,-6069.688724,612.876398
1176.111362,6809.894666,-6291.750507,919.314598
1176.111693,6957.935855,-6661.853478,1225.752797
1176.112023,7105.977043,-6587.832884,1072.533697
1176.112353,7031.956449,-6291.750507,842.705048
1176.112684,6883.915261,-6809.894666,1149.143247
1176.113014,6661.853478,-7031.956449,1072.533697
1176.113345,6883.915261,-6661.853478,1072.533697
1176.113675,6809.894666,-6883.915261,919.314598
1176.114006,6957.935855,-6809.894666,689.485948
1176.114336,7031.956449,-6735.874072,842.705048
1176.114666,7031.956449,-6809.894666,995.924147
1176.114997,7031.956449,-6735.874072,995.924147
1176.115327,6809.894666,-6735.874072,919.314598
1176.115658,7031.956449,-6883.915261,689.485948
1176.115988,7105.977043,-6735.874072,995.924147
1176.116318,7105.977043,-6143.709319,1225.752797
1176.116649,7105.977043,-6513.812290,919.314598
1176.116979,6883.915261,-6217.729913,1532.190996
1176.117310,6735.874072,-6661.853478,1149.143247
1176.117640,6957.935855,-6365.771101,1072.533697
1176.117971,7031.956449,-6809.894666,1072.533697
1176.118301,7105.977043,-6439.791695,1072.533697
1176.118631,7402.059420,-6217.729913,1149.143247
1176.118962,7328.038826,-6439.791695,1149.143247
1176.119292,7179.997637,-6513.812290,1225.752797
1176.119623,7179.997637,-6291.750507,1455.581446
1176.119953,6217.729913,-6291.750507,1378.971896
1176.120283,7031.956449,-6365.771101,1149.143247
1176.120614,7105.977043,-6439.791695,995.924147
1176.120944,7105.977043,-6587.832884,1072.533697
1176.121275,7031.956449,-6291.750507,919.314598
1176.121605,7105.977043,-6291.750507,1072.533697
1176.121936,6809.894666,-6513.812290,842.705048
1176.122266,6883.915261,-6587.832884,1072.533697
1176.122596,7031.956449,-6587.832884,842.705048
1176.122927,6883.915261,-6291.750507,919.314598
1176.123257,7105.977043,-6513.812290,689.485948
1176.123588,6957.935855,-6661.853478,842.705048
1176.123918,7254.018232,-6587.832884,1378.971896
1176.124248,7031.956449,-6883.915261,1149.143247
1176.124579,6883.915261,-6513.812290,1455.581446
1176.124909,6957.935855,-6883.915261,919.314598
1176.125240,6883.915261,-6587.832884,1072.533697
1176.125570,6957.935855,-6661.853478,689.485948
1176.125900,6735.874072,-6883.915261,1225.752797
1176.126231,6661.853478,-5847.626942,612.876398
1176.126561,7031.956449,-7105.977043,842.705048
1176.126892,6957.935855,-6735.874072,919.314598
1176.127222,7105.977043,-6735.874072,1302.362347
1176.127553,7402.059420,-6365.771101,459.657299
1176.127883,7031.956449,-6661.853478,842.705048
1176.128213,6957.935855,-6661.853478,919.314598
1176.128544,6957.935855,-6957.935855,995.924147
1176.128874,7031.956449,-6513.812290,1072.533697
1176.129205,7105.977043,-6809.894666,1302.362347
1176.129535,6957.935855,-6439.791695,842.705048
1176.129865,6661.853478,-6513.812290,1149.143247
1176.130196,7179.997637,-6587.832884,995.924147
1176.130526,7179.997637,-6957.935855,1225.752797
1176.130857,6957.935855,-6439.791695,1072.533697
1176.131187,7105.977043,-6513.812290,995.924147
1176.131518,6587.832884,-6809.894666,1302.362347
1176.131848,7031.956449,-6735.874072,689.485948
1176.132178,6809.894666,-6735.874072,1762.019645
1176.132509,6513.812290,-6587.832884,1455.581446
1176.132839,7105.977043,-6439.791695,842.705048
1176.133170,6957.935855,-6365.771101,995.924147
1176.133500,6883.915261,-6735.874072,1149.143247
1176.133830,7328.038826,-6365.771101,1225.752797
1176.134161,6957.935855,-6439.791695,995.924147
1176.134491,7105.977043,-6365.771101,1225.752797
1176.134822,7031.956449,-6217.729913,1225.752797
1176.135152,7031.956449,-6069.688724,689.485948
1176.135483,6143.709319,-6439.791695,536.266849
1176.135813,7031.956449,-6661.853478,995.924147
1176.136143,7105.977043,-6735.874072,1149.143247
1176.136474,6957.935855,-6217.729913,1149.143247
1176.136804,6735.874072,-6587.832884,1532.190996
1176.137135,6809.894666,-6661.853478,1149.143247
1176.137465,6883.915261,-7105.977043,1149.143247
1176.137795,6883.915261,-6513.812290,995.924147
1176.138126,6957.935855,-6291.750507,842.705048
1176.138456,7105.977043,-6291.750507,995.924147
1176.138787,7031.956449,-6439.791695,995.924147
1176.139117,7105.977043,-6735.874072,1149.143247
1176.139448,7031.956449,-6217.729913,306.438199
1176.139778,7105.977043,-6587.832884,1378.971896
1176.140108,7105.977043,-6809.894666,612.876398
1176.140439,7105.977043,-6883.915261,919.314598
1176.140769,7031.956449,-6809.894666,919.314598
1176.141100,6957.935855,-6735.874072,842.705048
1176.141430,6883.915261,-6291.750507,1072.533697
1176.141760,6661.853478,-6587.832884,995.924147
1176.142091,6957.935855,-6809.894666,1149.143247
1176.142421,6957.935855,-6809.894666,919.314598
1176.142752,6957.935855,-6439.791695,612.876398
1176.143082,6735.874072,-6365.771101,1225.752797
1176.143413,6957.935855,-6661.853478,1149.143247
1176.143743,6957.935855,-6661.853478,842.705048
1176.144073,7031.956449,-6587.832884,1149.143247
1176.144404,6883.915261,-6513.812290,229.828649
1176.144734,6957.935855,-6883.915261,995.924147
1176.145065,7105.977043,-6735.874072,1149.143247
1176.145395,7031.956449,-6809.894666,1302.362347
1176.145725,7105.977043,-6439.791695,842.705048
1176.146056,6587.832884,-6809.894666,1149.143247
1176.146386,6809.894666,-6143.709319,919.314598
1176.146717,6957.935855,-6439.791695,919.314598
1176.147047,7105.977043,-6069.688724,919.314598
1176.147378,7031.956449,-5847.626942,1532.190996
1176.147708,7105.977043,-6291.750507,1225.752797
1176.148038,6957.935855,-6513.812290,766.095498
1176.148369,7105.977043,-6513.812290,1072.533697
1176.148699,6957.935855,-6661.853478,919.314598
1176.149030,7031.956449,-6587.832884,995.924147
1176.149360,6957.935855,-6365.771101,153.219100
1176.149690,7031.956449,-6513.812290,919.314598
1176.150021,6957.935855,-6661.853478,995.924147
1176.150351,7105.977043,-6439.791695,1455.581446
1176.150682,7105.977043,-6661.853478,995.924147
1176.151012,7031.956449,-6365.771101,1225.752797
1176.151343,6957.935855,-6143.709319,766.095498
1176.151673,6809.894666,-6661.853478,842.705048
1176.152003,7179.997637,-6513.812290,1072.533697
1176.152334,6883.915261,-6513.812290,919.314598
1176.152664,6661.853478,-6513.812290,919.314598
1176.152995,6883.915261,-6513.812290,919.314598
1176.153325,7105.977043,-7031.956449,612.876398
1176.153655,7105.977043,-6735.874072,995.924147
1176.153986,6957.935855,-6661.853478,1149.143247
1176.154316,6883.915261,-6809.894666,1149.143247
1176.154647,7105.977043,-6735.874072,1149.143247
1176.154977,7105.977043,-5921.647536,1072.533697
1176.155308,6883.915261,-6661.853478,919.314598
1176.155638,7105.977043,-6513.812290,842.705048
1176.155968,6809.894666,-6439.791695,919.314598
1176.156299,6661.853478,-6735.874072,612.876398
1176.156629,7031.956449,-6735.874072,536.266849
1176.156960,7031.956449,-6661.853478,919.314598
1176.157290,7031.956449,-6661.853478,995.924147
1176.157620,7105.977043,-6587.832884,1302.362347
1176.157949,7179.997637,-6217.729913,689.485948
1176.158279,6883.915261,-6587.832884,919.314598
1176.158608,7031.956449,-6661.853478,536.266849
1176.158938,7031.956449,-6513.812290,995.924147
1176.159267,7105.977043,-6661.853478,995.924147
1176.159597,7402.059420,-6587.832884,536.266849
1176.159926,7105.977043,-6661.853478,1225.752797
1176.160256,6957.935855,-6439.791695,919.314598
1176.160585,7105.977043,-6513.812290,1149.143247
1176.160915,7179.997637,-6143.709319,1302.362347
1176.161244,6883.915261,-6661.853478,1072.533697
1176.161574,7254.018232,-6883.915261,1225.752797
1176.161903,7105.977043,-6661.853478,1072.533697
1176.162233,7105.977043,-6513.812290,1072.533697
1176.162562,7105.977043,-6735.874072,1532.190996
1176.162892,7105.977043,-6661.853478,995.924147
1176.163221,7254.018232,-6513.812290,1302.362347
1176.163551,7105.977043,-6069.688724,919.314598
1176.163880,7105.977043,-6291.750507,1072.533697
1176.164210,6735.874072,-6513.812290,1072.533697
1176.164539,6735.874072,-6439.791695,919.314598
1176.164869,6883.915261,-6661.853478,1225.752797
1176.165198,7105.977043,-6513.812290,1149.143247
1176.165528,7105.977043,-6439.791695,612.876398
1176.165858,6809.894666,-6143.709319,842.705048
1176.166187,6513.812290,-6661.853478,995.924147
1176.166517,7105.977043,-6439.791695,1149.143247
1176.166846,7105.977043,-6439.791695,919.314598
1176.167176,7179.997637,-5699.585753,766.095498
1176.167505,6883.915261,-6365.771101,919.314598
1176.167835,6809.894666,-6365.771101,1072.533697
1176.168164,7105.977043,-6735.874072,1149.143247
1176.168494,7179.997637,-6735.874072,1149.143247
1176.168823,6661.853478,-6661.853478,1302.362347
1176.169153,6439.791695,-6513.812290,919.314598
1176.169482,6957.935855,-6513.812290,919.314598
1176.169812,6809.894666,-6957.935855,842.705048
1176.170141,7179.997637,-6809.894666,1225.752797
1176.170471,7031.956449,-6809.894666,919.314598
1176.170800,6809.894666,-6661.853478,842.705048
1176.171130,7105.977043,-6957.935855,1149.143247
1176.171459,7105.977043,-6439.791695,612.876398
1176.171789,7402.059420,-6735.874072,995.924147
1176.172118,7105.977043,-6513.812290,1149.143247
1176.172448,6883.915261,-6439.791695,766.095498
1176.172777,6957.935855,-6587.832884,842.705048
1176.173107,7031.956449,-6439.791695,1302.362347
1176.173436,7105.977043,-6365.771101,842.705048
1176.173766,7105.977043,-6439.791695,1072.533697
1176.174095,6957.935855,-6735.874072,842.705048
1176.174425,7031.956449,-6661.853478,766.095498
1176.174755,7179.997637,-7031.956449,1149.143247
1176.175084,7105.977043,-6809.894666,995.924147
1176.175414,6957.935855,-6513.812290,919.314598
1176.175743,7105.977043,-6587.832884,842.705048
1176.176073,6957.935855,-6513.812290,1378.971896
1176.176402,7031.956449,-6365.771101,919.314598
1176.176732,7105.977043,-6291.750507,995.924147
1176.177061,7105.977043,-6439.791695,1225.752797
1176.177391,7031.956449,-6291.750507,995.924147
1176.177720,6809.894666,-6217.729913,1762.019645
1176.178050,7031.956449,-6513.812290,1149.143247
1176.178379,6883.915261,-6439.791695,1149.143247
1176.178709,7031.956449,-6587.832884,1225.752797
1176.179038,7105.977043,-6735.874072,995.924147
1176.179368,7254.018232,-6291.750507,1149.143247
1176.179697,7031.956449,-6587.832884,1225.752797
1176.180027,7031.956449,-6587.832884,1149.143247
1176.180356,6957.935855,-6217.729913,995.924147
1176.180686,7254.018232,-6513.812290,612.876398
1176.181015,6957.935855,-6809.894666,1149.143247
1176.181345,6809.894666,-6661.853478,995.924147
1176.181674,6587.832884,-6735.874072,1072.533697
1176.182004,6661.853478,-6661.853478,995.924147
1176.182333,7105.977043,-6291.750507,612.876398
1176.182663,6513.812290,-6809.894666,1225.752797
1176.182993,6957.935855,-6661.853478,1149.143247
1176.183322,7105.977043,-6809.894666,1225.752797
1176.183652,6957.935855,-6661.853478,1225.752797
1176.183981,6883.915261,-6365.771101,1302.362347
1176.184311,6957.935855,-6439.791695,995.924147
1176.184640,6809.894666,-7031.956449,1149.143247
1176.184970,7031.956449,-6883.915261,1149.143247
1176.185299,7031.956449,-6587.832884,1225.752797
1176.185629,6809.894666,-6513.812290,919.314598
1176.185958,6809.894666,-6735.874072,459.657299
1176.186288,6809.894666,-6809.894666,1072.533697
1176.186617,6735.874072,-7105.977043,1225.752797
1176.186947,7105.977043,-6883.915261,766.095498
1176.187276,6883.915261,-6365.771101,1225.752797
1176.187606,7105.977043,-6513.812290,1225.752797
1176.187935,7105.977043,-6365.771101,1072.533697
1176.188265,6957.935855,-5551.544565,1149.143247
1176.188594,7328.038826,-6439.791695,1225.752797
1176.188924,7031.956449,-6291.750507,842.705048
1176.189253,7105.977043,-6291.750507,1302.362347
1176.189583,7031.956449,-6365.771101,1455.581446
1176.189912,6957.935855,-6069.688724,1149.143247
1176.190242,7105.977043,-6513.812290,842.705048
1176.190571,6809.894666,-6513.812290,919.314598
1176.190901,6809.894666,-6439.791695,842.705048
1176.191231,7105.977043,-6661.853478,1149.143247
1176.191560,7105.977043,-6439.791695,1225.752797
1176.191890,7179.997637,-6735.874072,1149.143247
1176.192219,7105.977043,-6439.791695,919.314598
1176.192549,7105.977043,-6513.812290,1149.143247
1176.192878,7476.080014,-6513.812290,766.095498
1176.193208,7031.956449,-6661.853478,1072.533697
1176.193537,7105.977043,-6513.812290,995.924147
1176.193867,7105.977043,-6587.832884,1072.533697
1176.194196,6587.832884,-6291.750507,1455.581446
1176.194526,6735.874072,-6587.832884,1302.362347
1176.194855,6883.915261,-6587.832884,1149.143247
1176.195185,6957.935855,-6957.935855,1378.971896
1176.195514,6957.935855,-6291.750507,919.314598
1176.195844,6809.894666,-6217.729913,842.705048
1176.196173,7105.977043,-6365.771101,1072.533697
1176.196503,7105.977043,-6439.791695,919.314598
1176.196832,7031.956449,-6587.832884,766.095498
1176.197162,6809.894666,-6587.832884,1072.533697
1176.197491,6809.894666,-7031.956449,1149.143247
1176.197821,6957.935855,-6883.915261,995.924147
1176.198150,6883.915261,-7031.956449,1149.143247
1176.198480,6957.935855,-6809.894666,1225.752797
1176.198809,6661.853478,-6365.771101,1072.533697
1176.199139,6883.915261,-6809.894666,1225.752797
1176.199468,6809.894666,-6809.894666,689.485948
1176.199798,6883.915261,-6735.874072,1149.143247
1176.200128,6883.915261,-6661.853478,1072.533697
1176.200457,6883.915261,-6513.812290,919.314598
1176.200787,6883.915261,-6587.832884,1149.143247
1176.201116,6957.935855,-6957.935855,919.314598
1176.201446,6809.894666,-6809.894666,919.314598
1176.201775,6661.853478,-6809.894666,1608.800546
1176.202105,7031.956449,-6883.915261,842.705048
1176.202434,6957.935855,-6883.915261,919.314598
1176.202764,6809.894666,-6735.874072,1225.752797
1176.203093,6957.935855,-6661.853478,1378.971896
1176.203423,6809.894666,-5921.647536,842.705048
1176.203752,7031.956449,-6513.812290,842.705048
1176.204082,6883.915261,-6439.791695,689.485948
1176.204411,7179.997637,-6587.832884,1072.533697
1176.204741,7105.977043,-6291.750507,459.657299
1176.205070,6587.832884,-5995.668130,1532.190996
1176.205400,6957.935855,-6217.729913,919.314598
1176.205729,7179.997637,-6735.874072,995.924147
1176.206059,7105.977043,-6809.894666,919.314598
1176.206388,7476.080014,-5995.668130,995.924147
1176.206718,7698.141797,-5477.523971,919.314598
1176.207047,8216.285956,-5255.462188,1149.143247
1176.207377,8512.368333,-5403.503377,1302.362347
1176.207706,8364.327145,-5699.585753,1225.752797
1176.208036,7402.059420,-5551.544565,459.657299
1176.208366,6513.812290,-6661.853478,153.219100
1176.208695,6143.709319,-7105.977043,153.219100
1176.209025,6809.894666,-6957.935855,459.657299
1176.209354,7105.977043,-6291.750507,1072.533697
1176.209684,7772.162391,-6439.791695,1149.143247
1176.210013,7920.203579,-6069.688724,1302.362347
1176.210343,8142.265362,-4515.256246,1149.143247
1176.210672,7846.182985,-5181.441594,995.924147
1176.211002,8882.471304,-4885.359217,1685.410096
1176.211331,8734.430116,-4367.215058,1455.581446
1176.211661,8290.306550,-5033.400406,1685.410096
1176.211990,8586.388927,-4071.132681,1378.971896
1176.212320,7920.203579,-5255.462188,1149.143247
1176.212649,8216.285956,-4737.318029,1455.581446
1176.212979,8512.368333,-4885.359217,995.924147
1176.213308,8290.306550,-5329.482782,1072.533697
1176.213638,8216.285956,-5403.503377,229.828649
1176.213967,8512.368333,-6365.771101,229.828649
1176.214297,8216.285956,-5181.441594,1149.143247
1176.214626,7846.182985,-5773.606348,842.705048
1176.214956,8216.285956,-4959.379811,1149.143247
1176.215285,8290.306550,-4885.359217,1455.581446
1176.215615,8512.368333,-4885.359217,1072.533697
1176.215944,8882.471304,-4145.153275,1455.581446
1176.216274,9030.512492,-3997.112087,1455.581446
1176.216604,9178.553681,-3478.967927,919.314598
1176.216933,8956.491898,-3256.906145,1302.362347
1176.217263,8956.491898,-4441.235652,1149.143247
1176.217592,8882.471304,-4737.318029,1225.752797
1176.217922,8660.409521,-5181.441594,1302.362347
1176.218251,8808.450710,-5773.606348,995.924147
1176.218581,8290.306550,-6513.812290,1991.848295
1176.218910,7994.224174,-7031.956449,689.485948
1176.219240,7402.059420,-6513.812290,612.876398
1176.219569,7031.956449,-6957.935855,0.000000
1176.219899,7254.018232,-6439.791695,1072.533697
1176.220228,7772.162391,-5181.441594,842.705048
1176.220558,7994.224174,-5033.400406,995.924147
1176.220887,8512.368333,-4737.318029,1072.533697
1176.221217,8734.430116,-4737.318029,919.314598
1176.221546,8586.388927,-3478.967927,536.266849
1176.221876,9030.512492,-3552.988522,536.266849
1176.222205,9178.553681,-4959.379811,1149.143247
1176.222535,9178.553681,-5477.523971,995.924147
1176.222864,8956.491898,-6587.832884,842.705048
1176.223194,7624.121203,-5551.544565,459.657299
1176.223523,7846.182985,-5995.668130,229.828649
1176.223853,7624.121203,-7105.977043,766.095498
1176.224182,7254.018232,-6587.832884,995.924147
1176.224512,7328.038826,-6809.894666,842.705048
1176.224841,7550.100608,-4737.318029,842.705048
1176.225171,7402.059420,-4811.338623,1455.581446
1176.225501,7772.162391,-5255.462188,1608.800546
1176.225830,7846.182985,-3997.112087,1532.190996
1176.226160,8882.471304,-4367.215058,1608.800546
1176.226489,8882.471304,-3627.009116,1378.971896
1176.226819,8956.491898,-4663.297435,1762.019645
1176.227148,8956.491898,-5329.482782,1608.800546
1176.227478,7698.141797,-5773.606348,1378.971896
1176.227807,7328.038826,-7031.956449,612.876398
1176.228137,6365.771101,-7476.080014,0.000000
1176.228466,6069.688724,-8660.409521,0.000000
1176.228796,5551.544565,-9030.512492,0.000000
1176.229125,5477.523971,-8734.430116,76.609550
1176.229455,4959.379811,-8216.285956,-459.657299
1176.229784,4885.359217,-8290.306550,0.000000
1176.230114,5477.523971,-8586.388927,0.000000
1176.230443,6217.729913,-7328.038826,459.657299
1176.230773,7179.997637,-6291.750507,459.657299
1176.231102,8216.285956,-5773.606348,1378.971896
1176.231432,9178.553681,-5551.544565,2221.676944
1176.231761,9770.718434,-5773.606348,2528.115143
1176.232091,9622.677246,-5329.482782,1991.848295
1176.232420,8586.388927,-5255.462188,2298.286494
1176.232750,7772.162391,-5403.503377,1608.800546
1176.233079,7179.997637,-5329.482782,1072.533697
1176.233409,6735.874072,-5699.585753,1072.533697
1176.233739,6661.853478,-5403.503377,919.314598
1176.234068,6069.688724,-5847.626942,229.828649
1176.234398,5773.606348,-6217.729913,306.438199
1176.234727,5773.606348,-5921.647536,0.000000
1176.235057,6291.750507,-6365.771101,-306.438199
1176.235386,6291.750507,-6217.729913,153.219100
1176.235716,7402.059420,-7105.977043,766.095498
1176.236045,8216.285956,-7550.100608,1685.410096
1176.236375,8142.265362,-6883.915261,1685.410096
1176.236704,7772.162391,-7105.977043,919.314598
1176.237034,7698.141797,-7328.038826,1915.238745
1176.237363,7698.141797,-8068.244768,2451.505594
1176.237693,7476.080014,-7254.018232,2604.724693
1176.238022,6883.915261,-5847.626942,2834.553343
1176.238352,6143.709319,-5921.647536,1532.190996
1176.238681,5107.421000,-6217.729913,919.314598
1176.239011,4959.379811,-6365.771101,842.705048
1176.239340,5033.400406,-5921.647536,229.828649
1176.239670,5329.482782,-5255.462188,536.266849
1176.239999,5773.606348,-6143.709319,229.828649
1176.240329,6365.771101,-6069.688724,306.438199
1176.240658,6513.812290,-6513.812290,229.828649
1176.240988,6883.915261,-6661.853478,383.047749
1176.241317,6957.935855,-7402.059420,1455.581446
1176.241647,7920.203579,-8364.327145,1532.190996
1176.241977,7254.018232,-7920.203579,1532.190996
1176.242306,7698.141797,-7624.121203,1915.238745
1176.242636,8216.285956,-7550.100608,2451.505594
1176.242965,8216.285956,-7772.162391,2604.724693
1176.243295,7624.121203,-6661.853478,2298.286494
1176.243624,7031.956449,-5255.462188,1455.581446
1176.243954,6439.791695,-5403.503377,1072.533697
1176.244283,6365.771101,-5107.421000,766.095498
1176.244613,5995.668130,-5551.544565,919.314598
1176.244942,6217.729913,-5033.400406,306.438199
1176.245272,6365.771101,-4441.235652,0.000000
1176.245601,6069.688724,-5255.462188,-76.609550
1176.245931,7105.977043,-6291.750507,153.219100
1176.246260,7179.997637,-7179.997637,229.828649
1176.246590,7476.080014,-7402.059420,689.485948
1176.246919,7550.100608,-7105.977043,612.876398
1176.247249,7402.059420,-8216.285956,1685.410096
1176.247578,7105.977043,-8438.347739,1455.581446
1176.247908,7476.080014,-8586.388927,2068.457845
1176.248237,7698.141797,-7402.059420,2374.896044
1176.248567,7920.203579,-6809.894666,1915.238745
1176.248896,7994.224174,-5625.565159,2374.896044
1176.249226,7920.203579,-5033.400406,2221.676944
1176.249555,7698.141797,-4737.318029,1685.410096
1176.249885,7105.977043,-4071.132681,1225.752797
1176.250214,6513.812290,-4737.318029,995.924147
1176.250544,6439.791695,-5033.400406,-306.438199
1176.250874,6143.709319,-6069.688724,-229.828649
1176.251203,5625.565159,-7105.977043,-383.047749
1176.251533,6217.729913,-7328.038826,-459.657299
1176.251862,6217.729913,-8364.327145,229.828649
1176.252192,6217.729913,-7846.182985,-306.438199
1176.252521,6365.771101,-7994.224174,76.609550
1176.252851,6513.812290,-8364.327145,919.314598
1176.253180,7105.977043,-8364.327145,2145.067394
1176.253510,7920.203579,-7550.100608,2604.724693
1176.253839,7920.203579,-6365.771101,2451.505594
1176.254169,7550.100608,-5625.565159,1838.629195
1176.254498,7476.080014,-5995.668130,2068.457845
1176.254828,7772.162391,-6069.688724,2068.457845
1176.255157,7624.121203,-5477.523971,1532.190996
1176.255487,7105.977043,-4663.297435,229.828649
1176.255816,6439.791695,-4737.318029,0.000000
1176.256146,6365.771101,-5995.668130,76.609550
1176.256475,6439.791695,-7179.997637,229.828649
1176.256805,6217.729913,-7402.059420,229.828649
1176.257134,6513.812290,-6365.771101,153.219100
1176.257464,6587.832884,-6365.771101,306.438199
1176.257793,6957.935855,-7031.956449,842.705048
1176.258123,6661.853478,-7550.100608,842.705048
1176.258452,6809.894666,-7179.997637,1225.752797
1176.258782,7328.038826,-6661.853478,1532.190996
1176.259112,7994.224174,-6217.729913,2374.896044
1176.259441,8364.327145,-6883.915261,2221.676944
1176.259770,7179.997637,-6957.935855,2145.067394
1176.260100,7105.977043,-6661.853478,2068.457845
1176.260429,6957.935855,-6735.874072,1225.752797
1176.260758,7105.977043,-6661.853478,842.705048
1176.261088,6809.894666,-6587.832884,1149.143247
1176.261417,6439.791695,-7179.997637,306.438199
1176.261746,6069.688724,-6957.935855,0.000000
1176.262076,5921.647536,-7179.997637,-229.828649
1176.262405,6365.771101,-7328.038826,153.219100
1176.262734,5995.668130,-6587.832884,306.438199
1176.263063,6069.688724,-5921.647536,229.828649
1176.263393,6365.771101,-6143.709319,459.657299
1176.263722,6957.935855,-6439.791695,919.314598
1176.264051,7402.059420,-6143.709319,1838.629195
1176.264381,8142.265362,-5995.668130,1991.848295
1176.264710,8142.265362,-6069.688724,2221.676944
1176.265039,8290.306550,-6291.750507,1991.848295
1176.265369,8068.244768,-7105.977043,2451.505594
1176.265698,7402.059420,-5995.668130,1685.410096
1176.266027,7624.121203,-5921.647536,1072.533697
1176.266357,7105.977043,-5403.503377,995.924147
1176.266686,6957.935855,-5921.647536,842.705048
1176.267015,7254.018232,-5921.647536,842.705048
1176.267344,6809.894666,-5773.606348,153.219100
1176.267674,5921.647536,-6143.709319,76.609550
1176.268003,5921.647536,-6587.832884,0.000000
1176.268332,5921.647536,-6661.853478,306.438199
1176.268662,6143.709319,-7179.997637,153.219100
1176.268991,6143.709319,-7105.977043,0.000000
1176.269320,6439.791695,-7402.059420,459.657299
1176.269650,6513.812290,-7476.080014,1225.752797
1176.269979,7402.059420,-7624.121203,1838.629195
1176.270308,7994.224174,-7550.100608,1991.848295
1176.270638,8068.244768,-7031.956449,2298.286494
1176.270967,8512.368333,-6587.832884,2374.896044
1176.271296,8068.244768,-5995.668130,2221.676944
1176.271625,8512.368333,-4959.379811,1378.971896
1176.271955,7624.121203,-4589.276840,995.924147
1176.272284,6809.894666,-4737.318029,689.485948
1176.272613,6439.791695,-5551.544565,153.219100
1176.272943,6883.915261,-6291.750507,536.266849
1176.273272,6365.771101,-6883.915261,0.000000
1176.273601,5773.606348,-7624.121203,0.000000
1176.273931,5551.544565,-7846.182985,-153.219100
1176.274260,6069.688724,-7846.182985,0.000000
1176.274589,6439.791695,-7698.141797,306.438199
1176.274919,6661.853478,-7550.100608,612.876398
1176.275248,6735.874072,-7402.059420,995.924147
1176.275577,7179.997637,-7254.018232,1685.410096
1176.275906,7846.182985,-7179.997637,2221.676944
1176.276236,8142.265362,-6587.832884,1991.848295
1176.276565,7698.141797,-5847.626942,2451.505594
1176.276894,7772.162391,-5625.565159,2145.067394
1176.277224,7402.059420,-4737.318029,1838.629195
1176.277553,7254.018232,-4589.276840,919.314598
1176.277882,6217.729913,-4737.318029,689.485948
1176.278212,6365.771101,-5255.462188,536.266849
1176.278541,6661.853478,-6365.771101,306.438199
1176.278870,6291.750507,-6661.853478,459.657299
1176.279200,6217.729913,-6957.935855,76.609550
1176.279529,6291.750507,-7846.182985,153.219100
1176.279858,6439.791695,-7179.997637,383.047749
1176.280187,6513.812290,-7105.977043,229.828649
1176.280517,6883.915261,-6735.874072,919.314598
1176.280846,7550.100608,-7105.977043,1838.629195
1176.281175,8364.327145,-6809.894666,2451.505594
1176.281505,8290.306550,-5995.668130,2451.505594
1176.281834,7550.100608,-5625.565159,2145.067394
1176.282163,7772.162391,-6291.750507,2145.067394
1176.282493,7624.121203,-6735.874072,2451.505594
1176.282822,7550.100608,-6513.812290,1762.019645
1176.283151,6291.750507,-5773.606348,383.047749
1176.283481,5255.462188,-5995.668130,0.000000
1176.283810,5773.606348,-6735.874072,0.000000
1176.284139,6069.688724,-7920.203579,0.000000
1176.284468,5921.647536,-7476.080014,0.000000
1176.284798,5773.606348,-7920.203579,76.609550
1176.285127,5995.668130,-7476.080014,0.000000
1176.285456,5995.668130,-7254.018232,383.047749
1176.285786,6587.832884,-6735.874072,766.095498
1176.286115,7328.038826,-6661.853478,1149.143247
1176.286444,8438.347739,-6291.750507,1991.848295
1176.286774,8734.430116,-5551.544565,3524.039291
1176.287103,8734.430116,-5181.441594,2298.286494
1176.287432,8068.244768,-5847.626942,2068.457845
1176.287762,7550.100608,-6365.771101,2221.676944
1176.288091,7698.141797,-6513.812290,2374.896044
1176.288420,7624.121203,-5625.565159,1378.971896
1176.288749,6735.874072,-5477.523971,842.705048
1176.289079,6217.729913,-5773.606348,229.828649
1176.289408,6439.791695,-6809.894666,229.828649
1176.289737,6661.853478,-6439.791695,-153.219100
1176.290067,5847.626942,-6513.812290,-229.828649
1176.290396,4959.379811,-6957.935855,-612.876398
1176.290725,5699.585753,-7402.059420,76.609550
1176.291055,6217.729913,-7550.100608,0.000000
1176.291384,6883.915261,-7031.956449,536.266849
1176.291713,7624.121203,-7550.100608,1302.362347
1176.292043,8290.306550,-7476.080014,1991.848295
1176.292372,8068.244768,-6957.935855,2298.286494
1176.292701,7402.059420,-6069.688724,2757.943793
1176.293030,7994.224174,-5847.626942,2068.457845
1176.293360,8512.368333,-5477.523971,2451.505594
1176.293689,8290.306550,-5255.462188,1762.019645
1176.294018,7402.059420,-5033.400406,1532.190996
1176.294348,6513.812290,-4663.297435,766.095498
1176.294677,6217.729913,-5921.647536,153.219100
1176.295006,5995.668130,-6809.894666,153.219100
1176.295336,5699.585753,-7179.997637,153.219100
1176.295665,5625.565159,-7550.100608,0.000000
1176.295994,5477.523971,-7476.080014,-229.828649
1176.296324,5477.523971,-8364.327145,0.000000
1176.296653,5847.626942,-7994.224174,76.609550
1176.296982,6513.812290,-7772.162391,612.876398
1176.297311,6957.935855,-7179.997637,1685.410096
1176.297641,7772.162391,-6809.894666,1838.629195
1176.297970,8142.265362,-6883.915261,2681.334243
1176.298299,8290.306550,-6365.771101,2681.334243
1176.298629,8142.265362,-5551.544565,2298.286494
1176.298958,7698.141797,-5551.544565,1915.238745
1176.299287,7476.080014,-5329.482782,1608.800546
1176.299617,7328.038826,-5181.441594,1532.190996
1176.299946,6735.874072,-5255.462188,612.876398
1176.300275,5921.647536,-5699.585753,306.438199
1176.300605,6069.688724,-6661.853478,76.609550
1176.300934,5625.565159,-6661.853478,0.000000
1176.301263,5477.523971,-7328.038826,0.000000
1176.301593,5477.523971,-6957.935855,0.000000
1176.301922,6439.791695,-6735.874072,689.485948
1176.302251,6809.894666,-6661.853478,76.609550
1176.302580,7105.977043,-6291.750507,536.266849
1176.302910,7698.141797,-6809.894666,842.705048
1176.303239,8586.388927,-7105.977043,1762.019645
1176.303568,8586.388927,-7105.977043,2298.286494
1176.303898,8438.347739,-6513.812290,2374.896044
1176.304227,7920.203579,-6217.729913,1838.629195
1176.304556,7624.121203,-6513.812290,1991.848295
1176.304886,7698.141797,-6661.853478,1762.019645
1176.305215,6883.915261,-6587.832884,995.924147
1176.305544,6143.709319,-6513.812290,383.047749
1176.305874,5625.565159,-6069.688724,-383.047749
1176.306203,5403.503377,-7105.977043,0.000000
1176.306532,5625.565159,-6957.935855,-536.266849
1176.306861,5625.565159,-7179.997637,0.000000
1176.307191,5921.647536,-6735.874072,-383.047749
1176.307520,6513.812290,-7031.956449,0.000000
1176.307849,6809.894666,-7105.977043,689.485948
1176.308179,7254.018232,-6883.915261,1302.362347
1176.308508,7772.162391,-6365.771101,1225.752797
1176.308837,8512.368333,-6069.688724,2068.457845
1176.309167,8512.368333,-6365.771101,2604.724693
1176.309496,8734.430116,-6735.874072,2374.896044
1176.309825,8364.327145,-6143.709319,2451.505594
1176.310155,7476.080014,-5551.544565,1838.629195
1176.310484,7105.977043,-5477.523971,1532.190996
1176.310813,7105.977043,-5625.565159,1838.629195
1176.311142,7254.018232,-5477.523971,1149.143247
1176.311472,6513.812290,-5107.421000,153.219100
1176.311801,6587.832884,-5551.544565,-536.266849
1176.312130,6069.688724,-6957.935855,0.000000
1176.312460,6291.750507,-6957.935855,229.828649
1176.312789,5921.647536,-7254.018232,0.000000
1176.313118,6069.688724,-6735.874072,-153.219100
1176.313448,6439.791695,-7105.977043,383.047749
1176.313777,7476.080014,-7846.182985,766.095498
1176.314106,7920.203579,-8068.244768,2145.067394
1176.314436,7994.224174,-7402.059420,2145.067394
1176.314765,7550.100608,-7105.977043,1991.848295
1176.315094,7328.038826,-6661.853478,2374.896044
1176.315423,7846.182985,-6661.853478,3140.991542
1176.315753,8142.265362,-5699.585753,2681.334243
1176.316082,7846.182985,-4663.297435,1915.238745
1176.316411,7179.997637,-4367.215058,1455.581446
1176.316741,6883.915261,-4737.318029,919.314598
1176.317070,6809.894666,-5329.482782,995.924147
1176.317399,5995.668130,-6439.791695,0.000000
1176.317729,5107.421000,-7105.977043,0.000000
1176.318058,5403.503377,-7772.162391,-306.438199
1176.318387,6143.709319,-8660.409521,383.047749
1176.318717,6143.709319,-7920.203579,536.266849
1176.319046,5773.606348,-7846.182985,229.828649
1176.319375,5995.668130,-7624.121203,536.266849
1176.319704,6957.935855,-7994.224174,1072.533697
1176.320034,7624.121203,-7031.956449,2221.676944
1176.320363,7920.203579,-6587.832884,2374.896044
1176.320692,7920.203579,-6069.688724,2451.505594
1176.321022,8438.347739,-5181.441594,2374.896044
1176.321351,7920.203579,-5477.523971,2068.457845
1176.321680,6735.874072,-5255.462188,1072.533697
1176.322010,6735.874072,-5033.400406,612.876398
1176.322339,6439.791695,-5847.626942,0.000000
1176.322668,6513.812290,-6513.812290,76.609550
1176.322998,6735.874072,-6365.771101,689.485948
1176.323327,6291.750507,-7031.956449,0.000000
1176.323656,6217.729913,-7920.203579,153.219100
1176.323985,6217.729913,-7476.080014,-153.219100
1176.324315,6143.709319,-7698.141797,153.219100
1176.324644,6291.750507,-6513.812290,229.828649
1176.324973,6883.915261,-7031.956449,689.485948
1176.325303,7772.162391,-6957.935855,1378.971896
1176.325632,8364.327145,-7105.977043,1532.190996
1176.325961,8586.388927,-7031.956449,2374.896044
1176.326291,8290.306550,-6143.709319,1915.238745
1176.326620,7624.121203,-6439.791695,1762.019645
1176.326949,8068.244768,-5847.626942,2145.067394
1176.327279,7624.121203,-6069.688724,1762.019645
1176.327608,6439.791695,-6069.688724,1072.533697
1176.327937,5847.626942,-5625.565159,0.000000
1176.328266,6069.688724,-6513.812290,-306.438199
1176.328596,6291.750507,-6809.894666,153.219100
1176.328925,6217.729913,-7254.018232,0.000000
1176.329254,5551.544565,-7772.162391,-306.438199
1176.329584,5551.544565,-6661.853478,-306.438199
1176.329913,6143.709319,-7031.956449,229.828649
1176.330242,7105.977043,-6439.791695,1149.143247
1176.330572,7476.080014,-7031.956449,1532.190996
1176.330901,7994.224174,-6513.812290,1225.752797
1176.331230,7920.203579,-6439.791695,2221.676944
1176.331560,8364.327145,-6661.853478,2451.505594
1176.331889,9030.512492,-5847.626942,2681.334243
1176.332218,8216.285956,-5477.523971,2834.553343
1176.332547,7772.162391,-5403.503377,1762.019645
1176.332877,7105.977043,-5403.503377,1302.362347
1176.333206,6069.688724,-5255.462188,612.876398
1176.333535,6365.771101,-5403.503377,-612.876398
1176.333865,6365.771101,-5773.606348,0.000000
1176.334194,6069.688724,-6587.832884,0.000000
1176.334523,5625.565159,-7179.997637,0.000000
1176.334853,5847.626942,-7476.080014,-229.828649
1176.335182,6513.812290,-6883.915261,-306.438199
1176.335511,6587.832884,-7254.018232,306.438199
1176.335841,6587.832884,-7105.977043,1149.143247
1176.336170,6957.935855,-8068.244768,1149.143247
1176.336499,7105.977043,-7254.018232,1838.629195
1176.336828,8216.285956,-7550.100608,2068.457845
1176.337158,8068.244768,-7402.059420,2911.162892
1176.337487,7846.182985,-6291.750507,2604.724693
1176.337816,7920.203579,-6217.729913,2681.334243
1176.338146,8290.306550,-4737.318029,2374.896044
1176.338475,7698.141797,-4737.318029,1532.190996
1176.338804,6957.935855,-5033.400406,1149.143247
1176.339134,6587.832884,-5403.503377,689.485948
1176.339463,5995.668130,-6217.729913,0.000000
1176.339792,5625.565159,-6513.812290,306.438199
1176.340122,5033.400406,-7698.141797,-229.828649
1176.340451,5699.585753,-8290.306550,76.609550
1176.340780,6217.729913,-8068.244768,612.876398
1176.341109,6513.812290,-7402.059420,459.657299
1176.341439,6587.832884,-7328.038826,536.266849
1176.341768,7105.977043,-7328.038826,536.266849
1176.342097,7624.121203,-7254.018232,1608.800546
1176.342427,7920.203579,-6957.935855,2221.676944
1176.342756,8290.306550,-5847.626942,2987.772442
1176.343085,8216.285956,-5699.585753,2374.896044
1176.343415,8068.244768,-6069.688724,2451.505594
1176.343744,7698.141797,-5477.523971,1838.629195
1176.344073,6587.832884,-5033.400406,612.876398
1176.344403,6143.709319,-5329.482782,536.266849
1176.344732,6513.812290,-5551.544565,459.657299
1176.345061,6735.874072,-6513.812290,459.657299
1176.345391,6809.894666,-6217.729913,76.609550
1176.345720,6143.709319,-6661.853478,0.000000
1176.346049,5995.668130,-7105.977043,0.000000
1176.346378,6439.791695,-7105.977043,0.000000
1176.346708,6365.771101,-7105.977043,0.000000
1176.347037,6809.894666,-6217.729913,229.828649
1176.347366,7476.080014,-7328.038826,1378.971896
1176.347696,8216.285956,-7476.080014,1838.629195
1176.348025,8290.306550,-6883.915261,1915.238745
1176.348354,7994.224174,-6513.812290,1838.629195
1176.348684,7698.141797,-6217.729913,2757.943793
1176.349013,7698.141797,-6809.894666,2451.505594
1176.349342,7476.080014,-6513.812290,1762.019645
1176.349672,6587.832884,-5699.585753,919.314598
1176.350001,5995.668130,-5625.565159,306.438199
1176.350330,5773.606348,-5551.544565,919.314598
1176.350659,5995.668130,-6587.832884,76.609550
1176.350989,5921.647536,-7031.956449,-306.438199
1176.351318,5921.647536,-6883.915261,0.000000
1176.351647,6661.853478,-7328.038826,229.828649
1176.351977,6809.894666,-6957.935855,76.609550
1176.352306,6957.935855,-7031.956449,612.876398
1176.352635,7402.059420,-6809.894666,995.924147
1176.352965,7772.162391,-6883.915261,1225.752797
1176.353294,7994.224174,-7105.977043,1991.848295
1176.353623,7920.203579,-6661.853478,2221.676944
1176.353953,8216.285956,-6587.832884,2681.334243
1176.354282,7846.182985,-6365.771101,2451.505594
1176.354611,7624.121203,-5699.585753,2221.676944
1176.354940,7328.038826,-4737.318029,1838.629195
1176.355270,7105.977043,-4737.318029,1149.143247
1176.355599,6735.874072,-5255.462188,766.095498
1176.355928,6513.812290,-5699.585753,306.438199
1176.356258,5921.647536,-6291.750507,0.000000
1176.356587,5625.565159,-7105.977043,-153.219100
1176.356916,5921.647536,-6957.935855,0.000000
1176.357246,6365.771101,-7179.997637,76.609550
1176.357575,6439.791695,-7105.977043,536.266849
1176.357904,6809.894666,-7254.018232,306.438199
1176.358234,6809.894666,-7550.100608,1072.533697
1176.358563,7624.121203,-7402.059420,1378.971896
1176.358892,7698.141797,-7179.997637,1838.629195
1176.359222,8068.244768,-7254.018232,2374.896044
1176.359551,7994.224174,-6883.915261,2757.943793
1176.359880,7994.224174,-5995.668130,2528.115143
1176.360210,7994.224174,-5107.421000,2451.505594
1176.360539,7846.182985,-4441.235652,1762.019645
1176.360869,7328.038826,-5107.421000,1685.410096
1176.361198,6883.915261,-5551.544565,919.314598
1176.361527,6143.709319,-6439.791695,153.219100
1176.361857,5699.585753,-6661.853478,-612.876398
1176.362186,5033.400406,-7402.059420,-383.047749
1176.362516,5625.565159,-8068.244768,153.219100
1176.362845,5773.606348,-7994.224174,0.000000
1176.363174,6069.688724,-8438.347739,536.266849
1176.363504,6143.709319,-8142.265362,153.219100
1176.363833,6883.915261,-7846.182985,536.266849
1176.364163,7105.977043,-7476.080014,1302.362347
1176.364492,7476.080014,-7031.956449,1915.238745
1176.364821,7846.182985,-6661.853478,2451.505594
1176.365151,8290.306550,-6069.688724,2604.724693
1176.365480,8142.265362,-5329.482782,2757.943793
1176.365810,7994.224174,-5329.482782,2145.067394
1176.366139,7254.018232,-5255.462188,1378.971896
1176.366468,6439.791695,-5921.647536,1072.533697
1176.366798,5847.626942,-5551.544565,689.485948
1176.367127,6143.709319,-5403.503377,0.000000
1176.367457,6291.750507,-6069.688724,76.609550
1176.367786,5995.668130,-6957.935855,229.828649
1176.368115,6069.688724,-7624.121203,0.000000
1176.368445,6365.771101,-6291.750507,-306.438199
1176.368774,6143.709319,-6439.791695,-306.438199
1176.369103,6513.812290,-6143.709319,153.219100
1176.369433,7328.038826,-7031.956449,919.314598
1176.369762,8512.368333,-7031.956449,1378.971896
1176.370092,9030.512492,-6291.750507,2604.724693
1176.370421,8512.368333,-6217.729913,2145.067394
1176.370750,8216.285956,-5995.668130,2068.457845
1176.371080,8216.285956,-7031.956449,2374.896044
1176.371409,8068.244768,-6809.894666,2374.896044
1176.371739,7772.162391,-6069.688724,1532.190996
1176.372068,6143.709319,-6069.688724,689.485948
1176.372397,5625.565159,-5921.647536,0.000000
1176.372727,5477.523971,-6957.935855,-459.657299
1176.373056,5551.544565,-7550.100608,0.000000
1176.373386,5329.482782,-7402.059420,-536.266849
1176.373715,5329.482782,-7402.059420,153.219100
1176.374044,5995.668130,-7031.956449,-306.438199
1176.374374,6365.771101,-7105.977043,153.219100
1176.374703,7179.997637,-7031.956449,919.314598
1176.375033,7402.059420,-7179.997637,1149.143247
1176.375362,7476.080014,-6735.874072,1685.410096
1176.375691,8216.285956,-6291.750507,2451.505594
1176.376021,8364.327145,-5921.647536,2757.943793
1176.376350,9030.512492,-6365.771101,2911.162892
1176.376680,8512.368333,-6365.771101,2681.334243
1176.377009,7994.224174,-5625.565159,2221.676944
1176.377338,7254.018232,-4663.297435,1225.752797
1176.377668,6661.853478,-4589.276840,766.095498
1176.377997,5625.565159,-5625.565159,0.000000
1176.378327,5551.544565,-6513.812290,0.000000
1176.378656,5847.626942,-7031.956449,0.000000
1176.378985,5921.647536,-6587.832884,229.828649
1176.379315,6143.709319,-6661.853478,0.000000
1176.379644,6513.812290,-6587.832884,0.000000
1176.379973,6661.853478,-7254.018232,459.657299
1176.380303,6513.812290,-7031.956449,766.095498
1176.380632,7105.977043,-6957.935855,1378.971896
1176.380962,7698.141797,-6957.935855,1532.190996
1176.381291,7994.224174,-7328.038826,2068.457845
1176.381620,8142.265362,-7179.997637,2604.724693
1176.381950,8142.265362,-6365.771101,2451.505594
1176.382279,8142.265362,-6513.812290,2911.162892
1176.382609,7846.182985,-5625.565159,1991.848295
1176.382938,7031.956449,-5329.482782,1149.143247
1176.383267,6365.771101,-6439.791695,919.314598
1176.383597,5773.606348,-5699.585753,0.000000
1176.383926,5403.503377,-6735.874072,0.000000
1176.384256,5477.523971,-7105.977043,-229.828649
1176.384585,5329.482782,-7254.018232,0.000000
1176.384914,5847.626942,-7698.141797,0.000000
1176.385244,6513.812290,-7550.100608,383.047749
1176.385573,6439.791695,-7550.100608,536.266849
1176.385903,6587.832884,-7105.977043,766.095498
1176.386232,7179.997637,-6735.874072,1072.533697
1176.386561,7772.162391,-6143.709319,1608.800546
1176.386891,8438.347739,-6513.812290,2374.896044
1176.387220,8512.368333,-6365.771101,2451.505594
1176.387550,8882.471304,-5403.503377,2451.505594
1176.387879,7920.203579,-6439.791695,2145.067394
1176.388208,7698.141797,-6069.688724,2145.067394
1176.388538,6587.832884,-5921.647536,689.485948
1176.388867,5921.647536,-6217.729913,612.876398
1176.389196,5847.626942,-5403.503377,76.609550
1176.389526,6661.853478,-6513.812290,153.219100
1176.389855,6439.791695,-6143.709319,153.219100
1176.390185,6217.729913,-6439.791695,0.000000
1176.390514,6365.771101,-6735.874072,0.000000
1176.390843,6661.853478,-6069.688724,76.609550
1176.391173,7254.018232,-7031.956449,459.657299
1176.391502,7179.997637,-6217.729913,919.314598
1176.391832,7624.121203,-6587.832884,919.314598
1176.392161,8142.265362,-6957.935855,1838.629195
1176.392490,8438.347739,-7105.977043,2451.505594
1176.392820,7698.141797,-6735.874072,2604.724693
1176.393149,7624.121203,-6587.832884,2221.676944
1176.393479,7698.141797,-7105.977043,2221.676944
1176.393808,7550.100608,-6439.791695,1991.848295
1176.394137,6957.935855,-6439.791695,1838.629195
1176.394467,5921.647536,-6365.771101,536.266849
1176.394796,5551.544565,-6291.750507,0.000000
1176.395126,5551.544565,-7254.018232,0.000000
1176.395455,5625.565159,-7550.100608,0.000000
1176.395784,5625.565159,-7402.059420,-153.219100
1176.396114,5847.626942,-7402.059420,0.000000
1176.396443,6735.874072,-6883.915261,153.219100
1176.396773,6957.935855,-7105.977043,383.047749
1176.397102,7476.080014,-6809.894666,995.924147
1176.397431,7698.141797,-7031.956449,1378.971896
1176.397761,7476.080014,-6957.935855,1915.238745
1176.398090,7920.203579,-5995.668130,2374.896044
1176.398419,8216.285956,-5699.585753,2681.334243
1176.398749,8734.430116,-5477.523971,2834.553343
1176.399078,8142.265362,-5551.544565,2451.505594
1176.399408,7920.203579,-5107.421000,1915.238745
1176.399737,6883.915261,-5033.400406,842.705048
1176.400066,6143.709319,-5403.503377,76.609550
1176.400396,5847.626942,-5699.585753,229.828649
1176.400725,6069.688724,-6217.729913,306.438199
1176.401055,6365.771101,-6809.894666,0.000000
1176.401384,6439.791695,-7179.997637,536.266849
1176.401713,6809.894666,-7254.018232,0.000000
1176.402043,6661.853478,-6587.832884,76.609550
1176.402372,6661.853478,-6735.874072,306.438199
1176.402702,7031.956449,-7179.997637,766.095498
1176.403031,7179.997637,-7402.059420,1149.143247
1176.403360,7698.141797,-7179.997637,2221.676944
1176.403690,7254.018232,-7550.100608,2221.676944
1176.404019,7328.038826,-7105.977043,2068.457845
1176.404349,7772.162391,-6957.935855,2298.286494
1176.404678,7920.203579,-6439.791695,2451.505594
1176.405007,7698.141797,-6143.709319,1762.019645
1176.405337,7328.038826,-5403.503377,1532.190996
1176.405666,7031.956449,-5995.668130,76.609550
1176.405996,6513.812290,-6513.812290,689.485948
1176.406325,5921.647536,-6809.894666,-306.438199
1176.406654,5403.503377,-7179.997637,-459.657299
1176.406984,5477.523971,-7402.059420,-536.266849
1176.407313,6217.729913,-7402.059420,306.438199
1176.407642,6217.729913,-7698.141797,842.705048
1176.407972,6291.750507,-6587.832884,612.876398
1176.408301,6365.771101,-7105.977043,995.924147
1176.408631,6883.915261,-6883.915261,1149.143247
1176.408960,7624.121203,-7105.977043,1991.848295
1176.409289,7698.141797,-6291.750507,1915.238745
1176.409619,8216.285956,-6143.709319,2374.896044
1176.409948,8512.368333,-5551.544565,2145.067394
1176.410278,8512.368333,-6217.729913,1991.848295
1176.410607,7994.224174,-5921.647536,1608.800546
1176.410936,7476.080014,-5699.585753,919.314598
1176.411266,6513.812290,-5477.523971,536.266849
1176.411595,6069.688724,-6069.688724,0.000000
1176.411925,6365.771101,-5847.626942,306.438199
1176.412254,6143.709319,-5847.626942,-306.438199
1176.412583,6439.791695,-6661.853478,229.828649
1176.412913,6143.709319,-7031.956449,459.657299
1176.413242,5699.585753,-6957.935855,76.609550
1176.413572,6069.688724,-6661.853478,229.828649
1176.413901,7031.956449,-7031.956449,995.924147
1176.414230,7920.203579,-7179.997637,1378.971896
1176.414560,8364.327145,-7105.977043,2145.067394
1176.414889,8216.285956,-6513.812290,2145.067394
1176.415219,7698.141797,-6365.771101,1762.019645
1176.415548,7624.121203,-6587.832884,2451.505594
1176.415877,8068.244768,-6587.832884,2451.505594
1176.416207,7698.141797,-6291.750507,2068.457845
1176.416536,6587.832884,-5699.585753,1072.533697
1176.416865,5847.626942,-5995.668130,0.000000
1176.417195,5403.503377,-6809.894666,153.219100
1176.417524,5773.606348,-7105.977043,0.000000
1176.417854,5329.482782,-7105.977043,0.000000
1176.418183,5699.585753,-6883.915261,-383.047749
1176.418512,6217.729913,-6809.894666,0.000000
1176.418842,6143.709319,-7031.956449,459.657299
1176.419171,7105.977043,-7031.956449,919.314598
1176.419501,7402.059420,-6661.853478,1225.752797
1176.419830,7920.203579,-6809.894666,1378.971896
1176.420159,8068.244768,-6883.915261,2145.067394
1176.420489,8364.327145,-7031.956449,2681.334243
1176.420818,8512.368333,-6291.750507,2757.943793
1176.421148,8068.244768,-6217.729913,2451.505594
1176.421477,8586.388927,-5181.441594,2528.115143
1176.421806,7624.121203,-4959.379811,1532.190996
1176.422136,7105.977043,-4885.359217,995.924147
1176.422465,6661.853478,-4885.359217,383.047749
1176.422795,6439.791695,-5551.544565,-229.828649
1176.423124,6143.709319,-6513.812290,0.000000
1176.423453,5921.647536,-6439.791695,0.000000
1176.423783,5847.626942,-6513.812290,0.000000
1176.424112,6069.688724,-7105.977043,-306.438199
1176.424442,6217.729913,-7624.121203,306.438199
1176.424771,6217.729913,-7772.162391,536.266849
1176.425100,6735.874072,-8068.244768,1225.752797
1176.425430,7254.018232,-7550.100608,1455.581446
1176.425759,7179.997637,-7698.141797,1915.238745
1176.426088,7476.080014,-7402.059420,1455.581446
1176.426418,7846.182985,-6439.791695,1608.800546
1176.426747,8290.306550,-5773.606348,2374.896044
1176.427077,8364.327145,-4959.379811,2374.896044
1176.427406,7402.059420,-4367.215058,1838.629195
1176.427735,7031.956449,-5329.482782,1608.800546
1176.428065,6883.915261,-5847.626942,612.876398
1176.428394,5995.668130,-6069.688724,76.609550
1176.428724,5551.544565,-6735.874072,-153.219100
1176.429053,5255.462188,-7476.080014,0.000000
1176.429382,5625.565159,-7920.203579,0.000000
1176.429712,6069.688724,-8068.244768,229.828649
1176.430041,5921.647536,-8364.327145,153.219100
1176.430371,6143.709319,-7994.224174,306.438199
1176.430700,6735.874072,-7994.224174,766.095498
1176.431029,7105.977043,-7402.059420,995.924147
1176.431359,7920.203579,-7328.038826,1915.238745
1176.431688,8364.327145,-6661.853478,2604.724693
1176.432018,8660.409521,-5477.523971,2757.943793
1176.432347,9030.512492,-4959.379811,2374.896044
1176.432676,8290.306550,-4737.318029,2145.067394
1176.433006,7920.203579,-4737.318029,1762.019645
1176.433335,7031.956449,-4959.379811,842.705048
1176.433665,6809.894666,-4367.215058,306.438199
1176.433994,6587.832884,-5329.482782,76.609550
1176.434323,6291.750507,-6143.709319,229.828649
1176.434653,5995.668130,-7254.018232,383.047749
1176.434982,6143.709319,-6957.935855,0.000000
1176.435311,6217.729913,-7105.977043,306.438199
1176.435641,6587.832884,-6217.729913,0.000000
1176.435970,6661.853478,-6365.771101,383.047749
1176.436300,7550.100608,-7476.080014,1378.971896
1176.436629,8808.450710,-7328.038826,1915.238745
1176.436958,7920.203579,-7105.977043,1608.800546
1176.437288,7328.038826,-6809.894666,1608.800546
1176.437617,7328.038826,-7105.977043,1685.410096
1176.437947,7476.080014,-7476.080014,2451.505594
1176.438276,7550.100608,-7105.977043,2221.676944
1176.438605,6217.729913,-6291.750507,1072.533697
1176.438935,5625.565159,-6143.709319,459.657299
1176.439264,5847.626942,-6735.874072,229.828649
1176.439594,5773.606348,-7476.080014,0.000000
1176.439923,5477.523971,-7254.018232,0.000000
1176.440252,5403.503377,-6957.935855,0.000000
1176.440582,5995.668130,-6513.812290,0.000000
1176.440911,6957.935855,-6809.894666,229.828649
1176.441241,6661.853478,-6587.832884,1225.752797
1176.441570,7254.018232,-7105.977043,1225.752797
1176.441899,7698.141797,-7105.977043,995.924147
1176.442229,7920.203579,-6587.832884,1302.362347
1176.442558,8216.285956,-7179.997637,1915.238745
1176.442888,8142.265362,-6587.832884,2374.896044
1176.443217,7846.182985,-6365.771101,2451.505594
1176.443546,7550.100608,-6291.750507,2681.334243
1176.443876,7994.224174,-4959.379811,2145.067394
1176.444205,7698.141797,-4441.235652,1455.581446
1176.444535,6809.894666,-4885.359217,842.705048
1176.444864,6513.812290,-5625.565159,76.609550
1176.445193,6143.709319,-6291.750507,229.828649
1176.445523,5625.565159,-5403.503377,229.828649
1176.445852,6365.771101,-5921.647536,-76.609550
1176.446181,6735.874072,-7031.956449,689.485948
1176.446511,6513.812290,-7698.141797,842.705048
1176.446840,6143.709319,-6883.915261,229.828649
1176.447170,5921.647536,-6735.874072,612.876398
1176.447499,7105.977043,-7698.141797,995.924147
1176.447828,7254.018232,-7846.182985,1991.848295
1176.448158,7772.162391,-8068.244768,2681.334243
1176.448487,7624.121203,-6587.832884,2221.676944
1176.448817,7624.121203,-5847.626942,2145.067394
1176.449146,7772.162391,-5551.544565,1991.848295
1176.449475,7698.141797,-5551.544565,1991.848295
1176.449805,7402.059420,-5551.544565,1685.410096
1176.450134,7031.956449,-5477.523971,995.924147
1176.450464,6291.750507,-5921.647536,0.000000
1176.450793,5477.523971,-6513.812290,-383.047749
1176.451122,5181.441594,-7402.059420,-459.657299
1176.451452,5255.462188,-8142.265362,-612.876398
1176.451781,5255.462188,-7624.121203,76.609550
1176.452111,5847.626942,-8438.347739,306.438199
1176.452440,6217.729913,-8068.244768,536.266849
1176.452769,6809.894666,-7994.224174,1225.752797
1176.453099,7402.059420,-7328.038826,842.705048
1176.453428,7402.059420,-6883.915261,2068.457845
1176.453758,7402.059420,-6883.915261,2451.505594
1176.454087,8290.306550,-6143.709319,2528.115143
1176.454416,8660.409521,-4737.318029,2681.334243
1176.454746,8808.450710,-4737.318029,2145.067394
1176.455075,7846.182985,-4515.256246,2068.457845
1176.455404,7105.977043,-5403.503377,1149.143247
1176.455734,6809.894666,-5329.482782,536.266849
1176.456063,5921.647536,-5699.585753,-229.828649
1176.456393,5995.668130,-6587.832884,0.000000
1176.456722,6143.709319,-7476.080014,76.609550
1176.457051,6365.771101,-7994.224174,153.219100
1176.457381,6513.812290,-7105.977043,76.609550
1176.457710,6661.853478,-6735.874072,383.047749
1176.458040,6735.874072,-6513.812290,459.657299
1176.458369,7698.141797,-7031.956449,919.314598
1176.458698,8364.327145,-6661.853478,1608.800546
1176.459028,7920.203579,-6069.688724,1685.410096
1176.459357,8068.244768,-6957.935855,2145.067394
1176.459687,7772.162391,-6661.853478,2834.553343
1176.460016,8068.244768,-6735.874072,2221.676944
1176.460345,7846.182985,-6883.915261,2145.067394
1176.460675,7254.018232,-6439.791695,1532.190996
1176.461004,6587.832884,-6291.750507,1072.533697
1176.461333,5921.647536,-6143.709319,229.828649
1176.461662,5625.565159,-6809.894666,0.000000
1176.461992,5403.503377,-7698.141797,-306.438199
1176.462321,5255.462188,-7550.100608,229.828649
1176.462650,5625.565159,-7031.956449,-229.828649
1176.462979,6809.894666,-6735.874072,306.438199
1176.463309,6735.874072,-6735.874072,612.876398
1176.463638,7105.977043,-6883.915261,1225.752797
1176.463967,7772.162391,-7105.977043,766.095498
1176.464297,7402.059420,-6513.812290,1072.533697
1176.464626,7772.162391,-6735.874072,1991.848295
1176.464955,8216.285956,-6957.935855,2451.505594
1176.465284,8512.368333,-6439.791695,2757.943793
1176.465614,8660.409521,-6513.812290,2451.505594
1176.465943,8142.265362,-5329.482782,2298.286494
1176.466272,7254.018232,-5329.482782,1149.143247
1176.466601,6069.688724,-5551.544565,383.047749
1176.466931,5773.606348,-5255.462188,-153.219100
1176.467260,5699.585753,-5995.668130,-229.828649
1176.467589,5699.585753,-6143.709319,0.000000
1176.467919,5847.626942,-6735.874072,229.828649
1176.468248,5921.647536,-6217.729913,0.000000
1176.468577,7179.997637,-6883.915261,612.876398
1176.468906,6809.894666,-7476.080014,689.485948
1176.469236,6883.915261,-6735.874072,842.705048
1176.469565,7328.038826,-7698.141797,1149.143247
1176.469894,8216.285956,-7328.038826,1915.238745
1176.470223,8216.285956,-7179.997637,2145.067394
1176.470553,8364.327145,-7105.977043,2451.505594
1176.470882,8438.347739,-6069.688724,2298.286494
1176.471211,7772.162391,-6217.729913,2298.286494
1176.471540,7624.121203,-5477.523971,1838.629195
1176.471870,7476.080014,-5625.565159,1378.971896
1176.472199,6735.874072,-5403.503377,1608.800546
1176.472528,6069.688724,-5699.585753,536.266849
1176.472858,5699.585753,-6143.709319,0.000000
1176.473187,5403.503377,-7254.018232,0.000000
1176.473516,4811.338623,-7772.162391,-229.828649
1176.473845,5773.606348,-8068.244768,153.219100
1176.474175,6217.729913,-8216.285956,459.657299
1176.474504,7105.977043,-7772.162391,153.219100
1176.474833,6513.812290,-7550.100608,919.314598
1176.475162,6735.874072,-7624.121203,995.924147
1176.475492,7254.018232,-7476.080014,1838.629195
1176.475821,7920.203579,-6809.894666,2528.115143
1176.476150,8364.327145,-5847.626942,2145.067394
1176.476479,8290.306550,-5329.482782,2528.115143
1176.476809,8290.306550,-5329.482782,2528.115143
1176.477138,8216.285956,-4811.338623,1762.019645
1176.477467,6365.771101,-4663.297435,1149.143247
1176.477797,6069.688724,-5551.544565,1072.533697
1176.478126,6143.709319,-5773.606348,0.000000
1176.478455,5773.606348,-6291.750507,0.000000
1176.478784,5773.606348,-6587.832884,-459.657299
1176.479114,5847.626942,-6957.935855,842.705048
1176.479443,6883.915261,-7105.977043,766.095498
1176.479772,7031.956449,-6883.915261,229.828649
1176.480101,6661.853478,-5773.606348,306.438199
1176.480431,6957.935855,-6217.729913,612.876398
1176.480760,7476.080014,-7328.038826,766.095498
1176.481089,8142.265362,-6809.894666,1991.848295
1176.481418,8364.327145,-6587.832884,1915.238745
1176.481748,7328.038826,-5995.668130,1455.581446
1176.482077,7476.080014,-6291.750507,1915.238745
1176.482406,7846.182985,-7031.956449,1838.629195
1176.482736,8216.285956,-6661.853478,2068.457845
1176.483065,7254.018232,-6143.709319,1225.752797
1176.483394,5921.647536,-5773.606348,689.485948
1176.483723,5847.626942,-7105.977043,76.609550
1176.484053,5699.585753,-7772.162391,0.000000
1176.484382,5625.565159,-7550.100608,0.000000
1176.484711,5477.523971,-7031.956449,-229.828649
1176.485040,6069.688724,-6883.915261,0.000000
1176.485370,6513.812290,-6957.935855,0.000000
1176.485699,6957.935855,-7328.038826,0.000000
1176.486028,7105.977043,-7105.977043,766.095498
1176.486357,7402.059420,-6883.915261,612.876398
1176.486687,7920.203579,-6439.791695,1762.019645
1176.487016,8364.327145,-6661.853478,2221.676944
1176.487345,8660.409521,-6587.832884,2528.115143
1176.487675,8290.306550,-6217.729913,2528.115143
1176.488004,8290.306550,-5921.647536,2451.505594
1176.488333,7994.224174,-5255.462188,2068.457845
1176.488662,7031.956449,-5329.482782,1532.190996
1176.488992,6513.812290,-5477.523971,459.657299
1176.489321,5921.647536,-5329.482782,-229.828649
1176.489650,5773.606348,-5847.626942,-612.876398
1176.489979,5773.606348,-7105.977043,0.000000
1176.490309,5699.585753,-6513.812290,0.000000
1176.490638,6365.771101,-7105.977043,153.219100
1176.490967,6661.853478,-6661.853478,0.000000
1176.491296,6735.874072,-7105.977043,229.828649
1176.491626,7254.018232,-7402.059420,1302.362347
1176.491955,8068.244768,-7105.977043,1455.581446
1176.492284,7698.141797,-6883.915261,1838.629195
1176.492614,7402.059420,-6217.729913,2221.676944
1176.492943,7179.997637,-6883.915261,2068.457845
1176.493272,7624.121203,-6883.915261,2374.896044
1176.493601,7920.203579,-6143.709319,2451.505594
1176.493931,7476.080014,-5625.565159,1455.581446
1176.494260,7105.977043,-5403.503377,1762.019645
1176.494589,6587.832884,-6069.688724,689.485948
1176.494918,6143.709319,-6439.791695,459.657299
1176.495248,5107.421000,-7105.977043,0.000000
1176.495577,5329.482782,-7031.956449,-383.047749
1176.495906,5403.503377,-7402.059420,-153.219100
1176.496235,5921.647536,-7920.203579,383.047749
1176.496565,6365.771101,-7698.141797,459.657299
1176.496894,6661.853478,-7254.018232,459.657299
1176.497223,7031.956449,-7179.997637,1149.143247
1176.497553,7105.977043,-7105.977043,1455.581446
1176.497882,7254.018232,-7179.997637,1991.848295
1176.498211,7624.121203,-6217.729913,2221.676944
1176.498540,7624.121203,-5773.606348,2451.505594
1176.498870,8364.327145,-6069.688724,2451.505594
1176.499199,8364.327145,-5625.565159,2374.896044
1176.499528,7698.141797,-5255.462188,1762.019645
1176.499857,7105.977043,-5477.523971,766.095498
1176.500187,6957.935855,-5921.647536,689.485948
1176.500516,6513.812290,-6587.832884,306.438199
1176.500845,6143.709319,-6365.771101,153.219100
1176.501174,5847.626942,-6661.853478,-306.438199
1176.501504,6217.729913,-6735.874072,0.000000
1176.501833,6439.791695,-7105.977043,689.485948
1176.502162,6957.935855,-7179.997637,383.047749
1176.502492,6735.874072,-6217.729913,459.657299
1176.502821,7031.956449,-6735.874072,612.876398
1176.503150,7402.059420,-6735.874072,1302.362347
1176.503479,7994.224174,-7031.956449,2221.676944
1176.503809,8734.430116,-6439.791695,2068.457845
1176.504138,7994.224174,-6069.688724,2145.067394
1176.504467,7624.121203,-6735.874072,1838.629195
1176.504796,8216.285956,-5847.626942,1915.238745
1176.505126,7476.080014,-6291.750507,1608.800546
1176.505455,6291.750507,-6587.832884,1149.143247
1176.505784,5773.606348,-5699.585753,306.438199
1176.506113,5477.523971,-6291.750507,-229.828649
1176.506443,5773.606348,-6809.894666,76.609550
1176.506772,6069.688724,-7402.059420,306.438199
1176.507101,6143.709319,-7328.038826,153.219100
1176.507431,6365.771101,-6513.812290,0.000000
1176.507760,6513.812290,-6513.812290,536.266849
1176.508089,7105.977043,-6661.853478,766.095498
1176.508418,7698.141797,-7328.038826,1072.533697
1176.508748,7772.162391,-6883.915261,1378.971896
1176.509077,7698.141797,-6735.874072,1532.190996
1176.509406,8216.285956,-6883.915261,2451.505594
1176.509735,8290.306550,-5699.585753,2834.553343
1176.510065,8068.244768,-6143.709319,2451.505594
1176.510394,8142.265362,-5403.503377,2221.676944
1176.510723,7328.038826,-5181.441594,1838.629195
1176.511052,6661.853478,-5255.462188,1302.362347
1176.511382,6365.771101,-4959.379811,383.047749
1176.511711,5921.647536,-6069.688724,-76.609550
1176.512040,5995.668130,-6957.935855,76.609550
1176.512370,5921.647536,-7105.977043,536.266849
1176.512699,6513.812290,-7031.956449,612.876398
1176.513028,6513.812290,-6513.812290,536.266849
1176.513357,6587.832884,-6661.853478,306.438199
1176.513687,6883.915261,-7105.977043,766.095498
1176.514016,6883.915261,-7402.059420,919.314598
1176.514345,7328.038826,-7550.100608,1302.362347
1176.514674,7328.038826,-6957.935855,1608.800546
1176.515004,7105.977043,-7105.977043,1608.800546
1176.515333,7328.038826,-6365.771101,1915.238745
1176.515662,8068.244768,-6587.832884,2528.115143
1176.515991,7772.162391,-6069.688724,1991.848295
1176.516321,7105.977043,-5107.421000,1532.190996
1176.516650,6587.832884,-5181.441594,766.095498
1176.516979,6365.771101,-5477.523971,842.705048
1176.517309,6291.750507,-6291.750507,459.657299
1176.517638,5773.606348,-6883.915261,0.000000
1176.517967,5329.482782,-7105.977043,153.219100
1176.518296,5847.626942,-7476.080014,76.609550
1176.518626,6587.832884,-7254.018232,459.657299
1176.518955,6291.750507,-7402.059420,766.095498
1176.519284,6291.750507,-7624.121203,536.266849
1176.519613,6291.750507,-7105.977043,689.485948
1176.519943,7105.977043,-7105.977043,1685.410096
1176.520272,7624.121203,-6587.832884,1838.629195
1176.520601,7772.162391,-6217.729913,2221.676944
1176.520930,8068.244768,-6217.729913,2374.896044
1176.521260,8586.388927,-5995.668130,2987.772442
1176.521589,8364.327145,-5625.565159,2681.334243
1176.521918,7920.203579,-4959.379811,1608.800546
1176.522248,7105.977043,-5107.421000,919.314598
1176.522577,6883.915261,-5699.585753,612.876398
1176.522906,6661.853478,-5995.668130,306.438199
1176.523235,6291.750507,-5921.647536,0.000000
1176.523565,5995.668130,-6587.832884,0.000000
1176.523894,6291.750507,-6587.832884,-229.828649
1176.524223,6439.791695,-7328.038826,229.828649
1176.524552,6513.812290,-7105.977043,689.485948
1176.524882,6883.915261,-7105.977043,383.047749
1176.525211,6883.915261,-7698.141797,459.657299
1176.525540,7328.038826,-7254.018232,1455.581446
1176.525869,7846.182985,-7476.080014,2298.286494
1176.526199,8290.306550,-7105.977043,2145.067394
1176.526528,7698.141797,-6809.894666,2451.505594
1176.526857,7772.162391,-6735.874072,1991.848295
1176.527187,7698.141797,-5699.585753,1915.238745
1176.527516,7254.018232,-5995.668130,1302.362347
1176.527845,6661.853478,-5847.626942,995.924147
1176.528174,6143.709319,-5625.565159,229.828649
1176.528504,5921.647536,-6735.874072,-306.438199
1176.528833,6143.709319,-6513.812290,0.000000
1176.529162,5773.606348,-7328.038826,0.000000
1176.529491,5921.647536,-6957.935855,-229.828649
1176.529821,6069.688724,-7105.977043,0.000000
1176.530150,6587.832884,-7328.038826,153.219100
1176.530479,7254.018232,-7105.977043,1302.362347
1176.530808,7105.977043,-7031.956449,995.924147
1176.531138,7328.038826,-6883.915261,1685.410096
1176.531467,7772.162391,-6957.935855,2451.505594
1176.531796,8438.347739,-6661.853478,2451.505594
1176.532126,8586.388927,-5625.565159,2834.553343
1176.532455,7920.203579,-5847.626942,2451.505594
1176.532784,7772.162391,-4663.297435,1991.848295
1176.533113,7550.100608,-4959.379811,1455.581446
1176.533443,7846.182985,-5181.441594,766.095498
1176.533772,6217.729913,-5107.421000,0.000000
1176.534101,5995.668130,-6587.832884,0.000000
1176.534430,5847.626942,-6365.771101,0.000000
1176.534760,6069.688724,-6809.894666,76.609550
1176.535089,6735.874072,-7105.977043,689.485948
1176.535418,6513.812290,-7328.038826,229.828649
1176.535747,6513.812290,-7698.141797,536.266849
1176.536077,6143.709319,-7254.018232,536.266849
1176.536406,7105.977043,-7772.162391,536.266849
1176.536735,7550.100608,-7105.977043,1685.410096
1176.537065,7994.224174,-7254.018232,2298.286494
1176.537394,8438.347739,-6587.832884,2298.286494
1176.537723,8512.368333,-5477.523971,2451.505594
1176.538052,8438.347739,-6291.750507,2681.334243
1176.538382,8068.244768,-4959.379811,1991.848295
1176.538711,7105.977043,-5403.503377,1302.362347
1176.539040,6365.771101,-5773.606348,536.266849
1176.539369,5477.523971,-6365.771101,306.438199
1176.539699,5255.462188,-7031.956449,-153.219100
1176.540028,5033.400406,-7402.059420,-306.438199
1176.540357,5107.421000,-7698.141797,-153.219100
1176.540686,5329.482782,-8142.265362,153.219100
1176.541016,5921.647536,-8068.244768,766.095498
1176.541345,5995.668130,-7920.203579,536.266849
1176.541674,6513.812290,-7179.997637,689.485948
1176.542004,7402.059420,-7105.977043,1455.581446
1176.542333,8438.347739,-6661.853478,2068.457845
1176.542662,8586.388927,-6439.791695,2757.943793
1176.542991,8808.450710,-5995.668130,2604.724693
1176.543321,8660.409521,-5477.523971,2451.505594
1176.543650,8216.285956,-5625.565159,2451.505594
1176.543979,7994.224174,-5995.668130,1455.581446
1176.544308,6513.812290,-5995.668130,612.876398
1176.544638,5773.606348,-5847.626942,229.828649
1176.544967,5625.565159,-5921.647536,76.609550
1176.545296,5477.523971,-6217.729913,0.000000
1176.545625,6217.729913,-6439.791695,76.609550
1176.545955,6143.709319,-6883.915261,153.219100
1176.546284,6217.729913,-7105.977043,306.438199
1176.546613,6809.894666,-6957.935855,383.047749
1176.546943,6809.894666,-6439.791695,306.438199
1176.547272,7476.080014,-6217.729913,995.924147
1176.547601,7846.182985,-6735.874072,1838.629195
1176.547930,8512.368333,-6957.935855,2221.676944
1176.548260,8956.491898,-6661.853478,2298.286494
1176.548589,8660.409521,-6439.791695,2451.505594
1176.548918,7920.203579,-6143.709319,1762.019645
1176.549247,7846.182985,-6587.832884,1685.410096
1176.549577,7328.038826,-6883.915261,1225.752797
1176.549906,6143.709319,-6809.894666,919.314598
1176.550235,5107.421000,-6217.729913,0.000000
1176.550564,5033.400406,-6365.771101,-459.657299
1176.550894,5477.523971,-7254.018232,0.000000
1176.551223,5625.565159,-7550.100608,0.000000
1176.551552,5847.626942,-7105.977043,-536.266849
1176.551882,6069.688724,-6883.915261,0.000000
1176.552211,6587.832884,-6809.894666,153.219100
1176.552540,7254.018232,-7031.956449,995.924147
1176.552869,7698.141797,-6883.915261,1149.143247
1176.553199,8142.265362,-5995.668130,1378.971896
1176.553528,8364.327145,-6513.812290,2068.457845
1176.553857,8956.491898,-6143.709319,2221.676944
1176.554186,8882.471304,-5847.626942,2528.115143
1176.554516,8216.285956,-5773.606348,2451.505594
1176.554845,7846.182985,-5921.647536,2068.457845
1176.555174,7031.956449,-6365.771101,1608.800546
1176.555503,5773.606348,-5625.565159,459.657299
1176.555833,5995.668130,-5255.462188,0.000000
1176.556162,5921.647536,-5699.585753,0.000000
1176.556491,5847.626942,-6513.812290,76.609550
1176.556821,5995.668130,-7031.956449,153.219100
1176.557150,6365.771101,-6365.771101,306.438199
1176.557479,6661.853478,-6587.832884,536.266849
1176.557808,7179.997637,-5995.668130,766.095498
1176.558138,7550.100608,-7031.956449,995.924147
1176.558467,7550.100608,-7772.162391,1072.533697
1176.558796,7402.059420,-7402.059420,1685.410096
1176.559125,7624.121203,-7402.059420,2145.067394
1176.559455,7846.182985,-7254.018232,1838.629195
1176.559784,7476.080014,-7105.977043,2681.334243
1176.560113,7846.182985,-7105.977043,2604.724693
1176.560443,7624.121203,-5847.626942,2145.067394
1176.560772,7105.977043,-5699.585753,1225.752797
1176.561101,5699.585753,-5773.606348,995.924147
1176.561431,5921.647536,-5551.544565,766.095498
1176.561760,5847.626942,-6587.832884,0.000000
1176.562089,5033.400406,-6883.915261,306.438199
1176.562418,5403.503377,-7402.059420,0.000000
1176.562748,5921.647536,-7328.038826,76.609550
1176.563077,6365.771101,-7624.121203,229.828649
1176.563406,6661.853478,-7402.059420,306.438199
1176.563736,7402.059420,-7698.141797,842.705048
1176.564065,7105.977043,-7846.182985,1455.581446
1176.564394,7402.059420,-7254.018232,1608.800546
1176.564724,7624.121203,-6883.915261,1915.238745
1176.565053,7846.182985,-5847.626942,2221.676944
1176.565382,7846.182985,-5329.482782,2451.505594
1176.565712,8364.327145,-5477.523971,3217.601092
1176.566041,7994.224174,-4663.297435,2068.457845
1176.566370,7031.956449,-4737.318029,919.314598
1176.566699,6291.750507,-5403.503377,76.609550
1176.567029,6587.832884,-5995.668130,383.047749
1176.567358,6809.894666,-6439.791695,612.876398
1176.567687,6587.832884,-6143.709319,0.000000
1176.568017,6291.750507,-6809.894666,76.609550
1176.568346,6809.894666,-7328.038826,0.000000
1176.568675,6513.812290,-7402.059420,153.219100
1176.569005,6735.874072,-7476.080014,0.000000
1176.569334,6661.853478,-6809.894666,153.219100
1176.569663,6439.791695,-7105.977043,1149.143247
1176.569993,8068.244768,-7105.977043,1608.800546
1176.570322,7846.182985,-6957.935855,2068.457845
1176.570651,7920.203579,-5995.668130,2374.896044
1176.570980,7846.182985,-5995.668130,2374.896044
1176.571310,8142.265362,-6143.709319,1608.800546
1176.571639,8068.244768,-5699.585753,2298.286494
1176.571968,7105.977043,-5995.668130,1225.752797
1176.572298,6365.771101,-6143.709319,383.047749
1176.572627,5995.668130,-6217.729913,0.000000
1176.572956,6143.709319,-7031.956449,76.609550
1176.573286,6217.729913,-7624.121203,0.000000
1176.573615,5847.626942,-7624.121203,0.000000
1176.573944,5699.585753,-7254.018232,-383.047749
1176.574273,6143.709319,-7105.977043,536.266849
1176.574603,6735.874072,-7179.997637,536.266849
1176.574932,7254.018232,-6587.832884,229.828649
1176.575261,7550.100608,-6735.874072,1149.143247
1176.575591,7920.203579,-6291.750507,1762.019645
1176.575920,8734.430116,-6143.709319,2145.067394
1176.576249,8512.368333,-5921.647536,2528.115143
1176.576579,8586.388927,-5625.565159,2451.505594
1176.576908,8142.265362,-5699.585753,2298.286494
1176.577237,7920.203579,-6143.709319,2451.505594
1176.577567,6883.915261,-6291.750507,1532.190996
1176.577896,6069.688724,-5773.606348,689.485948
1176.578225,5773.606348,-5995.668130,0.000000
1176.578554,5255.462188,-7031.956449,0.000000
1176.578884,5625.565159,-6809.894666,612.876398
1176.579213,5921.647536,-6809.894666,229.828649
1176.579542,5995.668130,-6587.832884,76.609550
1176.579872,6143.709319,-6513.812290,383.047749
1176.580201,6957.935855,-6735.874072,459.657299
1176.580530,7402.059420,-6809.894666,919.314598
1176.580860,7846.182985,-7105.977043,1685.410096
1176.581189,7994.224174,-6587.832884,1762.019645
1176.581518,7920.203579,-7031.956449,2145.067394
1176.581848,8216.285956,-6661.853478,2068.457845
1176.582177,8142.265362,-6883.915261,2604.724693
1176.582506,8142.265362,-6069.688724,2068.457845
1176.582835,7402.059420,-5847.626942,1455.581446
1176.583165,6587.832884,-5921.647536,1149.143247
1176.583494,6143.709319,-6291.750507,995.924147
1176.583823,5847.626942,-6143.709319,0.000000
1176.584153,5477.523971,-6661.853478,-842.705048
1176.584482,5181.441594,-7402.059420,-306.438199
1176.584811,5255.462188,-6957.935855,-536.266849
1176.585141,5847.626942,-7920.203579,536.266849
1176.585470,6439.791695,-7772.162391,306.438199
1176.585799,6661.853478,-7254.018232,919.314598
1176.586129,6661.853478,-7402.059420,612.876398
1176.586458,7476.080014,-6661.853478,1991.848295
1176.586787,8142.265362,-7105.977043,2451.505594
1176.587116,8438.347739,-6513.812290,2528.115143
1176.587446,8586.388927,-5625.565159,2528.115143
1176.587775,8512.368333,-5477.523971,2374.896044
1176.588104,8142.265362,-5847.626942,2145.067394
1176.588434,7105.977043,-5255.462188,1378.971896
1176.588763,6439.791695,-5477.523971,995.924147
1176.589092,6069.688724,-5551.544565,536.266849
1176.589422,5921.647536,-5625.565159,919.314598
1176.589751,6291.750507,-6439.791695,306.438199
1176.590080,5773.606348,-6291.750507,0.000000
1176.590410,5921.647536,-7179.997637,0.000000
1176.590739,6513.812290,-6957.935855,229.828649
1176.591068,6809.894666,-6957.935855,536.266849
1176.591397,7031.956449,-6587.832884,306.438199
1176.591727,7254.018232,-6957.935855,1225.752797
1176.592056,7994.224174,-7402.059420,1378.971896
1176.592385,8438.347739,-6439.791695,2451.505594
1176.592715,8512.368333,-6735.874072,2068.457845
1176.593044,7994.224174,-6069.688724,2068.457845
1176.593373,7846.182985,-6291.750507,2145.067394
1176.593703,7994.224174,-6291.750507,2068.457845
1176.594032,7402.059420,-5773.606348,1838.629195
1176.594361,6661.853478,-5995.668130,1302.362347
1176.594691,5773.606348,-5699.585753,229.828649
1176.595020,5403.503377,-6513.812290,-306.438199
1176.595349,5329.482782,-7031.956449,0.000000
1176.595678,5477.523971,-7254.018232,0.000000
1176.596008,5477.523971,-7179.997637,-153.219100
1176.596337,6143.709319,-6883.915261,0.000000
1176.596666,6587.832884,-7254.018232,536.266849
1176.596996,7105.977043,-7476.080014,1455.581446
1176.597325,7402.059420,-7254.018232,1225.752797
1176.597654,7476.080014,-6809.894666,1762.019645
1176.597984,8068.244768,-6735.874072,1838.629195
1176.598313,8364.327145,-6957.935855,2451.505594
1176.598642,9104.533087,-6291.750507,2681.334243
1176.598972,8290.306550,-5921.647536,2451.505594
1176.599301,7698.141797,-5403.503377,1762.019645
1176.599630,7105.977043,-5181.441594,1302.362347
1176.599959,6809.894666,-5181.441594,1378.971896
1176.600289,6809.894666,-5625.565159,76.609550
1176.600618,5995.668130,-5625.565159,0.000000
1176.600947,5921.647536,-6217.729913,-229.828649
1176.601277,5699.585753,-6809.894666,0.000000
1176.601606,6365.771101,-6735.874072,76.609550
1176.601935,6957.935855,-7254.018232,459.657299
1176.602265,6735.874072,-6661.853478,153.219100
1176.602594,6957.935855,-6957.935855,612.876398
1176.602923,7328.038826,-7402.059420,1149.143247
1176.603253,7772.162391,-7698.141797,1838.629195
1176.603582,7772.162391,-7402.059420,1838.629195
1176.603911,7476.080014,-6883.915261,1915.238745
1176.604240,7105.977043,-6957.935855,1838.629195
1176.604570,8068.244768,-7179.997637,2221.676944
1176.604899,7476.080014,-6217.729913,1455.581446
1176.605228,7031.956449,-5995.668130,1455.581446
1176.605558,6587.832884,-5699.585753,919.314598
1176.605887,6069.688724,-5699.585753,306.438199
1176.606216,5773.606348,-6365.771101,383.047749
1176.606546,5625.565159,-6809.894666,0.000000
1176.606875,5847.626942,-7402.059420,0.000000
1176.607204,5921.647536,-7328.038826,153.219100
1176.607533,6735.874072,-7179.997637,153.219100
1176.607863,6587.832884,-7402.059420,306.438199
1176.608192,6661.853478,-7698.141797,919.314598
1176.608521,7105.977043,-7476.080014,1149.143247
1176.608851,7476.080014,-6883.915261,1915.238745
1176.609180,8290.306550,-6661.853478,2145.067394
1176.609509,8068.244768,-6291.750507,2451.505594
1176.609839,7920.203579,-5995.668130,2451.505594
1176.610168,8142.265362,-5551.544565,2451.505594
1176.610497,7920.203579,-5255.462188,2068.457845
1176.610827,6957.935855,-5255.462188,995.924147
1176.611156,6217.729913,-5773.606348,459.657299
1176.611485,5847.626942,-5773.606348,153.219100
1176.611814,6217.729913,-7105.977043,76.609550
1176.612144,6513.812290,-6143.709319,0.000000
1176.612473,6217.729913,-6735.874072,0.000000
1176.612802,6365.771101,-7031.956449,306.438199
1176.613132,6957.935855,-7105.977043,459.657299
1176.613461,6661.853478,-6143.709319,-229.828649
1176.613790,6587.832884,-6069.688724,766.095498
1176.614120,7328.038826,-7402.059420,1072.533697
1176.614449,7846.182985,-7476.080014,1838.629195
1176.614778,8438.347739,-6809.894666,2451.505594
1176.615108,8290.306550,-5773.606348,2068.457845
1176.615437,7624.121203,-6217.729913,2068.457845
1176.615766,7105.977043,-6365.771101,2374.896044
1176.616095,7624.121203,-6439.791695,1838.629195
1176.616425,7105.977043,-5995.668130,1532.190996
1176.616754,6069.688724,-5921.647536,919.314598
1176.617083,5551.544565,-6217.729913,-306.438199
1176.617413,5033.400406,-7105.977043,-306.438199
1176.617742,5773.606348,-7698.141797,0.000000
1176.618071,5773.606348,-7105.977043,383.047749
1176.618401,6069.688724,-7254.018232,0.000000
1176.618730,6217.729913,-6661.853478,0.000000
1176.619059,6661.853478,-6957.935855,766.095498
1176.619389,7328.038826,-7105.977043,1072.533697
1176.619718,7698.141797,-6809.894666,1149.143247
1176.620047,7772.162391,-6513.812290,1838.629195
1176.620376,8142.265362,-6587.832884,2221.676944
1176.620706,8660.409521,-6291.750507,2451.505594
1176.621035,9030.512492,-6069.688724,2451.505594
1176.621364,8068.244768,-5699.585753,2221.676944
1176.621694,7698.141797,-5551.544565,1685.410096
1176.622023,6735.874072,-5329.482782,995.924147
1176.622352,6365.771101,-5255.462188,229.828649
1176.622682,5995.668130,-5551.544565,306.438199
1176.623011,5921.647536,-6587.832884,306.438199
1176.623340,6143.709319,-6883.915261,153.219100
1176.623670,5995.668130,-6513.812290,229.828649
1176.623999,6439.791695,-6143.709319,383.047749
1176.624328,6365.771101,-6291.750507,995.924147
1176.624657,6735.874072,-6957.935855,153.219100
1176.624987,7031.956449,-7550.100608,995.924147
1176.625316,7402.059420,-7402.059420,1455.581446
1176.625645,7846.182985,-7031.956449,1225.752797
1176.625975,7772.162391,-7550.100608,2068.457845
1176.626304,7550.100608,-7254.018232,2374.896044
1176.626633,7698.141797,-6587.832884,2528.115143
1176.626963,8068.244768,-5921.647536,1915.238745
1176.627292,7179.997637,-5255.462188,2298.286494
1176.627621,6661.853478,-5477.523971,1378.971896
1176.627951,6587.832884,-5773.606348,842.705048
1176.628280,6069.688724,-6365.771101,459.657299
1176.628609,5625.565159,-6513.812290,0.000000
1176.628938,5551.544565,-6883.915261,-229.828649
1176.629268,5403.503377,-7476.080014,-229.828649
1176.629597,5847.626942,-7772.162391,76.609550
1176.629926,6291.750507,-7624.121203,459.657299
1176.630256,7105.977043,-7105.977043,229.828649
1176.630585,6661.853478,-7328.038826,919.314598
1176.630914,7328.038826,-7402.059420,1225.752797
1176.631244,7994.224174,-7105.977043,2068.457845
1176.631573,8068.244768,-6365.771101,2451.505594
1176.631902,8882.471304,-5477.523971,2911.162892
1176.632232,8364.327145,-5921.647536,2374.896044
1176.632561,8142.265362,-5625.565159,2068.457845
1176.632890,7105.977043,-5625.565159,1149.143247
1176.633219,6587.832884,-5107.421000,612.876398
1176.633549,6069.688724,-5921.647536,306.438199
1176.633878,6069.688724,-6883.915261,153.219100
1176.634207,5773.606348,-6513.812290,229.828649
1176.634537,5699.585753,-6809.894666,-229.828649
1176.634866,5921.647536,-6809.894666,612.876398
1176.635195,6661.853478,-6587.832884,306.438199
1176.635525,6957.935855,-6439.791695,153.219100
1176.635854,7328.038826,-5921.647536,689.485948
1176.636183,7772.162391,-6809.894666,612.876398
1176.636512,8216.285956,-7254.018232,1378.971896
1176.636842,8142.265362,-7105.977043,1991.848295
1176.637171,7846.182985,-7105.977043,1838.629195
1176.637500,7920.203579,-6439.791695,2145.067394
1176.637830,8290.306550,-6809.894666,2834.553343
1176.638159,7624.121203,-6365.771101,2068.457845
1176.638488,7105.977043,-6143.709319,1608.800546
1176.638818,6513.812290,-6143.709319,766.095498
1176.639147,6143.709319,-5921.647536,536.266849
1176.639476,5847.626942,-6217.729913,306.438199
1176.639806,5625.565159,-7476.080014,229.828649
1176.640135,5773.606348,-7179.997637,-76.609550
1176.640464,5995.668130,-7105.977043,0.000000
1176.640793,6661.853478,-6587.832884,153.219100
1176.641123,7105.977043,-7105.977043,459.657299
1176.641452,7105.977043,-7179.997637,612.876398
1176.641781,7624.121203,-7031.956449,766.095498
1176.642111,7328.038826,-6957.935855,1455.581446
1176.642440,8142.265362,-7105.977043,2068.457845
1176.642769,8216.285956,-7328.038826,2604.724693
1176.643099,8142.265362,-6735.874072,2681.334243
1176.643428,7698.141797,-5773.606348,2221.676944
1176.643757,7328.038826,-5181.441594,1532.190996
1176.644087,7698.141797,-4737.318029,1455.581446
1176.644416,7179.997637,-4737.318029,842.705048
1176.644745,6735.874072,-4737.318029,383.047749
1176.645074,6365.771101,-5403.503377,229.828649
1176.645404,6069.688724,-5329.482782,153.219100
1176.645733,6217.729913,-6587.832884,536.266849
1176.646062,6439.791695,-6957.935855,229.828649
1176.646392,6513.812290,-6957.935855,306.438199
1176.646721,6439.791695,-7031.956449,459.657299
1176.647050,6735.874072,-6661.853478,1072.533697
1176.647380,6883.915261,-7624.121203,919.314598
1176.647709,7328.038826,-7772.162391,1455.581446
1176.648038,7179.997637,-7698.141797,1915.238745
1176.648368,7624.121203,-7550.100608,2298.286494
1176.648697,7772.162391,-6809.894666,2145.067394
1176.649026,7550.100608,-6661.853478,2451.505594
1176.649355,7920.203579,-5773.606348,2068.457845
1176.649685,7476.080014,-5329.482782,1685.410096
1176.650014,6883.915261,-5403.503377,1378.971896
1176.650343,6661.853478,-5995.668130,306.438199
1176.650673,6217.729913,-6587.832884,0.000000
1176.651002,5551.544565,-7105.977043,-229.828649
1176.651331,5107.421000,-7624.121203,-76.609550
1176.651661,6143.709319,-7994.224174,-536.266849
1176.651990,6291.750507,-7624.121203,76.609550
1176.652319,6439.791695,-7550.100608,229.828649
1176.652649,6365.771101,-7105.977043,459.657299
1176.652978,6735.874072,-7179.997637,1072.533697
1176.653307,7550.100608,-7254.018232,1685.410096
1176.653636,7846.182985,-6957.935855,1991.848295
1176.653966,7698.141797,-6809.894666,2374.896044
1176.654295,8142.265362,-5921.647536,2145.067394
1176.654624,8216.285956,-5403.503377,2911.162892
1176.654954,8068.244768,-5033.400406,2374.896044
1176.655283,7550.100608,-4959.379811,1225.752797
1176.655612,6883.915261,-4885.359217,842.705048
1176.655942,7179.997637,-5107.421000,1072.533697
1176.656271,6735.874072,-4959.379811,306.438199
1176.656600,6291.750507,-5847.626942,0.000000
1176.656930,5921.647536,-6587.832884,153.219100
1176.657259,6143.709319,-6735.874072,306.438199
1176.657588,6291.750507,-6587.832884,306.438199
1176.657917,6661.853478,-6661.853478,612.876398
1176.658247,7105.977043,-6587.832884,842.705048
1176.658576,7402.059420,-6809.894666,1149.143247
1176.658905,7624.121203,-6809.894666,1685.410096
1176.659235,7476.080014,-7031.956449,1685.410096
1176.659564,7920.203579,-6957.935855,1685.410096
1176.659893,7698.141797,-7105.977043,1915.238745
1176.660223,7624.121203,-6661.853478,2221.676944
1176.660552,7328.038826,-5847.626942,1455.581446
1176.660881,7031.956449,-5921.647536,1149.143247
1176.661211,6513.812290,-5921.647536,536.266849
1176.661540,6069.688724,-6291.750507,76.609550
1176.661869,6365.771101,-7105.977043,0.000000
1176.662198,5995.668130,-6957.935855,383.047749
1176.662528,5995.668130,-7105.977043,306.438199
1176.662857,5847.626942,-7328.038826,0.000000
1176.663186,5847.626942,-7031.956449,0.000000
1176.663516,6809.894666,-6883.915261,-153.219100
1176.663845,7031.956449,-7105.977043,0.000000
1176.664174,7105.977043,-6957.935855,919.314598
1176.664503,7624.121203,-7179.997637,1838.629195
1176.664833,8512.368333,-6883.915261,2298.286494
1176.665162,8882.471304,-6143.709319,2987.772442
1176.665491,8290.306550,-6365.771101,2374.896044
1176.665821,8068.244768,-5847.626942,2451.505594
1176.666150,7550.100608,-5921.647536,1915.238745
1176.666479,7328.038826,-5403.503377,1455.581446
1176.666808,6513.812290,-5255.462188,612.876398
1176.667138,6143.709319,-5107.421000,0.000000
1176.667467,6143.709319,-5773.606348,153.219100
1176.667796,6291.750507,-5921.647536,306.438199
1176.668126,5847.626942,-6439.791695,459.657299
1176.668455,6069.688724,-6661.853478,229.828649
1176.668784,6143.709319,-6809.894666,76.609550
1176.669114,6439.791695,-6883.915261,306.438199
1176.669443,6513.812290,-7550.100608,1149.143247
1176.669772,7179.997637,-7772.162391,1378.971896
1176.670101,7476.080014,-7624.121203,1455.581446
1176.670431,7994.224174,-7105.977043,2145.067394
1176.670760,7994.224174,-6735.874072,2298.286494
1176.671089,8438.347739,-6143.709319,2451.505594
1176.671419,8512.368333,-6069.688724,2681.334243
1176.671748,8142.265362,-5551.544565,2221.676944
1176.672077,7105.977043,-4737.318029,1455.581446
1176.672406,6143.709319,-4959.379811,536.266849
1176.672736,6143.709319,-5477.523971,0.000000
1176.673065,5773.606348,-6217.729913,76.609550
1176.673394,5847.626942,-7031.956449,229.828649
1176.673724,5255.462188,-7105.977043,-153.219100
1176.674053,5995.668130,-7550.100608,229.828649
1176.674382,5995.668130,-7994.224174,76.609550
1176.674711,6143.709319,-8068.244768,0.000000
1176.675041,6365.771101,-8438.347739,612.876398
1176.675370,7254.018232,-7920.203579,1149.143247
1176.675699,7550.100608,-7846.182985,1685.410096
1176.676029,7772.162391,-7105.977043,2068.457845
1176.676358,7772.162391,-6513.812290,2451.505594
1176.676687,8438.347739,-5847.626942,2451.505594
1176.677017,8216.285956,-5551.544565,2068.457845
1176.677346,7920.203579,-4663.297435,1762.019645
1176.677675,7105.977043,-4663.297435,1225.752797
1176.678004,6365.771101,-4737.318029,612.876398
1176.678334,6291.750507,-5403.503377,0.000000
1176.678663,6587.832884,-6143.709319,0.000000
1176.678992,6439.791695,-6661.853478,0.000000
1176.679322,6365.771101,-6883.915261,0.000000
1176.679651,6217.729913,-6735.874072,0.000000
1176.679980,6587.832884,-6809.894666,0.000000
1176.680309,7254.018232,-7105.977043,689.485948
1176.680639,7772.162391,-7402.059420,1225.752797
1176.680968,8068.244768,-6809.894666,1302.362347
1176.681297,7994.224174,-6735.874072,1762.019645
1176.681627,7550.100608,-6217.729913,1532.190996
1176.681956,7920.203579,-6735.874072,1762.019645
1176.682285,8290.306550,-6957.935855,2451.505594
1176.682614,8586.388927,-6809.894666,2681.334243
1176.682944,7550.100608,-5995.668130,1532.190996
1176.683273,6513.812290,-5773.606348,306.438199
1176.683602,5699.585753,-6365.771101,229.828649
1176.683932,5921.647536,-7105.977043,0.000000
1176.684261,5625.565159,-7476.080014,0.000000
1176.684590,5181.441594,-7402.059420,229.828649
1176.684920,5255.462188,-7402.059420,76.609550
1176.685249,5625.565159,-7402.059420,0.000000
1176.685578,6069.688724,-7328.038826,459.657299
1176.685907,6957.935855,-7105.977043,842.705048
1176.686237,7550.100608,-6957.935855,1225.752797
1176.686566,7698.141797,-6513.812290,1532.190996
1176.686895,7920.203579,-6513.812290,2068.457845
1176.687225,8068.244768,-6735.874072,2221.676944
1176.687554,8364.327145,-6291.750507,2451.505594
1176.687883,8364.327145,-5551.544565,2528.115143
1176.688212,7920.203579,-5255.462188,2068.457845
1176.688542,7846.182985,-4959.379811,1532.190996
1176.688871,7402.059420,-4737.318029,1378.971896
1176.689200,6957.935855,-4663.297435,76.609550
1176.689530,5921.647536,-5921.647536,153.219100
1176.689859,5477.523971,-6365.771101,306.438199
1176.690188,5551.544565,-6143.709319,0.000000
1176.690517,5921.647536,-6439.791695,0.000000
1176.690847,6513.812290,-7105.977043,919.314598
1176.691176,6735.874072,-7254.018232,536.266849
1176.691505,6661.853478,-7254.018232,995.924147
1176.691835,7105.977043,-7624.121203,919.314598
1176.692164,7624.121203,-7402.059420,1685.410096
1176.692493,8216.285956,-7920.203579,2068.457845
1176.692823,7994.224174,-7179.997637,2145.067394
1176.693152,7476.080014,-6809.894666,2145.067394
1176.693481,7698.141797,-6587.832884,2298.286494
1176.693810,7772.162391,-5773.606348,2451.505594
1176.694140,7105.977043,-5625.565159,1532.190996
1176.694469,6587.832884,-5403.503377,919.314598
1176.694798,6069.688724,-5625.565159,306.438199
1176.695128,5847.626942,-5921.647536,-306.438199
1176.695457,5847.626942,-6809.894666,229.828649
1176.695786,5329.482782,-7476.080014,0.000000
1176.696115,5921.647536,-7328.038826,-383.047749
1176.696445,5995.668130,-7994.224174,0.000000
1176.696774,6291.750507,-7476.080014,0.000000
1176.697103,6587.832884,-7994.224174,306.438199
1176.697433,7105.977043,-7846.182985,919.314598
1176.697762,7550.100608,-7105.977043,1302.362347
1176.698091,7846.182985,-7105.977043,2145.067394
1176.698420,7920.203579,-6217.729913,2604.724693
1176.698750,8364.327145,-6291.750507,2374.896044
1176.699079,7920.203579,-5625.565159,2221.676944
1176.699408,7698.141797,-4959.379811,1762.019645
1176.699738,7031.956449,-5329.482782,1378.971896
1176.700067,6809.894666,-4737.318029,766.095498
1176.700396,6587.832884,-4959.379811,229.828649
1176.700725,6365.771101,-5699.585753,229.828649
1176.701055,6365.771101,-6143.709319,0.000000
1176.701384,5847.626942,-7179.997637,306.438199
1176.701713,6365.771101,-6883.915261,76.609550
1176.702043,6661.853478,-7031.956449,0.000000
1176.702372,6883.915261,-7031.956449,0.000000
1176.702701,6809.894666,-6957.935855,995.924147
1176.703031,7624.121203,-7179.997637,842.705048
1176.703360,8216.285956,-6513.812290,1915.238745
1176.703689,8438.347739,-6513.812290,2298.286494
1176.704018,7772.162391,-6513.812290,2145.067394
1176.704348,7550.100608,-5847.626942,2451.505594
1176.704677,7698.141797,-6217.729913,2145.067394
1176.705006,7624.121203,-5995.668130,2221.676944
1176.705336,7105.977043,-6291.750507,1378.971896
1176.705665,5921.647536,-6217.729913,459.657299
1176.705994,5625.565159,-6069.688724,0.000000
1176.706323,5403.503377,-7476.080014,153.219100
1176.706653,5551.544565,-7920.203579,76.609550
1176.706982,5625.565159,-7920.203579,76.609550
1176.707311,5847.626942,-7402.059420,153.219100
1176.707641,6143.709319,-7031.956449,0.000000
1176.707970,6513.812290,-7550.100608,766.095498
1176.708299,7105.977043,-7328.038826,1072.533697
1176.708628,7179.997637,-7105.977043,1378.971896
1176.708958,7476.080014,-5995.668130,1532.190996
1176.709287,8290.306550,-6513.812290,2221.676944
1176.709616,8660.409521,-6365.771101,2834.553343
1176.709946,8660.409521,-5995.668130,3064.381992
1176.710275,8364.327145,-5329.482782,2145.067394
1176.710604,7476.080014,-4293.194464,1532.190996
1176.710934,7328.038826,-4293.194464,1455.581446
1176.711263,7179.997637,-4737.318029,612.876398
1176.711592,6809.894666,-5625.565159,306.438199
1176.711921,5847.626942,-6365.771101,0.000000
1176.712251,5773.606348,-6587.832884,-383.047749
1176.712580,5477.523971,-6661.853478,76.609550
1176.712909,6069.688724,-7402.059420,153.219100
1176.713239,5995.668130,-7402.059420,153.219100
1176.713568,7179.997637,-6957.935855,995.924147
1176.713897,6957.935855,-7105.977043,689.485948
1176.714226,7402.059420,-7254.018232,995.924147
1176.714556,7994.224174,-7328.038826,1915.238745
1176.714885,8068.244768,-7328.038826,2451.505594
1176.715214,7994.224174,-6513.812290,2451.505594
1176.715544,7772.162391,-6661.853478,2911.162892
1176.715873,8068.244768,-6291.750507,2145.067394
1176.716202,7476.080014,-5477.523971,1532.190996
1176.716531,6957.935855,-5995.668130,766.095498
1176.716861,6661.853478,-5625.565159,1149.143247
1176.717190,6291.750507,-5921.647536,0.000000
1176.717519,5403.503377,-6661.853478,-383.047749
1176.717849,4885.359217,-6957.935855,-459.657299
1176.718178,5255.462188,-7624.121203,-612.876398
1176.718507,5551.544565,-7698.141797,383.047749
1176.718837,6069.688724,-7698.141797,76.609550
1176.719166,6513.812290,-7698.141797,306.438199
1176.719495,7105.977043,-7179.997637,689.485948
1176.719824,7624.121203,-7772.162391,1685.410096
1176.720154,8216.285956,-6957.935855,2298.286494
1176.720483,8512.368333,-6439.791695,2451.505594
1176.720812,8290.306550,-5847.626942,2451.505594
1176.721142,8364.327145,-5847.626942,2451.505594
1176.721471,7994.224174,-5773.606348,2298.286494
1176.721800,7476.080014,-5107.421000,995.924147
1176.722129,6439.791695,-5329.482782,842.705048
1176.722459,5625.565159,-5107.421000,76.609550
1176.722788,6217.729913,-5921.647536,0.000000
1176.723117,5773.606348,-6809.894666,0.000000
1176.723447,5847.626942,-7402.059420,0.000000
1176.723776,5551.544565,-7920.203579,229.828649
1176.724105,6439.791695,-6365.771101,459.657299
1176.724434,6957.935855,-6735.874072,459.657299
1176.724764,7328.038826,-7105.977043,919.314598
1176.725093,7698.141797,-6883.915261,1378.971896
1176.725422,8216.285956,-7031.956449,1149.143247
1176.725752,8290.306550,-6809.894666,2068.457845
1176.726081,8586.388927,-6661.853478,2145.067394
1176.726410,7846.182985,-6809.894666,2374.896044
1176.726740,7476.080014,-7105.977043,2145.067394
1176.727069,7105.977043,-6513.812290,1685.410096
1176.727398,6661.853478,-6217.729913,1225.752797
1176.727727,6217.729913,-6735.874072,919.314598
1176.728057,5551.544565,-6291.750507,459.657299
1176.728386,5625.565159,-6439.791695,0.000000
1176.728715,5551.544565,-6809.894666,0.000000
1176.729045,5921.647536,-7105.977043,76.609550
1176.729374,5625.565159,-6957.935855,229.828649
1176.729703,6513.812290,-6069.688724,306.438199
1176.730032,6809.894666,-6883.915261,842.705048
1176.730362,7105.977043,-6587.832884,1225.752797
1176.730691,7698.141797,-6883.915261,1378.971896
1176.731020,8068.244768,-6661.853478,1608.800546
1176.731350,7994.224174,-6513.812290,2221.676944
1176.731679,8438.347739,-6661.853478,2757.943793
1176.732008,8438.347739,-6439.791695,2681.334243
1176.732337,8290.306550,-6365.771101,2528.115143
1176.732667,7846.182985,-5329.482782,1685.410096
1176.732996,7105.977043,-5033.400406,1378.971896
1176.733325,6809.894666,-4811.338623,919.314598
1176.733655,6365.771101,-5625.565159,536.266849
1176.733984,6365.771101,-6069.688724,-306.438199
1176.734313,5995.668130,-6143.709319,0.000000
1176.734643,6291.750507,-6809.894666,-229.828649
1176.734972,6291.750507,-7328.038826,306.438199
1176.735301,6809.894666,-7624.121203,459.657299
1176.735630,6587.832884,-7105.977043,0.000000
1176.735960,6513.812290,-7105.977043,612.876398
1176.736289,6735.874072,-8068.244768,612.876398
1176.736618,7402.059420,-7994.224174,1378.971896
1176.736948,7698.141797,-8438.347739,2221.676944
1176.737277,7846.182985,-6883.915261,2068.457845
1176.737606,7772.162391,-6365.771101,2298.286494
1176.737935,7402.059420,-6513.812290,2221.676944
1176.738265,7920.203579,-5699.585753,2068.457845
1176.738594,7698.141797,-4959.379811,1378.971896
1176.738923,6735.874072,-4737.318029,842.705048
1176.739253,5477.523971,-5255.462188,689.485948
1176.739582,6069.688724,-6069.688724,153.219100
1176.739911,5477.523971,-6809.894666,0.000000
1176.740240,5699.585753,-7402.059420,0.000000
1176.740570,6217.729913,-7476.080014,76.609550
1176.740899,6291.750507,-8438.347739,612.876398
1176.741228,6439.791695,-8068.244768,459.657299
1176.741558,6365.771101,-7402.059420,383.047749
1176.741887,6735.874072,-7105.977043,229.828649
1176.742216,7254.018232,-7550.100608,1532.190996
1176.742546,7772.162391,-7254.018232,2145.067394
1176.742875,8216.285956,-6513.812290,2528.115143
1176.743204,8068.244768,-5255.462188,2451.505594
1176.743533,8216.285956,-5403.503377,2528.115143
1176.743863,7772.162391,-4811.338623,2068.457845
1176.744192,6957.935855,-5403.503377,1302.362347
1176.744521,6217.729913,-5255.462188,306.438199
1176.744851,6069.688724,-5477.523971,0.000000
1176.745180,6291.750507,-6735.874072,459.657299
1176.745509,6069.688724,-6735.874072,229.828649
1176.745838,6069.688724,-7402.059420,459.657299
1176.746168,6439.791695,-7031.956449,536.266849
1176.746497,6809.894666,-6661.853478,0.000000
1176.746826,7105.977043,-6661.853478,612.876398
1176.747156,7105.977043,-6439.791695,612.876398
1176.747485,7846.182985,-7031.956449,1149.143247
1176.747814,8216.285956,-6587.832884,2298.286494
1176.748143,7402.059420,-6291.750507,2451.505594
1176.748473,7624.121203,-6661.853478,1608.800546
1176.748802,7772.162391,-6513.812290,1915.238745
1176.749131,7846.182985,-7031.956449,2221.676944
1176.749461,7698.141797,-6587.832884,2068.457845
1176.749790,7031.956449,-5477.523971,1072.533697
1176.750119,6217.729913,-6069.688724,383.047749
1176.750449,6069.688724,-6217.729913,229.828649
1176.750778,5921.647536,-7402.059420,153.219100
1176.751107,5477.523971,-7624.121203,153.219100
1176.751436,5773.606348,-7328.038826,0.000000
1176.751766,5921.647536,-7105.977043,-76.609550
1176.752095,6587.832884,-6735.874072,0.000000
1176.752424,6661.853478,-7105.977043,306.438199
1176.752754,7328.038826,-6957.935855,536.266849
1176.753083,7550.100608,-6513.812290,842.705048
1176.753412,7624.121203,-6513.812290,1532.190996
1176.753741,8290.306550,-6439.791695,2451.505594
1176.754071,8808.450710,-6439.791695,2834.553343
1176.754400,8586.388927,-6365.771101,2374.896044
1176.754729,7994.224174,-6217.729913,2221.676944
1176.755059,7624.121203,-5625.565159,2068.457845
1176.755388,7179.997637,-5329.482782,1455.581446
1176.755717,6809.894666,-5329.482782,766.095498
1176.756046,6513.812290,-5329.482782,536.266849
1176.756376,5995.668130,-5847.626942,383.047749
1176.756705,5773.606348,-6513.812290,0.000000
1176.757034,5847.626942,-6439.791695,-306.438199
1176.757364,6217.729913,-6661.853478,0.000000
1176.757693,6365.771101,-6809.894666,76.609550
1176.758022,6365.771101,-7105.977043,689.485948
1176.758352,7031.956449,-7105.977043,766.095498
1176.758681,7476.080014,-7550.100608,1685.410096
1176.759010,7476.080014,-7105.977043,1838.629195
1176.759339,7772.162391,-7698.141797,2451.505594
1176.759669,8068.244768,-7105.977043,2374.896044
1176.759998,7920.203579,-7031.956449,2451.505594
1176.760327,8734.430116,-6291.750507,2374.896044
1176.760657,7846.182985,-5477.523971,1838.629195
1176.760986,7105.977043,-5033.400406,1225.752797
1176.761315,6587.832884,-4885.359217,919.314598
1176.761644,5921.647536,-5329.482782,0.000000
1176.761974,5551.544565,-6069.688724,-229.828649
1176.762303,5477.523971,-7402.059420,-612.876398
1176.762632,5477.523971,-7476.080014,-229.828649
1176.762962,5625.565159,-7920.203579,0.000000
1176.763291,5181.441594,-7476.080014,-459.657299
1176.763620,5847.626942,-7402.059420,0.000000
1176.763949,6735.874072,-7920.203579,842.705048
1176.764278,7550.100608,-7550.100608,1455.581446
1176.764607,7994.224174,-7624.121203,1762.019645
1176.764937,7846.182985,-6957.935855,2451.505594
1176.765266,7550.100608,-6217.729913,2451.505594
1176.765595,8438.347739,-6291.750507,2451.505594
1176.765924,8142.265362,-5477.523971,2834.553343
1176.766253,7624.121203,-4737.318029,1608.800546
1176.766582,6883.915261,-4589.276840,1149.143247
1176.766911,6661.853478,-4959.379811,612.876398
1176.767241,6513.812290,-5329.482782,229.828649
1176.767570,6217.729913,-6069.688724,153.219100
1176.767899,5551.544565,-6143.709319,383.047749
1176.768228,5847.626942,-7031.956449,76.609550
1176.768557,5921.647536,-7105.977043,0.000000
1176.768886,6513.812290,-7105.977043,0.000000
1176.769215,6957.935855,-6513.812290,76.609550
1176.769545,7328.038826,-6661.853478,689.485948
1176.769874,7772.162391,-7179.997637,1225.752797
1176.770203,8068.244768,-7105.977043,2374.896044
1176.770532,7994.224174,-6587.832884,2221.676944
1176.770861,7624.121203,-6143.709319,2068.457845
1176.771190,7402.059420,-6365.771101,1762.019645
1176.771519,7624.121203,-6291.750507,1838.629195
1176.771849,7698.141797,-5995.668130,842.705048
1176.772178,6661.853478,-5551.544565,612.876398
1176.772507,5995.668130,-5847.626942,153.219100
1176.772836,5329.482782,-6735.874072,-612.876398
1176.773165,5551.544565,-7328.038826,0.000000
1176.773494,5699.585753,-8068.244768,0.000000
1176.773824,5329.482782,-7698.141797,0.000000
1176.774153,5477.523971,-7105.977043,0.000000
1176.774482,5773.606348,-7698.141797,229.828649
1176.774811,7031.956449,-7031.956449,1149.143247
1176.775140,7179.997637,-7402.059420,612.876398
1176.775469,7550.100608,-6513.812290,1991.848295
1176.775798,8290.306550,-6513.812290,1838.629195
1176.776128,8142.265362,-6883.915261,2604.724693
1176.776457,8364.327145,-6143.709319,2987.772442
1176.776786,8364.327145,-5551.544565,2528.115143
1176.777115,7994.224174,-4811.338623,2374.896044
1176.777444,7698.141797,-4885.359217,1455.581446
1176.777773,7550.100608,-4293.194464,1072.533697
1176.778102,7105.977043,-4663.297435,536.266849
1176.778432,6513.812290,-5477.523971,383.047749
1176.778761,6291.750507,-6217.729913,383.047749
1176.779090,5847.626942,-6661.853478,-229.828649
1176.779419,5921.647536,-7105.977043,76.609550
1176.779748,6365.771101,-7328.038826,919.314598
1176.780077,6735.874072,-7402.059420,536.266849
1176.780406,6735.874072,-7476.080014,842.705048
1176.780736,7105.977043,-7920.203579,1072.533697
1176.781065,7624.121203,-7402.059420,1532.190996
1176.781394,7550.100608,-7624.121203,1991.848295
1176.781723,7772.162391,-7624.121203,1915.238745
1176.782052,7846.182985,-6735.874072,2298.286494
1176.782381,8068.244768,-6513.812290,2451.505594
1176.782710,8290.306550,-5255.462188,2298.286494
1176.783040,7550.100608,-4663.297435,1991.848295
1176.783369,6661.853478,-5181.441594,766.095498
1176.783698,5847.626942,-5255.462188,153.219100
1176.784027,5699.585753,-6069.688724,0.000000
1176.784356,5847.626942,-6883.915261,76.609550
1176.784685,5403.503377,-7402.059420,0.000000
1176.785014,5329.482782,-8068.244768,0.000000
1176.785344,5699.585753,-8216.285956,0.000000
1176.785673,6069.688724,-8290.306550,383.047749
1176.786002,6365.771101,-7920.203579,689.485948
1176.786331,6809.894666,-7179.997637,919.314598
1176.786660,7624.121203,-7402.059420,1302.362347
1176.786989,7994.224174,-6957.935855,2068.457845
1176.787318,8142.265362,-6587.832884,2451.505594
1176.787648,8364.327145,-5181.441594,2451.505594
1176.787977,8512.368333,-5847.626942,2604.724693
1176.788306,7920.203579,-5107.421000,1915.238745
1176.788635,7105.977043,-4737.318029,1532.190996
1176.788964,6513.812290,-4737.318029,612.876398
1176.789293,6513.812290,-4515.256246,995.924147
1176.789622,6291.750507,-6291.750507,153.219100
1176.789952,5773.606348,-6735.874072,76.609550
1176.790281,5551.544565,-7105.977043,0.000000
1176.790610,5921.647536,-7254.018232,0.000000
1176.790939,6439.791695,-7179.997637,306.438199
1176.791268,7031.956449,-7105.977043,0.000000
1176.791597,7105.977043,-6735.874072,766.095498
1176.791926,7698.141797,-6661.853478,766.095498
1176.792256,8364.327145,-6957.935855,1762.019645
1176.792585,8660.409521,-6883.915261,1991.848295
1176.792914,8142.265362,-6513.812290,2221.676944
1176.793243,7550.100608,-6439.791695,2298.286494
1176.793572,7698.141797,-6439.791695,2068.457845
1176.793901,7698.141797,-6069.688724,1608.800546
1176.794230,7031.956449,-6291.750507,1149.143247
1176.794560,6291.750507,-6217.729913,76.609550
1176.794889,5699.585753,-6143.709319,-459.657299
1176.795218,6143.709319,-6957.935855,-383.047749
1176.795547,5699.585753,-7920.203579,0.000000
1176.795876,5403.503377,-7846.182985,153.219100
1176.796205,5329.482782,-7624.121203,-306.438199
1176.796534,5847.626942,-7476.080014,0.000000
1176.796864,6957.935855,-7920.203579,612.876398
1176.797193,7179.997637,-7179.997637,1072.533697
1176.797522,7476.080014,-6365.771101,1378.971896
1176.797851,7772.162391,-5847.626942,1838.629195
1176.798180,8660.409521,-5847.626942,2528.115143
1176.798509,8882.471304,-5995.668130,2757.943793
1176.798838,8808.450710,-5921.647536,2757.943793
1176.799168,7772.162391,-5403.503377,1915.238745
1176.799497,7402.059420,-5403.503377,1455.581446
1176.799826,6957.935855,-5847.626942,1455.581446
1176.800155,6513.812290,-6217.729913,766.095498
1176.800484,6143.709319,-5773.606348,229.828649
1176.800813,5625.565159,-5995.668130,153.219100
1176.801142,5699.585753,-6365.771101,229.828649
1176.801472,6291.750507,-7105.977043,0.000000
1176.801801,5847.626942,-6957.935855,76.609550
1176.802130,6439.791695,-6957.935855,229.828649
1176.802459,6735.874072,-6587.832884,383.047749
1176.802788,7105.977043,-6735.874072,1762.019645
1176.803117,7772.162391,-7402.059420,1608.800546
1176.803446,8142.265362,-7105.977043,1685.410096
1176.803776,7994.224174,-7994.224174,2374.896044
1176.804105,7846.182985,-6661.853478,2298.286494
1176.804434,8364.327145,-6513.812290,3064.381992
1176.804763,8216.285956,-5921.647536,2221.676944
1176.805092,7846.182985,-5329.482782,1838.629195
1176.805421,6957.935855,-5625.565159,1455.581446
1176.805751,7031.956449,-5403.503377,536.266849
1176.806080,6735.874072,-6069.688724,383.047749
1176.806409,5625.565159,-5921.647536,0.000000
1176.806738,4885.359217,-6661.853478,-383.047749
1176.807067,5107.421000,-7476.080014,-153.219100
1176.807396,5847.626942,-7179.997637,76.609550
1176.807725,6661.853478,-7846.182985,306.438199
1176.808055,6809.894666,-7476.080014,459.657299
1176.808384,6883.915261,-8068.244768,766.095498
1176.808713,7476.080014,-7920.203579,1378.971896
1176.809042,7846.182985,-7698.141797,2068.457845
1176.809371,7920.203579,-7624.121203,2298.286494
1176.809700,7920.203579,-6291.750507,2451.505594
1176.810029,7994.224174,-5773.606348,2298.286494
1176.810359,8068.244768,-5255.462188,2374.896044
1176.810688,7550.100608,-4441.235652,1608.800546
1176.811017,7179.997637,-5033.400406,1072.533697
1176.811346,6735.874072,-4959.379811,689.485948
1176.811675,6365.771101,-5625.565159,383.047749
1176.812004,6069.688724,-5551.544565,0.000000
1176.812333,5625.565159,-6883.915261,-229.828649
1176.812663,5773.606348,-7476.080014,76.609550
1176.812992,6661.853478,-7254.018232,229.828649
1176.813321,7031.956449,-6587.832884,153.219100
1176.813650,6661.853478,-6069.688724,229.828649
1176.813979,7476.080014,-6957.935855,689.485948
1176.814308,8586.388927,-6735.874072,1838.629195
1176.814637,8882.471304,-6661.853478,2757.943793
1176.814967,8438.347739,-6365.771101,2451.505594
1176.815296,7624.121203,-6069.688724,2374.896044
1176.815625,7105.977043,-6735.874072,1762.019645
1176.815954,7105.977043,-6883.915261,1991.848295
1176.816283,7105.977043,-6883.915261,1378.971896
1176.816612,6513.812290,-6365.771101,995.924147
1176.816941,5773.606348,-6217.729913,306.438199
1176.817271,5403.503377,-6883.915261,-306.438199
1176.817600,5329.482782,-7846.182985,0.000000
1176.817929,5329.482782,-8142.265362,-306.438199
1176.818258,5329.482782,-7402.059420,-229.828649
1176.818587,5921.647536,-7031.956449,0.000000
1176.818916,6661.853478,-7105.977043,536.266849
1176.819245,7254.018232,-6735.874072,919.314598
1176.819575,8068.244768,-6365.771101,995.924147
1176.819904,8142.265362,-5847.626942,1225.752797
1176.820233,8142.265362,-5625.565159,2145.067394
1176.820562,8956.491898,-5773.606348,2451.505594
1176.820891,9030.512492,-5625.565159,2987.772442
1176.821220,8586.388927,-6069.688724,2145.067394
1176.821549,7698.141797,-5551.544565,2145.067394
1176.821879,7105.977043,-5625.565159,1072.533697
1176.822208,6957.935855,-5773.606348,995.924147
1176.822537,6439.791695,-5699.585753,689.485948
1176.822866,6069.688724,-6439.791695,383.047749
1176.823195,5921.647536,-6439.791695,459.657299
1176.823524,6143.709319,-6587.832884,383.047749
1176.823853,6513.812290,-6291.750507,153.219100
1176.824183,6143.709319,-6217.729913,76.609550
1176.824512,6217.729913,-6957.935855,229.828649
1176.824841,6513.812290,-7031.956449,459.657299
1176.825170,7254.018232,-7624.121203,1455.581446
1176.825499,8216.285956,-7698.141797,2068.457845
1176.825828,7476.080014,-7105.977043,2221.676944
1176.826157,7550.100608,-7624.121203,1991.848295
1176.826487,7846.182985,-7105.977043,2221.676944
1176.826816,7920.203579,-7105.977043,2298.286494
1176.827145,8142.265362,-5773.606348,1915.238745
1176.827474,7550.100608,-5477.523971,1762.019645
1176.827803,6809.894666,-5699.585753,1608.800546
1176.828132,5551.544565,-5329.482782,459.657299
1176.828461,5551.544565,-5921.647536,153.219100
1176.828791,5921.647536,-6291.750507,153.219100
1176.829120,5403.503377,-6957.935855,0.000000
1176.829449,5477.523971,-7328.038826,0.000000
1176.829778,5847.626942,-7179.997637,0.000000
1176.830107,6513.812290,-7179.997637,0.000000
1176.830436,6735.874072,-7698.141797,919.314598
1176.830765,7179.997637,-8068.244768,1225.752797
1176.831095,7772.162391,-7920.203579,1608.800546
1176.831424,8290.306550,-7402.059420,2451.505594
1176.831753,8142.265362,-7402.059420,2374.896044
1176.832082,8216.285956,-6143.709319,2451.505594
1176.832411,8216.285956,-6365.771101,2451.505594
1176.832740,7550.100608,-5329.482782,2068.457845
1176.833069,7254.018232,-5033.400406,842.705048
1176.833399,6217.729913,-5181.441594,612.876398
1176.833728,6143.709319,-4737.318029,153.219100
1176.834057,6365.771101,-5921.647536,153.219100
1176.834386,6513.812290,-6143.709319,76.609550
1176.834715,6587.832884,-6587.832884,0.000000
1176.835044,6661.853478,-6661.853478,0.000000
1176.835373,6735.874072,-6661.853478,76.609550
1176.835703,6809.894666,-7105.977043,0.000000
1176.836032,7179.997637,-6735.874072,612.876398
1176.836361,7624.121203,-7105.977043,1225.752797
1176.836690,8216.285956,-7031.956449,1991.848295
1176.837019,8364.327145,-6883.915261,2298.286494
1176.837348,7550.100608,-6587.832884,2145.067394
1176.837677,7254.018232,-5995.668130,2451.505594
1176.838007,7254.018232,-6513.812290,2374.896044
1176.838336,7846.182985,-5995.668130,1991.848295
1176.838665,6957.935855,-5921.647536,1225.752797
1176.838994,5847.626942,-5921.647536,536.266849
1176.839323,5773.606348,-5699.585753,-306.438199
1176.839652,5699.585753,-7105.977043,0.000000
1176.839982,5995.668130,-7698.141797,0.000000
1176.840311,5477.523971,-7994.224174,0.000000
1176.840640,5921.647536,-7476.080014,76.609550
1176.840969,6513.812290,-7105.977043,0.000000
1176.841298,7105.977043,-7402.059420,689.485948
1176.841627,7328.038826,-7254.018232,1608.800546
1176.841956,7698.141797,-6883.915261,1225.752797
1176.842286,7772.162391,-5995.668130,1532.190996
1176.842615,7624.121203,-6513.812290,1915.238745
1176.842944,7994.224174,-6365.771101,2451.505594
1176.843273,8142.265362,-6661.853478,2604.724693
1176.843602,8512.368333,-5921.647536,1762.019645
1176.843931,7846.182985,-5181.441594,1762.019645
1176.844260,7550.100608,-5329.482782,1072.533697
1176.844590,6587.832884,-5847.626942,229.828649
1176.844919,6069.688724,-6661.853478,-229.828649
1176.845248,5551.544565,-7105.977043,-612.876398
1176.845577,5625.565159,-7105.977043,-383.047749
1176.845906,5847.626942,-7179.997637,0.000000
1176.846235,6291.750507,-7179.997637,306.438199
1176.846564,6587.832884,-7105.977043,229.828649
1176.846894,6439.791695,-6513.812290,306.438199
1176.847223,7105.977043,-6439.791695,919.314598
1176.847552,7920.203579,-6735.874072,1302.362347
1176.847881,8512.368333,-6587.832884,2145.067394
1176.848210,8290.306550,-6143.709319,2604.724693
1176.848539,8290.306550,-6217.729913,2298.286494
1176.848868,8290.306550,-5847.626942,2528.115143
1176.849198,8808.450710,-6069.688724,2528.115143
1176.849527,8364.327145,-5181.441594,1991.848295
1176.849856,7179.997637,-5181.441594,1455.581446
1176.850185,5699.585753,-5477.523971,229.828649
1176.850514,5625.565159,-6069.688724,76.609550
1176.850843,5699.585753,-6883.915261,0.000000
1176.851172,5255.462188,-6661.853478,-383.047749
1176.851502,4737.318029,-7550.100608,-306.438199
1176.851831,5551.544565,-7254.018232,0.000000
1176.852160,6513.812290,-7624.121203,612.876398
1176.852489,6809.894666,-7920.203579,689.485948
1176.852818,6809.894666,-7105.977043,1225.752797
1176.853147,7105.977043,-7328.038826,995.924147
1176.853476,7550.100608,-7179.997637,1762.019645
1176.853806,7994.224174,-6883.915261,3064.381992
1176.854135,8068.244768,-7402.059420,2528.115143
1176.854464,8364.327145,-5995.668130,2834.553343
1176.854793,8068.244768,-6365.771101,2145.067394
1176.855122,7402.059420,-5699.585753,1532.190996
1176.855451,6587.832884,-5847.626942,1225.752797
1176.855780,5551.544565,-6069.688724,919.314598
1176.856110,5255.462188,-5995.668130,229.828649
1176.856439,5773.606348,-6069.688724,153.219100
1176.856768,6069.688724,-5847.626942,306.438199
1176.857097,6217.729913,-6365.771101,612.876398
1176.857426,6661.853478,-6513.812290,1072.533697
1176.857755,7254.018232,-5995.668130,612.876398
1176.858084,7179.997637,-5403.503377,459.657299
1176.858414,7846.182985,-6291.750507,1455.581446
1176.858743,8586.388927,-6883.915261,1991.848295
1176.859072,8142.265362,-6735.874072,1915.238745
1176.859401,7402.059420,-6883.915261,1838.629195
1176.859730,7105.977043,-6883.915261,1762.019645
1176.860059,7328.038826,-7550.100608,1838.629195
1176.860388,7328.038826,-7476.080014,1838.629195
1176.860718,6735.874072,-6957.935855,1455.581446
1176.861047,5995.668130,-6513.812290,536.266849
1176.861376,5847.626942,-6439.791695,229.828649
1176.861705,5477.523971,-7105.977043,76.609550
1176.862034,6291.750507,-7105.977043,306.438199
1176.862363,5773.606348,-7031.956449,0.000000
1176.862692,6217.729913,-6513.812290,-76.609550
1176.863021,6735.874072,-6587.832884,306.438199
1176.863350,7328.038826,-6069.688724,995.924147
1176.863679,7476.080014,-6291.750507,459.657299
1176.864009,7624.121203,-6291.750507,766.095498
1176.864338,7994.224174,-6587.832884,1072.533697
1176.864667,7920.203579,-7105.977043,1991.848295
1176.864996,8142.265362,-6661.853478,3140.991542
1176.865325,8142.265362,-5921.647536,2451.505594
1176.865654,7846.182985,-5995.668130,2451.505594
1176.865983,7846.182985,-5403.503377,2298.286494
1176.866312,7772.162391,-5551.544565,1608.800546
1176.866641,7105.977043,-4959.379811,995.924147
1176.866970,6365.771101,-5625.565159,536.266849
1176.867299,6291.750507,-6143.709319,0.000000
1176.867628,5921.647536,-6439.791695,153.219100
1176.867957,5847.626942,-6365.771101,0.000000
1176.868286,6439.791695,-7105.977043,229.828649
1176.868615,6735.874072,-7254.018232,229.828649
1176.868944,6809.894666,-7624.121203,689.485948
1176.869273,6513.812290,-7179.997637,536.266849
1176.869602,7031.956449,-7550.100608,919.314598
1176.869932,7031.956449,-7476.080014,1149.143247
1176.870261,7105.977043,-7402.059420,1915.238745
1176.870590,7105.977043,-7105.977043,1991.848295
1176.870919,7846.182985,-5033.400406,2145.067394
1176.871248,7846.182985,-5847.626942,2221.676944
1176.871577,8142.265362,-5329.482782,2374.896044
1176.871906,7846.182985,-5329.482782,2068.457845
1176.872235,7328.038826,-5625.565159,1532.190996
1176.872564,7031.956449,-5625.565159,689.485948
1176.872893,5921.647536,-6291.750507,0.000000
1176.873222,5329.482782,-7328.038826,0.000000
1176.873551,5181.441594,-8068.244768,-229.828649
1176.873880,5847.626942,-7624.121203,459.657299
1176.874209,6365.771101,-8068.244768,153.219100
1176.874538,6291.750507,-8216.285956,0.000000
1176.874867,6439.791695,-7846.182985,383.047749
1176.875196,6661.853478,-7772.162391,995.924147
1176.875525,7254.018232,-7031.956449,1915.238745
1176.875855,7328.038826,-6735.874072,1991.848295
1176.876184,7624.121203,-6661.853478,2145.067394
1176.876513,7994.224174,-5625.565159,2298.286494
1176.876842,8142.265362,-5773.606348,2451.505594
1176.877171,7920.203579,-4737.318029,2451.505594
1176.877500,7624.121203,-4885.359217,1608.800546
1176.877829,6735.874072,-5921.647536,766.095498
1176.878158,6587.832884,-5107.421000,536.266849
1176.878487,6365.771101,-5699.585753,-306.438199
1176.878816,5995.668130,-6661.853478,0.000000
1176.879145,5773.606348,-6957.935855,76.609550
1176.879474,5995.668130,-6809.894666,229.828649
1176.879803,6735.874072,-6587.832884,-153.219100
1176.880132,7254.018232,-6291.750507,153.219100
1176.880461,6957.935855,-6883.915261,766.095498
1176.880790,7105.977043,-7254.018232,995.924147
1176.881119,7624.121203,-6587.832884,1685.410096
1176.881448,8068.244768,-6291.750507,1455.581446
1176.881778,7179.997637,-6587.832884,1685.410096
1176.882107,7920.203579,-6809.894666,2068.457845
1176.882436,7698.141797,-6735.874072,2221.676944
1176.882765,7772.162391,-6365.771101,1991.848295
1176.883094,7105.977043,-6069.688724,1762.019645
1176.883423,6439.791695,-6217.729913,536.266849
1176.883752,5625.565159,-7105.977043,0.000000
1176.884081,5329.482782,-7550.100608,-306.438199
1176.884410,5255.462188,-7402.059420,-383.047749
1176.884739,5255.462188,-7105.977043,0.000000
1176.885068,5847.626942,-7179.997637,0.000000
1176.885397,6365.771101,-6735.874072,153.219100
1176.885726,6957.935855,-6661.853478,0.000000
1176.886055,7179.997637,-6883.915261,612.876398
1176.886384,7772.162391,-6587.832884,1378.971896
1176.886713,8364.327145,-6439.791695,2221.676944
1176.887042,8216.285956,-6661.853478,2221.676944
1176.887371,7846.182985,-6069.688724,2681.334243
1176.887701,8068.244768,-6513.812290,2451.505594
1176.888030,8068.244768,-6217.729913,2528.115143
1176.888359,8216.285956,-5329.482782,1838.629195
1176.888688,7550.100608,-4885.359217,1378.971896
1176.889017,7179.997637,-5033.400406,1455.581446
1176.889346,6291.750507,-5921.647536,0.000000
1176.889675,5847.626942,-6291.750507,76.609550
1176.890004,5477.523971,-6587.832884,229.828649
1176.890333,5773.606348,-6809.894666,0.000000
1176.890662,6661.853478,-6661.853478,689.485948
1176.890991,6661.853478,-7254.018232,383.047749
1176.891320,6365.771101,-7179.997637,612.876398
1176.891649,6957.935855,-7105.977043,1149.143247
1176.891978,7476.080014,-7179.997637,1378.971896
1176.892307,7920.203579,-7105.977043,1838.629195
1176.892636,7698.141797,-7254.018232,1991.848295
1176.892965,7920.203579,-6587.832884,2068.457845
1176.893294,7920.203579,-6587.832884,2451.505594
1176.893624,8364.327145,-6439.791695,2374.896044
1176.893953,8142.265362,-5181.441594,2068.457845
1176.894282,7179.997637,-5033.400406,1532.190996
1176.894611,6661.853478,-5699.585753,689.485948
1176.894940,6143.709319,-6069.688724,306.438199
1176.895269,5773.606348,-6291.750507,306.438199
1176.895598,5403.503377,-7179.997637,0.000000
1176.895927,5107.421000,-7402.059420,-612.876398
1176.896256,5551.544565,-8068.244768,0.000000
1176.896585,6291.750507,-8586.388927,153.219100
1176.896914,6883.915261,-8216.285956,536.266849
1176.897243,6809.894666,-7698.141797,689.485948
1176.897572,7254.018232,-7179.997637,689.485948
1176.897901,7550.100608,-7624.121203,1838.629195
1176.898230,8956.491898,-7105.977043,2145.067394
1176.898559,8290.306550,-6365.771101,2374.896044
1176.898888,8364.327145,-5329.482782,2221.676944
1176.899218,8290.306550,-5107.421000,2221.676944
1176.899547,7402.059420,-4737.318029,2145.067394
1176.899876,7105.977043,-4737.318029,1302.362347
1176.900205,6291.750507,-5255.462188,383.047749
1176.900534,5921.647536,-5921.647536,0.000000
1176.900863,5921.647536,-6069.688724,0.000000
1176.901192,5773.606348,-7031.956449,0.000000
1176.901521,5995.668130,-7550.100608,306.438199
1176.901850,6143.709319,-7254.018232,153.219100
1176.902179,6291.750507,-7105.977043,229.828649
1176.902508,7031.956449,-6513.812290,229.828649
1176.902837,7772.162391,-7179.997637,1302.362347
1176.903166,8142.265362,-6661.853478,1762.019645
1176.903495,8142.265362,-6439.791695,1838.629195
1176.903824,8142.265362,-5995.668130,2145.067394
1176.904153,7994.224174,-5773.606348,2374.896044
1176.904482,7772.162391,-6735.874072,2221.676944
1176.904811,7550.100608,-6513.812290,1915.238745
1176.905141,6883.915261,-6439.791695,1225.752797
1176.905470,6217.729913,-6809.894666,612.876398
1176.905799,5699.585753,-6291.750507,383.047749
1176.906128,5403.503377,-7476.080014,0.000000
1176.906457,5551.544565,-7624.121203,0.000000
1176.906786,5255.462188,-7994.224174,-229.828649
1176.907115,5403.503377,-7328.038826,536.266849
1176.907444,5921.647536,-7105.977043,459.657299
1176.907773,6661.853478,-7105.977043,229.828649
1176.908102,6883.915261,-6291.750507,919.314598
