#time,accel_x,accel_y,accel_z
1477.606769,7254.018232,-6143.709319,1072.533697
1477.607099,7550.100608,-6217.729913,1455.581446
1477.607429,7105.977043,-6291.750507,1149.143247
1477.607760,6957.935855,-6883.915261,1149.143247
1477.608090,7105.977043,-6883.915261,689.485948
1477.608420,7031.956449,-6513.812290,995.924147
1477.608750,6883.915261,-6143.709319,1532.190996
1477.609080,7105.977043,-6587.832884,1378.971896
1477.609411,6587.832884,-6587.832884,1072.533697
1477.609741,6883.915261,-6069.688724,995.924147
1477.610071,6957.935855,-6661.853478,1225.752797
1477.610401,7105.977043,-6513.812290,1378.971896
1477.610731,6661.853478,-6365.771101,1072.533697
1477.611062,6439.791695,-6735.874072,1149.143247
1477.611392,6809.894666,-7031.956449,1072.533697
1477.611722,7105.977043,-6291.750507,919.314598
1477.612052,7105.977043,-6883.915261,919.314598
1477.612383,6735.874072,-6883.915261,1225.752797
1477.612713,6587.832884,-7254.018232,536.266849
1477.613043,6735.874072,-7105.977043,459.657299
1477.613373,6661.853478,-6809.894666,842.705048
1477.613703,7031.956449,-7031.956449,842.705048
1477.614034,7105.977043,-6513.812290,1225.752797
1477.614364,7105.977043,-6587.832884,1072.533697
1477.614694,7550.100608,-6143.709319,1302.362347
1477.615024,7254.018232,-6735.874072,1225.752797
1477.615354,7254.018232,-6661.853478,1225.752797
1477.615685,7031.956449,-6291.750507,919.314598
1477.616015,7105.977043,-6365.771101,842.705048
1477.616345,7031.956449,-6365.771101,842.705048
1477.616675,7105.977043,-6217.729913,1149.143247
1477.617005,7179.997637,-6365.771101,1072.533697
1477.617336,7105.977043,-6291.750507,1225.752797
1477.617666,7105.977043,-6291.750507,1378.971896
1477.617996,6587.832884,-6439.791695,536.266849
1477.618326,7031.956449,-6809.894666,919.314598
1477.618657,6587.832884,-6587.832884,1378.971896
1477.618987,7105.977043,-6439.791695,842.705048
1477.619317,6809.894666,-6513.812290,1302.362347
1477.619647,7105.977043,-6661.853478,1378.971896
1477.619977,6883.915261,-6587.832884,919.314598
1477.620308,6809.894666,-7105.977043,842.705048
1477.620638,6587.832884,-6439.791695,612.876398
1477.620968,7031.956449,-6957.935855,766.095498
1477.621298,7402.059420,-6439.791695,995.924147
1477.621628,7254.018232,-6587.832884,1302.362347
1477.621959,7328.038826,-6587.832884,842.705048
1477.622289,7031.956449,-6513.812290,1149.143247
1477.622619,6957.935855,-6883.915261,1149.143247
1477.622949,6809.894666,-7105.977043,919.314598
1477.623279,6957.935855,-6143.709319,842.705048
1477.623610,7105.977043,-6439.791695,1149.143247
1477.623940,7254.018232,-6069.688724,1455.581446
1477.624270,7031.956449,-6365.771101,995.924147
1477.624600,7105.977043,-6439.791695,995.924147
1477.624931,6661.853478,-6587.832884,1149.143247
1477.625261,6587.832884,-6291.750507,1302.362347
1477.625591,6439.791695,-6661.853478,459.657299
1477.625921,6587.832884,-7105.977043,1149.143247
1477.626251,6883.915261,-6661.853478,919.314598
1477.626582,6513.812290,-6735.874072,1149.143247
1477.626912,6735.874072,-6513.812290,459.657299
1477.627242,6587.832884,-6809.894666,1072.533697
1477.627572,6587.832884,-7105.977043,919.314598
1477.627902,6735.874072,-6587.832884,536.266849
1477.628233,6217.729913,-6365.771101,995.924147
1477.628563,6883.915261,-6513.812290,995.924147
1477.628893,7105.977043,-6513.812290,995.924147
1477.629223,7105.977043,-6957.935855,919.314598
1477.629553,7328.038826,-6587.832884,1149.143247
1477.629884,7328.038826,-6735.874072,612.876398
1477.630214,7105.977043,-6217.729913,995.924147
1477.630544,7254.018232,-6365.771101,919.314598
1477.630874,7179.997637,-6365.771101,842.705048
1477.631205,7105.977043,-6217.729913,1149.143247
1477.631535,7254.018232,-6587.832884,689.485948
1477.631865,7328.038826,-5921.647536,995.924147
1477.632195,7105.977043,-6513.812290,1378.971896
1477.632525,7105.977043,-6439.791695,1149.143247
1477.632856,6217.729913,-6291.750507,1072.533697
1477.633186,7031.956449,-6661.853478,766.095498
1477.633516,6809.894666,-6809.894666,1149.143247
1477.633846,7031.956449,-6587.832884,919.314598
1477.634176,6883.915261,-6883.915261,995.924147
1477.634507,6661.853478,-6587.832884,1762.019645
1477.634837,7031.956449,-6439.791695,689.485948
1477.635167,6587.832884,-6587.832884,995.924147
1477.635497,6809.894666,-6957.935855,995.924147
1477.635827,6883.915261,-6661.853478,995.924147
1477.636158,7031.956449,-6217.729913,1608.800546
1477.636488,7179.997637,-6883.915261,1225.752797
1477.636818,7105.977043,-6365.771101,919.314598
1477.637148,7179.997637,-6587.832884,919.314598
1477.637479,7179.997637,-6661.853478,459.657299
1477.637809,7031.956449,-6365.771101,919.314598
1477.638139,7476.080014,-5699.585753,766.095498
1477.638469,7254.018232,-6291.750507,1149.143247
1477.638799,7105.977043,-6143.709319,766.095498
1477.639130,6883.915261,-6217.729913,1455.581446
1477.639460,6883.915261,-6439.791695,1072.533697
1477.639790,6883.915261,-6587.832884,1072.533697
1477.640120,6365.771101,-6513.812290,919.314598
1477.640450,6661.853478,-7179.997637,995.924147
1477.640781,6513.812290,-6809.894666,919.314598
1477.641111,6809.894666,-7105.977043,1072.533697
1477.641441,6957.935855,-6957.935855,995.924147
1477.641771,6883.915261,-6809.894666,1149.143247
1477.642101,6735.874072,-6513.812290,1762.019645
1477.642432,6661.853478,-6809.894666,536.266849
1477.642762,6735.874072,-6883.915261,1072.533697
1477.643092,6735.874072,-6883.915261,842.705048
1477.643422,7179.997637,-7105.977043,1302.362347
1477.643752,7328.038826,-6217.729913,919.314598
1477.644083,7105.977043,-6883.915261,766.095498
1477.644413,7105.977043,-6513.812290,995.924147
1477.644743,6957.935855,-6809.894666,919.314598
1477.645073,7105.977043,-6587.832884,766.095498
1477.645404,7105.977043,-6291.750507,766.095498
1477.645734,7328.038826,-6365.771101,383.047749
1477.646064,7550.100608,-6217.729913,1149.143247
1477.646394,7105.977043,-6439.791695,1302.362347
1477.646724,7105.977043,-5921.647536,1225.752797
1477.647055,6957.935855,-6513.812290,842.705048
1477.647385,6809.894666,-5921.647536,919.314598
1477.647715,6735.874072,-6661.853478,612.876398
1477.648045,7179.997637,-7031.956449,1302.362347
1477.648375,6661.853478,-6809.894666,1302.362347
1477.648706,6957.935855,-6587.832884,995.924147
1477.649036,7031.956449,-6883.915261,1072.533697
1477.649366,6661.853478,-6661.853478,689.485948
1477.649696,7031.956449,-6661.853478,536.266849
1477.650026,6883.915261,-6735.874072,1072.533697
1477.650357,6957.935855,-6809.894666,689.485948
1477.650687,7328.038826,-6513.812290,1072.533697
1477.651017,7105.977043,-5921.647536,1838.629195
1477.651347,7179.997637,-6217.729913,1072.533697
1477.651678,7105.977043,-6291.750507,1149.143247
1477.652008,6735.874072,-6661.853478,1225.752797
1477.652338,6957.935855,-6661.853478,766.095498
1477.652668,7105.977043,-5847.626942,919.314598
1477.652998,6957.935855,-6069.688724,919.314598
1477.653329,7254.018232,-6513.812290,995.924147
1477.653659,7105.977043,-6365.771101,1225.752797
1477.653989,7105.977043,-6661.853478,1072.533697
1477.654319,6883.915261,-5995.668130,919.314598
1477.654649,6957.935855,-6439.791695,1302.362347
1477.654980,6809.894666,-6513.812290,842.705048
1477.655310,6587.832884,-7031.956449,612.876398
1477.655640,6809.894666,-6513.812290,1685.410096
1477.655970,6735.874072,-6735.874072,766.095498
1477.656300,6809.894666,-6809.894666,1072.533697
1477.656631,6513.812290,-7105.977043,1225.752797
1477.656961,6661.853478,-7105.977043,919.314598
1477.657291,7105.977043,-6809.894666,612.876398
1477.657621,6513.812290,-6957.935855,1072.533697
1477.657952,7105.977043,-7031.956449,1072.533697
1477.658282,7254.018232,-6291.750507,1072.533697
1477.658612,7105.977043,-6365.771101,1149.143247
1477.658942,7179.997637,-6735.874072,995.924147
1477.659272,7254.018232,-6365.771101,1149.143247
1477.659603,6809.894666,-6661.853478,689.485948
1477.659933,7105.977043,-5921.647536,536.266849
1477.660263,7105.977043,-5773.606348,1378.971896
1477.660593,7105.977043,-6661.853478,919.314598
1477.660923,7105.977043,-6291.750507,1072.533697
1477.661254,7179.997637,-6217.729913,1225.752797
1477.661584,7179.997637,-6439.791695,1225.752797
1477.661914,7105.977043,-5921.647536,1149.143247
1477.662244,6735.874072,-6439.791695,842.705048
1477.662574,6735.874072,-6661.853478,612.876398
1477.662905,7328.038826,-6291.750507,1302.362347
1477.663235,7179.997637,-6587.832884,842.705048
1477.663565,7031.956449,-6957.935855,842.705048
1477.663895,6735.874072,-6735.874072,995.924147
1477.664226,6661.853478,-7105.977043,1072.533697
1477.664556,6809.894666,-7105.977043,919.314598
1477.664886,6735.874072,-6587.832884,536.266849
1477.665216,6957.935855,-6735.874072,842.705048
1477.665546,7105.977043,-6587.832884,1072.533697
1477.665877,7105.977043,-6217.729913,1225.752797
1477.666207,7624.121203,-6069.688724,1302.362347
1477.666537,6957.935855,-6217.729913,1149.143247
1477.666867,7031.956449,-6735.874072,766.095498
1477.667197,6957.935855,-6513.812290,919.314598
1477.667528,6883.915261,-6217.729913,919.314598
1477.667858,7254.018232,-6291.750507,766.095498
1477.668188,7105.977043,-6291.750507,1455.581446
1477.668518,7031.956449,-6439.791695,1072.533697
1477.668848,6735.874072,-6365.771101,1149.143247
1477.669179,7105.977043,-6513.812290,919.314598
1477.669509,6735.874072,-6587.832884,1149.143247
1477.669839,6587.832884,-6365.771101,766.095498
1477.670169,6735.874072,-6883.915261,1072.533697
1477.670500,6883.915261,-6809.894666,1072.533697
1477.670830,6587.832884,-6661.853478,1532.190996
1477.671160,6809.894666,-7031.956449,766.095498
1477.671490,6587.832884,-6957.935855,1225.752797
1477.671820,6809.894666,-7328.038826,536.266849
1477.672151,6809.894666,-7179.997637,995.924147
1477.672481,6883.915261,-6661.853478,612.876398
1477.672811,7105.977043,-6883.915261,1149.143247
1477.673141,7254.018232,-6587.832884,919.314598
1477.673471,7105.977043,-6661.853478,766.095498
1477.673802,7550.100608,-6143.709319,383.047749
1477.674132,7105.977043,-6439.791695,1225.752797
1477.674462,7105.977043,-6587.832884,919.314598
1477.674792,7254.018232,-6291.750507,995.924147
1477.675122,7105.977043,-6291.750507,995.924147
1477.675453,7254.018232,-6365.771101,1149.143247
1477.675783,7254.018232,-6587.832884,1302.362347
1477.676113,7328.038826,-6365.771101,919.314598
1477.676443,7105.977043,-6069.688724,766.095498
1477.676773,6661.853478,-6217.729913,1225.752797
1477.677102,6883.915261,-6735.874072,766.095498
1477.677432,6883.915261,-6883.915261,842.705048
1477.677761,6809.894666,-6661.853478,1149.143247
1477.678090,6809.894666,-6587.832884,1149.143247
1477.678420,7105.977043,-6291.750507,1455.581446
1477.678749,6735.874072,-6587.832884,1149.143247
1477.679079,7031.956449,-7105.977043,1149.143247
1477.679408,7031.956449,-6661.853478,842.705048
1477.679738,6957.935855,-6809.894666,612.876398
1477.680067,6883.915261,-6069.688724,612.876398
1477.680396,6957.935855,-6291.750507,919.314598
1477.680726,7105.977043,-6587.832884,919.314598
1477.681055,7179.997637,-6513.812290,1149.143247
1477.681385,7402.059420,-6883.915261,995.924147
1477.681714,7328.038826,-6587.832884,766.095498
1477.682043,6883.915261,-6661.853478,766.095498
1477.682373,6883.915261,-5995.668130,1608.800546
1477.682702,7402.059420,-6143.709319,842.705048
1477.683032,7402.059420,-6513.812290,842.705048
1477.683361,6883.915261,-6439.791695,1072.533697
1477.683691,6735.874072,-6291.750507,1072.533697
1477.684020,6439.791695,-6439.791695,459.657299
1477.684349,6069.688724,-6217.729913,995.924147
1477.684679,6513.812290,-6809.894666,842.705048
1477.685008,6587.832884,-6661.853478,995.924147
1477.685338,6735.874072,-7105.977043,1149.143247
1477.685667,6809.894666,-7105.977043,1072.533697
1477.685996,6365.771101,-6291.750507,2298.286494
1477.686326,6735.874072,-7031.956449,919.314598
1477.686655,6513.812290,-7105.977043,766.095498
1477.686985,6439.791695,-6809.894666,842.705048
1477.687314,6957.935855,-7179.997637,842.705048
1477.687644,7105.977043,-6217.729913,1302.362347
1477.687973,7105.977043,-6069.688724,536.266849
1477.688302,7402.059420,-6513.812290,842.705048
1477.688632,7105.977043,-6513.812290,995.924147
1477.688961,7105.977043,-6735.874072,995.924147
1477.689291,7105.977043,-6587.832884,842.705048
1477.689620,7254.018232,-6365.771101,919.314598
1477.689950,7254.018232,-6217.729913,766.095498
1477.690279,7254.018232,-6291.750507,1149.143247
1477.690608,7550.100608,-5995.668130,1302.362347
1477.690938,7105.977043,-6143.709319,842.705048
1477.691267,7105.977043,-6217.729913,919.314598
1477.691597,6587.832884,-6365.771101,1225.752797
1477.691926,6883.915261,-5995.668130,995.924147
1477.692255,7254.018232,-7105.977043,1149.143247
1477.692585,6957.935855,-6513.812290,995.924147
1477.692914,6883.915261,-6735.874072,689.485948
1477.693244,6809.894666,-6883.915261,1072.533697
1477.693573,6439.791695,-6587.832884,1685.410096
1477.693903,6957.935855,-6883.915261,689.485948
1477.694232,6735.874072,-6735.874072,1072.533697
1477.694561,7105.977043,-6809.894666,1072.533697
1477.694891,7254.018232,-6587.832884,1072.533697
1477.695220,6735.874072,-6217.729913,1302.362347
1477.695550,7031.956449,-6513.812290,842.705048
1477.695879,7179.997637,-6291.750507,1149.143247
1477.696208,7031.956449,-6587.832884,1225.752797
1477.696538,6883.915261,-6439.791695,383.047749
1477.696867,6809.894666,-6217.729913,1149.143247
1477.697197,6957.935855,-6291.750507,995.924147
1477.697526,7105.977043,-6291.750507,919.314598
1477.697856,6957.935855,-6513.812290,1149.143247
1477.698185,7105.977043,-6365.771101,1072.533697
1477.698514,7105.977043,-6291.750507,1378.971896
1477.698844,6957.935855,-5995.668130,1149.143247
1477.699173,6661.853478,-6439.791695,919.314598
1477.699503,6365.771101,-6513.812290,1225.752797
1477.699832,6439.791695,-6883.915261,1149.143247
1477.700162,6365.771101,-6809.894666,1149.143247
1477.700491,6661.853478,-6809.894666,842.705048
1477.700820,6587.832884,-6735.874072,1072.533697
1477.701150,6809.894666,-7105.977043,1378.971896
1477.701479,6439.791695,-6735.874072,766.095498
1477.701809,6439.791695,-7031.956449,459.657299
1477.702138,7179.997637,-6883.915261,689.485948
1477.702467,7105.977043,-6587.832884,1225.752797
1477.702797,7772.162391,-6883.915261,1149.143247
1477.703126,7254.018232,-6661.853478,1149.143247
1477.703456,7254.018232,-6439.791695,1072.533697
1477.703785,7105.977043,-6587.832884,766.095498
1477.704115,7402.059420,-6365.771101,1302.362347
1477.704444,7550.100608,-6365.771101,995.924147
1477.704773,7179.997637,-6365.771101,995.924147
1477.705103,7179.997637,-6291.750507,995.924147
1477.705432,7254.018232,-6217.729913,919.314598
1477.705762,7402.059420,-6143.709319,1072.533697
1477.706091,7179.997637,-6513.812290,1302.362347
1477.706420,6809.894666,-6143.709319,919.314598
1477.706750,6809.894666,-6809.894666,1072.533697
1477.707079,7105.977043,-6513.812290,1762.019645
1477.707409,6957.935855,-6587.832884,766.095498
1477.707738,6957.935855,-6587.832884,919.314598
1477.708068,6587.832884,-6513.812290,1532.190996
1477.708397,6957.935855,-6883.915261,1072.533697
1477.708726,6513.812290,-6513.812290,1149.143247
1477.709056,6809.894666,-6661.853478,1149.143247
1477.709385,6883.915261,-6809.894666,766.095498
1477.709715,6957.935855,-6365.771101,1072.533697
1477.710044,7328.038826,-6661.853478,1149.143247
1477.710374,7031.956449,-6217.729913,1762.019645
1477.710703,7476.080014,-6513.812290,1072.533697
1477.711032,7179.997637,-6661.853478,1149.143247
1477.711362,6957.935855,-6735.874072,842.705048
1477.711691,6957.935855,-5477.523971,1072.533697
1477.712021,7105.977043,-5773.606348,689.485948
1477.712350,7179.997637,-6439.791695,1225.752797
1477.712679,6883.915261,-6809.894666,1225.752797
1477.713009,6809.894666,-6291.750507,306.438199
1477.713338,6587.832884,-5551.544565,1608.800546
1477.713668,6735.874072,-6513.812290,1149.143247
1477.713997,6513.812290,-6513.812290,1455.581446
1477.714327,6661.853478,-6957.935855,919.314598
1477.714656,6809.894666,-6883.915261,1302.362347
1477.714985,6735.874072,-6957.935855,1378.971896
1477.715315,6809.894666,-6957.935855,1149.143247
1477.715644,6587.832884,-7031.956449,1225.752797
1477.715974,6439.791695,-7031.956449,842.705048
1477.716303,6809.894666,-7105.977043,536.266849
1477.716632,6513.812290,-7105.977043,766.095498
1477.716962,7105.977043,-6809.894666,1072.533697
1477.717291,7105.977043,-6365.771101,995.924147
1477.717621,6809.894666,-6439.791695,1149.143247
1477.717950,7476.080014,-6365.771101,0.000000
1477.718280,7105.977043,-6439.791695,995.924147
1477.718609,7031.956449,-6513.812290,919.314598
1477.718938,6661.853478,-6217.729913,842.705048
1477.719268,7772.162391,-6217.729913,1225.752797
1477.719597,7179.997637,-6439.791695,1149.143247
1477.719927,7328.038826,-6365.771101,919.314598
1477.720256,7254.018232,-6439.791695,1149.143247
1477.720586,7179.997637,-6143.709319,1072.533697
1477.720915,7105.977043,-6143.709319,1072.533697
1477.721244,6735.874072,-6587.832884,995.924147
1477.721574,7179.997637,-6883.915261,919.314598
1477.721903,7031.956449,-6661.853478,995.924147
1477.722233,7105.977043,-6661.853478,1455.581446
1477.722562,7179.997637,-6661.853478,919.314598
1477.722891,6883.915261,-6661.853478,1149.143247
1477.723221,6957.935855,-6883.915261,919.314598
1477.723550,7031.956449,-6661.853478,766.095498
1477.723880,6883.915261,-6735.874072,766.095498
1477.724209,7031.956449,-6883.915261,689.485948
1477.724539,7179.997637,-6513.812290,1149.143247
1477.724868,7105.977043,-6587.832884,1149.143247
1477.725197,7179.997637,-6513.812290,842.705048
1477.725527,7550.100608,-6735.874072,766.095498
1477.725856,7105.977043,-6439.791695,766.095498
1477.726186,6957.935855,-6513.812290,1072.533697
1477.726515,7254.018232,-5255.462188,1072.533697
1477.726844,7105.977043,-4737.318029,919.314598
1477.727174,7994.224174,-4811.338623,1532.190996
1477.727503,8364.327145,-5477.523971,1302.362347
1477.727833,8290.306550,-5847.626942,1225.752797
1477.728162,7105.977043,-6069.688724,766.095498
1477.728492,5477.523971,-6809.894666,612.876398
1477.728821,5551.544565,-7402.059420,229.828649
1477.729150,6217.729913,-7105.977043,536.266849
1477.729480,7402.059420,-6883.915261,1225.752797
1477.729809,8142.265362,-6291.750507,1991.848295
1477.730139,7994.224174,-5847.626942,2298.286494
1477.730468,7994.224174,-4589.276840,1072.533697
1477.730798,7698.141797,-5551.544565,995.924147
1477.731127,7550.100608,-5107.421000,919.314598
1477.731456,8734.430116,-4293.194464,842.705048
1477.731786,8956.491898,-5329.482782,1072.533697
1477.732115,8586.388927,-3997.112087,689.485948
1477.732445,8068.244768,-5847.626942,459.657299
1477.732774,8660.409521,-5625.565159,383.047749
1477.733103,8364.327145,-5773.606348,689.485948
1477.733433,8216.285956,-6883.915261,919.314598
1477.733762,7920.203579,-5477.523971,459.657299
1477.734092,7994.224174,-5625.565159,383.047749
1477.734421,7994.224174,-5773.606348,919.314598
1477.734751,8586.388927,-4885.359217,1225.752797
1477.735080,9400.615463,-4071.132681,1072.533697
1477.735409,9178.553681,-3478.967927,1455.581446
1477.735739,9326.594869,-3923.091493,1302.362347
1477.736068,9400.615463,-2738.761985,1149.143247
1477.736398,9178.553681,-3775.050304,1838.629195
1477.736727,9548.656652,-2812.782580,1532.190996
1477.737057,9992.780217,-2516.700203,1455.581446
1477.737386,10436.903782,-2960.823768,1532.190996
1477.737715,10436.903782,-3256.906145,1991.848295
1477.738045,9992.780217,-4367.215058,1302.362347
1477.738374,9104.533087,-3849.070898,995.924147
1477.738704,8438.347739,-4663.297435,842.705048
1477.739033,8364.327145,-5181.441594,1378.971896
1477.739362,8364.327145,-4885.359217,919.314598
1477.739692,7772.162391,-6439.791695,995.924147
1477.740021,8068.244768,-6069.688724,536.266849
1477.740351,7920.203579,-6069.688724,1072.533697
1477.740680,8290.306550,-5625.565159,306.438199
1477.741010,7846.182985,-5995.668130,76.609550
1477.741339,8068.244768,-5107.421000,0.000000
1477.741668,9178.553681,-4737.318029,0.000000
1477.741998,10288.862594,-3108.864956,689.485948
1477.742327,10658.965565,-3849.070898,1608.800546
1477.742657,10807.006753,-3627.009116,1225.752797
1477.742986,10510.924376,-3404.947333,1302.362347
1477.743315,9474.636058,-3404.947333,1149.143247
1477.743645,9252.574275,-3701.029710,0.000000
1477.743974,8512.368333,-4885.359217,919.314598
1477.744304,8882.471304,-4737.318029,1762.019645
1477.744633,9030.512492,-4885.359217,1685.410096
1477.744963,9252.574275,-4071.132681,1762.019645
1477.745292,8068.244768,-4589.276840,1838.629195
1477.745621,8438.347739,-4663.297435,1532.190996
1477.745951,8734.430116,-4663.297435,1838.629195
1477.746280,9104.533087,-4811.338623,1455.581446
1477.746610,9400.615463,-4071.132681,919.314598
1477.746939,9326.594869,-3997.112087,995.924147
1477.747269,9400.615463,-4367.215058,153.219100
1477.747598,9030.512492,-5255.462188,459.657299
1477.747927,8660.409521,-4589.276840,-536.266849
1477.748257,8290.306550,-5477.523971,0.000000
1477.748586,7994.224174,-5477.523971,-383.047749
1477.748916,8734.430116,-4959.379811,229.828649
1477.749245,8882.471304,-5625.565159,1378.971896
1477.749574,9326.594869,-5477.523971,2145.067394
1477.749904,8808.450710,-5107.421000,2221.676944
1477.750233,8882.471304,-4737.318029,2451.505594
1477.750563,8882.471304,-3701.029710,2145.067394
1477.750892,9104.533087,-3478.967927,1608.800546
1477.751222,9474.636058,-3034.844362,2068.457845
1477.751551,10288.862594,-1628.453072,1378.971896
1477.751880,10436.903782,-1702.473667,1149.143247
1477.752210,10362.883188,-1332.370696,536.266849
1477.752539,9992.780217,-2146.597232,383.047749
1477.752869,9474.636058,-3552.988522,-919.314598
1477.753198,8734.430116,-5329.482782,-383.047749
1477.753527,8364.327145,-6883.915261,76.609550
1477.753857,8586.388927,-7846.182985,229.828649
1477.754186,7624.121203,-8660.409521,1225.752797
1477.754516,7031.956449,-8734.430116,76.609550
1477.754845,6809.894666,-8216.285956,612.876398
1477.755175,6661.853478,-6661.853478,306.438199
1477.755504,6883.915261,-6069.688724,766.095498
1477.755833,8586.388927,-3849.070898,1302.362347
1477.756163,9844.739029,-2368.659014,2145.067394
1477.756492,11103.089130,-1036.288319,2221.676944
1477.756822,11399.171507,148.041188,2068.457845
1477.757151,11473.192101,518.144159,1762.019645
1477.757481,11769.274478,666.185348,842.705048
1477.757810,11843.295072,-148.041188,842.705048
1477.758139,12879.583391,-1406.391290,919.314598
1477.758469,12139.377449,-2886.803174,995.924147
1477.758798,11251.130318,-5033.400406,1915.238745
1477.759128,9474.636058,-6513.812290,1378.971896
1477.759457,7179.997637,-8216.285956,1225.752797
1477.759786,5255.462188,-9622.677246,306.438199
1477.760116,3627.009116,-9030.512492,-612.876398
1477.760445,3404.947333,-8660.409521,-1149.143247
1477.760775,4663.297435,-8586.388927,-766.095498
1477.761104,6735.874072,-7698.141797,536.266849
1477.761434,8956.491898,-4663.297435,1532.190996
1477.761763,10362.883188,-3034.844362,1762.019645
1477.762092,10807.006753,-1998.556043,1915.238745
1477.762422,10955.047942,-1184.329507,1532.190996
1477.762751,11769.274478,74.020594,459.657299
1477.763081,11251.130318,0.000000,842.705048
1477.763410,12657.521608,-962.267725,919.314598
1477.763739,13915.871710,-962.267725,2068.457845
1477.764069,14137.933492,-2220.617826,3370.820191
1477.764398,11917.315666,-3701.029710,3140.991542
1477.764728,8882.471304,-4071.132681,1915.238745
1477.765057,6365.771101,-5773.606348,383.047749
1477.765387,4145.153275,-7994.224174,-689.485948
1477.765716,3701.029710,-8364.327145,0.000000
1477.766045,4145.153275,-8660.409521,-459.657299
1477.766375,4959.379811,-6883.915261,0.000000
1477.766704,6883.915261,-4811.338623,0.000000
1477.767034,9918.759623,-3627.009116,612.876398
1477.767363,11843.295072,-3404.947333,1225.752797
1477.767693,11251.130318,-2812.782580,2068.457845
1477.768022,11029.068536,-2368.659014,1532.190996
1477.768351,10732.986159,-2590.720797,536.266849
1477.768681,10288.862594,-2960.823768,1685.410096
1477.769010,9918.759623,-5329.482782,1532.190996
1477.769340,9178.553681,-6661.853478,2221.676944
1477.769669,8216.285956,-7772.162391,1991.848295
1477.769998,7254.018232,-7254.018232,919.314598
1477.770328,7031.956449,-4737.318029,76.609550
1477.770657,7254.018232,-3108.864956,-689.485948
1477.770987,7476.080014,-2368.659014,-383.047749
1477.771316,9030.512492,-3108.864956,919.314598
1477.771646,9696.697840,-2886.803174,1991.848295
1477.771975,10214.842000,-740.205942,689.485948
1477.772304,11621.233289,-1628.453072,919.314598
1477.772634,11547.212695,-2664.741391,1302.362347
1477.772963,11547.212695,-4737.318029,1608.800546
1477.773293,10955.047942,-5699.585753,2681.334243
1477.773622,9474.636058,-5107.421000,2221.676944
1477.773951,8586.388927,-5551.544565,-612.876398
1477.774281,7031.956449,-5181.441594,306.438199
1477.774610,6883.915261,-7994.224174,229.828649
1477.774940,6809.894666,-9104.533087,995.924147
1477.775269,6365.771101,-7254.018232,995.924147
1477.775598,6217.729913,-5551.544565,-383.047749
1477.775928,6587.832884,-4219.173869,-766.095498
1477.776257,7550.100608,-5551.544565,995.924147
1477.776586,9400.615463,-6143.709319,1455.581446
1477.776916,10436.903782,-3478.967927,1762.019645
1477.777245,10584.944971,0.000000,1072.533697
1477.777574,11325.150913,0.000000,766.095498
1477.777903,11917.315666,-1036.288319,1685.410096
1477.778233,11251.130318,-3330.926739,2145.067394
1477.778562,10362.883188,-4071.132681,1072.533697
1477.778891,9400.615463,-3775.050304,1302.362347
1477.779220,9770.718434,-4441.235652,1608.800546
1477.779550,9770.718434,-5033.400406,2298.286494
1477.779879,8808.450710,-4293.194464,1455.581446
1477.780208,8216.285956,-4145.153275,919.314598
1477.780537,7698.141797,-4145.153275,766.095498
1477.780867,8512.368333,-4737.318029,1225.752797
1477.781196,8364.327145,-4589.276840,919.314598
1477.781525,7624.121203,-4737.318029,-766.095498
1477.781855,6735.874072,-5625.565159,383.047749
1477.782184,8068.244768,-5403.503377,153.219100
1477.782513,9696.697840,-5255.462188,1608.800546
1477.782842,10732.986159,-4293.194464,1915.238745
1477.783172,9844.739029,-4441.235652,536.266849
1477.783501,8808.450710,-5625.565159,1838.629195
1477.783830,7254.018232,-7846.182985,689.485948
1477.784159,6661.853478,-7328.038826,383.047749
1477.784489,7994.224174,-3108.864956,0.000000
1477.784818,9178.553681,-3552.988522,536.266849
1477.785147,10436.903782,-4441.235652,2451.505594
1477.785476,10955.047942,-3849.070898,2451.505594
1477.785806,11547.212695,-1110.308913,1378.971896
1477.786135,10732.986159,0.000000,766.095498
1477.786464,9992.780217,-1998.556043,919.314598
1477.786794,9474.636058,-3256.906145,2221.676944
1477.787123,9326.594869,-4219.173869,1608.800546
1477.787452,9474.636058,-3552.988522,1838.629195
1477.787781,9622.677246,-3701.029710,995.924147
1477.788111,9844.739029,-5033.400406,1915.238745
1477.788440,9474.636058,-5699.585753,1225.752797
1477.788769,7920.203579,-7031.956449,766.095498
1477.789098,6957.935855,-5477.523971,459.657299
1477.789428,6735.874072,-4811.338623,-842.705048
1477.789757,7105.977043,-6291.750507,-612.876398
1477.790086,7698.141797,-6809.894666,842.705048
1477.790415,8512.368333,-6143.709319,76.609550
1477.790745,8512.368333,-5995.668130,459.657299
1477.791074,8438.347739,-4811.338623,1072.533697
1477.791403,8956.491898,-6587.832884,612.876398
1477.791733,8882.471304,-4367.215058,766.095498
1477.792062,8068.244768,-4811.338623,919.314598
1477.792391,8808.450710,-5329.482782,1225.752797
1477.792720,8956.491898,-4367.215058,1302.362347
1477.793050,8068.244768,-6291.750507,1378.971896
1477.793379,8068.244768,-5181.441594,766.095498
1477.793708,8142.265362,-3701.029710,76.609550
1477.794037,7402.059420,-4589.276840,1149.143247
1477.794367,7772.162391,-5773.606348,1072.533697
1477.794696,9400.615463,-1702.473667,842.705048
1477.795025,10140.821405,-3404.947333,1149.143247
1477.795355,9696.697840,-4589.276840,1838.629195
1477.795684,9474.636058,-4145.153275,2451.505594
1477.796013,9326.594869,-4219.173869,536.266849
1477.796342,7920.203579,-4219.173869,536.266849
1477.796672,8808.450710,-4293.194464,1225.752797
1477.797001,9844.739029,-5995.668130,995.924147
1477.797330,9030.512492,-5699.585753,1762.019645
1477.797659,7179.997637,-8216.285956,1149.143247
1477.797989,6513.812290,-6439.791695,229.828649
1477.798318,5255.462188,-7846.182985,0.000000
1477.798647,5403.503377,-8586.388927,383.047749
1477.798976,6365.771101,-8216.285956,229.828649
1477.799306,5995.668130,-9474.636058,0.000000
1477.799635,5699.585753,-6587.832884,0.000000
1477.799964,5403.503377,-7698.141797,229.828649
1477.800294,6735.874072,-6735.874072,0.000000
1477.800623,7402.059420,-6661.853478,766.095498
1477.800952,7994.224174,-5699.585753,2528.115143
1477.801281,8660.409521,-4441.235652,842.705048
1477.801611,9474.636058,-4219.173869,2145.067394
1477.801940,9622.677246,-3034.844362,2221.676944
1477.802269,8882.471304,-4071.132681,1149.143247
1477.802598,8216.285956,-4663.297435,1225.752797
1477.802928,8438.347739,-4219.173869,1532.190996
1477.803257,8290.306550,-6439.791695,1455.581446
1477.803586,6883.915261,-7254.018232,1225.752797
1477.803915,4441.235652,-7698.141797,1685.410096
1477.804245,4441.235652,-9474.636058,1302.362347
1477.804574,4885.359217,-7550.100608,842.705048
1477.804903,5033.400406,-6291.750507,766.095498
1477.805233,6217.729913,-6809.894666,1685.410096
1477.805562,8808.450710,-4737.318029,1532.190996
1477.805891,9326.594869,-4071.132681,2068.457845
1477.806220,9104.533087,-4071.132681,1838.629195
1477.806550,8956.491898,-3478.967927,1302.362347
1477.806879,8882.471304,-4145.153275,1378.971896
1477.807208,8290.306550,-5107.421000,1455.581446
1477.807537,9104.533087,-6439.791695,1685.410096
1477.807867,8808.450710,-6957.935855,1608.800546
1477.808196,6439.791695,-7846.182985,919.314598
1477.808525,3775.050304,-9844.739029,1072.533697
1477.808854,3478.967927,-10362.883188,0.000000
1477.809184,3552.988522,-10584.944971,-383.047749
1477.809513,4145.153275,-10362.883188,383.047749
1477.809842,5181.441594,-9474.636058,919.314598
1477.810172,5181.441594,-8808.450710,2145.067394
1477.810501,5773.606348,-7179.997637,842.705048
1477.810830,6513.812290,-6143.709319,1378.971896
1477.811159,7328.038826,-4145.153275,1762.019645
1477.811489,8364.327145,-3923.091493,1225.752797
1477.811818,9252.574275,-3478.967927,919.314598
1477.812147,8586.388927,-3330.926739,1072.533697
1477.812476,8290.306550,-5255.462188,995.924147
1477.812806,8216.285956,-6587.832884,1225.752797
1477.813135,7105.977043,-7476.080014,1762.019645
1477.813464,6439.791695,-8586.388927,1225.752797
1477.813793,6587.832884,-8364.327145,842.705048
1477.814123,5181.441594,-8660.409521,536.266849
1477.814452,4663.297435,-8290.306550,919.314598
1477.814781,5255.462188,-8290.306550,0.000000
1477.815111,6661.853478,-3034.844362,0.000000
1477.815440,6883.915261,-5329.482782,995.924147
1477.815769,8512.368333,-5847.626942,2145.067394
1477.816098,8956.491898,-3330.926739,1685.410096
1477.816428,7920.203579,-4885.359217,2374.896044
1477.816757,7105.977043,-5181.441594,1072.533697
1477.817086,6143.709319,-6143.709319,842.705048
1477.817415,6587.832884,-7105.977043,842.705048
1477.817745,7624.121203,-7105.977043,1149.143247
1477.818074,6883.915261,-8290.306550,995.924147
1477.818403,5995.668130,-8142.265362,1685.410096
1477.818733,6217.729913,-8808.450710,1149.143247
1477.819062,6883.915261,-7105.977043,536.266849
1477.819391,6587.832884,-5921.647536,1072.533697
1477.819720,6143.709319,-7698.141797,612.876398
1477.820050,6069.688724,-6587.832884,0.000000
1477.820379,5551.544565,-6735.874072,229.828649
1477.820708,5773.606348,-6291.750507,0.000000
1477.821037,7105.977043,-5921.647536,76.609550
1477.821367,7624.121203,-5995.668130,919.314598
1477.821696,8586.388927,-6809.894666,1608.800546
1477.822025,8956.491898,-7624.121203,1762.019645
1477.822354,7698.141797,-5403.503377,459.657299
1477.822684,6143.709319,-6809.894666,153.219100
1477.823013,6957.935855,-7254.018232,995.924147
1477.823342,8290.306550,-5477.523971,1608.800546
1477.823672,8956.491898,-6735.874072,2374.896044
1477.824001,8438.347739,-5699.585753,1762.019645
1477.824330,7031.956449,-5181.441594,1149.143247
1477.824659,5699.585753,-5995.668130,229.828649
1477.824989,5329.482782,-5699.585753,76.609550
1477.825318,5477.523971,-4663.297435,76.609550
1477.825647,7179.997637,-5329.482782,689.485948
1477.825976,9104.533087,-6957.935855,2374.896044
1477.826306,9030.512492,-4811.338623,1685.410096
1477.826635,7846.182985,-5107.421000,1455.581446
1477.826964,7402.059420,-6661.853478,1149.143247
1477.827293,7846.182985,-6735.874072,1149.143247
1477.827623,7550.100608,-7698.141797,1302.362347
1477.827952,7550.100608,-7031.956449,1608.800546
1477.828281,7254.018232,-7105.977043,1149.143247
1477.828611,5699.585753,-7550.100608,689.485948
1477.828940,5107.421000,-8216.285956,536.266849
1477.829269,5551.544565,-8512.368333,306.438199
1477.829598,5699.585753,-6587.832884,0.000000
1477.829928,5181.441594,-8068.244768,995.924147
1477.830257,6291.750507,-6883.915261,536.266849
1477.830586,6069.688724,-6217.729913,306.438199
1477.830915,5921.647536,-6069.688724,-76.609550
1477.831245,7328.038826,-6365.771101,995.924147
1477.831574,9104.533087,-6365.771101,2451.505594
1477.831903,8882.471304,-6661.853478,1838.629195
1477.832232,7402.059420,-6883.915261,842.705048
1477.832562,6439.791695,-5699.585753,919.314598
1477.832891,6735.874072,-7402.059420,1149.143247
1477.833220,8068.244768,-7254.018232,1915.238745
1477.833550,7105.977043,-5403.503377,2451.505594
1477.833879,6809.894666,-6883.915261,1532.190996
1477.834208,6809.894666,-5107.421000,1149.143247
1477.834537,6735.874072,-5255.462188,842.705048
1477.834867,6365.771101,-5625.565159,842.705048
1477.835196,6661.853478,-6217.729913,766.095498
1477.835525,7105.977043,-5329.482782,995.924147
1477.835854,7254.018232,-4737.318029,919.314598
1477.836184,8216.285956,-5995.668130,1455.581446
1477.836513,7772.162391,-6661.853478,1685.410096
1477.836842,5625.565159,-7476.080014,0.000000
1477.837172,5033.400406,-8364.327145,919.314598
1477.837501,6883.915261,-7402.059420,1608.800546
1477.837830,7920.203579,-6513.812290,1455.581446
1477.838159,7550.100608,-7698.141797,2451.505594
1477.838489,7698.141797,-7105.977043,2681.334243
1477.838818,7772.162391,-5181.441594,2298.286494
1477.839147,6439.791695,-5773.606348,1302.362347
1477.839476,5329.482782,-6439.791695,766.095498
1477.839806,6291.750507,-5329.482782,1072.533697
1477.840135,6513.812290,-6513.812290,612.876398
1477.840464,6069.688724,-6883.915261,459.657299
1477.840793,5329.482782,-5107.421000,919.314598
1477.841123,5329.482782,-8660.409521,76.609550
1477.841452,6291.750507,-9252.574275,1378.971896
1477.841781,7105.977043,-7328.038826,2145.067394
1477.842111,7476.080014,-8438.347739,459.657299
1477.842440,7254.018232,-7476.080014,1149.143247
1477.842769,6735.874072,-7328.038826,1302.362347
1477.843098,6439.791695,-7476.080014,612.876398
1477.843428,6365.771101,-6143.709319,536.266849
1477.843757,6365.771101,-5403.503377,919.314598
1477.844086,6809.894666,-7105.977043,1378.971896
1477.844415,7920.203579,-5995.668130,1302.362347
1477.844745,7624.121203,-5255.462188,1762.019645
1477.845074,6291.750507,-5699.585753,459.657299
1477.845403,6217.729913,-5477.523971,842.705048
1477.845732,7328.038826,-4737.318029,766.095498
1477.846062,7624.121203,-6809.894666,995.924147
1477.846391,8142.265362,-6735.874072,1532.190996
1477.846720,7994.224174,-6365.771101,2221.676944
1477.847050,7105.977043,-6587.832884,995.924147
1477.847379,6513.812290,-7179.997637,1149.143247
1477.847708,7624.121203,-5551.544565,919.314598
1477.848037,8216.285956,-4811.338623,995.924147
1477.848367,8438.347739,-5699.585753,1685.410096
1477.848696,7920.203579,-6809.894666,1915.238745
1477.849025,6217.729913,-6217.729913,229.828649
1477.849354,4441.235652,-6883.915261,0.000000
1477.849684,4367.215058,-7698.141797,-459.657299
1477.850013,6217.729913,-6883.915261,0.000000
1477.850342,7476.080014,-8660.409521,1378.971896
1477.850671,8512.368333,-7920.203579,1378.971896
1477.851001,7920.203579,-5477.523971,1455.581446
1477.851330,6661.853478,-7105.977043,459.657299
1477.851659,6735.874072,-6883.915261,0.000000
1477.851989,7105.977043,-5921.647536,0.000000
1477.852318,7105.977043,-6883.915261,842.705048
1477.852647,7105.977043,-7328.038826,1455.581446
1477.852976,7402.059420,-6291.750507,995.924147
1477.853306,6661.853478,-5847.626942,689.485948
1477.853635,6217.729913,-6809.894666,919.314598
1477.853964,7105.977043,-6291.750507,1302.362347
1477.854293,7624.121203,-6661.853478,1455.581446
1477.854623,7994.224174,-5773.606348,1302.362347
1477.854952,7550.100608,-5033.400406,1225.752797
1477.855281,6735.874072,-5773.606348,919.314598
1477.855611,6513.812290,-6365.771101,0.000000
1477.855940,7031.956449,-5477.523971,689.485948
1477.856269,8068.244768,-5033.400406,1915.238745
1477.856598,9030.512492,-5625.565159,1302.362347
1477.856928,9030.512492,-5255.462188,1608.800546
1477.857257,7105.977043,-5033.400406,1532.190996
1477.857586,6069.688724,-7920.203579,459.657299
1477.857915,5995.668130,-8216.285956,612.876398
1477.858245,5033.400406,-6957.935855,76.609550
1477.858574,6809.894666,-8734.430116,766.095498
1477.858903,7105.977043,-8586.388927,1072.533697
1477.859232,6069.688724,-8142.265362,766.095498
1477.859562,5773.606348,-7476.080014,459.657299
1477.859891,6735.874072,-5995.668130,306.438199
1477.860220,7772.162391,-4293.194464,229.828649
1477.860550,8438.347739,-6587.832884,1455.581446
1477.860879,8586.388927,-6439.791695,1915.238745
1477.861208,7179.997637,-5773.606348,919.314598
1477.861537,5551.544565,-7328.038826,536.266849
1477.861867,5181.441594,-7105.977043,612.876398
1477.862196,6291.750507,-6069.688724,0.000000
1477.862525,6513.812290,-8290.306550,1455.581446
1477.862854,6809.894666,-8882.471304,1302.362347
1477.863184,6365.771101,-6809.894666,1225.752797
1477.863513,5551.544565,-6365.771101,689.485948
1477.863842,6957.935855,-5551.544565,919.314598
1477.864171,7994.224174,-4367.215058,1378.971896
1477.864501,7920.203579,-5329.482782,1915.238745
1477.864830,8586.388927,-5477.523971,2068.457845
1477.865159,9178.553681,-4293.194464,1762.019645
1477.865489,8734.430116,-4885.359217,1762.019645
1477.865818,7328.038826,-6587.832884,1455.581446
1477.866147,6883.915261,-6069.688724,1991.848295
1477.866476,6439.791695,-5847.626942,0.000000
1477.866806,5773.606348,-8660.409521,842.705048
1477.867135,6069.688724,-7698.141797,1302.362347
1477.867464,6217.729913,-7624.121203,1532.190996
1477.867793,5699.585753,-7698.141797,0.000000
1477.868123,5847.626942,-7254.018232,1378.971896
1477.868452,7328.038826,-6661.853478,1608.800546
1477.868781,8734.430116,-7031.956449,1532.190996
1477.869110,7550.100608,-5403.503377,1915.238745
1477.869440,5995.668130,-6143.709319,1762.019645
1477.869769,6217.729913,-5995.668130,536.266849
1477.870098,6069.688724,-6587.832884,612.876398
1477.870428,6365.771101,-6883.915261,1455.581446
1477.870757,7179.997637,-7624.121203,842.705048
1477.871086,6957.935855,-7920.203579,995.924147
1477.871415,5329.482782,-7920.203579,1378.971896
1477.871745,5107.421000,-8364.327145,383.047749
1477.872074,5995.668130,-6883.915261,1072.533697
1477.872403,6587.832884,-6291.750507,842.705048
1477.872732,7328.038826,-6587.832884,766.095498
1477.873062,8216.285956,-5625.565159,1072.533697
1477.873391,7920.203579,-5477.523971,1455.581446
1477.873720,7698.141797,-4885.359217,689.485948
1477.874049,7476.080014,-5403.503377,689.485948
1477.874379,7328.038826,-6291.750507,1225.752797
1477.874708,7772.162391,-6957.935855,1838.629195
1477.875037,8142.265362,-7254.018232,2681.334243
1477.875367,7698.141797,-5551.544565,1608.800546
1477.875696,6809.894666,-5403.503377,1225.752797
1477.876025,6587.832884,-5847.626942,919.314598
1477.876354,7105.977043,-6069.688724,1072.533697
1477.876684,7254.018232,-6069.688724,1532.190996
1477.877013,7328.038826,-7105.977043,1225.752797
1477.877342,6809.894666,-6809.894666,1072.533697
1477.877671,6513.812290,-5181.441594,459.657299
1477.878001,6217.729913,-7920.203579,612.876398
1477.878330,6069.688724,-7179.997637,766.095498
1477.878659,6661.853478,-7920.203579,1762.019645
1477.878988,7550.100608,-7105.977043,383.047749
1477.879317,7105.977043,-6291.750507,1378.971896
1477.879646,6513.812290,-7402.059420,689.485948
1477.879976,6365.771101,-7402.059420,0.000000
1477.880305,6291.750507,-7031.956449,995.924147
1477.880634,6735.874072,-6069.688724,229.828649
1477.880963,7031.956449,-6661.853478,459.657299
1477.881292,6143.709319,-7402.059420,842.705048
1477.881622,5773.606348,-5995.668130,76.609550
1477.881951,6143.709319,-7254.018232,536.266849
1477.882280,6809.894666,-7179.997637,842.705048
1477.882609,7105.977043,-6587.832884,842.705048
1477.882938,7105.977043,-6809.894666,1532.190996
1477.883267,7846.182985,-7031.956449,1302.362347
1477.883597,7772.162391,-6365.771101,1455.581446
1477.883926,7328.038826,-6217.729913,2068.457845
1477.884255,7772.162391,-5699.585753,995.924147
1477.884584,7846.182985,-4885.359217,1455.581446
1477.884913,7179.997637,-5773.606348,1991.848295
1477.885243,7328.038826,-6661.853478,1378.971896
1477.885572,6291.750507,-5477.523971,1302.362347
1477.885901,5847.626942,-6439.791695,919.314598
1477.886230,5921.647536,-6587.832884,842.705048
1477.886559,6735.874072,-5625.565159,459.657299
1477.886888,7550.100608,-6365.771101,1991.848295
1477.887218,9030.512492,-7179.997637,1915.238745
1477.887547,8216.285956,-6957.935855,1532.190996
1477.887876,5699.585753,-5403.503377,0.000000
1477.888205,5255.462188,-7698.141797,-229.828649
1477.888534,6957.935855,-6883.915261,383.047749
1477.888864,8068.244768,-6439.791695,1608.800546
1477.889193,8734.430116,-7846.182985,2298.286494
1477.889522,8438.347739,-6883.915261,2068.457845
1477.889851,6439.791695,-6439.791695,689.485948
1477.890180,4663.297435,-6809.894666,306.438199
1477.890509,4441.235652,-7105.977043,0.000000
1477.890839,5847.626942,-6957.935855,0.000000
1477.891168,6217.729913,-8512.368333,842.705048
1477.891497,6735.874072,-8808.450710,1455.581446
1477.891826,7179.997637,-7772.162391,1225.752797
1477.892155,6661.853478,-7179.997637,1225.752797
1477.892485,7031.956449,-6217.729913,612.876398
1477.892814,8290.306550,-4737.318029,995.924147
1477.893143,9474.636058,-5403.503377,1225.752797
1477.893472,8734.430116,-6439.791695,1532.190996
1477.893801,7402.059420,-5107.421000,1455.581446
1477.894130,6661.853478,-5847.626942,1225.752797
1477.894460,5847.626942,-7328.038826,536.266849
1477.894789,5329.482782,-6069.688724,459.657299
1477.895118,5625.565159,-6587.832884,1532.190996
1477.895447,7624.121203,-7624.121203,1838.629195
1477.895776,7846.182985,-4737.318029,1378.971896
1477.896106,7105.977043,-4589.276840,1225.752797
1477.896435,7994.224174,-5995.668130,919.314598
1477.896764,7846.182985,-6143.709319,2298.286494
1477.897093,7846.182985,-5995.668130,1302.362347
1477.897422,8216.285956,-7254.018232,1762.019645
1477.897751,8142.265362,-4737.318029,1762.019645
1477.898081,5699.585753,-6809.894666,-76.609550
1477.898410,4663.297435,-7846.182985,229.828649
1477.898739,5551.544565,-6883.915261,766.095498
1477.899068,6513.812290,-6883.915261,842.705048
1477.899397,7698.141797,-6883.915261,1838.629195
1477.899727,7105.977043,-7772.162391,2145.067394
1477.900056,7105.977043,-6143.709319,842.705048
1477.900385,5625.565159,-7772.162391,459.657299
1477.900714,5255.462188,-7031.956449,842.705048
1477.901043,7105.977043,-5329.482782,153.219100
1477.901372,8512.368333,-6587.832884,766.095498
1477.901702,8068.244768,-6735.874072,1685.410096
1477.902031,7772.162391,-6809.894666,1838.629195
1477.902360,7402.059420,-7254.018232,919.314598
1477.902689,6365.771101,-5773.606348,-306.438199
1477.903018,5181.441594,-6587.832884,842.705048
1477.903347,5773.606348,-6957.935855,0.000000
1477.903677,6143.709319,-7920.203579,153.219100
1477.904006,6291.750507,-7105.977043,1838.629195
1477.904335,7105.977043,-6735.874072,2145.067394
1477.904664,7920.203579,-6883.915261,766.095498
1477.904993,7031.956449,-4589.276840,1608.800546
1477.905323,6735.874072,-5699.585753,383.047749
1477.905652,8512.368333,-6439.791695,1149.143247
1477.905981,8512.368333,-4219.173869,1838.629195
1477.906310,7846.182985,-6143.709319,1225.752797
1477.906639,8512.368333,-5773.606348,1915.238745
1477.906968,7328.038826,-5699.585753,1532.190996
1477.907298,6069.688724,-7402.059420,689.485948
1477.907627,5995.668130,-7105.977043,919.314598
1477.907956,5995.668130,-7179.997637,842.705048
1477.908285,5477.523971,-7846.182985,0.000000
1477.908614,5551.544565,-6735.874072,766.095498
1477.908944,6439.791695,-6735.874072,536.266849
1477.909273,7402.059420,-6291.750507,919.314598
1477.909602,7994.224174,-6661.853478,1455.581446
1477.909931,8364.327145,-6069.688724,1762.019645
1477.910260,7624.121203,-5403.503377,1072.533697
1477.910589,7105.977043,-6439.791695,766.095498
1477.910919,7105.977043,-7624.121203,1149.143247
1477.911248,7846.182985,-5921.647536,1455.581446
1477.911577,8216.285956,-6809.894666,1991.848295
1477.911906,7920.203579,-7105.977043,1762.019645
1477.912235,6587.832884,-6439.791695,1149.143247
1477.912565,5699.585753,-5773.606348,-229.828649
1477.912894,5625.565159,-6661.853478,76.609550
1477.913223,6513.812290,-6587.832884,1378.971896
1477.913552,7624.121203,-6587.832884,1072.533697
1477.913881,7624.121203,-6735.874072,1072.533697
1477.914210,6217.729913,-6439.791695,1455.581446
1477.914540,5995.668130,-7402.059420,612.876398
1477.914869,5847.626942,-7772.162391,306.438199
1477.915198,6143.709319,-6439.791695,612.876398
1477.915527,7476.080014,-6883.915261,1149.143247
1477.915856,8438.347739,-7105.977043,2374.896044
1477.916186,8290.306550,-5551.544565,1991.848295
1477.916515,7476.080014,-6883.915261,1608.800546
1477.916844,7846.182985,-5995.668130,1302.362347
1477.917173,7031.956449,-4737.318029,689.485948
1477.917502,6957.935855,-5773.606348,229.828649
1477.917831,7328.038826,-6143.709319,459.657299
1477.918161,7846.182985,-6069.688724,919.314598
1477.918490,6735.874072,-6809.894666,919.314598
1477.918819,6143.709319,-7402.059420,536.266849
1477.919148,6439.791695,-6809.894666,-306.438199
1477.919477,6291.750507,-6513.812290,842.705048
1477.919807,7402.059420,-8660.409521,1225.752797
1477.920136,7328.038826,-8660.409521,1608.800546
1477.920465,5847.626942,-6143.709319,842.705048
1477.920794,5995.668130,-7179.997637,459.657299
1477.921123,6957.935855,-6957.935855,612.876398
1477.921452,7328.038826,-6069.688724,1762.019645
1477.921782,7550.100608,-7846.182985,995.924147
1477.922111,8068.244768,-6217.729913,1149.143247
1477.922440,6513.812290,-6217.729913,612.876398
1477.922769,6069.688724,-8142.265362,459.657299
1477.923098,5847.626942,-7179.997637,612.876398
1477.923428,5847.626942,-7402.059420,153.219100
1477.923757,7105.977043,-7105.977043,766.095498
1477.924086,8512.368333,-6957.935855,1608.800546
1477.924415,8290.306550,-5699.585753,2145.067394
1477.924744,7328.038826,-5033.400406,1225.752797
1477.925073,7328.038826,-6069.688724,919.314598
1477.925403,7179.997637,-4589.276840,842.705048
1477.925732,6809.894666,-5329.482782,1072.533697
1477.926061,7402.059420,-7402.059420,1762.019645
1477.926390,6957.935855,-5551.544565,1532.190996
1477.926719,6809.894666,-6439.791695,995.924147
1477.927049,6809.894666,-6957.935855,842.705048
1477.927378,5847.626942,-6513.812290,1608.800546
1477.927707,6661.853478,-6883.915261,1378.971896
1477.928036,7328.038826,-6587.832884,1991.848295
1477.928365,7476.080014,-5625.565159,1225.752797
1477.928694,7105.977043,-5477.523971,1302.362347
1477.929024,7254.018232,-6513.812290,2145.067394
1477.929353,7846.182985,-4737.318029,1378.971896
1477.929682,7031.956449,-5403.503377,2451.505594
1477.930011,6587.832884,-6513.812290,842.705048
1477.930340,5403.503377,-7550.100608,536.266849
1477.930670,4145.153275,-8660.409521,919.314598
1477.930999,4071.132681,-9474.636058,0.000000
1477.931328,4811.338623,-7698.141797,-459.657299
1477.931657,5625.565159,-6439.791695,383.047749
1477.931986,8216.285956,-8660.409521,1532.190996
1477.932315,9992.780217,-8068.244768,2757.943793
1477.932645,9104.533087,-5033.400406,2145.067394
1477.932974,8068.244768,-6365.771101,1225.752797
1477.933303,7772.162391,-4367.215058,536.266849
1477.933632,7624.121203,-4441.235652,842.705048
1477.933961,8290.306550,-6439.791695,1302.362347
1477.934291,7846.182985,-6587.832884,1225.752797
1477.934620,5995.668130,-6217.729913,1072.533697
1477.934949,5551.544565,-7402.059420,536.266849
1477.935278,5477.523971,-7031.956449,229.828649
1477.935607,5625.565159,-7846.182985,689.485948
1477.935936,5995.668130,-8512.368333,1072.533697
1477.936266,7402.059420,-8068.244768,1455.581446
1477.936595,7179.997637,-6217.729913,842.705048
1477.936924,7031.956449,-6291.750507,1149.143247
1477.937253,8142.265362,-6587.832884,1455.581446
1477.937582,9104.533087,-4959.379811,1608.800546
1477.937912,8512.368333,-5181.441594,2068.457845
1477.938241,8808.450710,-4145.153275,1455.581446
1477.938570,8068.244768,-3701.029710,459.657299
1477.938899,6809.894666,-6513.812290,842.705048
1477.939228,5773.606348,-6439.791695,0.000000
1477.939557,5329.482782,-7846.182985,76.609550
1477.939887,6217.729913,-7179.997637,1302.362347
1477.940216,7031.956449,-8438.347739,842.705048
1477.940545,6661.853478,-7402.059420,612.876398
1477.940874,5403.503377,-7402.059420,1072.533697
1477.941203,6291.750507,-7328.038826,153.219100
1477.941533,7624.121203,-5403.503377,306.438199
1477.941862,8364.327145,-4515.256246,1455.581446
1477.942191,9992.780217,-5699.585753,2298.286494
1477.942520,9622.677246,-5551.544565,1838.629195
1477.942849,7328.038826,-4811.338623,1378.971896
1477.943178,5995.668130,-5995.668130,229.828649
1477.943508,6439.791695,-6291.750507,153.219100
1477.943837,6069.688724,-7698.141797,919.314598
1477.944166,6809.894666,-7994.224174,1225.752797
1477.944495,7105.977043,-7402.059420,689.485948
1477.944824,6143.709319,-7031.956449,0.000000
1477.945154,4959.379811,-7105.977043,0.000000
1477.945483,6735.874072,-7254.018232,0.000000
1477.945812,7550.100608,-5847.626942,766.095498
1477.946141,8290.306550,-5921.647536,689.485948
1477.946470,8882.471304,-5773.606348,1532.190996
1477.946799,8882.471304,-5255.462188,1455.581446
1477.947129,7031.956449,-6957.935855,1302.362347
1477.947458,6291.750507,-6587.832884,689.485948
1477.947787,6439.791695,-7105.977043,306.438199
1477.948116,7105.977043,-6217.729913,1149.143247
1477.948445,7698.141797,-7624.121203,1378.971896
1477.948775,7179.997637,-7476.080014,2068.457845
1477.949104,6439.791695,-6661.853478,1225.752797
1477.949433,6069.688724,-5921.647536,-383.047749
1477.949762,6735.874072,-5329.482782,229.828649
1477.950091,7179.997637,-5625.565159,1225.752797
1477.950420,8142.265362,-6661.853478,1532.190996
1477.950750,8586.388927,-5477.523971,1762.019645
1477.951079,6809.894666,-6069.688724,1685.410096
1477.951408,5477.523971,-6735.874072,612.876398
1477.951737,5329.482782,-7402.059420,229.828649
1477.952066,5847.626942,-7254.018232,2068.457845
1477.952396,7698.141797,-9104.533087,1378.971896
1477.952725,7698.141797,-7476.080014,1762.019645
1477.953054,7105.977043,-5551.544565,1532.190996
1477.953383,6365.771101,-8068.244768,919.314598
1477.953712,6809.894666,-4737.318029,842.705048
1477.954041,6513.812290,-5477.523971,612.876398
1477.954371,6069.688724,-7920.203579,919.314598
1477.954700,7031.956449,-5403.503377,229.828649
1477.955029,6735.874072,-6513.812290,1149.143247
1477.955358,5995.668130,-6957.935855,842.705048
1477.955687,5329.482782,-6587.832884,383.047749
1477.956017,5847.626942,-6439.791695,1378.971896
1477.956346,6291.750507,-7476.080014,766.095498
1477.956675,7920.203579,-7624.121203,2221.676944
1477.957004,8290.306550,-7031.956449,1455.581446
1477.957333,7254.018232,-5699.585753,1378.971896
1477.957662,7105.977043,-6809.894666,1149.143247
1477.957992,6513.812290,-6217.729913,919.314598
1477.958321,7550.100608,-4663.297435,2298.286494
1477.958650,9030.512492,-5699.585753,1455.581446
1477.958979,8216.285956,-4885.359217,919.314598
1477.959308,6513.812290,-5477.523971,1225.752797
1477.959638,5699.585753,-5625.565159,0.000000
1477.959967,6143.709319,-5699.585753,306.438199
1477.960296,6439.791695,-7772.162391,1225.752797
1477.960625,7328.038826,-7920.203579,919.314598
1477.960954,6587.832884,-8142.265362,842.705048
1477.961283,6217.729913,-7994.224174,919.314598
1477.961613,6217.729913,-8142.265362,842.705048
1477.961942,7624.121203,-6957.935855,919.314598
1477.962271,8290.306550,-5255.462188,1532.190996
1477.962600,9474.636058,-6365.771101,1608.800546
1477.962929,9474.636058,-6587.832884,2374.896044
1477.963258,7476.080014,-4737.318029,1532.190996
1477.963588,6439.791695,-5255.462188,612.876398
1477.963917,5921.647536,-4811.338623,-229.828649
1477.964246,6143.709319,-5773.606348,689.485948
1477.964575,6143.709319,-8438.347739,1378.971896
1477.964904,6735.874072,-8068.244768,842.705048
1477.965234,5995.668130,-7772.162391,766.095498
1477.965563,5255.462188,-7698.141797,153.219100
1477.965892,6143.709319,-7772.162391,995.924147
1477.966221,7698.141797,-6439.791695,1532.190996
1477.966550,8438.347739,-5329.482782,1302.362347
1477.966879,8512.368333,-5403.503377,1378.971896
1477.967209,7846.182985,-5329.482782,1532.190996
1477.967538,7105.977043,-5699.585753,995.924147
1477.967867,6587.832884,-6365.771101,919.314598
1477.968196,6513.812290,-5921.647536,1378.971896
1477.968525,7105.977043,-6217.729913,1149.143247
1477.968855,6809.894666,-6217.729913,842.705048
1477.969184,5699.585753,-6957.935855,536.266849
1477.969513,5773.606348,-6587.832884,76.609550
1477.969842,6365.771101,-7031.956449,76.609550
1477.970171,6957.935855,-7476.080014,1225.752797
1477.970500,8586.388927,-5773.606348,2298.286494
1477.970830,8734.430116,-6809.894666,842.705048
1477.971159,8068.244768,-6883.915261,1762.019645
1477.971488,7105.977043,-6291.750507,919.314598
1477.971817,6809.894666,-6291.750507,1225.752797
1477.972146,7402.059420,-7031.956449,1378.971896
1477.972476,7328.038826,-7328.038826,1608.800546
1477.972805,7179.997637,-6365.771101,1378.971896
1477.973134,6439.791695,-8216.285956,1302.362347
1477.973463,5551.544565,-7031.956449,612.876398
1477.973792,5699.585753,-6143.709319,0.000000
1477.974121,5033.400406,-8068.244768,0.000000
1477.974451,6365.771101,-5329.482782,536.266849
1477.974780,7698.141797,-7550.100608,1455.581446
1477.975109,9696.697840,-6217.729913,1302.362347
1477.975438,8882.471304,-4811.338623,2068.457845
1477.975767,7254.018232,-7476.080014,1608.800546
1477.976097,5773.606348,-6809.894666,689.485948
1477.976426,5033.400406,-6661.853478,229.828649
1477.976755,5773.606348,-7105.977043,612.876398
1477.977084,6661.853478,-7105.977043,995.924147
1477.977413,7328.038826,-7105.977043,2451.505594
1477.977743,7624.121203,-4737.318029,1302.362347
1477.978072,8512.368333,-6365.771101,1838.629195
1477.978401,8512.368333,-3923.091493,1915.238745
1477.978730,7698.141797,-3552.988522,689.485948
1477.979059,7476.080014,-5995.668130,1302.362347
1477.979388,5699.585753,-7031.956449,766.095498
1477.979718,4885.359217,-7254.018232,766.095498
1477.980047,5477.523971,-6661.853478,612.876398
1477.980376,6513.812290,-6513.812290,1532.190996
1477.980705,7179.997637,-5995.668130,995.924147
1477.981034,6883.915261,-7328.038826,1072.533697
1477.981364,6217.729913,-6735.874072,1455.581446
1477.981693,6365.771101,-6883.915261,919.314598
1477.982022,6735.874072,-8586.388927,1532.190996
1477.982351,6439.791695,-6809.894666,1378.971896
1477.982680,7328.038826,-6143.709319,612.876398
1477.983010,8364.327145,-7179.997637,1378.971896
1477.983339,7698.141797,-6809.894666,1378.971896
1477.983668,7328.038826,-5551.544565,995.924147
1477.983997,6883.915261,-4885.359217,229.828649
1477.984326,6439.791695,-7402.059420,0.000000
1477.984656,5921.647536,-7846.182985,842.705048
1477.984985,6291.750507,-8290.306550,689.485948
1477.985314,6735.874072,-8956.491898,689.485948
1477.985643,6735.874072,-5847.626942,1072.533697
1477.985972,6217.729913,-6809.894666,612.876398
1477.986301,6365.771101,-7031.956449,766.095498
1477.986631,7105.977043,-6291.750507,1149.143247
1477.986960,7994.224174,-6439.791695,1762.019645
1477.987289,8734.430116,-5181.441594,1532.190996
1477.987618,7476.080014,-5255.462188,1762.019645
1477.987947,6883.915261,-4589.276840,842.705048
1477.988277,6809.894666,-6883.915261,536.266849
1477.988606,7328.038826,-6291.750507,1378.971896
1477.988935,7402.059420,-6735.874072,1225.752797
1477.989264,7772.162391,-7031.956449,689.485948
1477.989593,7402.059420,-6069.688724,1225.752797
1477.989923,6143.709319,-7402.059420,76.609550
1477.990252,5847.626942,-7105.977043,-612.876398
1477.990581,6735.874072,-6291.750507,766.095498
1477.990910,8364.327145,-5107.421000,383.047749
1477.991239,8364.327145,-6143.709319,612.876398
1477.991568,8068.244768,-6513.812290,1915.238745
1477.991898,6661.853478,-6587.832884,919.314598
1477.992227,6661.853478,-5773.606348,0.000000
1477.992556,6587.832884,-7105.977043,1149.143247
1477.992885,7624.121203,-5921.647536,1302.362347
1477.993214,8586.388927,-6365.771101,1302.362347
1477.993544,7550.100608,-8216.285956,1915.238745
1477.993873,7328.038826,-6883.915261,1149.143247
1477.994202,6661.853478,-5625.565159,229.828649
1477.994531,5847.626942,-6587.832884,229.828649
1477.994860,6217.729913,-6735.874072,536.266849
1477.995190,7476.080014,-5921.647536,842.705048
1477.995519,7920.203579,-7624.121203,766.095498
1477.995848,6513.812290,-6365.771101,612.876398
1477.996177,6661.853478,-6809.894666,995.924147
1477.996506,6735.874072,-7772.162391,459.657299
1477.996836,6957.935855,-5921.647536,1838.629195
1477.997165,7846.182985,-5847.626942,1149.143247
1477.997494,8068.244768,-6069.688724,842.705048
1477.997823,7254.018232,-5403.503377,1838.629195
1477.998152,6809.894666,-5921.647536,536.266849
1477.998481,6587.832884,-6957.935855,459.657299
1477.998811,6735.874072,-7402.059420,1608.800546
1477.999140,7105.977043,-6217.729913,1302.362347
1477.999469,7402.059420,-7550.100608,689.485948
1477.999798,6513.812290,-6809.894666,995.924147
1478.000127,6143.709319,-5403.503377,153.219100
1478.000457,5921.647536,-7179.997637,153.219100
1478.000786,6217.729913,-6735.874072,1378.971896
1478.001115,7402.059420,-7105.977043,1225.752797
1478.001444,8438.347739,-6587.832884,1378.971896
1478.001773,7624.121203,-7179.997637,2681.334243
1478.002103,6661.853478,-7328.038826,2068.457845
1478.002432,7328.038826,-5921.647536,1455.581446
1478.002761,6143.709319,-5995.668130,766.095498
1478.003090,6143.709319,-6143.709319,1072.533697
1478.003419,6883.915261,-6957.935855,919.314598
1478.003749,7105.977043,-8512.368333,306.438199
1478.004078,6365.771101,-6365.771101,1072.533697
1478.004407,6439.791695,-6217.729913,689.485948
1478.004736,6587.832884,-7550.100608,459.657299
1478.005065,6217.729913,-7179.997637,1378.971896
1478.005394,7328.038826,-8216.285956,995.924147
1478.005724,8216.285956,-5847.626942,1455.581446
1478.006053,6217.729913,-6217.729913,1685.410096
1478.006382,6143.709319,-6069.688724,612.876398
1478.006711,7328.038826,-5181.441594,995.924147
1478.007040,7031.956449,-6365.771101,1455.581446
1478.007370,7476.080014,-4737.318029,1455.581446
1478.007699,8068.244768,-6661.853478,1838.629195
1478.008028,7476.080014,-5477.523971,1532.190996
1478.008357,5995.668130,-6735.874072,459.657299
1478.008686,4737.318029,-8142.265362,1149.143247
1478.009016,4811.338623,-6439.791695,76.609550
1478.009345,5699.585753,-7402.059420,383.047749
1478.009674,7920.203579,-7328.038826,2681.334243
1478.010003,8882.471304,-6439.791695,2681.334243
1478.010332,8290.306550,-5107.421000,1762.019645
1478.010662,6143.709319,-5773.606348,536.266849
1478.010991,6069.688724,-6661.853478,306.438199
1478.011320,7624.121203,-4959.379811,1149.143247
1478.011649,8586.388927,-5551.544565,612.876398
1478.011978,7994.224174,-6069.688724,1455.581446
1478.012307,7105.977043,-6291.750507,1762.019645
1478.012637,7105.977043,-7402.059420,766.095498
1478.012966,6143.709319,-6735.874072,153.219100
1478.013295,5255.462188,-7550.100608,229.828649
1478.013624,6735.874072,-8512.368333,689.485948
1478.013953,7179.997637,-9400.615463,842.705048
1478.014283,6143.709319,-8512.368333,2221.676944
1478.014612,6587.832884,-6439.791695,1072.533697
1478.014941,7105.977043,-6513.812290,153.219100
1478.015270,7550.100608,-4441.235652,612.876398
1478.015599,7328.038826,-5403.503377,1302.362347
1478.015929,8216.285956,-6587.832884,1225.752797
1478.016258,6809.894666,-6661.853478,689.485948
1478.016587,5921.647536,-7105.977043,1532.190996
1478.016916,6735.874072,-8734.430116,689.485948
1478.017245,7031.956449,-4811.338623,689.485948
1478.017574,6661.853478,-6069.688724,1685.410096
1478.017904,7402.059420,-8364.327145,1378.971896
1478.018233,8142.265362,-5921.647536,1532.190996
1478.018562,6513.812290,-6217.729913,842.705048
1478.018891,6365.771101,-6365.771101,842.705048
1478.019220,7105.977043,-6217.729913,612.876398
1478.019550,7402.059420,-6439.791695,1455.581446
1478.019879,7402.059420,-6439.791695,1302.362347
1478.020208,8660.409521,-5995.668130,1608.800546
1478.020537,7624.121203,-4293.194464,1302.362347
1478.020866,6513.812290,-5625.565159,153.219100
1478.021196,6587.832884,-6957.935855,766.095498
1478.021525,7402.059420,-5551.544565,1149.143247
1478.021854,8734.430116,-7772.162391,2528.115143
1478.022183,9104.533087,-7105.977043,2298.286494
1478.022512,7328.038826,-5033.400406,1532.190996
1478.022842,6217.729913,-6365.771101,536.266849
1478.023171,6661.853478,-5921.647536,0.000000
1478.023500,6439.791695,-5847.626942,919.314598
1478.023829,6143.709319,-6883.915261,766.095498
1478.024158,6587.832884,-7254.018232,306.438199
1478.024487,5773.606348,-6069.688724,995.924147
1478.024817,5033.400406,-7920.203579,0.000000
1478.025146,4737.318029,-9030.512492,842.705048
1478.025475,5107.421000,-7476.080014,612.876398
1478.025804,5625.565159,-8216.285956,536.266849
1478.026133,6735.874072,-7994.224174,1149.143247
1478.026463,7254.018232,-7254.018232,919.314598
1478.026792,7254.018232,-5329.482782,919.314598
1478.027121,8512.368333,-6883.915261,1378.971896
1478.027450,9918.759623,-5699.585753,2374.896044
1478.027779,9474.636058,-4219.173869,1915.238745
1478.028109,8808.450710,-5551.544565,1378.971896
1478.028438,7920.203579,-5255.462188,1455.581446
1478.028767,5255.462188,-6069.688724,306.438199
1478.029096,3997.112087,-7550.100608,76.609550
1478.029425,4811.338623,-6661.853478,842.705048
1478.029755,5551.544565,-7476.080014,842.705048
1478.030084,6217.729913,-8290.306550,1762.019645
1478.030413,6291.750507,-8512.368333,1072.533697
1478.030742,6587.832884,-6661.853478,919.314598
1478.031071,7846.182985,-6513.812290,1378.971896
1478.031400,8956.491898,-6439.791695,1915.238745
1478.031730,9622.677246,-4293.194464,2145.067394
1478.032059,8808.450710,-5551.544565,1762.019645
1478.032388,7550.100608,-6883.915261,536.266849
1478.032717,5329.482782,-7772.162391,766.095498
1478.033046,4367.215058,-8956.491898,689.485948
1478.033376,4515.256246,-8808.450710,-383.047749
1478.033705,4737.318029,-7550.100608,612.876398
1478.034034,5699.585753,-8364.327145,842.705048
1478.034363,6661.853478,-8290.306550,153.219100
1478.034692,6439.791695,-6735.874072,919.314598
1478.035022,6365.771101,-5995.668130,612.876398
1478.035351,7476.080014,-5107.421000,766.095498
1478.035680,7920.203579,-4515.256246,1149.143247
1478.036009,8290.306550,-6439.791695,1838.629195
1478.036338,9622.677246,-5921.647536,2145.067394
1478.036668,8882.471304,-5625.565159,1762.019645
1478.036997,7550.100608,-5699.585753,1455.581446
1478.037326,6513.812290,-7402.059420,1225.752797
1478.037655,5699.585753,-7550.100608,306.438199
1478.037984,3923.091493,-9992.780217,0.000000
1478.038313,2960.823768,-11251.130318,-766.095498
1478.038643,3627.009116,-11029.068536,0.000000
1478.038972,2664.741391,-11621.233289,229.828649
1478.039301,3404.947333,-10288.862594,-383.047749
1478.039630,4441.235652,-9030.512492,153.219100
1478.039959,5773.606348,-8882.471304,0.000000
1478.040289,7031.956449,-7031.956449,2221.676944
1478.040618,7698.141797,-5477.523971,2681.334243
1478.040947,7328.038826,-4885.359217,3140.991542
1478.041276,8068.244768,-2960.823768,3447.429741
1478.041605,8586.388927,-3330.926739,1302.362347
1478.041935,8142.265362,-4515.256246,2451.505594
1478.042264,7105.977043,-8512.368333,2068.457845
1478.042593,6143.709319,-8808.450710,306.438199
1478.042922,3627.009116,-8808.450710,-1302.362347
1478.043251,1258.350101,-14063.912898,-612.876398
1478.043580,1036.288319,-15396.283594,0.000000
1478.043910,1332.370696,-13175.665768,0.000000
1478.044239,2146.597232,-12435.459826,306.438199
1478.044568,3775.050304,-9622.677246,536.266849
1478.044897,4663.297435,-8438.347739,1685.410096
1478.045226,5329.482782,-7550.100608,2604.724693
1478.045556,5107.421000,-7105.977043,2528.115143
1478.045885,4737.318029,-4959.379811,2604.724693
1478.046214,4811.338623,-5921.647536,2834.553343
1478.046543,5773.606348,-6217.729913,2145.067394
1478.046872,4885.359217,-5477.523971,1225.752797
1478.047202,4589.276840,-8956.491898,1762.019645
1478.047531,4589.276840,-9622.677246,842.705048
1478.047860,4219.173869,-11103.089130,383.047749
1478.048189,4589.276840,-10807.006753,1378.971896
1478.048518,5551.544565,-11029.068536,1302.362347
1478.048848,5551.544565,-9844.739029,766.095498
1478.049177,3478.967927,-8660.409521,76.609550
1478.049506,3034.844362,-9030.512492,306.438199
1478.049835,3849.070898,-8586.388927,383.047749
1478.050164,2960.823768,-9622.677246,1762.019645
1478.050493,2368.659014,-9474.636058,1685.410096
1478.050823,4367.215058,-7550.100608,612.876398
1478.051152,5403.503377,-9474.636058,1762.019645
1478.051481,7105.977043,-8364.327145,2834.553343
1478.051810,8808.450710,-6513.812290,2451.505594
1478.052139,8364.327145,-4219.173869,2451.505594
1478.052469,7476.080014,-6883.915261,1455.581446
1478.052798,6587.832884,-8956.491898,1685.410096
1478.053127,5699.585753,-8068.244768,689.485948
1478.053456,4885.359217,-8512.368333,76.609550
1478.053785,5181.441594,-7994.224174,842.705048
1478.054115,5773.606348,-7179.997637,1302.362347
1478.054444,5403.503377,-7328.038826,612.876398
1478.054773,4737.318029,-6587.832884,612.876398
1478.055102,4293.194464,-9696.697840,1532.190996
1478.055431,4441.235652,-9844.739029,229.828649
1478.055761,3404.947333,-9178.553681,0.000000
1478.056090,4071.132681,-9770.718434,-459.657299
1478.056419,5551.544565,-11621.233289,1378.971896
1478.056748,6957.935855,-10807.006753,1685.410096
1478.057077,6217.729913,-9104.533087,0.000000
1478.057406,5477.523971,-7328.038826,-689.485948
1478.057736,5625.565159,-7402.059420,0.000000
1478.058065,5625.565159,-10658.965565,1455.581446
1478.058394,3627.009116,-9696.697840,919.314598
1478.058723,4071.132681,-6587.832884,2145.067394
1478.059052,5921.647536,-5477.523971,1225.752797
1478.059382,5329.482782,-6365.771101,2068.457845
1478.059711,3701.029710,-5995.668130,2528.115143
1478.060040,3701.029710,-7105.977043,76.609550
1478.060369,5033.400406,-6661.853478,0.000000
1478.060698,4515.256246,-10436.903782,1991.848295
1478.061028,4663.297435,-12435.459826,2451.505594
1478.061357,3627.009116,-10955.047942,229.828649
1478.061686,2516.700203,-10955.047942,-536.266849
1478.062015,3034.844362,-11325.150913,76.609550
1478.062344,4441.235652,-10881.027347,1608.800546
1478.062673,4811.338623,-9992.780217,1762.019645
1478.063003,4145.153275,-6291.750507,-306.438199
1478.063332,4737.318029,-5107.421000,-842.705048
1478.063661,5551.544565,-7179.997637,383.047749
1478.063990,5033.400406,-9548.656652,2145.067394
1478.064319,4589.276840,-9326.594869,1762.019645
1478.064649,4145.153275,-7624.121203,0.000000
1478.064978,4367.215058,-8068.244768,153.219100
1478.065307,5403.503377,-10955.047942,1838.629195
1478.065636,6513.812290,-10955.047942,2298.286494
1478.065965,6735.874072,-9400.615463,1608.800546
1478.066295,5847.626942,-7105.977043,0.000000
1478.066624,5403.503377,-7846.182985,766.095498
1478.066953,6143.709319,-10066.800811,2451.505594
1478.067282,5403.503377,-10066.800811,2528.115143
1478.067611,3182.885551,-8438.347739,689.485948
1478.067941,1332.370696,-6957.935855,0.000000
1478.068270,2886.803174,-6809.894666,76.609550
1478.068599,4145.153275,-8216.285956,1915.238745
1478.068928,4885.359217,-8882.471304,2221.676944
1478.069257,4589.276840,-7846.182985,1225.752797
1478.069586,4441.235652,-7550.100608,1378.971896
1478.069916,5699.585753,-9030.512492,1991.848295
1478.070245,7254.018232,-7846.182985,2298.286494
1478.070574,7624.121203,-6883.915261,1149.143247
1478.070903,6809.894666,-8734.430116,1378.971896
1478.071232,6439.791695,-9400.615463,1915.238745
1478.071562,6587.832884,-8586.388927,1608.800546
1478.071891,6069.688724,-7624.121203,0.000000
1478.072220,3997.112087,-7698.141797,-612.876398
1478.072549,3404.947333,-9622.677246,0.000000
1478.072878,3701.029710,-10807.006753,919.314598
1478.073208,4737.318029,-9252.574275,2451.505594
1478.073537,5107.421000,-6587.832884,842.705048
1478.073866,5107.421000,-5625.565159,536.266849
1478.074195,4737.318029,-8142.265362,1149.143247
1478.074524,5625.565159,-8142.265362,1532.190996
1478.074854,6735.874072,-7550.100608,1302.362347
1478.075183,6735.874072,-7031.956449,1915.238745
1478.075512,6143.709319,-8808.450710,1762.019645
1478.075841,5329.482782,-11251.130318,1991.848295
1478.076170,4737.318029,-10881.027347,1608.800546
1478.076499,4071.132681,-10881.027347,459.657299
1478.076829,2738.761985,-8956.491898,-76.609550
1478.077158,2294.638420,-9770.718434,-536.266849
1478.077487,2590.720797,-10807.006753,0.000000
1478.077816,2960.823768,-9770.718434,1225.752797
1478.078145,3404.947333,-8956.491898,1378.971896
1478.078475,3997.112087,-7476.080014,766.095498
1478.078804,5403.503377,-5921.647536,1455.581446
1478.079133,6883.915261,-6291.750507,1302.362347
1478.079462,7105.977043,-5403.503377,1149.143247
1478.079791,6513.812290,-6217.729913,383.047749
1478.080120,5847.626942,-8290.306550,0.000000
1478.080449,5699.585753,-9918.759623,919.314598
1478.080778,5477.523971,-11621.233289,1762.019645
1478.081108,4811.338623,-11917.315666,689.485948
1478.081437,3182.885551,-12213.398043,842.705048
1478.081766,2664.741391,-12731.542202,153.219100
1478.082095,2368.659014,-11177.109724,0.000000
1478.082424,2960.823768,-9104.533087,0.000000
1478.082753,3552.988522,-7476.080014,459.657299
1478.083082,4737.318029,-7476.080014,1685.410096
1478.083411,5995.668130,-6439.791695,3064.381992
1478.083741,6735.874072,-5921.647536,3140.991542
1478.084070,7105.977043,-3701.029710,2681.334243
1478.084399,7031.956449,-3701.029710,1838.629195
1478.084728,6809.894666,-6069.688724,766.095498
1478.085057,6735.874072,-7105.977043,1072.533697
1478.085386,6809.894666,-9474.636058,689.485948
1478.085715,5995.668130,-9104.533087,306.438199
1478.086044,5773.606348,-9918.759623,1302.362347
1478.086374,5255.462188,-11917.315666,1072.533697
1478.086703,3997.112087,-11843.295072,842.705048
1478.087032,2812.782580,-11325.150913,229.828649
1478.087361,1998.556043,-11177.109724,-306.438199
1478.087690,1406.391290,-11029.068536,-689.485948
1478.088019,1258.350101,-11621.233289,0.000000
1478.088348,2664.741391,-10436.903782,1991.848295
1478.088677,4071.132681,-8438.347739,1455.581446
1478.089007,5625.565159,-4959.379811,2374.896044
1478.089336,7550.100608,-2812.782580,2374.896044
1478.089665,9400.615463,-2072.576638,2451.505594
1478.089994,9622.677246,-2516.700203,3447.429741
1478.090323,8438.347739,-5329.482782,2145.067394
1478.090652,7254.018232,-7179.997637,1225.752797
1478.090981,5477.523971,-10807.006753,1072.533697
1478.091310,4071.132681,-13471.748144,1455.581446
1478.091640,2812.782580,-13175.665768,689.485948
1478.091969,2812.782580,-13915.871710,842.705048
1478.092298,2960.823768,-12583.501014,1072.533697
1478.092627,3034.844362,-9696.697840,842.705048
1478.092956,3034.844362,-7402.059420,-153.219100
1478.093285,3182.885551,-6143.709319,-536.266849
1478.093614,3775.050304,-6883.915261,-383.047749
1478.093943,4885.359217,-6883.915261,383.047749
1478.094273,6957.935855,-6513.812290,1685.410096
1478.094602,7994.224174,-6365.771101,1455.581446
1478.094931,7476.080014,-7031.956449,1378.971896
1478.095260,6069.688724,-8660.409521,1532.190996
1478.095589,5625.565159,-10362.883188,1225.752797
1478.095918,5477.523971,-9252.574275,2068.457845
1478.096247,4885.359217,-9844.739029,2298.286494
1478.096576,4663.297435,-10510.924376,2681.334243
1478.096906,4219.173869,-10288.862594,2757.943793
1478.097235,3923.091493,-9844.739029,2757.943793
1478.097564,4071.132681,-6957.935855,2757.943793
1478.097893,5033.400406,-5995.668130,2528.115143
1478.098222,5329.482782,-5625.565159,2374.896044
1478.098551,4737.318029,-5847.626942,1149.143247
1478.098880,4663.297435,-6809.894666,1225.752797
1478.099209,3997.112087,-8290.306550,689.485948
1478.099539,4219.173869,-9770.718434,1149.143247
1478.099868,4219.173869,-10362.883188,1762.019645
1478.100197,4293.194464,-11695.253884,2068.457845
1478.100526,5625.565159,-10955.047942,2374.896044
1478.100855,5995.668130,-10510.924376,3753.867940
1478.101184,6513.812290,-8882.471304,3753.867940
1478.101513,6735.874072,-6809.894666,3677.258390
1478.101842,6513.812290,-5625.565159,3064.381992
1478.102172,6587.832884,-4885.359217,2681.334243
1478.102501,6957.935855,-5403.503377,3294.210641
1478.102830,7476.080014,-5403.503377,3064.381992
1478.103159,6809.894666,-5403.503377,2757.943793
1478.103488,5847.626942,-6291.750507,2757.943793
1478.103817,5773.606348,-7476.080014,2298.286494
1478.104146,5995.668130,-8956.491898,2528.115143
1478.104475,5773.606348,-8364.327145,4136.915689
1478.104805,6217.729913,-8068.244768,3677.258390
1478.105134,7031.956449,-6661.853478,4060.306139
1478.105463,7105.977043,-7179.997637,4673.182538
1478.105792,7328.038826,-7179.997637,4826.401637
1478.106121,7105.977043,-5847.626942,4673.182538
1478.106450,6735.874072,-4885.359217,3600.648841
1478.106779,6957.935855,-4811.338623,4060.306139
1478.107108,7920.203579,-4515.256246,4673.182538
1478.107438,8290.306550,-4811.338623,4826.401637
1478.107767,7994.224174,-5477.523971,4213.525239
1478.108096,7402.059420,-5551.544565,3907.087040
1478.108425,6661.853478,-6439.791695,2911.162892
1478.108754,5551.544565,-8734.430116,3064.381992
1478.109083,5551.544565,-9844.739029,3217.601092
1478.109412,5329.482782,-10658.965565,3600.648841
1478.109742,5403.503377,-10140.821405,3753.867940
1478.110071,4515.256246,-9770.718434,4596.572988
1478.110400,4959.379811,-8882.471304,4596.572988
1478.110729,5033.400406,-7476.080014,3983.696590
1478.111058,4959.379811,-6069.688724,4519.963438
1478.111387,6957.935855,-5847.626942,5439.278036
1478.111716,8734.430116,-4367.215058,5822.325785
1478.112045,9178.553681,-3182.885551,6052.154434
1478.112375,9548.656652,-2442.679609,5286.058936
1478.112704,9474.636058,-2220.617826,5362.668486
1478.113033,9400.615463,-3330.926739,4443.353888
1478.113362,8512.368333,-4811.338623,5132.839837
1478.113691,8734.430116,-5107.421000,4903.011187
1478.114020,8882.471304,-6883.915261,4366.744339
1478.114349,7698.141797,-7254.018232,4749.792088
1478.114678,6661.853478,-9474.636058,4979.620737
1478.115008,5995.668130,-9696.697840,4519.963438
1478.115337,4367.215058,-10436.903782,3753.867940
1478.115666,2368.659014,-10510.924376,2987.772442
1478.115995,1554.432478,-9844.739029,2681.334243
1478.116324,2590.720797,-8660.409521,2604.724693
1478.116653,4219.173869,-7698.141797,3907.087040
1478.116982,6661.853478,-5847.626942,4213.525239
1478.117311,8734.430116,-4367.215058,5209.449386
1478.117641,10510.924376,-3034.844362,5975.544884
1478.117970,10807.006753,-2294.638420,5669.106685
1478.118299,9918.759623,-1924.535449,5362.668486
1478.118628,8808.450710,-3182.885551,4903.011187
1478.118957,8364.327145,-5403.503377,4366.744339
1478.119286,7105.977043,-7105.977043,4060.306139
1478.119615,6735.874072,-9474.636058,3447.429741
1478.119944,5329.482782,-9992.780217,3447.429741
1478.120274,4589.276840,-10584.944971,2374.896044
1478.120603,3997.112087,-10066.800811,2681.334243
1478.120932,4737.318029,-8142.265362,3064.381992
1478.121261,5995.668130,-6735.874072,3753.867940
1478.121590,7624.121203,-4737.318029,4366.744339
1478.121919,9104.533087,-3849.070898,4749.792088
1478.122248,9548.656652,-3701.029710,3983.696590
1478.122577,9548.656652,-4441.235652,4060.306139
1478.122907,8068.244768,-5255.462188,3447.429741
1478.123236,6809.894666,-5847.626942,2757.943793
1478.123565,6439.791695,-7105.977043,2834.553343
1478.123894,6291.750507,-7476.080014,3217.601092
1478.124223,6439.791695,-7994.224174,3447.429741
1478.124552,6143.709319,-8216.285956,4290.134789
1478.124881,7179.997637,-7624.121203,4749.792088
1478.125210,7476.080014,-7105.977043,4519.963438
1478.125540,7550.100608,-6217.729913,3907.087040
1478.125869,7328.038826,-5625.565159,3830.477490
1478.126198,7476.080014,-5181.441594,3447.429741
1478.126527,7476.080014,-4145.153275,3370.820191
1478.126856,7846.182985,-3108.864956,3370.820191
1478.127185,8660.409521,-3923.091493,3524.039291
1478.127514,8290.306550,-4663.297435,4136.915689
1478.127843,7624.121203,-6587.832884,3677.258390
1478.128173,5181.441594,-8660.409521,2834.553343
1478.128502,4515.256246,-10288.862594,2451.505594
1478.128831,4367.215058,-11621.233289,2834.553343
1478.129160,4663.297435,-9400.615463,2681.334243
1478.129489,5033.400406,-8808.450710,3600.648841
1478.129818,5995.668130,-7031.956449,3677.258390
1478.130147,7031.956449,-5403.503377,3447.429741
1478.130476,7550.100608,-5181.441594,4596.572988
1478.130806,8438.347739,-4737.318029,5056.230287
1478.131135,8808.450710,-4145.153275,5209.449386
1478.131464,9548.656652,-3404.947333,5056.230287
1478.131793,10066.800811,-3330.926739,4749.792088
1478.132122,9696.697840,-3404.947333,4060.306139
1478.132451,9770.718434,-4959.379811,3907.087040
1478.132780,7105.977043,-6883.915261,3753.867940
1478.133109,4663.297435,-8734.430116,2451.505594
1478.133439,3182.885551,-11251.130318,2451.505594
1478.133768,3552.988522,-11991.336260,4136.915689
1478.134097,3997.112087,-11547.212695,3983.696590
1478.134426,4515.256246,-9104.533087,4213.525239
1478.134755,5699.585753,-6143.709319,3907.087040
1478.135084,7402.059420,-5107.421000,4903.011187
1478.135413,8586.388927,-3552.988522,5362.668486
1478.135742,8882.471304,-2886.803174,5209.449386
1478.136072,9178.553681,-2590.720797,4903.011187
1478.136401,9104.533087,-2368.659014,4979.620737
1478.136730,8290.306550,-3404.947333,5515.887586
1478.137059,7994.224174,-6291.750507,4903.011187
1478.137388,7105.977043,-7846.182985,4290.134789
1478.137717,6291.750507,-9474.636058,3600.648841
1478.138046,5847.626942,-9622.677246,3524.039291
1478.138375,5847.626942,-9252.574275,3524.039291
1478.138705,5033.400406,-8734.430116,3677.258390
1478.139034,5107.421000,-6883.915261,3677.258390
1478.139363,5921.647536,-6661.853478,4979.620737
1478.139692,7994.224174,-4589.276840,5745.716235
1478.140021,8956.491898,-3923.091493,5439.278036
1478.140350,7846.182985,-4737.318029,5056.230287
1478.140679,6735.874072,-4737.318029,4596.572988
1478.141008,6587.832884,-5181.441594,4443.353888
1478.141338,7031.956449,-4737.318029,4596.572988
1478.141667,7846.182985,-5329.482782,4903.011187
1478.141996,7920.203579,-5625.565159,4596.572988
1478.142325,7179.997637,-7772.162391,3830.477490
1478.142654,6143.709319,-9400.615463,3907.087040
1478.142983,6365.771101,-8364.327145,3600.648841
1478.143312,6069.688724,-9400.615463,3217.601092
1478.143641,5995.668130,-8956.491898,3983.696590
1478.143971,5847.626942,-7920.203579,3524.039291
1478.144300,6365.771101,-7402.059420,3447.429741
1478.144629,7105.977043,-5773.606348,4673.182538
1478.144958,7772.162391,-3552.988522,4366.744339
1478.145287,7994.224174,-2664.741391,3677.258390
1478.145616,7846.182985,-3627.009116,3830.477490
1478.145945,8438.347739,-5477.523971,4826.401637
1478.146274,8438.347739,-5329.482782,4213.525239
1478.146604,7846.182985,-7031.956449,4290.134789
1478.146933,7179.997637,-8068.244768,4290.134789
1478.147262,6513.812290,-9474.636058,2987.772442
1478.147591,4959.379811,-9696.697840,3064.381992
1478.147920,5403.503377,-7994.224174,3677.258390
1478.148249,7550.100608,-6957.935855,3677.258390
1478.148578,8290.306550,-6069.688724,4596.572988
1478.148907,7402.059420,-4959.379811,4519.963438
1478.149237,6883.915261,-4293.194464,4596.572988
1478.149566,6809.894666,-4441.235652,4060.306139
1478.149895,5995.668130,-6439.791695,3753.867940
1478.150224,7105.977043,-5847.626942,3600.648841
1478.150553,7402.059420,-5403.503377,3524.039291
1478.150882,6883.915261,-5921.647536,3140.991542
1478.151211,6143.709319,-6365.771101,2451.505594
1478.151540,6143.709319,-8882.471304,2681.334243
1478.151870,7105.977043,-7994.224174,3294.210641
1478.152199,6439.791695,-7772.162391,5132.839837
1478.152528,5403.503377,-9696.697840,4443.353888
1478.152857,5255.462188,-9622.677246,4673.182538
1478.153186,6217.729913,-6439.791695,5132.839837
1478.153515,7624.121203,-3849.070898,4443.353888
1478.153844,8734.430116,-2368.659014,4826.401637
1478.154173,8216.285956,-2812.782580,4826.401637
1478.154503,7624.121203,-3034.844362,4443.353888
1478.154832,7105.977043,-2886.803174,3830.477490
1478.155161,7179.997637,-4737.318029,3140.991542
1478.155490,8142.265362,-5699.585753,3064.381992
1478.155819,8512.368333,-7328.038826,3600.648841
1478.156148,7846.182985,-9474.636058,4290.134789
1478.156477,7920.203579,-9030.512492,4366.744339
1478.156806,7402.059420,-8068.244768,3064.381992
1478.157136,5699.585753,-9918.759623,3370.820191
1478.157465,3923.091493,-11251.130318,3294.210641
1478.157794,3404.947333,-9474.636058,3600.648841
1478.158123,4441.235652,-6883.915261,3064.381992
1478.158452,6513.812290,-6217.729913,4903.011187
1478.158781,9104.533087,-6587.832884,6358.592633
1478.159110,8956.491898,-4737.318029,5592.497135
1478.159439,7698.141797,-1480.411884,3140.991542
1478.159769,6587.832884,-1702.473667,2298.286494
1478.160098,8438.347739,-2738.761985,2374.896044
1478.160427,9474.636058,-4293.194464,3370.820191
1478.160756,9844.739029,-5921.647536,4290.134789
1478.161085,9474.636058,-7105.977043,3907.087040
1478.161414,7402.059420,-10214.842000,2757.943793
1478.161743,4959.379811,-10732.986159,2911.162892
1478.162073,3997.112087,-11399.171507,2374.896044
1478.162402,4367.215058,-10288.862594,1378.971896
1478.162731,3997.112087,-8068.244768,2604.724693
1478.163060,4737.318029,-7698.141797,3370.820191
1478.163389,6587.832884,-5995.668130,4826.401637
1478.163718,7402.059420,-2812.782580,4136.915689
1478.164047,7772.162391,-2516.700203,4060.306139
1478.164376,8734.430116,-3182.885551,4749.792088
1478.164706,8882.471304,-4219.173869,3830.477490
1478.165035,8216.285956,-3404.947333,3217.601092
1478.165364,7550.100608,-4367.215058,1685.410096
1478.165693,7179.997637,-5477.523971,995.924147
1478.166022,6365.771101,-6735.874072,612.876398
1478.166351,4663.297435,-9622.677246,689.485948
1478.166680,5181.441594,-11325.150913,1455.581446
1478.167009,5847.626942,-11029.068536,1225.752797
1478.167339,5699.585753,-10140.821405,2068.457845
1478.167668,6809.894666,-8808.450710,2911.162892
1478.167997,7698.141797,-7476.080014,2681.334243
1478.168326,7550.100608,-4811.338623,2451.505594
1478.168655,8290.306550,-3849.070898,3370.820191
1478.168984,9622.677246,-2072.576638,3294.210641
1478.169313,8734.430116,-2294.638420,2451.505594
1478.169642,7328.038826,-2590.720797,1991.848295
1478.169972,6883.915261,-4737.318029,229.828649
1478.170301,6661.853478,-7179.997637,0.000000
1478.170630,5995.668130,-8364.327145,919.314598
1478.170959,6217.729913,-10066.800811,995.924147
1478.171288,7031.956449,-11251.130318,919.314598
1478.171617,6365.771101,-9474.636058,612.876398
1478.171946,4811.338623,-9030.512492,0.000000
1478.172275,5551.544565,-7328.038826,0.000000
1478.172605,5995.668130,-5699.585753,0.000000
1478.172934,7105.977043,-4737.318029,306.438199
1478.173263,9104.533087,-4293.194464,2298.286494
1478.173592,10510.924376,-5403.503377,2298.286494
1478.173921,10214.842000,-3849.070898,2451.505594
1478.174250,7920.203579,-5625.565159,1225.752797
1478.174579,7105.977043,-6439.791695,229.828649
1478.174908,5255.462188,-5477.523971,0.000000
1478.175238,4959.379811,-7624.121203,-995.924147
1478.175567,6217.729913,-8660.409521,0.000000
1478.175896,6217.729913,-8068.244768,1685.410096
1478.176225,7105.977043,-9326.594869,1072.533697
1478.176554,7179.997637,-8438.347739,1455.581446
1478.176883,6365.771101,-6143.709319,1915.238745
1478.177212,6217.729913,-4441.235652,153.219100
1478.177541,6661.853478,-5329.482782,1608.800546
1478.177871,7846.182985,-3849.070898,3064.381992
1478.178200,8068.244768,-2590.720797,842.705048
1478.178529,7105.977043,-3997.112087,459.657299
1478.178858,6217.729913,-5329.482782,1532.190996
1478.179187,6439.791695,-7772.162391,383.047749
1478.179516,6291.750507,-9178.553681,766.095498
1478.179845,6069.688724,-9178.553681,919.314598
1478.180174,7105.977043,-7550.100608,0.000000
1478.180503,6587.832884,-8438.347739,842.705048
1478.180833,6069.688724,-7920.203579,459.657299
1478.181162,6809.894666,-5773.606348,383.047749
1478.181491,7772.162391,-6069.688724,842.705048
1478.181820,8438.347739,-5329.482782,766.095498
1478.182149,7920.203579,-5181.441594,1762.019645
1478.182478,8290.306550,-6069.688724,1532.190996
1478.182807,7624.121203,-5329.482782,383.047749
1478.183136,5847.626942,-5625.565159,1149.143247
1478.183465,6217.729913,-6513.812290,919.314598
1478.183795,7179.997637,-7698.141797,1685.410096
1478.184124,7254.018232,-7105.977043,2145.067394
1478.184453,6217.729913,-7254.018232,1072.533697
1478.184782,5995.668130,-8364.327145,842.705048
1478.185111,6809.894666,-7402.059420,383.047749
1478.185440,7476.080014,-6735.874072,1762.019645
1478.185769,7846.182985,-7476.080014,1838.629195
1478.186098,7105.977043,-5699.585753,1072.533697
1478.186427,5847.626942,-5329.482782,153.219100
1478.186757,5551.544565,-5699.585753,0.000000
1478.187086,5403.503377,-5773.606348,229.828649
1478.187415,6217.729913,-6809.894666,842.705048
1478.187744,7328.038826,-8216.285956,2451.505594
1478.188073,8364.327145,-6587.832884,2681.334243
1478.188402,8290.306550,-6957.935855,2221.676944
1478.188731,7179.997637,-7105.977043,2451.505594
1478.189060,6587.832884,-5773.606348,919.314598
1478.189389,7179.997637,-6143.709319,306.438199
1478.189719,7920.203579,-5551.544565,1302.362347
1478.190048,7994.224174,-5329.482782,919.314598
1478.190377,7402.059420,-5625.565159,536.266849
1478.190706,5995.668130,-6143.709319,0.000000
1478.191035,5773.606348,-7105.977043,0.000000
1478.191364,6217.729913,-6291.750507,536.266849
1478.191693,6513.812290,-7550.100608,1225.752797
1478.192022,7402.059420,-8512.368333,1608.800546
1478.192351,8216.285956,-7772.162391,1915.238745
1478.192681,6513.812290,-5477.523971,1072.533697
1478.193010,5921.647536,-5995.668130,612.876398
1478.193339,6957.935855,-5329.482782,919.314598
1478.193668,7698.141797,-5551.544565,689.485948
1478.193997,8586.388927,-7402.059420,1838.629195
1478.194326,8586.388927,-6735.874072,2374.896044
1478.194655,6439.791695,-7105.977043,1072.533697
1478.194984,4811.338623,-7772.162391,-153.219100
1478.195313,4145.153275,-6513.812290,76.609550
1478.195643,6439.791695,-7476.080014,383.047749
1478.195972,7328.038826,-8068.244768,1378.971896
1478.196301,6809.894666,-6587.832884,1838.629195
1478.196630,5773.606348,-6661.853478,383.047749
1478.196959,5995.668130,-6069.688724,536.266849
1478.197288,7179.997637,-5033.400406,1915.238745
1478.197617,8068.244768,-5033.400406,2145.067394
1478.197946,9400.615463,-6957.935855,2604.724693
1478.198275,9622.677246,-5403.503377,2451.505594
1478.198605,8290.306550,-5403.503377,919.314598
1478.198934,6513.812290,-6365.771101,-306.438199
1478.199263,4663.297435,-6587.832884,0.000000
1478.199592,4959.379811,-7698.141797,-612.876398
1478.199921,6143.709319,-7550.100608,536.266849
1478.200250,6587.832884,-7920.203579,1991.848295
1478.200579,7846.182985,-7476.080014,2298.286494
1478.200908,7105.977043,-6883.915261,1532.190996
1478.201237,5847.626942,-7254.018232,1378.971896
1478.201567,6365.771101,-4071.132681,383.047749
1478.201896,7994.224174,-5699.585753,1838.629195
1478.202225,9622.677246,-6291.750507,2681.334243
1478.202554,9104.533087,-4219.173869,1608.800546
1478.202883,7402.059420,-6143.709319,842.705048
1478.203212,6365.771101,-5107.421000,0.000000
1478.203541,4885.359217,-4737.318029,-536.266849
1478.203870,6365.771101,-8142.265362,76.609550
1478.204199,7920.203579,-9252.574275,1302.362347
1478.204529,7920.203579,-8364.327145,1608.800546
1478.204858,8290.306550,-9474.636058,1991.848295
1478.205187,7031.956449,-8216.285956,1838.629195
1478.205516,6217.729913,-6069.688724,536.266849
1478.205845,5699.585753,-5477.523971,0.000000
1478.206174,7476.080014,-4811.338623,0.000000
1478.206503,7698.141797,-4515.256246,536.266849
1478.206832,7624.121203,-4811.338623,1072.533697
1478.207161,7476.080014,-5995.668130,1302.362347
1478.207491,7476.080014,-7476.080014,2145.067394
1478.207820,7550.100608,-6883.915261,995.924147
1478.208149,5995.668130,-8068.244768,995.924147
1478.208478,5181.441594,-8956.491898,995.924147
1478.208807,5181.441594,-7031.956449,0.000000
1478.209136,4589.276840,-7179.997637,-689.485948
1478.209465,5551.544565,-7105.977043,459.657299
1478.209794,7105.977043,-6217.729913,1455.581446
1478.210123,9178.553681,-7550.100608,2451.505594
1478.210453,9030.512492,-6291.750507,2451.505594
1478.210782,7698.141797,-4515.256246,1685.410096
1478.211111,7328.038826,-6217.729913,153.219100
1478.211440,6883.915261,-5033.400406,766.095498
1478.211769,6291.750507,-4663.297435,536.266849
1478.212098,6735.874072,-6069.688724,919.314598
1478.212427,7105.977043,-6883.915261,1685.410096
1478.212756,6957.935855,-7254.018232,2145.067394
1478.213085,6957.935855,-7476.080014,1455.581446
1478.213415,6735.874072,-8068.244768,1455.581446
1478.213744,6365.771101,-6587.832884,1149.143247
1478.214073,7105.977043,-7105.977043,689.485948
1478.214402,7476.080014,-6291.750507,1455.581446
1478.214731,8216.285956,-4959.379811,919.314598
1478.215060,7179.997637,-5329.482782,383.047749
1478.215389,6439.791695,-5329.482782,919.314598
1478.215718,6291.750507,-6439.791695,1225.752797
1478.216047,5995.668130,-6587.832884,612.876398
1478.216377,6587.832884,-7179.997637,919.314598
1478.216706,7105.977043,-7328.038826,1762.019645
1478.217035,7994.224174,-6809.894666,919.314598
1478.217364,7105.977043,-7698.141797,1762.019645
1478.217693,5773.606348,-5551.544565,76.609550
1478.218022,6291.750507,-4811.338623,-766.095498
1478.218351,7772.162391,-6365.771101,689.485948
1478.218680,8438.347739,-5921.647536,612.876398
1478.219009,7772.162391,-7254.018232,1072.533697
1478.219339,7105.977043,-6957.935855,1149.143247
1478.219668,6735.874072,-6217.729913,459.657299
1478.219997,7105.977043,-5625.565159,306.438199
1478.220326,7994.224174,-6069.688724,1532.190996
1478.220655,8660.409521,-6365.771101,1685.410096
1478.220984,8364.327145,-6957.935855,1532.190996
1478.221313,6883.915261,-5921.647536,1762.019645
1478.221642,5625.565159,-6143.709319,0.000000
1478.221971,6291.750507,-5699.585753,0.000000
1478.222301,6587.832884,-6513.812290,0.000000
1478.222630,7920.203579,-7846.182985,766.095498
1478.222959,9326.594869,-6217.729913,1532.190996
1478.223288,7920.203579,-7105.977043,766.095498
1478.223617,6735.874072,-7179.997637,76.609550
1478.223946,5847.626942,-6587.832884,0.000000
1478.224275,5181.441594,-6513.812290,-1149.143247
1478.224604,5995.668130,-7402.059420,153.219100
1478.224934,7772.162391,-6587.832884,2068.457845
1478.225263,7994.224174,-5773.606348,842.705048
1478.225592,7328.038826,-6439.791695,1532.190996
1478.225921,6661.853478,-5699.585753,1915.238745
1478.226250,6735.874072,-6957.935855,766.095498
1478.226579,6809.894666,-7105.977043,766.095498
1478.226908,6365.771101,-5255.462188,612.876398
1478.227237,6735.874072,-5625.565159,0.000000
1478.227566,6661.853478,-6069.688724,306.438199
1478.227896,6069.688724,-6735.874072,1072.533697
1478.228225,6365.771101,-7550.100608,842.705048
1478.228554,6883.915261,-7105.977043,1455.581446
1478.228883,7105.977043,-8364.327145,2374.896044
1478.229212,7105.977043,-7328.038826,2298.286494
1478.229541,5551.544565,-7179.997637,1225.752797
1478.229870,4959.379811,-6365.771101,459.657299
1478.230199,6143.709319,-5625.565159,1072.533697
1478.230528,8290.306550,-6291.750507,1378.971896
1478.230858,8734.430116,-7402.059420,2604.724693
1478.231187,7624.121203,-6587.832884,1685.410096
1478.231516,5995.668130,-7105.977043,-306.438199
1478.231845,5255.462188,-7402.059420,1072.533697
1478.232174,6143.709319,-5921.647536,1838.629195
1478.232503,8142.265362,-6809.894666,1991.848295
1478.232832,8142.265362,-6291.750507,2604.724693
1478.233161,7031.956449,-5477.523971,1608.800546
1478.233490,6957.935855,-5995.668130,689.485948
1478.233820,6735.874072,-6291.750507,1072.533697
1478.234149,6883.915261,-4145.153275,-229.828649
1478.234478,8216.285956,-5255.462188,842.705048
1478.234807,9178.553681,-7105.977043,2451.505594
1478.235136,9178.553681,-5995.668130,2834.553343
1478.235465,8142.265362,-8512.368333,2068.457845
1478.235794,5699.585753,-6661.853478,1149.143247
1478.236123,4441.235652,-4145.153275,-1378.971896
1478.236452,5403.503377,-8290.306550,0.000000
1478.236782,7179.997637,-5921.647536,1991.848295
1478.237111,8142.265362,-5773.606348,1455.581446
1478.237440,8438.347739,-7402.059420,3064.381992
1478.237769,7550.100608,-5995.668130,2681.334243
1478.238098,6809.894666,-6513.812290,1378.971896
1478.238427,5625.565159,-5255.462188,76.609550
1478.238756,5847.626942,-6365.771101,0.000000
1478.239085,7994.224174,-5921.647536,-306.438199
1478.239414,7698.141797,-6365.771101,612.876398
1478.239744,6291.750507,-6587.832884,383.047749
1478.240073,6883.915261,-8956.491898,1532.190996
1478.240402,7254.018232,-9770.718434,1991.848295
1478.240731,6439.791695,-8364.327145,1838.629195
1478.241060,6143.709319,-7105.977043,1608.800546
1478.241389,6365.771101,-5551.544565,1225.752797
1478.241718,7105.977043,-4515.256246,995.924147
1478.242047,6735.874072,-4737.318029,919.314598
1478.242376,6809.894666,-3552.988522,1149.143247
1478.242706,7920.203579,-5107.421000,1225.752797
1478.243035,7920.203579,-6661.853478,1455.581446
1478.243364,6735.874072,-5995.668130,919.314598
1478.243693,6217.729913,-8808.450710,153.219100
1478.244022,5921.647536,-7402.059420,383.047749
1478.244351,5477.523971,-7105.977043,153.219100
1478.244680,6735.874072,-9252.574275,919.314598
1478.245009,7772.162391,-7772.162391,1532.190996
1478.245338,6957.935855,-7179.997637,919.314598
1478.245668,5921.647536,-6587.832884,1225.752797
1478.245997,6735.874072,-6957.935855,1378.971896
1478.246326,7105.977043,-5847.626942,1532.190996
1478.246655,7105.977043,-4959.379811,919.314598
1478.246984,7550.100608,-5921.647536,2068.457845
1478.247313,8512.368333,-6217.729913,1915.238745
1478.247642,7105.977043,-6661.853478,229.828649
1478.247971,5551.544565,-7179.997637,766.095498
1478.248300,6217.729913,-7105.977043,612.876398
1478.248630,6809.894666,-6217.729913,229.828649
1478.248959,6365.771101,-7698.141797,1149.143247
1478.249288,7031.956449,-7772.162391,1762.019645
1478.249617,8364.327145,-5921.647536,1608.800546
1478.249946,7994.224174,-6957.935855,2068.457845
1478.250275,6661.853478,-6217.729913,612.876398
1478.250604,6587.832884,-4811.338623,153.219100
1478.250933,7624.121203,-6587.832884,995.924147
1478.251262,7476.080014,-6809.894666,1455.581446
1478.251592,6809.894666,-6587.832884,1225.752797
1478.251921,5847.626942,-7031.956449,383.047749
1478.252250,4811.338623,-6365.771101,-306.438199
1478.252579,5699.585753,-6217.729913,0.000000
1478.252908,7254.018232,-9178.553681,1455.581446
1478.253237,8290.306550,-7476.080014,2374.896044
1478.253566,7994.224174,-5921.647536,1149.143247
1478.253895,7698.141797,-7105.977043,2068.457845
1478.254224,7994.224174,-5107.421000,1455.581446
1478.254554,7402.059420,-4367.215058,76.609550
1478.254883,7476.080014,-5625.565159,76.609550
1478.255212,8142.265362,-5847.626942,689.485948
1478.255541,7994.224174,-6587.832884,0.000000
1478.255870,6365.771101,-6957.935855,0.000000
1478.256199,6069.688724,-7698.141797,919.314598
1478.256528,6587.832884,-9474.636058,842.705048
1478.256857,6661.853478,-8512.368333,2068.457845
1478.257186,6069.688724,-7105.977043,612.876398
1478.257516,7402.059420,-6217.729913,1762.019645
1478.257845,8068.244768,-4959.379811,2681.334243
1478.258174,7105.977043,-4885.359217,612.876398
1478.258503,6661.853478,-4737.318029,1149.143247
1478.258832,7105.977043,-3849.070898,1302.362347
1478.259161,8216.285956,-6513.812290,766.095498
1478.259490,7105.977043,-6069.688724,2221.676944
1478.259819,6365.771101,-6365.771101,842.705048
1478.260148,6143.709319,-8068.244768,-1072.533697
1478.260478,4589.276840,-8290.306550,229.828649
1478.260807,4441.235652,-8438.347739,0.000000
1478.261136,6735.874072,-9622.677246,229.828649
1478.261465,7328.038826,-8290.306550,2068.457845
1478.261794,6809.894666,-6587.832884,1225.752797
1478.262123,7698.141797,-6957.935855,1608.800546
1478.262452,8512.368333,-5255.462188,2298.286494
1478.262781,7254.018232,-2590.720797,383.047749
1478.263110,7920.203579,-4737.318029,1302.362347
1478.263440,9474.636058,-4145.153275,1991.848295
1478.263769,9030.512492,-4515.256246,1991.848295
1478.264098,6513.812290,-6365.771101,1608.800546
1478.264427,5625.565159,-5847.626942,229.828649
1478.264756,5477.523971,-7846.182985,-153.219100
1478.265085,6365.771101,-7846.182985,766.095498
1478.265414,6365.771101,-9474.636058,1149.143247
1478.265743,7402.059420,-8882.471304,1302.362347
1478.266072,7402.059420,-8290.306550,1532.190996
1478.266402,6735.874072,-6957.935855,1149.143247
1478.266731,7624.121203,-5181.441594,995.924147
1478.267060,7698.141797,-3923.091493,1302.362347
1478.267389,8586.388927,-5033.400406,1685.410096
1478.267718,7920.203579,-5329.482782,1378.971896
1478.268047,6883.915261,-4737.318029,919.314598
1478.268376,6217.729913,-6661.853478,-536.266849
1478.268705,5625.565159,-6587.832884,536.266849
1478.269034,5847.626942,-7105.977043,0.000000
1478.269364,7105.977043,-9474.636058,536.266849
1478.269693,7402.059420,-7550.100608,1302.362347
1478.270022,7328.038826,-7698.141797,612.876398
1478.270351,7105.977043,-8364.327145,1302.362347
1478.270680,7179.997637,-6291.750507,1072.533697
1478.271009,7402.059420,-5625.565159,766.095498
1478.271338,7698.141797,-5847.626942,1302.362347
1478.271667,8216.285956,-4885.359217,1762.019645
1478.271997,7846.182985,-5107.421000,612.876398
1478.272326,6143.709319,-6439.791695,306.438199
1478.272655,4515.256246,-5625.565159,612.876398
1478.272984,5255.462188,-7994.224174,1072.533697
1478.273313,6291.750507,-7179.997637,842.705048
1478.273642,5921.647536,-6217.729913,536.266849
1478.273971,6661.853478,-7624.121203,842.705048
1478.274300,7476.080014,-7476.080014,1225.752797
1478.274629,7031.956449,-5477.523971,689.485948
1478.274959,6809.894666,-5625.565159,-459.657299
1478.275288,7254.018232,-6143.709319,1685.410096
1478.275617,9030.512492,-7994.224174,2221.676944
1478.275946,8142.265362,-7179.997637,1838.629195
1478.276275,5329.482782,-5477.523971,229.828649
1478.276604,5477.523971,-7105.977043,-766.095498
1478.276933,5699.585753,-7254.018232,689.485948
1478.277262,5403.503377,-6069.688724,153.219100
1478.277591,7179.997637,-8068.244768,1378.971896
1478.277921,7846.182985,-6735.874072,1302.362347
1478.278250,7476.080014,-5847.626942,1455.581446
1478.278579,7105.977043,-7550.100608,2298.286494
1478.278908,8290.306550,-4663.297435,2374.896044
1478.279237,8808.450710,-4367.215058,1378.971896
1478.279566,8290.306550,-6069.688724,1685.410096
1478.279895,7920.203579,-6217.729913,1762.019645
1478.280224,7328.038826,-6439.791695,766.095498
1478.280553,6291.750507,-6513.812290,-229.828649
1478.280882,4145.153275,-6587.832884,-383.047749
1478.281211,5773.606348,-8290.306550,536.266849
1478.281540,7105.977043,-8734.430116,1455.581446
1478.281869,7328.038826,-9104.533087,2681.334243
1478.282198,7105.977043,-7624.121203,2221.676944
1478.282527,6661.853478,-6217.729913,842.705048
1478.282856,6883.915261,-5625.565159,612.876398
1478.283185,7476.080014,-4737.318029,1762.019645
1478.283514,9030.512492,-4219.173869,1455.581446
1478.283843,9400.615463,-4441.235652,919.314598
1478.284173,7772.162391,-4663.297435,1302.362347
1478.284502,6513.812290,-6809.894666,1378.971896
1478.284831,6143.709319,-8438.347739,919.314598
1478.285160,4515.256246,-7846.182985,919.314598
1478.285489,4441.235652,-8142.265362,-306.438199
1478.285818,6809.894666,-8882.471304,919.314598
1478.286147,7550.100608,-8808.450710,2145.067394
1478.286476,7920.203579,-8142.265362,1762.019645
1478.286805,6809.894666,-6587.832884,1532.190996
1478.287134,6809.894666,-4293.194464,306.438199
1478.287463,7031.956449,-4219.173869,306.438199
1478.287792,7846.182985,-5477.523971,1838.629195
1478.288121,8734.430116,-4293.194464,2221.676944
1478.288450,8364.327145,-5403.503377,1685.410096
1478.288779,6883.915261,-7254.018232,1455.581446
1478.289108,5033.400406,-6217.729913,306.438199
1478.289437,4737.318029,-7994.224174,-459.657299
1478.289766,4811.338623,-9918.759623,612.876398
1478.290095,5551.544565,-7476.080014,-76.609550
1478.290424,6735.874072,-8734.430116,0.000000
1478.290753,7105.977043,-7994.224174,2451.505594
1478.291082,7698.141797,-6143.709319,2298.286494
1478.291411,7846.182985,-5921.647536,1225.752797
1478.291741,7476.080014,-3923.091493,1532.190996
1478.292070,8216.285956,-5551.544565,1608.800546
1478.292399,9400.615463,-5033.400406,2528.115143
1478.292728,7328.038826,-3108.864956,842.705048
1478.293057,5699.585753,-5033.400406,0.000000
1478.293386,5847.626942,-5329.482782,689.485948
1478.293715,6291.750507,-7031.956449,536.266849
1478.294044,6883.915261,-9770.718434,1762.019645
1478.294373,7402.059420,-8660.409521,2528.115143
1478.294702,7179.997637,-8364.327145,842.705048
1478.295031,6217.729913,-7328.038826,153.219100
1478.295360,6069.688724,-6883.915261,995.924147
1478.295689,8290.306550,-6513.812290,1072.533697
1478.296018,9400.615463,-5625.565159,1378.971896
1478.296347,8068.244768,-4441.235652,2068.457845
1478.296676,7105.977043,-5107.421000,1072.533697
1478.297005,6291.750507,-6143.709319,612.876398
1478.297334,5033.400406,-5773.606348,689.485948
1478.297663,5403.503377,-7031.956449,612.876398
1478.297992,6883.915261,-7772.162391,1149.143247
1478.298321,7254.018232,-7550.100608,1532.190996
1478.298650,6587.832884,-7031.956449,76.609550
1478.298979,6883.915261,-7772.162391,766.095498
1478.299309,7179.997637,-7476.080014,689.485948
1478.299638,7624.121203,-7328.038826,1149.143247
1478.299967,8586.388927,-5773.606348,1762.019645
1478.300296,8956.491898,-4515.256246,842.705048
1478.300625,7328.038826,-5773.606348,689.485948
1478.300954,6217.729913,-6291.750507,842.705048
1478.301283,5995.668130,-5625.565159,153.219100
1478.301612,5921.647536,-5699.585753,536.266849
1478.301941,5995.668130,-6587.832884,1149.143247
1478.302270,6809.894666,-7994.224174,1608.800546
1478.302599,7328.038826,-7328.038826,1685.410096
1478.302928,5847.626942,-7846.182985,1072.533697
1478.303257,5625.565159,-6513.812290,0.000000
1478.303586,6957.935855,-5477.523971,536.266849
1478.303915,8808.450710,-7994.224174,1685.410096
1478.304244,8734.430116,-6957.935855,1685.410096
1478.304573,7402.059420,-4959.379811,306.438199
1478.304902,6661.853478,-6735.874072,153.219100
1478.305231,5847.626942,-5995.668130,0.000000
1478.305560,5625.565159,-6365.771101,612.876398
1478.305889,5847.626942,-6143.709319,383.047749
1478.306218,6365.771101,-6957.935855,919.314598
1478.306547,7031.956449,-8068.244768,2068.457845
1478.306876,7624.121203,-8216.285956,1991.848295
1478.307206,7772.162391,-6587.832884,1608.800546
1478.307535,6291.750507,-5329.482782,612.876398
1478.307864,6365.771101,-6143.709319,-306.438199
1478.308193,7846.182985,-5773.606348,1225.752797
1478.308522,9252.574275,-4811.338623,1455.581446
1478.308851,8438.347739,-5995.668130,1915.238745
1478.309180,6661.853478,-5107.421000,1915.238745
1478.309509,6069.688724,-6883.915261,919.314598
1478.309838,5181.441594,-6883.915261,306.438199
1478.310167,5181.441594,-7105.977043,842.705048
1478.310496,6809.894666,-8068.244768,1225.752797
1478.310825,7328.038826,-6957.935855,1608.800546
1478.311154,6513.812290,-7179.997637,1378.971896
1478.311483,6587.832884,-6143.709319,383.047749
1478.311812,7254.018232,-5921.647536,1608.800546
1478.312141,8216.285956,-6809.894666,1302.362347
1478.312470,8142.265362,-6661.853478,1762.019645
1478.312799,8364.327145,-6069.688724,2221.676944
1478.313128,8068.244768,-6735.874072,995.924147
1478.313457,6957.935855,-6069.688724,1072.533697
1478.313786,5551.544565,-5921.647536,1378.971896
1478.314115,5699.585753,-7402.059420,536.266849
1478.314444,6143.709319,-6957.935855,1072.533697
1478.314774,6365.771101,-7105.977043,1762.019645
1478.315103,7179.997637,-7328.038826,1838.629195
1478.315432,7105.977043,-6217.729913,1685.410096
1478.315761,7328.038826,-6365.771101,2298.286494
1478.316090,8660.409521,-6883.915261,2681.334243
1478.316419,8438.347739,-5625.565159,1838.629195
1478.316748,6661.853478,-5403.503377,383.047749
1478.317077,6439.791695,-5255.462188,612.876398
1478.317406,6365.771101,-6513.812290,842.705048
1478.317735,6143.709319,-6809.894666,766.095498
1478.318064,5921.647536,-6587.832884,1455.581446
1478.318393,7105.977043,-6587.832884,2145.067394
1478.318722,7698.141797,-7105.977043,1991.848295
1478.319051,6735.874072,-8142.265362,1608.800546
1478.319380,6217.729913,-7105.977043,689.485948
1478.319709,6809.894666,-5847.626942,-383.047749
1478.320038,7328.038826,-6439.791695,1762.019645
1478.320367,8068.244768,-6217.729913,1149.143247
1478.320696,8364.327145,-5477.523971,459.657299
1478.321025,7476.080014,-5921.647536,919.314598
1478.321354,6513.812290,-7550.100608,842.705048
1478.321683,5847.626942,-7105.977043,842.705048
1478.322012,5773.606348,-7105.977043,995.924147
1478.322342,7105.977043,-7402.059420,1532.190996
1478.322671,7179.997637,-6291.750507,1455.581446
1478.323000,6883.915261,-6513.812290,2068.457845
1478.323329,6365.771101,-6587.832884,1149.143247
1478.323658,5921.647536,-4737.318029,766.095498
1478.323987,5995.668130,-4737.318029,229.828649
1478.324316,7772.162391,-7328.038826,2298.286494
1478.324645,9474.636058,-8956.491898,3294.210641
1478.324974,8956.491898,-6513.812290,1685.410096
1478.325303,5847.626942,-5921.647536,-229.828649
1478.325632,4441.235652,-6661.853478,-536.266849
1478.325961,5255.462188,-5107.421000,-459.657299
1478.326290,5921.647536,-7994.224174,76.609550
1478.326619,6513.812290,-7846.182985,2068.457845
1478.326948,6513.812290,-6513.812290,2298.286494
1478.327277,7550.100608,-7328.038826,2528.115143
1478.327606,7105.977043,-6291.750507,2374.896044
1478.327935,7179.997637,-6217.729913,1685.410096
1478.328264,8438.347739,-5921.647536,995.924147
1478.328593,8290.306550,-6069.688724,919.314598
1478.328922,7920.203579,-4885.359217,306.438199
1478.329251,7402.059420,-6587.832884,153.219100
1478.329580,6957.935855,-5625.565159,76.609550
1478.329909,5033.400406,-6513.812290,0.000000
1478.330239,5847.626942,-7772.162391,995.924147
1478.330568,7624.121203,-8290.306550,2145.067394
1478.330897,8882.471304,-8290.306550,2757.943793
1478.331226,7476.080014,-7772.162391,2298.286494
1478.331555,6217.729913,-6735.874072,612.876398
1478.331884,5625.565159,-5773.606348,689.485948
1478.332213,5625.565159,-4959.379811,0.000000
1478.332542,6513.812290,-5477.523971,995.924147
1478.332871,7994.224174,-5921.647536,1378.971896
1478.333200,7846.182985,-6365.771101,1915.238745
1478.333529,7328.038826,-6735.874072,2145.067394
1478.333858,6217.729913,-6809.894666,842.705048
1478.334187,6069.688724,-6883.915261,1225.752797
1478.334516,6809.894666,-7179.997637,229.828649
1478.334845,7328.038826,-7402.059420,1302.362347
1478.335174,7105.977043,-5921.647536,689.485948
1478.335503,6735.874072,-6809.894666,612.876398
1478.335832,6143.709319,-6587.832884,612.876398
1478.336161,6587.832884,-5477.523971,459.657299
1478.336490,7994.224174,-6883.915261,1608.800546
1478.336819,8808.450710,-7105.977043,1915.238745
1478.337148,8364.327145,-6587.832884,1762.019645
1478.337477,7550.100608,-6735.874072,1149.143247
1478.337807,6513.812290,-5847.626942,766.095498
1478.338136,5847.626942,-4885.359217,-229.828649
1478.338465,5255.462188,-5921.647536,383.047749
1478.338794,7179.997637,-7031.956449,1838.629195
1478.339123,7920.203579,-7105.977043,2604.724693
1478.339452,7179.997637,-6143.709319,2451.505594
1478.339781,6513.812290,-6809.894666,1225.752797
1478.340110,6661.853478,-5625.565159,1915.238745
1478.340439,7179.997637,-7402.059420,1072.533697
1478.340768,8216.285956,-7550.100608,1378.971896
1478.341097,6883.915261,-4811.338623,-153.219100
1478.341426,5403.503377,-7772.162391,-612.876398
1478.341755,5625.565159,-7550.100608,76.609550
1478.342084,5477.523971,-7105.977043,536.266849
1478.342413,6143.709319,-7772.162391,1378.971896
1478.342742,7328.038826,-6587.832884,2451.505594
1478.343071,8438.347739,-7994.224174,2681.334243
1478.343400,8438.347739,-6587.832884,3447.429741
1478.343729,7105.977043,-5995.668130,2145.067394
1478.344058,6513.812290,-5181.441594,612.876398
1478.344387,6735.874072,-3627.009116,536.266849
1478.344716,6661.853478,-5329.482782,612.876398
1478.345045,7772.162391,-5995.668130,1149.143247
1478.345374,8142.265362,-5107.421000,1378.971896
1478.345704,7105.977043,-7476.080014,459.657299
1478.346033,6069.688724,-8660.409521,919.314598
1478.346362,5773.606348,-8586.388927,1532.190996
1478.346691,6735.874072,-7402.059420,229.828649
1478.347020,7476.080014,-7328.038826,1455.581446
1478.347349,7698.141797,-6439.791695,1455.581446
1478.347678,7328.038826,-5847.626942,766.095498
1478.348007,6439.791695,-6291.750507,1608.800546
1478.348336,6365.771101,-4293.194464,766.095498
1478.348665,7328.038826,-5329.482782,229.828649
1478.348994,8290.306550,-7031.956449,2374.896044
1478.349323,8512.368333,-7476.080014,2987.772442
1478.349652,7920.203579,-6439.791695,1532.190996
1478.349981,5625.565159,-5625.565159,-536.266849
1478.350310,4737.318029,-5107.421000,-1302.362347
1478.350639,5477.523971,-6587.832884,-842.705048
1478.350968,7105.977043,-8364.327145,536.266849
1478.351297,7550.100608,-7846.182985,1991.848295
1478.351626,7994.224174,-5699.585753,1838.629195
1478.351955,8364.327145,-5329.482782,1455.581446
1478.352284,7105.977043,-5477.523971,1838.629195
1478.352613,7105.977043,-5477.523971,919.314598
1478.352942,7994.224174,-6291.750507,842.705048
1478.353272,8216.285956,-4959.379811,842.705048
1478.353601,7105.977043,-6661.853478,229.828649
1478.353930,6587.832884,-8290.306550,689.485948
1478.354259,5181.441594,-7476.080014,306.438199
1478.354588,4663.297435,-7254.018232,-612.876398
1478.354917,5255.462188,-7920.203579,689.485948
1478.355246,6809.894666,-6957.935855,2298.286494
1478.355575,8364.327145,-7254.018232,2451.505594
1478.355904,8290.306550,-7624.121203,2145.067394
1478.356233,7105.977043,-3701.029710,229.828649
1478.356562,5255.462188,-3775.050304,-1915.238745
1478.356891,6365.771101,-5921.647536,0.000000
1478.357220,8216.285956,-4663.297435,536.266849
1478.357549,7772.162391,-7698.141797,-689.485948
1478.357878,6439.791695,-7772.162391,919.314598
1478.358207,5255.462188,-9474.636058,612.876398
1478.358536,6587.832884,-9104.533087,306.438199
1478.358865,6735.874072,-6809.894666,1149.143247
1478.359194,7624.121203,-8068.244768,1762.019645
1478.359523,9474.636058,-7550.100608,2298.286494
1478.359852,7994.224174,-5329.482782,2145.067394
1478.360181,6365.771101,-5329.482782,459.657299
1478.360510,6365.771101,-2664.741391,0.000000
1478.360840,6513.812290,-2146.597232,-76.609550
1478.361169,7920.203579,-6587.832884,995.924147
1478.361498,8586.388927,-6883.915261,2528.115143
1478.361827,7994.224174,-7105.977043,1378.971896
1478.362156,6439.791695,-8290.306550,-306.438199
1478.362485,4441.235652,-8142.265362,0.000000
1478.362814,5403.503377,-8142.265362,-383.047749
1478.363143,5921.647536,-9326.594869,-995.924147
1478.363472,6069.688724,-7328.038826,1838.629195
1478.363801,8068.244768,-6439.791695,1532.190996
1478.364130,9696.697840,-7846.182985,2987.772442
1478.364459,7920.203579,-5255.462188,3677.258390
1478.364788,6217.729913,-4515.256246,1455.581446
1478.365117,6957.935855,-3256.906145,383.047749
1478.365446,7624.121203,-3404.947333,842.705048
1478.365775,7328.038826,-5181.441594,689.485948
1478.366104,7920.203579,-6143.709319,536.266849
1478.366433,7105.977043,-6513.812290,229.828649
1478.366762,5477.523971,-7846.182985,229.828649
1478.367091,5477.523971,-9474.636058,1378.971896
1478.367420,7179.997637,-9400.615463,1608.800546
1478.367749,7994.224174,-8438.347739,2221.676944
1478.368078,7105.977043,-6883.915261,1608.800546
1478.368407,6661.853478,-6809.894666,1455.581446
1478.368737,7105.977043,-5329.482782,1608.800546
1478.369066,7550.100608,-4293.194464,2068.457845
1478.369395,8586.388927,-4663.297435,2221.676944
1478.369724,8142.265362,-4811.338623,2145.067394
1478.370053,6661.853478,-5329.482782,1302.362347
1478.370382,5625.565159,-7402.059420,995.924147
1478.370711,6143.709319,-7402.059420,689.485948
1478.371040,6069.688724,-7031.956449,0.000000
1478.371369,6217.729913,-9474.636058,306.438199
1478.371698,6883.915261,-8660.409521,1455.581446
1478.372027,7698.141797,-8438.347739,1838.629195
1478.372356,7698.141797,-9400.615463,2374.896044
1478.372685,7698.141797,-6883.915261,1762.019645
1478.373014,7179.997637,-5477.523971,1915.238745
1478.373343,6661.853478,-4737.318029,842.705048
1478.373672,6587.832884,-4589.276840,1302.362347
1478.374001,6809.894666,-4663.297435,1991.848295
1478.374330,7105.977043,-4515.256246,306.438199
1478.374659,6143.709319,-5773.606348,1455.581446
1478.374988,5995.668130,-6217.729913,2451.505594
1478.375317,6661.853478,-8142.265362,766.095498
1478.375646,6439.791695,-7920.203579,2145.067394
1478.375975,6365.771101,-7105.977043,1532.190996
1478.376305,7476.080014,-8734.430116,1149.143247
1478.376634,7550.100608,-7920.203579,2374.896044
1478.376963,6735.874072,-6069.688724,995.924147
1478.377292,7179.997637,-6439.791695,536.266849
1478.377621,7105.977043,-4959.379811,1302.362347
1478.377950,5995.668130,-5107.421000,153.219100
1478.378279,6217.729913,-6365.771101,766.095498
1478.378608,6661.853478,-6587.832884,1302.362347
1478.378937,6143.709319,-6291.750507,1378.971896
1478.379266,6661.853478,-6513.812290,995.924147
1478.379595,7772.162391,-7476.080014,1915.238745
1478.379924,8660.409521,-5773.606348,536.266849
1478.380253,7624.121203,-6143.709319,919.314598
1478.380582,6809.894666,-6883.915261,536.266849
1478.380911,7328.038826,-5773.606348,306.438199
1478.381243,8216.285956,-6809.894666,995.924147
1478.381572,8808.450710,-7550.100608,1991.848295
1478.381901,7772.162391,-6439.791695,1838.629195
1478.382230,6735.874072,-4737.318029,-536.266849
1478.382559,4811.338623,-6809.894666,-995.924147
1478.382888,4885.359217,-6143.709319,0.000000
1478.383218,6513.812290,-5403.503377,76.609550
1478.383547,6883.915261,-7179.997637,612.876398
1478.383876,7402.059420,-8142.265362,2451.505594
1478.384205,7994.224174,-6883.915261,1991.848295
1478.384534,7179.997637,-6883.915261,1608.800546
1478.384863,5921.647536,-4663.297435,1685.410096
1478.385193,6217.729913,-5033.400406,0.000000
1478.385522,7846.182985,-6217.729913,229.828649
1478.385851,8364.327145,-7624.121203,1302.362347
1478.386180,7550.100608,-6883.915261,1302.362347
1478.386509,6661.853478,-6957.935855,-536.266849
1478.386838,5403.503377,-8068.244768,-919.314598
1478.387167,4145.153275,-5921.647536,-1072.533697
1478.387497,5329.482782,-7698.141797,-459.657299
1478.387826,7624.121203,-7994.224174,1991.848295
1478.388155,8808.450710,-7402.059420,2298.286494
1478.388484,9326.594869,-6291.750507,2068.457845
1478.388813,8586.388927,-5181.441594,1149.143247
1478.389142,7402.059420,-6365.771101,1149.143247
1478.389472,7624.121203,-5847.626942,2068.457845
1478.389801,7105.977043,-4071.132681,-612.876398
1478.390130,7105.977043,-5181.441594,-153.219100
1478.390459,6365.771101,-6883.915261,1455.581446
1478.390788,6735.874072,-7402.059420,842.705048
1478.391117,5699.585753,-8734.430116,76.609550
1478.391447,4515.256246,-8142.265362,1072.533697
1478.391776,5847.626942,-7846.182985,1378.971896
1478.392105,8142.265362,-7994.224174,1991.848295
1478.392434,8068.244768,-7254.018232,2145.067394
1478.392763,6809.894666,-5255.462188,1378.971896
1478.393092,6809.894666,-5551.544565,153.219100
1478.393421,6291.750507,-4367.215058,0.000000
1478.393751,7105.977043,-4959.379811,2068.457845
1478.394080,8808.450710,-6735.874072,1991.848295
1478.394409,8734.430116,-6069.688724,1762.019645
1478.394738,5995.668130,-7179.997637,2528.115143
1478.395067,5255.462188,-7772.162391,1149.143247
1478.395396,5033.400406,-6735.874072,-306.438199
1478.395726,4885.359217,-6957.935855,306.438199
1478.396055,5773.606348,-6883.915261,536.266849
1478.396384,7550.100608,-6883.915261,1838.629195
1478.396713,7254.018232,-6587.832884,2374.896044
1478.397042,7772.162391,-5773.606348,1685.410096
1478.397371,8808.450710,-4367.215058,2068.457845
1478.397700,8660.409521,-4885.359217,2145.067394
1478.398030,7920.203579,-7550.100608,2528.115143
1478.398359,7476.080014,-5477.523971,1455.581446
1478.398688,6439.791695,-5477.523971,-306.438199
1478.399017,5033.400406,-6143.709319,-153.219100
1478.399346,6217.729913,-6883.915261,995.924147
1478.399675,7105.977043,-7846.182985,612.876398
1478.400005,6957.935855,-9400.615463,2374.896044
1478.400334,6957.935855,-9326.594869,2374.896044
1478.400663,7105.977043,-6217.729913,1072.533697
1478.400992,6513.812290,-6365.771101,536.266849
1478.401321,6661.853478,-5255.462188,306.438199
1478.401650,8216.285956,-3923.091493,-612.876398
1478.401980,8734.430116,-5033.400406,76.609550
1478.402309,9178.553681,-4811.338623,842.705048
1478.402638,7772.162391,-4885.359217,0.000000
1478.402967,6735.874072,-6217.729913,-919.314598
1478.403296,4663.297435,-6735.874072,-1225.752797
1478.403625,5255.462188,-7698.141797,-1225.752797
1478.403954,7550.100608,-8290.306550,-306.438199
1478.404284,8216.285956,-9622.677246,1225.752797
1478.404613,7550.100608,-8364.327145,919.314598
1478.404942,6291.750507,-8068.244768,-536.266849
1478.405271,5181.441594,-7105.977043,-1685.410096
1478.405600,5181.441594,-6143.709319,-689.485948
1478.405929,6217.729913,-6069.688724,-536.266849
1478.406259,8364.327145,-4515.256246,-229.828649
1478.406588,8438.347739,-4219.173869,-383.047749
1478.406917,8068.244768,-4959.379811,-1072.533697
1478.407246,6883.915261,-6143.709319,-1838.629195
1478.407575,5625.565159,-7624.121203,-2528.115143
1478.407904,5255.462188,-8586.388927,-1225.752797
1478.408234,6661.853478,-6809.894666,-2221.676944
1478.408563,7105.977043,-8068.244768,-2145.067394
1478.408892,6809.894666,-8438.347739,-383.047749
1478.409221,7476.080014,-8956.491898,-536.266849
1478.409550,6735.874072,-7920.203579,-536.266849
1478.409879,6365.771101,-6069.688724,-536.266849
1478.410208,7254.018232,-5033.400406,-766.095498
1478.410538,8660.409521,-3775.050304,-766.095498
1478.410867,8512.368333,-3701.029710,-1532.190996
1478.411196,7328.038826,-3404.947333,-1991.848295
1478.411525,7105.977043,-3330.926739,-3064.381992
1478.411854,6291.750507,-4515.256246,-3447.429741
1478.412183,5921.647536,-7254.018232,-2145.067394
1478.412513,6735.874072,-8734.430116,-2145.067394
1478.412842,7105.977043,-9400.615463,-1991.848295
1478.413171,7402.059420,-9104.533087,-1072.533697
1478.413500,7624.121203,-9326.594869,-1225.752797
1478.413829,7476.080014,-7105.977043,-1991.848295
1478.414158,6217.729913,-7254.018232,-2374.896044
1478.414487,5847.626942,-6883.915261,-2451.505594
1478.414817,6957.935855,-4515.256246,-2604.724693
1478.415146,7476.080014,-4219.173869,-1685.410096
1478.415475,8290.306550,-4589.276840,-1685.410096
1478.415804,7254.018232,-3182.885551,-1915.238745
1478.416133,6809.894666,-4515.256246,-2911.162892
1478.416462,5699.585753,-7179.997637,-3064.381992
1478.416792,5403.503377,-9474.636058,-2068.457845
1478.417121,7031.956449,-7846.182985,-2681.334243
1478.417450,8216.285956,-8142.265362,-2221.676944
1478.417779,8290.306550,-8586.388927,-1149.143247
1478.418108,7179.997637,-7920.203579,-995.924147
1478.418437,6217.729913,-8068.244768,-1149.143247
1478.418767,6365.771101,-6809.894666,-1455.581446
1478.419096,6217.729913,-5699.585753,-1915.238745
1478.419425,6957.935855,-4959.379811,-1225.752797
1478.419754,7476.080014,-3775.050304,-1915.238745
1478.420083,7772.162391,-4441.235652,-2145.067394
