#time,accel_x,accel_y,accel_z
1435.597686,6587.832884,-6661.853478,1378.971896
1435.598016,6957.935855,-6809.894666,1225.752797
1435.598346,6587.832884,-6809.894666,1532.190996
1435.598676,6587.832884,-7105.977043,1072.533697
1435.599007,6883.915261,-6661.853478,1149.143247
1435.599337,7105.977043,-6217.729913,842.705048
1435.599667,7105.977043,-6735.874072,1149.143247
1435.599997,7179.997637,-6513.812290,1225.752797
1435.600327,7402.059420,-6217.729913,1149.143247
1435.600658,7105.977043,-6587.832884,919.314598
1435.600988,6735.874072,-6439.791695,1455.581446
1435.601318,7105.977043,-6439.791695,612.876398
1435.601648,7105.977043,-6661.853478,995.924147
1435.601979,7031.956449,-6439.791695,1072.533697
1435.602309,6809.894666,-6439.791695,1072.533697
1435.602639,7031.956449,-6513.812290,842.705048
1435.602969,6957.935855,-6513.812290,1532.190996
1435.603299,7105.977043,-6587.832884,766.095498
1435.603630,6883.915261,-7105.977043,919.314598
1435.603960,6809.894666,-7031.956449,1378.971896
1435.604290,6291.750507,-6661.853478,1225.752797
1435.604620,6957.935855,-6661.853478,1149.143247
1435.604950,6735.874072,-6809.894666,1149.143247
1435.605281,6883.915261,-6809.894666,766.095498
1435.605611,6809.894666,-6735.874072,842.705048
1435.605941,7105.977043,-6735.874072,1072.533697
1435.606271,6883.915261,-6587.832884,459.657299
1435.606601,7105.977043,-6439.791695,1072.533697
1435.606932,7105.977043,-6439.791695,1149.143247
1435.607262,7105.977043,-6439.791695,842.705048
1435.607592,7179.997637,-6291.750507,842.705048
1435.607922,7328.038826,-6883.915261,995.924147
1435.608253,7031.956449,-6217.729913,1072.533697
1435.608583,7179.997637,-6069.688724,1225.752797
1435.608913,7920.203579,-6513.812290,842.705048
1435.609243,7105.977043,-6291.750507,995.924147
1435.609573,7105.977043,-6217.729913,1302.362347
1435.609904,7179.997637,-5995.668130,842.705048
1435.610234,6809.894666,-5773.606348,842.705048
1435.610564,6809.894666,-6291.750507,1072.533697
1435.610894,6587.832884,-6587.832884,1072.533697
1435.611224,6587.832884,-7031.956449,919.314598
1435.611555,6957.935855,-7105.977043,995.924147
1435.611885,6809.894666,-6291.750507,842.705048
1435.612215,6735.874072,-6809.894666,1149.143247
1435.612545,6735.874072,-7031.956449,919.314598
1435.612876,6735.874072,-7031.956449,766.095498
1435.613206,6957.935855,-6957.935855,842.705048
1435.613536,6957.935855,-7105.977043,919.314598
1435.613866,7105.977043,-6513.812290,995.924147
1435.614196,7254.018232,-6291.750507,1149.143247
1435.614527,7031.956449,-6661.853478,842.705048
1435.614857,7550.100608,-6513.812290,1225.752797
1435.615187,7105.977043,-6809.894666,1149.143247
1435.615517,6957.935855,-6661.853478,766.095498
1435.615847,6809.894666,-6143.709319,842.705048
1435.616178,7105.977043,-6735.874072,1072.533697
1435.616508,7254.018232,-6661.853478,1225.752797
1435.616838,6809.894666,-6291.750507,1302.362347
1435.617168,6883.915261,-5699.585753,1302.362347
1435.617498,6883.915261,-6587.832884,1149.143247
1435.617829,7031.956449,-6291.750507,1225.752797
1435.618159,6661.853478,-6439.791695,612.876398
1435.618489,6735.874072,-6735.874072,995.924147
1435.618819,6809.894666,-6661.853478,1149.143247
1435.619150,6365.771101,-6883.915261,1149.143247
1435.619480,6439.791695,-6217.729913,1685.410096
1435.619810,6809.894666,-6735.874072,1455.581446
1435.620140,6809.894666,-7031.956449,459.657299
1435.620470,6883.915261,-6883.915261,842.705048
1435.620801,6439.791695,-7179.997637,689.485948
1435.621131,7031.956449,-6513.812290,1302.362347
1435.621461,7105.977043,-6143.709319,1072.533697
1435.621791,7254.018232,-6291.750507,842.705048
1435.622121,7402.059420,-6439.791695,1378.971896
1435.622452,7476.080014,-6661.853478,1378.971896
1435.622782,7550.100608,-6069.688724,1225.752797
1435.623112,7179.997637,-5921.647536,1072.533697
1435.623442,7179.997637,-6217.729913,1149.143247
1435.623772,7031.956449,-6439.791695,919.314598
1435.624103,6957.935855,-6069.688724,919.314598
1435.624433,6883.915261,-6587.832884,1149.143247
1435.624763,7105.977043,-6439.791695,1225.752797
1435.625093,6809.894666,-6143.709319,1302.362347
1435.625424,6735.874072,-6439.791695,766.095498
1435.625754,6439.791695,-6883.915261,1225.752797
1435.626084,6809.894666,-6365.771101,1302.362347
1435.626414,6809.894666,-6513.812290,1072.533697
1435.626744,6957.935855,-6291.750507,1149.143247
1435.627075,6809.894666,-6439.791695,995.924147
1435.627405,6883.915261,-7105.977043,842.705048
1435.627735,6735.874072,-6957.935855,919.314598
1435.628065,6439.791695,-7105.977043,995.924147
1435.628395,6809.894666,-6735.874072,689.485948
1435.628726,7476.080014,-6143.709319,1072.533697
1435.629056,6883.915261,-6587.832884,1072.533697
1435.629386,7031.956449,-6957.935855,1149.143247
1435.629716,7179.997637,-6587.832884,1225.752797
1435.630047,7031.956449,-6143.709319,383.047749
1435.630377,7031.956449,-6217.729913,1225.752797
1435.630707,7105.977043,-6587.832884,1149.143247
1435.631037,6661.853478,-6365.771101,1302.362347
1435.631367,7031.956449,-6439.791695,1225.752797
1435.631698,7105.977043,-6439.791695,919.314598
1435.632028,7031.956449,-6291.750507,1225.752797
1435.632358,7179.997637,-6809.894666,1225.752797
1435.632688,7031.956449,-6809.894666,1225.752797
1435.633018,6883.915261,-6735.874072,1302.362347
1435.633349,7105.977043,-6143.709319,1225.752797
1435.633679,6587.832884,-6883.915261,1149.143247
1435.634009,6735.874072,-6587.832884,689.485948
1435.634339,6735.874072,-6661.853478,1532.190996
1435.634669,6883.915261,-7031.956449,1225.752797
1435.635000,7105.977043,-6957.935855,766.095498
1435.635330,6661.853478,-6661.853478,1149.143247
1435.635660,6809.894666,-7031.956449,842.705048
1435.635990,7105.977043,-6809.894666,1072.533697
1435.636321,7105.977043,-5921.647536,919.314598
1435.636651,7254.018232,-6661.853478,919.314598
1435.636981,7179.997637,-5995.668130,1225.752797
1435.637311,7254.018232,-6735.874072,842.705048
1435.637641,6809.894666,-5995.668130,919.314598
1435.637972,6883.915261,-5921.647536,1149.143247
1435.638302,7328.038826,-6291.750507,995.924147
1435.638632,7105.977043,-6217.729913,1225.752797
1435.638962,6957.935855,-6143.709319,1072.533697
1435.639292,7328.038826,-6217.729913,842.705048
1435.639623,7105.977043,-6217.729913,1378.971896
1435.639953,6883.915261,-5995.668130,919.314598
1435.640283,6661.853478,-6809.894666,689.485948
1435.640613,6513.812290,-6661.853478,1225.752797
1435.640944,7179.997637,-6883.915261,1149.143247
1435.641274,6809.894666,-7105.977043,842.705048
1435.641604,6957.935855,-6883.915261,1149.143247
1435.641934,6883.915261,-6809.894666,1072.533697
1435.642264,6735.874072,-6883.915261,1455.581446
1435.642595,6513.812290,-7031.956449,1072.533697
1435.642925,6143.709319,-7031.956449,919.314598
1435.643255,6957.935855,-6365.771101,919.314598
1435.643585,7105.977043,-6143.709319,1149.143247
1435.643915,6883.915261,-5847.626942,383.047749
1435.644246,7105.977043,-6809.894666,919.314598
1435.644576,6957.935855,-6513.812290,919.314598
1435.644906,6957.935855,-6883.915261,766.095498
1435.645236,7328.038826,-6365.771101,919.314598
1435.645566,7179.997637,-6587.832884,689.485948
1435.645897,7105.977043,-6513.812290,1072.533697
1435.646227,6883.915261,-6661.853478,1149.143247
1435.646557,7179.997637,-6143.709319,995.924147
1435.646887,7105.977043,-5699.585753,995.924147
1435.647218,6661.853478,-6143.709319,1302.362347
1435.647548,6661.853478,-6291.750507,919.314598
1435.647878,7031.956449,-6513.812290,995.924147
1435.648208,6809.894666,-6439.791695,842.705048
1435.648538,6809.894666,-6291.750507,995.924147
1435.648869,6587.832884,-6291.750507,766.095498
1435.649199,6439.791695,-7105.977043,1762.019645
1435.649529,7105.977043,-7031.956449,842.705048
1435.649859,7031.956449,-7254.018232,919.314598
1435.650189,6883.915261,-7105.977043,995.924147
1435.650520,7105.977043,-6661.853478,766.095498
1435.650850,7254.018232,-6439.791695,995.924147
1435.651180,7105.977043,-6365.771101,766.095498
1435.651510,7105.977043,-5995.668130,919.314598
1435.651840,7476.080014,-6217.729913,1149.143247
1435.652171,7328.038826,-6439.791695,1225.752797
1435.652501,7105.977043,-6069.688724,689.485948
1435.652831,7105.977043,-6217.729913,1302.362347
1435.653161,6809.894666,-6809.894666,1149.143247
1435.653492,7031.956449,-6291.750507,1072.533697
1435.653822,6957.935855,-6587.832884,1455.581446
1435.654152,6957.935855,-6291.750507,995.924147
1435.654482,7550.100608,-6513.812290,1532.190996
1435.654812,6883.915261,-6587.832884,1225.752797
1435.655143,6661.853478,-6957.935855,1302.362347
1435.655473,6735.874072,-6661.853478,1072.533697
1435.655803,6439.791695,-6439.791695,766.095498
1435.656133,6661.853478,-6957.935855,995.924147
1435.656463,7031.956449,-6735.874072,1149.143247
1435.656794,6735.874072,-6809.894666,1149.143247
1435.657124,6291.750507,-6957.935855,612.876398
1435.657454,6513.812290,-6809.894666,1378.971896
1435.657784,6883.915261,-7105.977043,919.314598
1435.658115,7031.956449,-6883.915261,842.705048
1435.658445,7179.997637,-6291.750507,995.924147
1435.658775,7105.977043,-6587.832884,995.924147
1435.659105,7254.018232,-6143.709319,919.314598
1435.659435,7105.977043,-6661.853478,919.314598
1435.659766,7105.977043,-6291.750507,612.876398
1435.660096,6957.935855,-6069.688724,1149.143247
1435.660426,7179.997637,-6069.688724,536.266849
1435.660756,7105.977043,-6809.894666,995.924147
1435.661086,7105.977043,-6587.832884,1225.752797
1435.661417,7105.977043,-6291.750507,689.485948
1435.661747,6883.915261,-6587.832884,1072.533697
1435.662077,7031.956449,-6439.791695,1225.752797
1435.662407,6883.915261,-6439.791695,536.266849
1435.662737,7105.977043,-6883.915261,1072.533697
1435.663068,7031.956449,-6587.832884,689.485948
1435.663398,7328.038826,-6439.791695,919.314598
1435.663728,6957.935855,-6439.791695,1149.143247
1435.664058,7031.956449,-6661.853478,1149.143247
1435.664389,6957.935855,-6957.935855,766.095498
1435.664718,6735.874072,-7105.977043,919.314598
1435.665048,7105.977043,-7105.977043,1072.533697
1435.665377,7105.977043,-6883.915261,842.705048
1435.665707,7105.977043,-6587.832884,995.924147
1435.666037,7105.977043,-6735.874072,919.314598
1435.666366,7105.977043,-6217.729913,689.485948
1435.666696,7550.100608,-6365.771101,612.876398
1435.667026,7105.977043,-6069.688724,766.095498
1435.667355,7550.100608,-6217.729913,1149.143247
1435.667685,7698.141797,-6143.709319,1455.581446
1435.668015,7179.997637,-5995.668130,1302.362347
1435.668344,7105.977043,-6439.791695,1378.971896
1435.668674,6587.832884,-6365.771101,1302.362347
1435.669004,6735.874072,-6439.791695,919.314598
1435.669333,6883.915261,-6439.791695,1149.143247
1435.669663,7031.956449,-6069.688724,1455.581446
1435.669993,6883.915261,-6661.853478,766.095498
1435.670322,6809.894666,-6661.853478,1455.581446
1435.670652,6587.832884,-6439.791695,842.705048
1435.670982,6883.915261,-6365.771101,612.876398
1435.671311,6587.832884,-6661.853478,1532.190996
1435.671641,6809.894666,-7105.977043,995.924147
1435.671971,6587.832884,-7105.977043,766.095498
1435.672300,6365.771101,-6957.935855,766.095498
1435.672630,6735.874072,-6883.915261,842.705048
1435.672959,7031.956449,-6661.853478,1072.533697
1435.673289,7105.977043,-6587.832884,1072.533697
1435.673619,7105.977043,-6809.894666,919.314598
1435.673948,7031.956449,-6513.812290,1225.752797
1435.674278,7254.018232,-6735.874072,1302.362347
1435.674608,6809.894666,-6291.750507,842.705048
1435.674937,7031.956449,-6143.709319,1072.533697
1435.675267,7179.997637,-6439.791695,1072.533697
1435.675597,7328.038826,-5995.668130,1685.410096
1435.675926,6883.915261,-6587.832884,1149.143247
1435.676256,7179.997637,-6365.771101,766.095498
1435.676586,7105.977043,-6217.729913,919.314598
1435.676915,6661.853478,-6439.791695,842.705048
1435.677245,6735.874072,-6661.853478,1225.752797
1435.677575,6957.935855,-6809.894666,919.314598
1435.677904,7105.977043,-6735.874072,995.924147
1435.678234,6809.894666,-6587.832884,842.705048
1435.678564,6883.915261,-6661.853478,919.314598
1435.678893,6809.894666,-6661.853478,842.705048
1435.679223,6883.915261,-6883.915261,383.047749
1435.679552,6809.894666,-6365.771101,689.485948
1435.679882,6957.935855,-6661.853478,766.095498
1435.680212,7105.977043,-6365.771101,995.924147
1435.680541,7031.956449,-6217.729913,1455.581446
1435.680871,7402.059420,-6587.832884,1225.752797
1435.681201,7402.059420,-6883.915261,1302.362347
1435.681530,7254.018232,-6217.729913,919.314598
1435.681860,7328.038826,-6661.853478,995.924147
1435.682190,7031.956449,-6513.812290,1225.752797
1435.682519,7105.977043,-6587.832884,919.314598
1435.682849,7031.956449,-6365.771101,536.266849
1435.683179,6957.935855,-5995.668130,995.924147
1435.683508,6809.894666,-6291.750507,689.485948
1435.683838,7105.977043,-6439.791695,1302.362347
1435.684168,7031.956449,-6439.791695,1455.581446
1435.684497,6809.894666,-6143.709319,919.314598
1435.684827,7105.977043,-6143.709319,919.314598
1435.685157,6587.832884,-6809.894666,1608.800546
1435.685486,6513.812290,-6883.915261,1455.581446
1435.685816,6439.791695,-6661.853478,1149.143247
1435.686145,6513.812290,-6661.853478,919.314598
1435.686475,6735.874072,-6883.915261,1149.143247
1435.686805,6513.812290,-6883.915261,1149.143247
1435.687134,6587.832884,-7179.997637,1225.752797
1435.687464,6957.935855,-6809.894666,995.924147
1435.687794,6809.894666,-6365.771101,1455.581446
1435.688123,7105.977043,-6661.853478,1072.533697
1435.688453,7105.977043,-6661.853478,1072.533697
1435.688783,7179.997637,-6809.894666,1149.143247
1435.689112,7031.956449,-6439.791695,1072.533697
1435.689442,6957.935855,-5995.668130,1378.971896
1435.689772,7179.997637,-6365.771101,842.705048
1435.690101,7105.977043,-6439.791695,842.705048
1435.690431,7254.018232,-6809.894666,1225.752797
1435.690761,7254.018232,-6365.771101,1072.533697
1435.691090,7105.977043,-6217.729913,689.485948
1435.691420,6957.935855,-6291.750507,1149.143247
1435.691750,6661.853478,-6365.771101,919.314598
1435.692079,7105.977043,-6587.832884,766.095498
1435.692409,6809.894666,-6883.915261,1455.581446
1435.692739,7105.977043,-6957.935855,1225.752797
1435.693068,7179.997637,-6587.832884,536.266849
1435.693398,6957.935855,-6809.894666,842.705048
1435.693727,6513.812290,-6735.874072,1149.143247
1435.694057,7105.977043,-6809.894666,383.047749
1435.694387,6883.915261,-7105.977043,766.095498
1435.694716,7031.956449,-6957.935855,842.705048
1435.695046,7105.977043,-6143.709319,1149.143247
1435.695376,7105.977043,-5995.668130,1149.143247
1435.695705,6883.915261,-6587.832884,689.485948
1435.696035,7254.018232,-6217.729913,842.705048
1435.696365,7105.977043,-6661.853478,689.485948
1435.696694,6957.935855,-6439.791695,1072.533697
1435.697024,7031.956449,-5921.647536,842.705048
1435.697354,7105.977043,-6513.812290,612.876398
1435.697683,7179.997637,-6439.791695,1302.362347
1435.698013,6883.915261,-6587.832884,1225.752797
1435.698343,7254.018232,-5699.585753,919.314598
1435.698672,7031.956449,-6291.750507,995.924147
1435.699002,6809.894666,-6587.832884,1302.362347
1435.699332,6883.915261,-6217.729913,536.266849
1435.699661,6809.894666,-6217.729913,1149.143247
1435.699991,6735.874072,-6957.935855,1608.800546
1435.700320,6587.832884,-6883.915261,842.705048
1435.700650,6587.832884,-6809.894666,1072.533697
1435.700980,6809.894666,-6809.894666,1149.143247
1435.701309,7105.977043,-7328.038826,1072.533697
1435.701639,7105.977043,-7105.977043,1608.800546
1435.701969,6957.935855,-7105.977043,1225.752797
1435.702298,7105.977043,-6661.853478,1378.971896
1435.702628,6957.935855,-6217.729913,1072.533697
1435.702958,6809.894666,-6735.874072,1225.752797
1435.703287,6957.935855,-6735.874072,1378.971896
1435.703617,6883.915261,-6661.853478,1225.752797
1435.703947,6957.935855,-6513.812290,766.095498
1435.704276,6883.915261,-6513.812290,1608.800546
1435.704606,7105.977043,-6069.688724,689.485948
1435.704936,7179.997637,-6587.832884,1072.533697
1435.705265,7031.956449,-6661.853478,1378.971896
1435.705595,7031.956449,-6365.771101,1149.143247
1435.705925,7105.977043,-5847.626942,1378.971896
1435.706254,7105.977043,-6365.771101,1225.752797
1435.706584,6809.894666,-6069.688724,1302.362347
1435.706913,6883.915261,-6957.935855,995.924147
1435.707243,6661.853478,-6587.832884,1072.533697
1435.707573,7254.018232,-7031.956449,689.485948
1435.707902,6957.935855,-6735.874072,1378.971896
1435.708232,6883.915261,-6661.853478,1149.143247
1435.708562,7031.956449,-6587.832884,612.876398
1435.708891,7031.956449,-5847.626942,919.314598
1435.709221,7105.977043,-6661.853478,1149.143247
1435.709551,7328.038826,-6291.750507,689.485948
1435.709880,7402.059420,-6365.771101,1378.971896
1435.710210,7031.956449,-6439.791695,1302.362347
1435.710540,7105.977043,-6439.791695,1532.190996
1435.710869,7105.977043,-6587.832884,842.705048
1435.711199,7105.977043,-6661.853478,612.876398
1435.711529,7179.997637,-6365.771101,1072.533697
1435.711858,7402.059420,-6291.750507,1302.362347
1435.712188,7105.977043,-5921.647536,1149.143247
1435.712518,7328.038826,-6291.750507,919.314598
1435.712847,6957.935855,-6291.750507,1149.143247
1435.713177,7179.997637,-6217.729913,995.924147
1435.713507,7328.038826,-6365.771101,919.314598
1435.713836,7105.977043,-6365.771101,1072.533697
1435.714166,6735.874072,-6587.832884,1149.143247
1435.714495,7031.956449,-6291.750507,1378.971896
1435.714825,7254.018232,-5995.668130,842.705048
1435.715155,7624.121203,-5921.647536,689.485948
1435.715484,8068.244768,-6069.688724,1455.581446
1435.715814,7772.162391,-6291.750507,995.924147
1435.716144,7328.038826,-6883.915261,459.657299
1435.716473,5921.647536,-6957.935855,1072.533697
1435.716803,5773.606348,-7846.182985,306.438199
1435.717133,6587.832884,-6883.915261,766.095498
1435.717462,7624.121203,-6513.812290,1302.362347
1435.717792,7994.224174,-6513.812290,1532.190996
1435.718122,8068.244768,-5329.482782,1991.848295
1435.718451,7772.162391,-4293.194464,1225.752797
1435.718781,7994.224174,-4367.215058,995.924147
1435.719111,7772.162391,-4663.297435,919.314598
1435.719440,8882.471304,-4145.153275,1302.362347
1435.719770,8660.409521,-5107.421000,1378.971896
1435.720100,8290.306550,-4737.318029,1072.533697
1435.720429,8142.265362,-5033.400406,306.438199
1435.720759,7698.141797,-5329.482782,612.876398
1435.721088,7772.162391,-4737.318029,689.485948
1435.721418,8290.306550,-6217.729913,1072.533697
1435.721748,8290.306550,-5921.647536,1072.533697
1435.722077,7994.224174,-5699.585753,383.047749
1435.722407,7624.121203,-5403.503377,842.705048
1435.722737,7698.141797,-4663.297435,1608.800546
1435.723066,8290.306550,-4589.276840,1072.533697
1435.723396,8512.368333,-4145.153275,1685.410096
1435.723726,8438.347739,-4441.235652,1149.143247
1435.724055,9178.553681,-3701.029710,1378.971896
1435.724385,9326.594869,-3552.988522,995.924147
1435.724715,9696.697840,-3256.906145,1455.581446
1435.725044,10140.821405,-2738.761985,1072.533697
1435.725374,10066.800811,-3404.947333,1455.581446
1435.725704,10584.944971,-3404.947333,1149.143247
1435.726033,10066.800811,-3997.112087,919.314598
1435.726363,9696.697840,-4145.153275,1302.362347
1435.726693,9400.615463,-4663.297435,995.924147
1435.727022,8290.306550,-5181.441594,1302.362347
1435.727352,8438.347739,-4737.318029,842.705048
1435.727681,7994.224174,-5847.626942,1302.362347
1435.728011,8512.368333,-5255.462188,1455.581446
1435.728341,8364.327145,-5181.441594,919.314598
1435.728670,8290.306550,-5107.421000,536.266849
1435.729000,7994.224174,-4885.359217,536.266849
1435.729330,8068.244768,-5329.482782,459.657299
1435.729659,7846.182985,-5255.462188,0.000000
1435.729989,8438.347739,-4737.318029,229.828649
1435.730319,10436.903782,-4589.276840,612.876398
1435.730648,10658.965565,-4663.297435,1072.533697
1435.730978,10140.821405,-4663.297435,1302.362347
1435.731308,9770.718434,-3701.029710,995.924147
1435.731637,9844.739029,-4293.194464,612.876398
1435.731967,9622.677246,-4589.276840,995.924147
1435.732297,9252.574275,-4663.297435,1685.410096
1435.732626,8882.471304,-4885.359217,1225.752797
1435.732956,8734.430116,-4071.132681,1685.410096
1435.733286,8512.368333,-4071.132681,1685.410096
1435.733615,9178.553681,-4367.215058,1685.410096
1435.733945,9326.594869,-4071.132681,2145.067394
1435.734274,9400.615463,-3330.926739,1838.629195
1435.734604,8734.430116,-3108.864956,1149.143247
1435.734934,8956.491898,-4071.132681,612.876398
1435.735263,9030.512492,-4293.194464,0.000000
1435.735593,9030.512492,-4441.235652,459.657299
1435.735923,8956.491898,-4219.173869,0.000000
1435.736252,8364.327145,-4293.194464,0.000000
1435.736582,8734.430116,-5847.626942,383.047749
1435.736912,8734.430116,-5921.647536,1149.143247
1435.737241,8364.327145,-6069.688724,995.924147
1435.737571,7994.224174,-5551.544565,1302.362347
1435.737901,7846.182985,-5477.523971,2374.896044
1435.738230,8142.265362,-5625.565159,1608.800546
1435.738560,8438.347739,-5255.462188,2451.505594
1435.738890,9178.553681,-4737.318029,1991.848295
1435.739219,9474.636058,-3256.906145,1608.800546
1435.739549,9770.718434,-1110.308913,1072.533697
1435.739879,9770.718434,-2368.659014,689.485948
1435.740208,10214.842000,-1702.473667,153.219100
1435.740538,10362.883188,-1924.535449,0.000000
1435.740868,10955.047942,-3330.926739,-76.609550
1435.741197,10214.842000,-3627.009116,229.828649
1435.741527,9474.636058,-5921.647536,766.095498
1435.741856,8956.491898,-7402.059420,1072.533697
1435.742186,7994.224174,-7772.162391,766.095498
1435.742516,7402.059420,-8364.327145,1225.752797
1435.742845,6883.915261,-7920.203579,1225.752797
1435.743175,6587.832884,-6365.771101,229.828649
1435.743505,6587.832884,-4959.379811,306.438199
1435.743834,7402.059420,-3997.112087,995.924147
1435.744164,9548.656652,-3478.967927,2145.067394
1435.744494,10288.862594,-1850.514855,1915.238745
1435.744823,10362.883188,-1110.308913,1532.190996
1435.745153,10066.800811,-518.144159,1608.800546
1435.745483,10807.006753,-592.164754,306.438199
1435.745812,11473.192101,-1258.350101,995.924147
1435.746142,12361.439231,-1702.473667,1225.752797
1435.746472,12657.521608,-2738.761985,1838.629195
1435.746801,11473.192101,-3478.967927,2911.162892
1435.747131,9474.636058,-6143.709319,1225.752797
1435.747461,7031.956449,-8586.388927,459.657299
1435.747790,5107.421000,-9252.574275,0.000000
1435.748120,4071.132681,-9104.533087,-689.485948
1435.748449,4515.256246,-7772.162391,-1072.533697
1435.748779,5625.565159,-7624.121203,-306.438199
1435.749109,7624.121203,-6661.853478,689.485948
1435.749438,8956.491898,-5033.400406,1532.190996
1435.749768,10066.800811,-3404.947333,1608.800546
1435.750098,10436.903782,-1332.370696,1685.410096
1435.750427,10658.965565,-1258.350101,1685.410096
1435.750757,11251.130318,0.000000,1302.362347
1435.751087,11991.336260,74.020594,1302.362347
1435.751416,13693.809927,0.000000,2374.896044
1435.751746,13693.809927,-1406.391290,2451.505594
1435.752076,12805.562797,-3034.844362,2987.772442
1435.752405,10881.027347,-3404.947333,2221.676944
1435.752735,8290.306550,-5847.626942,1532.190996
1435.753065,7031.956449,-7698.141797,306.438199
1435.753394,4441.235652,-8142.265362,0.000000
1435.753724,4071.132681,-8660.409521,-842.705048
1435.754054,3849.070898,-9326.594869,-766.095498
1435.754383,5329.482782,-7031.956449,229.828649
1435.754713,7698.141797,-5033.400406,0.000000
1435.755042,9770.718434,-3849.070898,76.609550
1435.755372,11769.274478,-2886.803174,1072.533697
1435.755702,11843.295072,-1332.370696,1762.019645
1435.756031,12953.603985,-1332.370696,2145.067394
1435.756361,11621.233289,-1628.453072,2145.067394
1435.756691,11103.089130,-3108.864956,2298.286494
1435.757020,9696.697840,-4811.338623,1302.362347
1435.757350,8660.409521,-5847.626942,1455.581446
1435.757680,7920.203579,-8512.368333,1915.238745
1435.758009,7846.182985,-6735.874072,1838.629195
1435.758339,7179.997637,-5107.421000,229.828649
1435.758669,6587.832884,-4071.132681,229.828649
1435.758998,6883.915261,-3478.967927,0.000000
1435.759328,7994.224174,-3775.050304,0.000000
1435.759658,8882.471304,-2738.761985,1149.143247
1435.759987,9918.759623,-2294.638420,1225.752797
1435.760317,10658.965565,-1850.514855,689.485948
1435.760647,10881.027347,-2072.576638,1225.752797
1435.760976,11621.233289,-3627.009116,1915.238745
1435.761306,11621.233289,-5033.400406,2068.457845
1435.761636,9992.780217,-5255.462188,1915.238745
1435.761965,8956.491898,-4515.256246,383.047749
1435.762295,8586.388927,-4959.379811,536.266849
1435.762624,7179.997637,-8142.265362,383.047749
1435.762954,6513.812290,-8882.471304,1149.143247
1435.763284,6439.791695,-7105.977043,766.095498
1435.763613,6809.894666,-4885.359217,-383.047749
1435.763943,6957.935855,-4737.318029,0.000000
1435.764272,7772.162391,-5773.606348,1149.143247
1435.764601,8586.388927,-5625.565159,1378.971896
1435.764931,9030.512492,-2886.803174,1225.752797
1435.765260,9770.718434,-666.185348,76.609550
1435.765590,11103.089130,222.061783,1072.533697
1435.765919,11843.295072,-1850.514855,1532.190996
1435.766249,10955.047942,-4293.194464,2451.505594
1435.766578,10140.821405,-3404.947333,1838.629195
1435.766907,9992.780217,-3923.091493,842.705048
1435.767237,10584.944971,-3034.844362,1915.238745
1435.767566,10214.842000,-6069.688724,2145.067394
1435.767896,9104.533087,-6661.853478,1608.800546
1435.768225,7550.100608,-4589.276840,0.000000
1435.768555,6883.915261,-5255.462188,0.000000
1435.768884,7179.997637,-5477.523971,1302.362347
1435.769213,6957.935855,-6735.874072,153.219100
1435.769543,6143.709319,-5033.400406,-995.924147
1435.769872,5033.400406,-5625.565159,-842.705048
1435.770202,7105.977043,-7105.977043,536.266849
1435.770531,9696.697840,-5773.606348,1608.800546
1435.770861,9992.780217,-4663.297435,1149.143247
1435.771190,10436.903782,-3182.885551,1225.752797
1435.771519,10288.862594,-4737.318029,995.924147
1435.771849,8956.491898,-7105.977043,2451.505594
1435.772178,8290.306550,-7105.977043,1838.629195
1435.772508,7846.182985,-4071.132681,919.314598
1435.772837,7624.121203,-2812.782580,-689.485948
1435.773167,6513.812290,-7698.141797,1455.581446
1435.773496,8438.347739,-4737.318029,2221.676944
1435.773825,9770.718434,-4071.132681,2221.676944
1435.774155,8808.450710,-3108.864956,1072.533697
1435.774484,8438.347739,-1776.494261,1608.800546
1435.774814,9104.533087,-3997.112087,2145.067394
1435.775143,8142.265362,-5107.421000,612.876398
1435.775473,7328.038826,-5403.503377,689.485948
1435.775802,8290.306550,-6291.750507,1149.143247
1435.776131,9104.533087,-7328.038826,1455.581446
1435.776461,8290.306550,-8512.368333,1762.019645
1435.776790,7105.977043,-8586.388927,995.924147
1435.777120,5847.626942,-8068.244768,-306.438199
1435.777449,4219.173869,-9474.636058,-612.876398
1435.777779,3330.926739,-8660.409521,0.000000
1435.778108,4367.215058,-7846.182985,-842.705048
1435.778437,5921.647536,-6365.771101,-383.047749
1435.778767,7031.956449,-5995.668130,0.000000
1435.779096,7698.141797,-5995.668130,1685.410096
1435.779426,9326.594869,-6217.729913,2374.896044
1435.779755,9474.636058,-5551.544565,2221.676944
1435.780085,8660.409521,-3478.967927,1225.752797
1435.780414,7920.203579,-4367.215058,1762.019645
1435.780743,8364.327145,-5995.668130,2451.505594
1435.781073,8882.471304,-6217.729913,2987.772442
1435.781402,8956.491898,-4071.132681,2681.334243
1435.781732,9326.594869,-2664.741391,2911.162892
1435.782061,7846.182985,-3701.029710,1149.143247
1435.782391,5847.626942,-5403.503377,306.438199
1435.782720,4737.318029,-5329.482782,-766.095498
1435.783049,5033.400406,-6069.688724,-842.705048
1435.783379,6365.771101,-7031.956449,-306.438199
1435.783708,7105.977043,-6587.832884,1225.752797
1435.784038,8512.368333,-6883.915261,1225.752797
1435.784367,8734.430116,-8586.388927,1378.971896
1435.784697,7772.162391,-8068.244768,1608.800546
1435.785026,6217.729913,-7846.182985,612.876398
1435.785355,5699.585753,-7846.182985,229.828649
1435.785685,6661.853478,-8364.327145,383.047749
1435.786014,6661.853478,-8956.491898,1225.752797
1435.786344,6439.791695,-9252.574275,919.314598
1435.786673,5921.647536,-9030.512492,1455.581446
1435.787003,5699.585753,-8882.471304,842.705048
1435.787332,4219.173869,-7105.977043,1149.143247
1435.787661,4145.153275,-4959.379811,76.609550
1435.787991,5773.606348,-4959.379811,842.705048
1435.788320,7179.997637,-4885.359217,766.095498
1435.788650,7920.203579,-4737.318029,1302.362347
1435.788979,8216.285956,-4441.235652,1608.800546
1435.789309,8142.265362,-5699.585753,2528.115143
1435.789638,7105.977043,-7550.100608,1455.581446
1435.789967,5329.482782,-8290.306550,919.314598
1435.790297,5921.647536,-8216.285956,689.485948
1435.790626,6957.935855,-8068.244768,1149.143247
1435.790956,7698.141797,-6365.771101,2145.067394
1435.791285,7624.121203,-7105.977043,1149.143247
1435.791615,7402.059420,-6439.791695,229.828649
1435.791944,5847.626942,-7105.977043,459.657299
1435.792273,5847.626942,-7624.121203,153.219100
1435.792603,5995.668130,-6217.729913,76.609550
1435.792932,6809.894666,-5699.585753,76.609550
1435.793262,7698.141797,-4441.235652,383.047749
1435.793591,8660.409521,-4071.132681,1149.143247
1435.793921,9844.739029,-5107.421000,1838.629195
1435.794250,9770.718434,-5921.647536,1991.848295
1435.794579,8142.265362,-5699.585753,1455.581446
1435.794909,6661.853478,-6957.935855,689.485948
1435.795238,6143.709319,-7031.956449,842.705048
1435.795568,6661.853478,-8068.244768,995.924147
1435.795897,7105.977043,-7772.162391,1608.800546
1435.796227,7994.224174,-6661.853478,1838.629195
1435.796556,7772.162391,-5329.482782,1378.971896
1435.796885,6957.935855,-6069.688724,536.266849
1435.797215,5255.462188,-6365.771101,-536.266849
1435.797544,4959.379811,-6217.729913,-383.047749
1435.797874,5329.482782,-6809.894666,-229.828649
1435.798203,6661.853478,-5255.462188,229.828649
1435.798533,7402.059420,-5107.421000,229.828649
1435.798862,8882.471304,-7031.956449,1302.362347
1435.799191,9400.615463,-7772.162391,2068.457845
1435.799521,8660.409521,-7772.162391,2221.676944
1435.799850,7328.038826,-6513.812290,1072.533697
1435.800180,7105.977043,-6217.729913,689.485948
1435.800509,6735.874072,-7105.977043,766.095498
1435.800839,7031.956449,-7105.977043,1685.410096
1435.801168,7476.080014,-6587.832884,1838.629195
1435.801497,6883.915261,-5995.668130,1302.362347
1435.801827,5847.626942,-6513.812290,536.266849
1435.802156,4219.173869,-7179.997637,229.828649
1435.802486,4515.256246,-7105.977043,0.000000
1435.802815,5773.606348,-6143.709319,-306.438199
1435.803145,7105.977043,-5403.503377,229.828649
1435.803474,8290.306550,-5255.462188,995.924147
1435.803803,9104.533087,-5995.668130,1608.800546
1435.804133,8808.450710,-7550.100608,1685.410096
1435.804462,6809.894666,-8290.306550,766.095498
1435.804792,5551.544565,-8586.388927,536.266849
1435.805121,6513.812290,-9326.594869,919.314598
1435.805451,7254.018232,-8364.327145,1838.629195
1435.805780,7105.977043,-5995.668130,1991.848295
1435.806109,7624.121203,-5551.544565,1378.971896
1435.806439,7031.956449,-5033.400406,1455.581446
1435.806768,6513.812290,-5107.421000,536.266849
1435.807098,5329.482782,-4885.359217,0.000000
1435.807427,5773.606348,-5033.400406,0.000000
1435.807757,7550.100608,-4737.318029,766.095498
1435.808086,8290.306550,-5477.523971,1072.533697
1435.808415,8808.450710,-5921.647536,1915.238745
1435.808745,9104.533087,-6513.812290,1838.629195
1435.809074,8216.285956,-8068.244768,1532.190996
1435.809404,6439.791695,-8142.265362,1072.533697
1435.809733,5255.462188,-7920.203579,689.485948
1435.810063,5329.482782,-7476.080014,995.924147
1435.810392,7179.997637,-6439.791695,1915.238745
1435.810721,7624.121203,-5625.565159,2451.505594
1435.811051,7402.059420,-4293.194464,1838.629195
1435.811380,6735.874072,-5403.503377,1532.190996
1435.811710,5255.462188,-5107.421000,229.828649
1435.812039,5181.441594,-6365.771101,0.000000
1435.812369,5995.668130,-5921.647536,76.609550
1435.812698,7179.997637,-5403.503377,383.047749
1435.813027,7920.203579,-6513.812290,1225.752797
1435.813357,8586.388927,-7179.997637,1532.190996
1435.813686,8438.347739,-8660.409521,1762.019645
1435.814016,6661.853478,-8734.430116,383.047749
1435.814345,4663.297435,-9400.615463,-306.438199
1435.814675,4219.173869,-9844.739029,76.609550
1435.815004,6069.688724,-8956.491898,689.485948
1435.815333,7105.977043,-8438.347739,1762.019645
1435.815663,7105.977043,-6217.729913,1838.629195
1435.815992,7105.977043,-5625.565159,1455.581446
1435.816322,6809.894666,-5403.503377,612.876398
1435.816651,6513.812290,-4293.194464,1072.533697
1435.816981,7105.977043,-5255.462188,1455.581446
1435.817310,8216.285956,-4737.318029,1072.533697
1435.817639,7550.100608,-3923.091493,536.266849
1435.817969,7920.203579,-5551.544565,1072.533697
1435.818298,8586.388927,-5995.668130,1685.410096
1435.818628,9326.594869,-7550.100608,2681.334243
1435.818957,8068.244768,-8364.327145,1762.019645
1435.819287,6069.688724,-7846.182985,1378.971896
1435.819616,5107.421000,-7105.977043,229.828649
1435.819945,5107.421000,-7994.224174,229.828649
1435.820275,5921.647536,-6439.791695,1455.581446
1435.820604,7105.977043,-5181.441594,1149.143247
1435.820934,7550.100608,-5033.400406,1532.190996
1435.821263,8142.265362,-4071.132681,1838.629195
1435.821593,7846.182985,-5181.441594,919.314598
1435.821922,7994.224174,-4441.235652,1072.533697
1435.822251,7920.203579,-4293.194464,919.314598
1435.822581,8660.409521,-4219.173869,689.485948
1435.822910,8734.430116,-5033.400406,1378.971896
1435.823240,8586.388927,-7476.080014,1685.410096
1435.823569,7920.203579,-8216.285956,1838.629195
1435.823899,6439.791695,-8808.450710,766.095498
1435.824228,4959.379811,-8808.450710,306.438199
1435.824557,3923.091493,-8734.430116,-76.609550
1435.824887,4441.235652,-9622.677246,919.314598
1435.825216,5699.585753,-7105.977043,995.924147
1435.825546,6365.771101,-6587.832884,1915.238745
1435.825875,6069.688724,-5477.523971,1302.362347
1435.826205,5995.668130,-5329.482782,612.876398
1435.826534,6661.853478,-6217.729913,383.047749
1435.826863,6957.935855,-4663.297435,229.828649
1435.827193,7624.121203,-5699.585753,1378.971896
1435.827522,8586.388927,-5699.585753,1149.143247
1435.827852,9548.656652,-6217.729913,1378.971896
1435.828181,9770.718434,-6883.915261,1915.238745
1435.828511,7920.203579,-8216.285956,919.314598
1435.828840,5625.565159,-9030.512492,842.705048
1435.829169,4145.153275,-9326.594869,0.000000
1435.829499,3923.091493,-8734.430116,0.000000
1435.829828,5107.421000,-8142.265362,919.314598
1435.830158,6439.791695,-5995.668130,612.876398
1435.830487,7254.018232,-4885.359217,1072.533697
1435.830817,7994.224174,-4589.276840,1608.800546
1435.831146,8216.285956,-4293.194464,1225.752797
1435.831475,8290.306550,-3404.947333,689.485948
1435.831805,7179.997637,-4367.215058,1072.533697
1435.832134,8290.306550,-5033.400406,612.876398
1435.832464,9178.553681,-5107.421000,2068.457845
1435.832793,9622.677246,-6439.791695,1991.848295
1435.833123,8956.491898,-8068.244768,2145.067394
1435.833452,7254.018232,-8290.306550,1302.362347
1435.833781,5181.441594,-9474.636058,536.266849
1435.834111,3997.112087,-9474.636058,383.047749
1435.834440,3775.050304,-8512.368333,153.219100
1435.834770,4367.215058,-7550.100608,229.828649
1435.835099,5403.503377,-6291.750507,842.705048
1435.835429,6365.771101,-4737.318029,1072.533697
1435.835758,7550.100608,-5329.482782,1378.971896
1435.836087,8586.388927,-3997.112087,2145.067394
1435.836417,8438.347739,-3552.988522,1455.581446
1435.836746,8142.265362,-4367.215058,689.485948
1435.837076,7994.224174,-4441.235652,766.095498
1435.837405,8216.285956,-5921.647536,1302.362347
1435.837735,8216.285956,-7105.977043,1608.800546
1435.838064,7254.018232,-8808.450710,1762.019645
1435.838393,6809.894666,-9474.636058,1532.190996
1435.838723,5329.482782,-9474.636058,1072.533697
1435.839052,3552.988522,-9178.553681,459.657299
1435.839382,3627.009116,-9548.656652,689.485948
1435.839711,4589.276840,-7105.977043,536.266849
1435.840041,5329.482782,-5181.441594,612.876398
1435.840370,6143.709319,-4811.338623,1149.143247
1435.840699,7105.977043,-4811.338623,2221.676944
1435.841029,7772.162391,-4293.194464,842.705048
1435.841358,7624.121203,-3849.070898,0.000000
1435.841688,8512.368333,-4515.256246,919.314598
1435.842017,9548.656652,-5625.565159,1991.848295
1435.842347,9918.759623,-6513.812290,1455.581446
1435.842676,8216.285956,-7624.121203,1838.629195
1435.843005,7476.080014,-8882.471304,1762.019645
1435.843335,6513.812290,-9474.636058,842.705048
1435.843664,4811.338623,-9770.718434,689.485948
1435.843994,3849.070898,-9474.636058,153.219100
1435.844323,4219.173869,-8734.430116,153.219100
1435.844653,4737.318029,-8216.285956,689.485948
1435.844982,6069.688724,-4959.379811,689.485948
1435.845311,7772.162391,-3997.112087,689.485948
1435.845641,8438.347739,-4959.379811,1302.362347
1435.845970,7920.203579,-3627.009116,1225.752797
1435.846300,8216.285956,-3923.091493,1072.533697
1435.846629,9696.697840,-3849.070898,689.485948
1435.846959,9992.780217,-4515.256246,1532.190996
1435.847288,9770.718434,-6143.709319,1838.629195
1435.847617,10140.821405,-7105.977043,2911.162892
1435.847947,8882.471304,-8956.491898,2451.505594
1435.848276,6957.935855,-8882.471304,1762.019645
1435.848606,4367.215058,-7994.224174,-383.047749
1435.848935,2812.782580,-8512.368333,-536.266849
1435.849265,3256.906145,-9178.553681,0.000000
1435.849594,4737.318029,-7254.018232,689.485948
1435.849923,6513.812290,-4959.379811,1149.143247
1435.850253,6809.894666,-4515.256246,536.266849
1435.850582,7031.956449,-4737.318029,383.047749
1435.850912,7994.224174,-3552.988522,306.438199
1435.851241,8068.244768,-5107.421000,459.657299
1435.851571,8734.430116,-4737.318029,1225.752797
1435.851900,9252.574275,-5255.462188,1455.581446
1435.852229,9918.759623,-5995.668130,1762.019645
1435.852559,9104.533087,-7550.100608,2374.896044
1435.852888,7328.038826,-8438.347739,2145.067394
1435.853218,6439.791695,-9104.533087,1149.143247
1435.853547,4811.338623,-8734.430116,536.266849
1435.853877,4515.256246,-8364.327145,536.266849
1435.854206,4737.318029,-7402.059420,689.485948
1435.854535,4737.318029,-6069.688724,153.219100
1435.854865,5625.565159,-5329.482782,229.828649
1435.855194,6735.874072,-5255.462188,0.000000
1435.855524,7031.956449,-5921.647536,612.876398
1435.855853,7105.977043,-4441.235652,842.705048
1435.856183,7031.956449,-4515.256246,0.000000
1435.856512,7772.162391,-5773.606348,689.485948
1435.856841,9474.636058,-5181.441594,1608.800546
1435.857171,10955.047942,-5403.503377,2987.772442
1435.857500,11251.130318,-7476.080014,2528.115143
1435.857830,8586.388927,-8808.450710,2681.334243
1435.858159,6587.832884,-8438.347739,1302.362347
1435.858489,4959.379811,-8882.471304,0.000000
1435.858818,3627.009116,-8734.430116,842.705048
1435.859147,4811.338623,-8216.285956,919.314598
1435.859477,6069.688724,-6587.832884,229.828649
1435.859806,6291.750507,-4737.318029,153.219100
1435.860136,5921.647536,-5847.626942,76.609550
1435.860465,6365.771101,-4737.318029,153.219100
1435.860795,7031.956449,-4219.173869,383.047749
1435.861124,7698.141797,-5255.462188,612.876398
1435.861453,8586.388927,-5181.441594,919.314598
1435.861783,9770.718434,-5773.606348,2298.286494
1435.862112,10214.842000,-6439.791695,2451.505594
1435.862442,9696.697840,-7994.224174,2604.724693
1435.862771,7772.162391,-8512.368333,2681.334243
1435.863101,5699.585753,-7402.059420,459.657299
1435.863430,3923.091493,-8068.244768,306.438199
1435.863759,4071.132681,-8956.491898,383.047749
1435.864089,4811.338623,-8512.368333,459.657299
1435.864418,5329.482782,-6809.894666,842.705048
1435.864748,5995.668130,-5773.606348,383.047749
1435.865077,6069.688724,-5625.565159,0.000000
1435.865407,6365.771101,-4441.235652,306.438199
1435.865736,6513.812290,-5551.544565,229.828649
1435.866065,7772.162391,-4367.215058,612.876398
1435.866394,9030.512492,-3997.112087,919.314598
1435.866724,9474.636058,-5551.544565,1838.629195
1435.867053,10584.944971,-6291.750507,2757.943793
1435.867382,9548.656652,-7772.162391,3217.601092
1435.867712,7550.100608,-7550.100608,1915.238745
1435.868041,6291.750507,-8290.306550,2528.115143
1435.868370,5329.482782,-8364.327145,1302.362347
1435.868700,4441.235652,-7624.121203,229.828649
1435.869029,4441.235652,-7550.100608,1149.143247
1435.869358,6513.812290,-5921.647536,1915.238745
1435.869688,7179.997637,-4219.173869,0.000000
1435.870017,5477.523971,-5403.503377,612.876398
1435.870346,5699.585753,-5107.421000,383.047749
1435.870676,7105.977043,-5033.400406,-383.047749
1435.871005,8068.244768,-5329.482782,689.485948
1435.871334,7328.038826,-6661.853478,1225.752797
1435.871664,8956.491898,-5995.668130,1378.971896
1435.871993,10214.842000,-6957.935855,2068.457845
1435.872322,8956.491898,-8808.450710,2451.505594
1435.872651,7920.203579,-8586.388927,2604.724693
1435.872981,7031.956449,-8660.409521,1378.971896
1435.873310,4515.256246,-9622.677246,-536.266849
1435.873639,2960.823768,-9474.636058,306.438199
1435.873969,4737.318029,-8882.471304,229.828649
1435.874298,6143.709319,-7105.977043,0.000000
1435.874627,5403.503377,-5995.668130,536.266849
1435.874957,5403.503377,-6883.915261,0.000000
1435.875286,6809.894666,-4589.276840,-153.219100
1435.875615,6513.812290,-4811.338623,229.828649
1435.875945,7031.956449,-5033.400406,766.095498
1435.876274,9104.533087,-4663.297435,1149.143247
1435.876603,10362.883188,-6143.709319,2374.896044
1435.876933,10288.862594,-5551.544565,2911.162892
1435.877262,9178.553681,-6587.832884,2987.772442
1435.877591,7698.141797,-7328.038826,1302.362347
1435.877921,5477.523971,-7698.141797,383.047749
1435.878250,4367.215058,-9326.594869,842.705048
1435.878579,5403.503377,-8660.409521,1225.752797
1435.878908,5403.503377,-8142.265362,689.485948
1435.879238,5921.647536,-6069.688724,995.924147
1435.879567,5921.647536,-4737.318029,-153.219100
1435.879896,6809.894666,-5033.400406,689.485948
1435.880226,7254.018232,-4515.256246,536.266849
1435.880555,8142.265362,-4737.318029,919.314598
1435.880884,9104.533087,-3330.926739,842.705048
1435.881214,9400.615463,-3182.885551,842.705048
1435.881543,10066.800811,-4071.132681,1915.238745
1435.881872,10140.821405,-5255.462188,2604.724693
1435.882202,9474.636058,-7698.141797,2451.505594
1435.882531,7624.121203,-8364.327145,2681.334243
1435.882860,5921.647536,-8808.450710,2145.067394
1435.883190,4071.132681,-8660.409521,-842.705048
1435.883519,3034.844362,-9844.739029,-153.219100
1435.883848,2960.823768,-9252.574275,459.657299
1435.884178,5255.462188,-7328.038826,383.047749
1435.884507,5995.668130,-7105.977043,536.266849
1435.884836,5995.668130,-6217.729913,383.047749
1435.885165,6661.853478,-5551.544565,-229.828649
1435.885495,6661.853478,-6069.688724,0.000000
1435.885824,7105.977043,-4811.338623,306.438199
1435.886153,8068.244768,-4663.297435,1072.533697
1435.886483,9548.656652,-5033.400406,1302.362347
1435.886812,9770.718434,-6883.915261,2911.162892
1435.887141,9400.615463,-8216.285956,2681.334243
1435.887471,7624.121203,-7994.224174,2604.724693
1435.887800,5551.544565,-8734.430116,1072.533697
1435.888129,4441.235652,-9474.636058,229.828649
1435.888459,4441.235652,-8438.347739,459.657299
1435.888788,5107.421000,-8512.368333,383.047749
1435.889117,5625.565159,-7105.977043,1149.143247
1435.889447,6069.688724,-6217.729913,229.828649
1435.889776,5995.668130,-5033.400406,-229.828649
1435.890105,6365.771101,-4441.235652,153.219100
1435.890435,6661.853478,-5255.462188,919.314598
1435.890764,8290.306550,-4219.173869,536.266849
1435.891093,8808.450710,-4737.318029,1149.143247
1435.891422,10066.800811,-4589.276840,2528.115143
1435.891752,10732.986159,-5921.647536,3294.210641
1435.892081,10510.924376,-5995.668130,3753.867940
1435.892410,8364.327145,-6439.791695,2451.505594
1435.892740,6143.709319,-7105.977043,842.705048
1435.893069,4737.318029,-7402.059420,919.314598
1435.893398,5329.482782,-8290.306550,842.705048
1435.893728,6291.750507,-7698.141797,1608.800546
1435.894057,6291.750507,-5995.668130,995.924147
1435.894386,5551.544565,-6069.688724,-383.047749
1435.894716,4959.379811,-5477.523971,0.000000
1435.895045,6069.688724,-6661.853478,306.438199
1435.895374,6587.832884,-5329.482782,0.000000
1435.895704,7031.956449,-4737.318029,0.000000
1435.896033,8216.285956,-4663.297435,536.266849
1435.896362,9548.656652,-5329.482782,1455.581446
1435.896692,9696.697840,-7105.977043,2987.772442
1435.897021,9178.553681,-8956.491898,2911.162892
1435.897350,7994.224174,-7031.956449,2221.676944
1435.897680,6587.832884,-8142.265362,1302.362347
1435.898009,4959.379811,-9030.512492,842.705048
1435.898338,4589.276840,-8956.491898,1455.581446
1435.898667,5107.421000,-8216.285956,689.485948
1435.898997,4293.194464,-6957.935855,-766.095498
1435.899326,3923.091493,-6957.935855,-229.828649
1435.899655,5699.585753,-6587.832884,-306.438199
1435.899985,6291.750507,-6661.853478,76.609550
1435.900314,6365.771101,-6957.935855,612.876398
1435.900643,7254.018232,-4885.359217,689.485948
1435.900973,9178.553681,-5033.400406,1149.143247
1435.901302,10140.821405,-4441.235652,1072.533697
1435.901631,9548.656652,-6809.894666,2987.772442
1435.901961,9474.636058,-8438.347739,2604.724693
1435.902290,8142.265362,-5699.585753,1302.362347
1435.902619,6883.915261,-8364.327145,1838.629195
1435.902949,6439.791695,-7698.141797,1991.848295
1435.903278,6957.935855,-7402.059420,1225.752797
1435.903607,5699.585753,-7031.956449,995.924147
1435.903937,4441.235652,-6217.729913,76.609550
1435.904266,4515.256246,-7105.977043,383.047749
1435.904595,4959.379811,-4367.215058,-229.828649
1435.904924,5625.565159,-5995.668130,153.219100
1435.905254,7254.018232,-4885.359217,612.876398
1435.905583,8438.347739,-4071.132681,1302.362347
1435.905912,9400.615463,-5403.503377,1685.410096
1435.906242,10362.883188,-4071.132681,2374.896044
1435.906571,10732.986159,-5773.606348,2911.162892
1435.906900,9030.512492,-5477.523971,2451.505594
1435.907230,7550.100608,-6217.729913,1225.752797
1435.907559,6069.688724,-8956.491898,1762.019645
1435.907888,6809.894666,-7105.977043,1455.581446
1435.908218,7179.997637,-6957.935855,1455.581446
1435.908547,6513.812290,-6217.729913,1455.581446
1435.908876,5107.421000,-7105.977043,229.828649
1435.909206,4589.276840,-7105.977043,0.000000
1435.909535,4071.132681,-6661.853478,-689.485948
1435.909864,4663.297435,-7031.956449,-383.047749
1435.910194,6735.874072,-6217.729913,229.828649
1435.910523,7328.038826,-5403.503377,229.828649
1435.910852,8068.244768,-5107.421000,459.657299
1435.911181,8956.491898,-6883.915261,1762.019645
1435.911511,9548.656652,-7328.038826,2681.334243
1435.911840,7920.203579,-7328.038826,2374.896044
1435.912169,6217.729913,-8882.471304,612.876398
1435.912499,5403.503377,-8068.244768,842.705048
1435.912828,5847.626942,-9622.677246,995.924147
1435.913157,6809.894666,-8068.244768,2374.896044
1435.913487,7402.059420,-6143.709319,1532.190996
1435.913816,6735.874072,-6809.894666,689.485948
1435.914145,5403.503377,-5477.523971,0.000000
1435.914475,4589.276840,-6809.894666,0.000000
1435.914804,4959.379811,-6735.874072,76.609550
1435.915133,5773.606348,-5403.503377,-459.657299
1435.915463,6883.915261,-5033.400406,459.657299
1435.915792,8512.368333,-5329.482782,1302.362347
1435.916121,9992.780217,-6291.750507,2757.943793
1435.916451,10140.821405,-6809.894666,2145.067394
1435.916780,8512.368333,-6587.832884,2068.457845
1435.917109,7550.100608,-6291.750507,1608.800546
1435.917438,7031.956449,-7476.080014,995.924147
1435.917768,6809.894666,-6883.915261,2298.286494
1435.918097,7179.997637,-6069.688724,1685.410096
1435.918426,7328.038826,-4959.379811,1302.362347
1435.918756,6809.894666,-5181.441594,612.876398
1435.919085,6661.853478,-4885.359217,995.924147
1435.919414,7179.997637,-4885.359217,383.047749
1435.919744,6217.729913,-4959.379811,0.000000
1435.920073,5255.462188,-5107.421000,0.000000
1435.920402,5847.626942,-5255.462188,0.000000
1435.920732,8068.244768,-5625.565159,1149.143247
1435.921061,8660.409521,-7624.121203,1762.019645
1435.921390,8290.306550,-8142.265362,2221.676944
1435.921720,7698.141797,-8808.450710,2221.676944
1435.922049,6365.771101,-9030.512492,1225.752797
1435.922378,5477.523971,-7846.182985,383.047749
1435.922708,5847.626942,-7846.182985,766.095498
1435.923037,7105.977043,-6809.894666,919.314598
1435.923366,6809.894666,-6291.750507,1225.752797
1435.923695,6439.791695,-6883.915261,1378.971896
1435.924025,6365.771101,-6069.688724,0.000000
1435.924354,5403.503377,-5033.400406,-766.095498
1435.924683,4737.318029,-5773.606348,-612.876398
1435.925013,6439.791695,-6439.791695,-383.047749
1435.925342,8142.265362,-4737.318029,536.266849
1435.925671,9400.615463,-6883.915261,1838.629195
1435.926001,8882.471304,-8808.450710,2145.067394
1435.926330,8142.265362,-8216.285956,1225.752797
1435.926659,6365.771101,-8734.430116,766.095498
1435.926989,5625.565159,-8808.450710,1072.533697
1435.927318,6365.771101,-8734.430116,1149.143247
1435.927647,7031.956449,-7624.121203,1915.238745
1435.927977,7031.956449,-4811.338623,1149.143247
1435.928306,7328.038826,-4367.215058,536.266849
1435.928635,7105.977043,-5477.523971,1149.143247
1435.928965,6217.729913,-5107.421000,919.314598
1435.929294,7105.977043,-4811.338623,1072.533697
1435.929623,7624.121203,-4145.153275,459.657299
1435.929953,7920.203579,-4145.153275,383.047749
1435.930282,8364.327145,-5255.462188,995.924147
1435.930611,8660.409521,-6735.874072,1762.019645
1435.930940,8364.327145,-7994.224174,1455.581446
1435.931270,7031.956449,-9104.533087,1608.800546
1435.931599,6217.729913,-8808.450710,612.876398
1435.931928,5255.462188,-9030.512492,842.705048
1435.932258,6217.729913,-9030.512492,1532.190996
1435.932587,7328.038826,-6735.874072,1762.019645
1435.932916,7550.100608,-4441.235652,766.095498
1435.933246,6735.874072,-4219.173869,766.095498
1435.933575,6957.935855,-5329.482782,995.924147
1435.933904,6513.812290,-5107.421000,229.828649
1435.934234,5921.647536,-5033.400406,76.609550
1435.934563,6809.894666,-5551.544565,842.705048
1435.934892,7402.059420,-5181.441594,459.657299
1435.935222,7846.182985,-5921.647536,1072.533697
1435.935551,8068.244768,-7846.182985,1532.190996
1435.935880,7698.141797,-8734.430116,1762.019645
1435.936210,6735.874072,-8734.430116,1608.800546
1435.936539,4589.276840,-9178.553681,995.924147
1435.936868,3997.112087,-8808.450710,459.657299
1435.937197,4663.297435,-8364.327145,1072.533697
1435.937527,5773.606348,-7698.141797,1608.800546
1435.937856,6439.791695,-6439.791695,1762.019645
1435.938185,7105.977043,-5033.400406,1685.410096
1435.938515,7402.059420,-4737.318029,1149.143247
1435.938844,7624.121203,-3330.926739,1302.362347
1435.939173,7698.141797,-3701.029710,1072.533697
1435.939503,8512.368333,-4293.194464,1072.533697
1435.939832,8882.471304,-4441.235652,1608.800546
1435.940161,8586.388927,-5625.565159,1685.410096
1435.940491,8512.368333,-6143.709319,1838.629195
1435.940820,7846.182985,-9104.533087,2145.067394
1435.941149,6291.750507,-8660.409521,1455.581446
1435.941479,4811.338623,-9326.594869,1072.533697
1435.941808,4959.379811,-8586.388927,689.485948
1435.942137,5995.668130,-7550.100608,842.705048
1435.942467,6069.688724,-6809.894666,1378.971896
1435.942796,7105.977043,-5181.441594,1762.019645
1435.943125,7105.977043,-5847.626942,1072.533697
1435.943454,6513.812290,-4737.318029,1685.410096
1435.943784,7402.059420,-4737.318029,689.485948
1435.944113,8512.368333,-5329.482782,1149.143247
1435.944442,7994.224174,-4219.173869,612.876398
1435.944772,7179.997637,-5995.668130,536.266849
1435.945101,7624.121203,-6809.894666,1149.143247
1435.945430,7772.162391,-7772.162391,536.266849
1435.945760,7031.956449,-9252.574275,1532.190996
1435.946089,6365.771101,-9030.512492,1072.533697
1435.946418,5625.565159,-10066.800811,766.095498
1435.946748,5255.462188,-9030.512492,76.609550
1435.947077,5033.400406,-7994.224174,689.485948
1435.947406,6809.894666,-5847.626942,1149.143247
1435.947736,7105.977043,-4589.276840,459.657299
1435.948065,5995.668130,-5181.441594,995.924147
1435.948394,6587.832884,-4219.173869,766.095498
1435.948724,7846.182985,-4737.318029,842.705048
1435.949053,7772.162391,-4663.297435,459.657299
1435.949382,7698.141797,-4885.359217,1072.533697
1435.949711,8808.450710,-6513.812290,1991.848295
1435.950041,9178.553681,-6883.915261,2221.676944
1435.950370,7772.162391,-7105.977043,1149.143247
1435.950699,6439.791695,-8512.368333,1302.362347
1435.951029,6513.812290,-8956.491898,1225.752797
1435.951358,6143.709319,-9326.594869,919.314598
1435.951687,5921.647536,-7402.059420,1149.143247
1435.952017,5773.606348,-6957.935855,766.095498
1435.952346,6365.771101,-6217.729913,689.485948
1435.952675,6809.894666,-4663.297435,919.314598
1435.953005,6735.874072,-4885.359217,766.095498
1435.953334,7698.141797,-3923.091493,1072.533697
1435.953663,7994.224174,-3552.988522,689.485948
1435.953993,7402.059420,-4589.276840,766.095498
1435.954322,8216.285956,-4071.132681,383.047749
1435.954651,8956.491898,-5995.668130,919.314598
1435.954981,9178.553681,-7105.977043,1915.238745
1435.955310,7994.224174,-8808.450710,2221.676944
1435.955639,7254.018232,-9178.553681,1378.971896
1435.955968,6143.709319,-8808.450710,1149.143247
1435.956298,4811.338623,-9770.718434,536.266849
1435.956627,4737.318029,-7920.203579,459.657299
1435.956956,5847.626942,-7328.038826,1072.533697
1435.957286,6735.874072,-6069.688724,842.705048
1435.957615,6957.935855,-4293.194464,995.924147
1435.957944,7328.038826,-5477.523971,1225.752797
1435.958274,7698.141797,-4441.235652,1072.533697
1435.958603,7624.121203,-4441.235652,1302.362347
1435.958932,7550.100608,-4737.318029,229.828649
1435.959262,7328.038826,-4367.215058,459.657299
1435.959591,6809.894666,-7772.162391,229.828649
1435.959920,7254.018232,-9104.533087,1302.362347
1435.960250,7550.100608,-9178.553681,1762.019645
1435.960579,6735.874072,-10362.883188,1149.143247
1435.960908,5033.400406,-8956.491898,612.876398
1435.961238,4293.194464,-9030.512492,459.657299
1435.961567,5625.565159,-8142.265362,229.828649
1435.961896,7550.100608,-5921.647536,536.266849
1435.962226,8660.409521,-4071.132681,2145.067394
1435.962555,8882.471304,-3701.029710,1149.143247
1435.962884,7994.224174,-4293.194464,1302.362347
1435.963213,6735.874072,-2886.803174,1072.533697
1435.963543,7772.162391,-3627.009116,459.657299
1435.963872,7920.203579,-3923.091493,1302.362347
1435.964201,8142.265362,-5699.585753,1455.581446
1435.964531,8142.265362,-7105.977043,1838.629195
1435.964860,7772.162391,-7179.997637,2145.067394
1435.965189,5847.626942,-10140.821405,1378.971896
1435.965518,4441.235652,-9474.636058,612.876398
1435.965848,3849.070898,-9474.636058,306.438199
1435.966177,5107.421000,-9178.553681,383.047749
1435.966506,6735.874072,-7328.038826,1685.410096
1435.966835,7476.080014,-6143.709319,1915.238745
1435.967165,7846.182985,-4515.256246,1225.752797
1435.967494,7698.141797,-3775.050304,1225.752797
1435.967823,8068.244768,-4293.194464,459.657299
1435.968153,7476.080014,-3923.091493,612.876398
1435.968482,7328.038826,-4959.379811,1302.362347
1435.968811,8216.285956,-5033.400406,1149.143247
1435.969140,8586.388927,-5033.400406,1072.533697
1435.969470,8586.388927,-6513.812290,1532.190996
1435.969799,7994.224174,-9030.512492,2451.505594
1435.970128,6957.935855,-9992.780217,1455.581446
1435.970457,5477.523971,-9104.533087,612.876398
1435.970787,4589.276840,-8438.347739,1149.143247
1435.971116,5255.462188,-8142.265362,612.876398
1435.971445,5403.503377,-7624.121203,842.705048
1435.971774,6143.709319,-7105.977043,919.314598
1435.972104,7105.977043,-4811.338623,689.485948
1435.972433,7550.100608,-3701.029710,0.000000
1435.972762,6735.874072,-4663.297435,689.485948
1435.973091,7179.997637,-4737.318029,766.095498
1435.973421,7550.100608,-4589.276840,-76.609550
1435.973750,7772.162391,-4737.318029,689.485948
1435.974079,8290.306550,-5699.585753,1762.019645
1435.974408,8956.491898,-7105.977043,1915.238745
1435.974738,8364.327145,-8734.430116,1762.019645
1435.975067,6735.874072,-10362.883188,1455.581446
1435.975396,5995.668130,-9622.677246,919.314598
1435.975726,5255.462188,-8068.244768,0.000000
1435.976055,5255.462188,-8882.471304,229.828649
1435.976384,5921.647536,-8142.265362,1149.143247
1435.976713,7105.977043,-4515.256246,689.485948
1435.977043,7920.203579,-4737.318029,919.314598
1435.977372,7105.977043,-4145.153275,612.876398
1435.977701,7031.956449,-3404.947333,612.876398
1435.978030,7105.977043,-4219.173869,76.609550
1435.978360,8068.244768,-4219.173869,842.705048
1435.978689,8808.450710,-5403.503377,1762.019645
1435.979018,10140.821405,-6291.750507,2068.457845
1435.979347,9622.677246,-6365.771101,1838.629195
1435.979677,8364.327145,-7994.224174,1991.848295
1435.980006,6513.812290,-9326.594869,1838.629195
1435.980335,5181.441594,-9474.636058,1072.533697
1435.980664,4367.215058,-8882.471304,0.000000
1435.980994,4441.235652,-8882.471304,229.828649
1435.981323,5033.400406,-7624.121203,842.705048
1435.981652,6217.729913,-5699.585753,536.266849
1435.981981,6587.832884,-5033.400406,612.876398
1435.982311,7031.956449,-4811.338623,842.705048
1435.982640,7105.977043,-4293.194464,153.219100
1435.982969,7179.997637,-4219.173869,995.924147
1435.983299,7994.224174,-4589.276840,536.266849
1435.983628,8438.347739,-5625.565159,459.657299
1435.983957,8438.347739,-6883.915261,1225.752797
1435.984286,8438.347739,-7920.203579,1991.848295
1435.984616,7994.224174,-8882.471304,2298.286494
1435.984945,6513.812290,-8956.491898,1149.143247
1435.985274,5255.462188,-9770.718434,1302.362347
1435.985603,5033.400406,-9326.594869,995.924147
1435.985933,4959.379811,-7328.038826,766.095498
1435.986262,4885.359217,-6661.853478,459.657299
1435.986591,5847.626942,-4737.318029,766.095498
1435.986920,6513.812290,-5107.421000,536.266849
1435.987250,6661.853478,-5329.482782,919.314598
1435.987579,7179.997637,-3034.844362,995.924147
1435.987908,7994.224174,-3552.988522,306.438199
1435.988237,8660.409521,-4811.338623,1608.800546
1435.988567,9030.512492,-5403.503377,1838.629195
1435.988896,9178.553681,-5921.647536,1915.238745
1435.989225,9400.615463,-7402.059420,2604.724693
1435.989554,8364.327145,-8290.306550,2451.505594
1435.989884,6809.894666,-7698.141797,1608.800546
1435.990213,5329.482782,-8512.368333,612.876398
1435.990542,5107.421000,-9104.533087,536.266849
1435.990872,5921.647536,-8290.306550,689.485948
1435.991201,6439.791695,-7105.977043,1225.752797
1435.991530,6365.771101,-5625.565159,536.266849
1435.991859,5625.565159,-5329.482782,383.047749
1435.992189,4959.379811,-5255.462188,-766.095498
1435.992518,5255.462188,-4811.338623,-766.095498
1435.992847,6735.874072,-5625.565159,689.485948
1435.993176,8586.388927,-4885.359217,1072.533697
1435.993506,9400.615463,-5995.668130,1685.410096
1435.993835,9474.636058,-6217.729913,2451.505594
1435.994164,8808.450710,-7920.203579,2757.943793
1435.994493,7031.956449,-9252.574275,1991.848295
1435.994823,5773.606348,-7994.224174,1455.581446
1435.995152,5255.462188,-8660.409521,1072.533697
1435.995481,5329.482782,-9474.636058,1149.143247
1435.995810,4811.338623,-8808.450710,1072.533697
1435.996140,4737.318029,-7550.100608,459.657299
1435.996469,6217.729913,-5625.565159,0.000000
1435.996798,5995.668130,-4441.235652,153.219100
1435.997127,5181.441594,-5403.503377,0.000000
1435.997457,6143.709319,-5477.523971,229.828649
1435.997786,7476.080014,-4145.153275,229.828649
1435.998115,8734.430116,-4219.173869,1455.581446
1435.998445,9844.739029,-5773.606348,2451.505594
1435.998774,10288.862594,-5107.421000,2681.334243
1435.999103,9400.615463,-6513.812290,2374.896044
1435.999432,7254.018232,-8068.244768,1302.362347
1435.999762,6365.771101,-7402.059420,1455.581446
1436.000091,5921.647536,-8660.409521,536.266849
1436.000420,5403.503377,-9844.739029,1455.581446
1436.000749,5625.565159,-7402.059420,1149.143247
1436.001079,6217.729913,-7698.141797,459.657299
1436.001408,5921.647536,-4515.256246,536.266849
1436.001737,5773.606348,-6365.771101,306.438199
1436.002066,6143.709319,-5033.400406,0.000000
1436.002396,6143.709319,-3330.926739,536.266849
1436.002725,6957.935855,-5033.400406,306.438199
1436.003054,8364.327145,-3404.947333,1685.410096
1436.003383,9622.677246,-4219.173869,1532.190996
1436.003713,9992.780217,-5625.565159,2298.286494
1436.004042,9400.615463,-6143.709319,1838.629195
1436.004371,7846.182985,-8512.368333,1608.800546
1436.004700,6809.894666,-7179.997637,919.314598
1436.005030,5403.503377,-9178.553681,536.266849
1436.005359,6143.709319,-9252.574275,1072.533697
1436.005688,7328.038826,-8364.327145,1532.190996
1436.006018,6957.935855,-8586.388927,1072.533697
1436.006347,6291.750507,-6661.853478,919.314598
1436.006676,4737.318029,-6291.750507,0.000000
1436.007005,4959.379811,-4663.297435,-459.657299
1436.007335,4737.318029,-5847.626942,-306.438199
1436.007664,6217.729913,-4737.318029,153.219100
1436.007993,7328.038826,-4737.318029,0.000000
1436.008322,7994.224174,-5847.626942,1302.362347
1436.008652,9474.636058,-6069.688724,2681.334243
1436.008981,9622.677246,-7698.141797,2451.505594
1436.009310,8586.388927,-7994.224174,1991.848295
1436.009639,6883.915261,-8364.327145,1685.410096
1436.009969,6661.853478,-9104.533087,1072.533697
1436.010298,6661.853478,-8142.265362,1455.581446
1436.010627,6439.791695,-7624.121203,1302.362347
1436.010956,6365.771101,-6735.874072,612.876398
1436.011286,5625.565159,-6439.791695,229.828649
1436.011615,4663.297435,-6513.812290,-612.876398
1436.011944,4737.318029,-6217.729913,153.219100
1436.012273,6069.688724,-4515.256246,-459.657299
1436.012603,7105.977043,-2664.741391,-306.438199
1436.012932,8512.368333,-4219.173869,612.876398
1436.013261,10140.821405,-4885.359217,1991.848295
1436.013591,10881.027347,-5625.565159,3294.210641
1436.013920,9770.718434,-6217.729913,2681.334243
1436.014249,8364.327145,-7105.977043,1838.629195
1436.014578,7105.977043,-7698.141797,1762.019645
1436.014908,6587.832884,-9400.615463,1532.190996
1436.015237,6883.915261,-8512.368333,1378.971896
1436.015566,7105.977043,-7179.997637,2068.457845
1436.015895,6735.874072,-6217.729913,1072.533697
1436.016225,5107.421000,-5329.482782,766.095498
1436.016554,2960.823768,-6735.874072,-842.705048
1436.016883,2812.782580,-6291.750507,-1225.752797
1436.017212,4663.297435,-5847.626942,-766.095498
1436.017542,6735.874072,-5033.400406,229.828649
1436.017871,8808.450710,-4441.235652,1225.752797
1436.018200,10510.924376,-6661.853478,1915.238745
1436.018529,11177.109724,-6365.771101,2528.115143
1436.018859,9326.594869,-6365.771101,2068.457845
1436.019188,7105.977043,-6883.915261,1762.019645
1436.019517,6439.791695,-7994.224174,1455.581446
1436.019846,7031.956449,-8660.409521,1455.581446
1436.020176,6735.874072,-8438.347739,1302.362347
1436.020505,6291.750507,-8438.347739,1685.410096
1436.020834,6217.729913,-6291.750507,1072.533697
1436.021164,5625.565159,-6217.729913,0.000000
1436.021493,4663.297435,-6957.935855,-383.047749
1436.021822,3997.112087,-5995.668130,-306.438199
1436.022151,4367.215058,-5995.668130,-766.095498
1436.022481,6143.709319,-4959.379811,0.000000
1436.022810,8068.244768,-4663.297435,995.924147
1436.023139,9918.759623,-5033.400406,2451.505594
1436.023468,10066.800811,-5107.421000,3677.258390
1436.023798,10214.842000,-6587.832884,3907.087040
1436.024127,8586.388927,-6587.832884,2298.286494
1436.024456,6439.791695,-7254.018232,1762.019645
1436.024785,5403.503377,-8438.347739,1532.190996
1436.025115,5773.606348,-7550.100608,1378.971896
1436.025444,5921.647536,-7698.141797,1455.581446
1436.025773,6143.709319,-6291.750507,536.266849
1436.026102,5773.606348,-5921.647536,612.876398
1436.026432,5699.585753,-7031.956449,459.657299
1436.026761,6291.750507,-5921.647536,995.924147
1436.027090,6365.771101,-5921.647536,536.266849
1436.027419,6587.832884,-5107.421000,0.000000
1436.027749,8068.244768,-4663.297435,919.314598
1436.028078,9474.636058,-5625.565159,1685.410096
1436.028407,9400.615463,-5255.462188,2298.286494
1436.028737,8808.450710,-7031.956449,2221.676944
1436.029066,7920.203579,-7031.956449,1991.848295
1436.029395,5921.647536,-7994.224174,1072.533697
1436.029724,4959.379811,-9474.636058,689.485948
1436.030054,5255.462188,-7402.059420,612.876398
1436.030383,5921.647536,-7624.121203,612.876398
1436.030712,6365.771101,-7105.977043,995.924147
1436.031041,5995.668130,-7698.141797,995.924147
1436.031371,6291.750507,-7179.997637,0.000000
1436.031700,5255.462188,-6661.853478,-229.828649
1436.032029,5033.400406,-6735.874072,-229.828649
1436.032358,6365.771101,-5625.565159,76.609550
1436.032688,8512.368333,-4441.235652,76.609550
1436.033017,9474.636058,-5329.482782,2068.457845
1436.033346,10288.862594,-5255.462188,2451.505594
1436.033675,8956.491898,-6661.853478,1762.019645
1436.034005,7179.997637,-7254.018232,1072.533697
1436.034334,6291.750507,-8586.388927,536.266849
1436.034663,6143.709319,-8364.327145,919.314598
1436.034992,6513.812290,-8068.244768,995.924147
1436.035322,6883.915261,-7105.977043,766.095498
1436.035651,7254.018232,-5921.647536,919.314598
1436.035980,6365.771101,-6143.709319,76.609550
1436.036310,5403.503377,-6365.771101,459.657299
1436.036639,5181.441594,-5403.503377,0.000000
1436.036968,6439.791695,-4589.276840,-306.438199
1436.037297,7402.059420,-3256.906145,1378.971896
1436.037627,8882.471304,-4219.173869,1302.362347
1436.037956,11251.130318,-4885.359217,2681.334243
1436.038285,11473.192101,-5551.544565,2757.943793
1436.038614,9104.533087,-5921.647536,1991.848295
1436.038944,7179.997637,-8068.244768,1455.581446
1436.039273,6217.729913,-8216.285956,1225.752797
1436.039602,6217.729913,-8882.471304,1072.533697
1436.039931,6365.771101,-8290.306550,1455.581446
1436.040261,6291.750507,-6217.729913,1149.143247
1436.040590,5921.647536,-6957.935855,459.657299
1436.040919,4737.318029,-6957.935855,383.047749
1436.041248,4663.297435,-6587.832884,536.266849
1436.041578,5477.523971,-6069.688724,-153.219100
1436.041907,6735.874072,-4515.256246,536.266849
1436.042236,7920.203579,-4515.256246,689.485948
1436.042565,9474.636058,-4515.256246,2068.457845
1436.042895,10362.883188,-5033.400406,1762.019645
1436.043224,9326.594869,-7179.997637,2451.505594
1436.043553,7920.203579,-7031.956449,1685.410096
1436.043883,7105.977043,-7698.141797,1149.143247
1436.044212,6809.894666,-9770.718434,2145.067394
1436.044541,6143.709319,-8734.430116,1532.190996
1436.044870,5107.421000,-7846.182985,1532.190996
1436.045200,5551.544565,-7698.141797,383.047749
1436.045529,4589.276840,-6365.771101,306.438199
1436.045858,4145.153275,-7402.059420,0.000000
1436.046187,3923.091493,-7105.977043,229.828649
1436.046517,5329.482782,-5773.606348,0.000000
1436.046846,6735.874072,-5921.647536,153.219100
1436.047175,7624.121203,-4959.379811,1532.190996
1436.047504,8512.368333,-5033.400406,1762.019645
1436.047834,9178.553681,-5477.523971,1685.410096
1436.048163,9400.615463,-6587.832884,2528.115143
1436.048492,8438.347739,-7476.080014,1685.410096
1436.048821,7105.977043,-7550.100608,1762.019645
1436.049151,5403.503377,-9178.553681,1532.190996
1436.049480,5995.668130,-8364.327145,536.266849
1436.049809,5921.647536,-6439.791695,459.657299
1436.050138,6439.791695,-5699.585753,1302.362347
1436.050468,6809.894666,-5551.544565,1455.581446
1436.050797,6513.812290,-5255.462188,842.705048
1436.051126,5921.647536,-4885.359217,689.485948
1436.051456,5995.668130,-5181.441594,306.438199
1436.051785,7179.997637,-4737.318029,536.266849
1436.052114,8068.244768,-4515.256246,1149.143247
1436.052443,8882.471304,-5255.462188,1991.848295
1436.052773,9252.574275,-5699.585753,2757.943793
1436.053102,9400.615463,-6217.729913,2221.676944
1436.053431,8290.306550,-7179.997637,2374.896044
1436.053760,7105.977043,-7994.224174,2145.067394
1436.054090,5995.668130,-8586.388927,1302.362347
1436.054419,4589.276840,-8808.450710,76.609550
1436.054748,4663.297435,-6513.812290,306.438199
1436.055077,5403.503377,-8438.347739,153.219100
1436.055407,5477.523971,-7772.162391,1225.752797
1436.055736,4737.318029,-6439.791695,0.000000
1436.056065,5329.482782,-6883.915261,-383.047749
1436.056394,6217.729913,-5255.462188,-459.657299
1436.056724,7254.018232,-6439.791695,76.609550
1436.057053,8290.306550,-4737.318029,383.047749
1436.057382,7846.182985,-6365.771101,766.095498
1436.057711,8364.327145,-8290.306550,842.705048
1436.058041,7994.224174,-7179.997637,1608.800546
1436.058370,8142.265362,-8586.388927,1149.143247
1436.058699,6883.915261,-7328.038826,766.095498
1436.059029,6143.709319,-8438.347739,1149.143247
1436.059358,6513.812290,-7624.121203,1302.362347
1436.059687,6439.791695,-4663.297435,76.609550
1436.060016,5625.565159,-5403.503377,536.266849
1436.060346,5551.544565,-5773.606348,689.485948
1436.060675,5403.503377,-6143.709319,0.000000
1436.061004,5403.503377,-5773.606348,229.828649
1436.061333,6957.935855,-4145.153275,229.828649
1436.061663,9326.594869,-4515.256246,1838.629195
1436.061992,9918.759623,-3182.885551,1532.190996
1436.062321,9696.697840,-6439.791695,2068.457845
1436.062650,9696.697840,-5625.565159,1991.848295
1436.062980,8586.388927,-6957.935855,766.095498
1436.063309,7254.018232,-8364.327145,1455.581446
1436.063638,6735.874072,-7772.162391,1685.410096
1436.063967,7105.977043,-8290.306550,1072.533697
1436.064297,7031.956449,-6809.894666,1378.971896
1436.064626,6143.709319,-5921.647536,1302.362347
1436.064955,6661.853478,-5329.482782,-306.438199
1436.065284,6143.709319,-6069.688724,612.876398
1436.065614,5847.626942,-6217.729913,612.876398
1436.065943,5921.647536,-4885.359217,0.000000
1436.066272,6217.729913,-5181.441594,0.000000
1436.066601,7254.018232,-6291.750507,842.705048
1436.066931,8882.471304,-5329.482782,1455.581446
1436.067260,9548.656652,-7031.956449,2451.505594
1436.067589,8660.409521,-7179.997637,1915.238745
1436.067918,7031.956449,-7179.997637,1149.143247
1436.068248,5921.647536,-8660.409521,459.657299
1436.068577,5255.462188,-8586.388927,919.314598
1436.068906,5847.626942,-8586.388927,1608.800546
1436.069235,5625.565159,-6217.729913,766.095498
1436.069564,5921.647536,-6809.894666,459.657299
1436.069894,6291.750507,-6365.771101,689.485948
1436.070223,6069.688724,-7031.956449,995.924147
1436.070552,5699.585753,-6365.771101,459.657299
1436.070881,5995.668130,-4885.359217,536.266849
1436.071211,7476.080014,-4663.297435,766.095498
1436.071540,8068.244768,-4885.359217,612.876398
1436.071869,7105.977043,-5033.400406,1225.752797
1436.072198,7920.203579,-7476.080014,2145.067394
1436.072527,7994.224174,-7846.182985,1455.581446
1436.072857,6809.894666,-8290.306550,1915.238745
1436.073186,6069.688724,-7920.203579,1532.190996
1436.073515,6587.832884,-8142.265362,1532.190996
1436.073844,7105.977043,-7105.977043,1302.362347
1436.074174,7031.956449,-5477.523971,1532.190996
1436.074503,7624.121203,-5699.585753,1302.362347
1436.074832,7624.121203,-5033.400406,1149.143247
1436.075161,6513.812290,-6143.709319,995.924147
1436.075490,6217.729913,-5403.503377,766.095498
1436.075820,6513.812290,-4515.256246,919.314598
1436.076149,7105.977043,-4885.359217,383.047749
1436.076478,8142.265362,-5033.400406,2221.676944
1436.076807,9178.553681,-5625.565159,2374.896044
1436.077137,7846.182985,-7031.956449,1455.581446
1436.077466,6291.750507,-7772.162391,1532.190996
1436.077795,5699.585753,-9178.553681,689.485948
1436.078124,5995.668130,-8512.368333,612.876398
1436.078453,6069.688724,-9992.780217,1149.143247
1436.078783,5847.626942,-7772.162391,842.705048
1436.079112,6587.832884,-6883.915261,1225.752797
1436.079441,7179.997637,-7105.977043,1608.800546
1436.079770,6883.915261,-5699.585753,306.438199
1436.080100,5847.626942,-5699.585753,229.828649
1436.080429,5477.523971,-5403.503377,0.000000
1436.080758,5625.565159,-7328.038826,0.000000
1436.081087,6291.750507,-5995.668130,459.657299
1436.081416,7105.977043,-6365.771101,842.705048
1436.081746,7846.182985,-8290.306550,1302.362347
1436.082075,7105.977043,-8882.471304,1608.800546
1436.082404,6217.729913,-9844.739029,1532.190996
1436.082733,4959.379811,-9992.780217,536.266849
1436.083063,3997.112087,-10436.903782,383.047749
1436.083392,3849.070898,-10214.842000,459.657299
1436.083721,5403.503377,-8808.450710,459.657299
1436.084050,6513.812290,-6957.935855,1378.971896
1436.084379,6957.935855,-5403.503377,995.924147
1436.084709,7105.977043,-4959.379811,995.924147
1436.085038,7105.977043,-4737.318029,1302.362347
1436.085367,7179.997637,-3849.070898,229.828649
1436.085696,6661.853478,-3552.988522,919.314598
1436.086025,7920.203579,-4145.153275,689.485948
1436.086355,8808.450710,-5403.503377,1532.190996
1436.086684,8808.450710,-6217.729913,1915.238745
1436.087013,8808.450710,-8660.409521,2451.505594
1436.087342,7550.100608,-9178.553681,2451.505594
1436.087672,4737.318029,-10214.842000,229.828649
1436.088001,1480.411884,-10955.047942,-995.924147
1436.088330,1998.556043,-12731.542202,-306.438199
1436.088659,3478.967927,-11473.192101,0.000000
1436.088988,4071.132681,-8882.471304,689.485948
1436.089318,4885.359217,-8290.306550,612.876398
1436.089647,6069.688724,-7846.182985,919.314598
1436.089976,5773.606348,-8438.347739,3064.381992
1436.090305,5329.482782,-4441.235652,842.705048
1436.090635,6291.750507,-2368.659014,2068.457845
1436.090964,7920.203579,-2960.823768,1225.752797
1436.091293,8290.306550,-6217.729913,2145.067394
1436.091622,7105.977043,-6809.894666,2911.162892
1436.091951,6217.729913,-9474.636058,1225.752797
1436.092281,5181.441594,-9696.697840,0.000000
1436.092610,2664.741391,-13175.665768,76.609550
1436.092939,2072.576638,-14804.118840,1302.362347
1436.093268,2146.597232,-13323.706956,0.000000
1436.093598,3034.844362,-11473.192101,766.095498
1436.093927,3552.988522,-9622.677246,1532.190996
1436.094256,5403.503377,-4293.194464,1225.752797
1436.094585,5995.668130,-5033.400406,842.705048
1436.094914,5477.523971,-5995.668130,2068.457845
1436.095244,5107.421000,-6883.915261,1608.800546
1436.095573,4145.153275,-8364.327145,1455.581446
1436.095902,2886.803174,-7920.203579,229.828649
1436.096231,3330.926739,-9104.533087,689.485948
1436.096561,3849.070898,-11251.130318,766.095498
1436.096890,2590.720797,-12435.459826,1225.752797
1436.097219,3256.906145,-11843.295072,1302.362347
1436.097548,4959.379811,-10510.924376,612.876398
1436.097877,5477.523971,-10362.883188,1838.629195
1436.098207,5329.482782,-12879.583391,2681.334243
1436.098536,3108.864956,-11177.109724,2068.457845
1436.098865,2664.741391,-7994.224174,229.828649
1436.099194,3182.885551,-6661.853478,1225.752797
1436.099524,5181.441594,-5773.606348,2374.896044
1436.099853,5699.585753,-5477.523971,1838.629195
1436.100182,4959.379811,-5921.647536,689.485948
1436.100511,4663.297435,-4811.338623,-842.705048
1436.100840,6143.709319,-7031.956449,0.000000
1436.101170,8142.265362,-9622.677246,1762.019645
1436.101499,7254.018232,-10362.883188,3370.820191
1436.101828,6365.771101,-10214.842000,919.314598
1436.102157,5699.585753,-9696.697840,306.438199
1436.102487,5625.565159,-9844.739029,919.314598
1436.102816,6735.874072,-10955.047942,2145.067394
1436.103145,6365.771101,-8068.244768,1225.752797
1436.103474,4959.379811,-6513.812290,0.000000
1436.103803,4589.276840,-6513.812290,0.000000
1436.104133,4959.379811,-7698.141797,1225.752797
1436.104462,5625.565159,-9030.512492,1838.629195
1436.104791,4737.318029,-7402.059420,459.657299
1436.105120,3404.947333,-6661.853478,-383.047749
1436.105449,3849.070898,-7846.182985,-919.314598
1436.105779,4515.256246,-10066.800811,383.047749
1436.106108,5847.626942,-9992.780217,2068.457845
1436.106437,6513.812290,-10140.821405,1302.362347
1436.106766,5625.565159,-8882.471304,1455.581446
1436.107096,5181.441594,-7105.977043,1685.410096
1436.107425,6809.894666,-6809.894666,1455.581446
1436.107754,8068.244768,-4737.318029,1225.752797
1436.108083,7624.121203,-5403.503377,2451.505594
1436.108412,7476.080014,-5699.585753,2834.553343
1436.108742,7179.997637,-5329.482782,1838.629195
1436.109071,4589.276840,-5921.647536,229.828649
1436.109400,2516.700203,-7772.162391,-1378.971896
1436.109729,1998.556043,-11473.192101,-766.095498
1436.110059,2886.803174,-13397.727550,0.000000
1436.110388,3849.070898,-13545.768739,1072.533697
1436.110717,4885.359217,-10881.027347,229.828649
1436.111046,4737.318029,-10436.903782,306.438199
1436.111375,3627.009116,-11251.130318,766.095498
1436.111705,3849.070898,-10362.883188,1915.238745
1436.112034,4737.318029,-9030.512492,1532.190996
1436.112363,5773.606348,-6143.709319,2451.505594
1436.112692,6439.791695,-5551.544565,3217.601092
1436.113022,6513.812290,-6883.915261,3907.087040
1436.113351,5255.462188,-6735.874072,2451.505594
1436.113680,3182.885551,-8216.285956,1378.971896
1436.114009,1776.494261,-8438.347739,229.828649
1436.114338,1480.411884,-9844.739029,-306.438199
1436.114668,1776.494261,-12731.542202,0.000000
1436.114997,2220.617826,-13841.851115,536.266849
1436.115326,2960.823768,-13397.727550,842.705048
1436.115655,3923.091493,-11473.192101,1072.533697
1436.115985,5033.400406,-9104.533087,1378.971896
1436.116314,5477.523971,-6957.935855,1072.533697
1436.116643,6291.750507,-6735.874072,842.705048
1436.116972,6291.750507,-7105.977043,1455.581446
1436.117301,5921.647536,-7105.977043,1762.019645
1436.117631,6143.709319,-7105.977043,1225.752797
1436.117960,5107.421000,-8216.285956,1915.238745
1436.118289,3923.091493,-9178.553681,1838.629195
1436.118618,2368.659014,-11177.109724,919.314598
1436.118948,2590.720797,-11695.253884,842.705048
1436.119277,3997.112087,-10732.986159,153.219100
1436.119606,4589.276840,-9770.718434,536.266849
1436.119935,5403.503377,-8438.347739,1225.752797
1436.120264,5995.668130,-7920.203579,1302.362347
1436.120594,6217.729913,-7328.038826,1915.238745
1436.120923,6587.832884,-6513.812290,2757.943793
1436.121252,6439.791695,-5625.565159,1762.019645
1436.121581,7105.977043,-4145.153275,2068.457845
1436.121911,7105.977043,-4811.338623,1532.190996
1436.122240,7402.059420,-4737.318029,1149.143247
1436.122569,6587.832884,-5773.606348,766.095498
1436.122898,6439.791695,-6957.935855,229.828649
1436.123227,6513.812290,-8142.265362,1149.143247
1436.123557,6365.771101,-10436.903782,1378.971896
1436.123886,5699.585753,-11029.068536,995.924147
1436.124215,4441.235652,-11399.171507,842.705048
1436.124544,3701.029710,-10584.944971,0.000000
1436.124873,3034.844362,-10436.903782,-1072.533697
1436.125203,2812.782580,-10881.027347,0.000000
1436.125532,3627.009116,-10955.047942,612.876398
1436.125861,4367.215058,-10066.800811,536.266849
1436.126190,4663.297435,-8512.368333,536.266849
1436.126520,4663.297435,-7328.038826,-229.828649
1436.126849,5033.400406,-6217.729913,-766.095498
1436.127178,5551.544565,-6513.812290,76.609550
1436.127507,6291.750507,-7254.018232,1378.971896
1436.127836,7105.977043,-7550.100608,1838.629195
1436.128166,7105.977043,-8734.430116,2681.334243
1436.128495,7105.977043,-8734.430116,3370.820191
1436.128824,7179.997637,-8808.450710,2834.553343
1436.129153,6587.832884,-8068.244768,2987.772442
1436.129483,4737.318029,-8438.347739,1838.629195
1436.129812,4071.132681,-7698.141797,842.705048
1436.130141,2960.823768,-7994.224174,536.266849
1436.130470,2072.576638,-9696.697840,689.485948
1436.130799,2368.659014,-8660.409521,0.000000
1436.131129,2738.761985,-8364.327145,-995.924147
1436.131458,3849.070898,-8438.347739,-995.924147
1436.131787,4885.359217,-7476.080014,0.000000
1436.132116,6439.791695,-9474.636058,1225.752797
1436.132446,6143.709319,-10214.842000,1149.143247
1436.132775,5181.441594,-10732.986159,995.924147
1436.133104,4737.318029,-11843.295072,1532.190996
1436.133433,4219.173869,-11843.295072,2451.505594
1436.133762,3627.009116,-11621.233289,3064.381992
1436.134092,4145.153275,-9918.759623,2987.772442
1436.134421,4589.276840,-8142.265362,3294.210641
1436.134750,4737.318029,-6365.771101,2911.162892
1436.135079,5181.441594,-5329.482782,2911.162892
1436.135409,5181.441594,-5255.462188,2911.162892
1436.135738,4293.194464,-5403.503377,2221.676944
1436.136067,4219.173869,-5921.647536,1072.533697
1436.136396,4367.215058,-7105.977043,1378.971896
1436.136725,5255.462188,-8882.471304,1838.629195
1436.137055,5403.503377,-10362.883188,2374.896044
1436.137384,5181.441594,-11251.130318,2374.896044
1436.137713,4663.297435,-11251.130318,2145.067394
1436.138042,4885.359217,-10214.842000,1991.848295
1436.138372,5625.565159,-10658.965565,2757.943793
1436.138701,6661.853478,-9104.533087,3753.867940
1436.139030,7031.956449,-7105.977043,3753.867940
1436.139359,7031.956449,-5551.544565,3600.648841
1436.139688,7254.018232,-4441.235652,3907.087040
1436.140018,7402.059420,-3330.926739,3140.991542
1436.140347,7402.059420,-3256.906145,2451.505594
1436.140676,7402.059420,-4293.194464,2298.286494
1436.141005,7105.977043,-5921.647536,2757.943793
1436.141334,7031.956449,-7179.997637,3907.087040
1436.141664,6883.915261,-8068.244768,4519.963438
1436.141993,6291.750507,-7772.162391,4443.353888
1436.142322,6143.709319,-7328.038826,3140.991542
1436.142651,6217.729913,-7179.997637,3983.696590
1436.142981,7402.059420,-7105.977043,4596.572988
1436.143310,8882.471304,-5847.626942,5515.887586
1436.143639,8808.450710,-4145.153275,4979.620737
1436.143968,7994.224174,-3330.926739,4213.525239
1436.144297,7772.162391,-4959.379811,4136.915689
1436.144627,7550.100608,-5329.482782,3907.087040
1436.144956,7328.038826,-5995.668130,3370.820191
1436.145285,7179.997637,-5773.606348,3753.867940
1436.145614,7402.059420,-6587.832884,2987.772442
1436.145944,6735.874072,-8068.244768,3600.648841
1436.146273,5995.668130,-9474.636058,3983.696590
1436.146602,4811.338623,-10066.800811,3600.648841
1436.146931,4145.153275,-10436.903782,3140.991542
1436.147260,3701.029710,-11251.130318,3447.429741
1436.147590,3775.050304,-10510.924376,3753.867940
1436.147919,4219.173869,-9548.656652,5056.230287
1436.148248,5477.523971,-7624.121203,4749.792088
1436.148577,6735.874072,-5699.585753,5209.449386
1436.148907,8216.285956,-4589.276840,5745.716235
1436.149236,8808.450710,-4071.132681,6128.763984
1436.149565,8586.388927,-3330.926739,5439.278036
1436.149894,7698.141797,-3701.029710,5132.839837
1436.150223,8142.265362,-3404.947333,4749.792088
1436.150553,8364.327145,-4145.153275,4903.011187
1436.150882,8290.306550,-4663.297435,5362.668486
1436.151211,7772.162391,-5033.400406,4749.792088
1436.151540,6587.832884,-6957.935855,4366.744339
1436.151870,5773.606348,-8438.347739,3983.696590
1436.152199,4885.359217,-10066.800811,3983.696590
1436.152528,4663.297435,-10510.924376,4060.306139
1436.152857,3997.112087,-10214.842000,3983.696590
1436.153186,3404.947333,-9992.780217,3524.039291
1436.153516,3478.967927,-8808.450710,3600.648841
1436.153845,4959.379811,-7402.059420,4673.182538
1436.154174,7328.038826,-5847.626942,4596.572988
1436.154503,8290.306550,-4959.379811,5056.230287
1436.154833,9104.533087,-3552.988522,5669.106685
1436.155162,9622.677246,-3256.906145,5669.106685
1436.155491,9844.739029,-2368.659014,5515.887586
1436.155820,9474.636058,-2664.741391,4673.182538
1436.156149,8660.409521,-4441.235652,4290.134789
1436.156479,7772.162391,-5847.626942,3753.867940
1436.156808,7031.956449,-7846.182985,2987.772442
1436.157137,5847.626942,-8734.430116,2604.724693
1436.157466,5107.421000,-10140.821405,2068.457845
1436.157796,4663.297435,-9844.739029,2374.896044
1436.158125,5329.482782,-9474.636058,3677.258390
1436.158454,5995.668130,-7179.997637,4443.353888
1436.158783,7846.182985,-5551.544565,4519.963438
1436.159112,8808.450710,-4885.359217,4673.182538
1436.159442,9104.533087,-4737.318029,3907.087040
1436.159771,8734.430116,-4293.194464,3447.429741
1436.160100,7846.182985,-4737.318029,2604.724693
1436.160429,6883.915261,-4811.338623,2068.457845
1436.160758,6365.771101,-6883.915261,2834.553343
1436.161088,6587.832884,-7920.203579,3600.648841
1436.161417,6143.709319,-7846.182985,3830.477490
1436.161746,7031.956449,-8364.327145,4443.353888
1436.162075,7254.018232,-7105.977043,4596.572988
1436.162405,7550.100608,-7402.059420,4673.182538
1436.162734,7179.997637,-7031.956449,4519.963438
1436.163063,7105.977043,-6143.709319,4290.134789
1436.163392,7031.956449,-5329.482782,3064.381992
1436.163721,6735.874072,-3552.988522,2987.772442
1436.164051,7254.018232,-3404.947333,3370.820191
1436.164380,8290.306550,-3627.009116,3447.429741
1436.164709,8364.327145,-4515.256246,3677.258390
1436.165038,7105.977043,-6291.750507,3753.867940
1436.165368,6439.791695,-8956.491898,3370.820191
1436.165697,5477.523971,-9918.759623,3370.820191
1436.166026,4811.338623,-10436.903782,2834.553343
1436.166355,4515.256246,-10140.821405,2528.115143
1436.166684,4071.132681,-9252.574275,2757.943793
1436.167014,5255.462188,-8068.244768,2757.943793
1436.167343,6217.729913,-6217.729913,3447.429741
1436.167672,7920.203579,-5551.544565,4136.915689
1436.168001,8438.347739,-5181.441594,4903.011187
1436.168331,8438.347739,-4663.297435,5439.278036
1436.168660,8882.471304,-3552.988522,5975.544884
1436.168989,10362.883188,-2516.700203,5592.497135
1436.169318,10732.986159,-2368.659014,5056.230287
1436.169647,9400.615463,-3256.906145,4136.915689
1436.169977,7624.121203,-6143.709319,3907.087040
1436.170306,5847.626942,-8290.306550,3064.381992
1436.170635,4737.318029,-9326.594869,2451.505594
1436.170964,3478.967927,-11177.109724,2528.115143
1436.171293,3775.050304,-11843.295072,3830.477490
1436.171622,4219.173869,-11399.171507,3983.696590
1436.171952,4663.297435,-8660.409521,3524.039291
1436.172281,5403.503377,-6587.832884,3677.258390
1436.172610,7846.182985,-5107.421000,5209.449386
1436.172939,9622.677246,-3552.988522,5745.716235
1436.173268,9844.739029,-2516.700203,5745.716235
1436.173598,9326.594869,-1110.308913,5286.058936
1436.173927,9474.636058,-2368.659014,4979.620737
1436.174256,8290.306550,-4885.359217,5056.230287
1436.174585,7105.977043,-6957.935855,5362.668486
1436.174914,7550.100608,-7994.224174,4366.744339
1436.175244,7624.121203,-7698.141797,3753.867940
1436.175573,6143.709319,-9474.636058,3753.867940
1436.175902,5403.503377,-9030.512492,3677.258390
1436.176231,4811.338623,-7402.059420,2911.162892
1436.176560,4663.297435,-6661.853478,3217.601092
1436.176890,5255.462188,-6809.894666,4290.134789
1436.177219,6957.935855,-5847.626942,4903.011187
1436.177548,8142.265362,-5107.421000,5286.058936
1436.177877,7624.121203,-5921.647536,5362.668486
1436.178206,7402.059420,-4737.318029,6741.640382
1436.178536,7772.162391,-5329.482782,5286.058936
1436.178865,8068.244768,-4737.318029,4749.792088
1436.179194,7550.100608,-4737.318029,3983.696590
1436.179523,6883.915261,-5329.482782,3600.648841
1436.179852,6587.832884,-7624.121203,4213.525239
1436.180181,6735.874072,-9400.615463,4749.792088
1436.180511,7254.018232,-8364.327145,4979.620737
1436.180840,6883.915261,-8216.285956,4366.744339
1436.181169,5551.544565,-8068.244768,2987.772442
1436.181498,5107.421000,-8512.368333,3524.039291
1436.181827,5921.647536,-7550.100608,3830.477490
1436.182157,7105.977043,-4219.173869,3677.258390
1436.182486,7328.038826,-3330.926739,3907.087040
1436.182815,8142.265362,-3256.906145,3753.867940
1436.183144,8216.285956,-5477.523971,4290.134789
1436.183473,8882.471304,-5107.421000,4749.792088
1436.183803,9252.574275,-5773.606348,5056.230287
1436.184132,9030.512492,-6735.874072,4903.011187
1436.184461,7402.059420,-8290.306550,3907.087040
1436.184790,4959.379811,-9770.718434,3753.867940
1436.185119,5625.565159,-8586.388927,3447.429741
1436.185449,6661.853478,-6661.853478,3447.429741
1436.185778,6809.894666,-6883.915261,3677.258390
1436.186107,6661.853478,-7105.977043,3907.087040
1436.186436,6439.791695,-6883.915261,3370.820191
1436.186765,5107.421000,-5181.441594,3140.991542
1436.187094,4663.297435,-5625.565159,2834.553343
1436.187424,5995.668130,-6883.915261,3600.648841
1436.187753,7698.141797,-5033.400406,3524.039291
1436.188082,7920.203579,-3923.091493,2987.772442
1436.188411,7624.121203,-4145.153275,2451.505594
1436.188740,8142.265362,-6069.688724,2987.772442
1436.189070,7772.162391,-7328.038826,2068.457845
1436.189399,7476.080014,-7328.038826,3064.381992
1436.189728,7105.977043,-8142.265362,3524.039291
1436.190057,6143.709319,-10584.944971,2911.162892
1436.190386,5477.523971,-8808.450710,2451.505594
1436.190716,6809.894666,-6069.688724,2451.505594
1436.191045,8956.491898,-4663.297435,2834.553343
1436.191374,8290.306550,-4145.153275,2298.286494
1436.191703,6143.709319,-4811.338623,1762.019645
1436.192032,5625.565159,-4219.173869,995.924147
1436.192362,7105.977043,-4219.173869,1608.800546
1436.192691,7920.203579,-5107.421000,1915.238745
1436.193020,7624.121203,-7179.997637,2374.896044
1436.193349,8142.265362,-8068.244768,2604.724693
1436.193678,8290.306550,-7179.997637,1225.752797
1436.194008,7105.977043,-7031.956449,689.485948
1436.194337,6143.709319,-8512.368333,76.609550
1436.194666,5995.668130,-9770.718434,1225.752797
1436.194995,4811.338623,-9696.697840,1685.410096
1436.195324,4071.132681,-9030.512492,1225.752797
1436.195653,5255.462188,-6661.853478,1532.190996
1436.195983,6883.915261,-5847.626942,1991.848295
1436.196312,8142.265362,-6217.729913,3294.210641
1436.196641,9104.533087,-4515.256246,3064.381992
1436.196970,9548.656652,-2664.741391,2604.724693
1436.197299,8808.450710,-1850.514855,536.266849
1436.197629,7402.059420,-4145.153275,1455.581446
1436.197958,7846.182985,-4737.318029,1225.752797
1436.198287,8290.306550,-4737.318029,0.000000
1436.198616,7105.977043,-6587.832884,536.266849
1436.198945,6143.709319,-8586.388927,689.485948
1436.199275,5921.647536,-9918.759623,842.705048
1436.199604,5921.647536,-10436.903782,1302.362347
1436.199933,4737.318029,-10658.965565,1149.143247
1436.200262,4145.153275,-10288.862594,689.485948
1436.200591,3997.112087,-7772.162391,1302.362347
1436.200921,4959.379811,-5477.523971,306.438199
1436.201250,7624.121203,-4589.276840,1685.410096
1436.201579,9104.533087,-4071.132681,2987.772442
1436.201908,8808.450710,-4293.194464,2374.896044
1436.202237,7994.224174,-3552.988522,1302.362347
1436.202567,7920.203579,-2812.782580,1072.533697
1436.202896,8586.388927,-4663.297435,383.047749
1436.203225,9252.574275,-5181.441594,1685.410096
1436.203554,8364.327145,-7105.977043,1302.362347
1436.203883,7994.224174,-7772.162391,459.657299
1436.204212,6587.832884,-8216.285956,-536.266849
1436.204542,5033.400406,-10214.842000,689.485948
1436.204871,4885.359217,-10807.006753,689.485948
1436.205200,3997.112087,-11399.171507,229.828649
1436.205529,3775.050304,-7772.162391,1302.362347
1436.205858,6439.791695,-7328.038826,2221.676944
1436.206188,9104.533087,-6143.709319,3370.820191
1436.206517,9178.553681,-4367.215058,3600.648841
1436.206846,7402.059420,-3034.844362,1225.752797
1436.207175,7179.997637,-1850.514855,459.657299
1436.207504,7254.018232,-3256.906145,842.705048
1436.207834,8216.285956,-2886.803174,995.924147
1436.208163,9622.677246,-3997.112087,1072.533697
1436.208492,10066.800811,-6587.832884,1532.190996
1436.208821,7994.224174,-7846.182985,689.485948
1436.209150,5847.626942,-10584.944971,229.828649
1436.209480,4737.318029,-11251.130318,153.219100
1436.209809,4367.215058,-11769.274478,0.000000
1436.210138,3775.050304,-11991.336260,612.876398
1436.210467,4441.235652,-8512.368333,766.095498
1436.210796,6291.750507,-6809.894666,1608.800546
1436.211126,8808.450710,-5329.482782,2757.943793
1436.211455,9178.553681,-2738.761985,1915.238745
1436.211784,7772.162391,-1998.556043,2068.457845
1436.212113,7772.162391,-2516.700203,2298.286494
1436.212442,7920.203579,-4071.132681,1455.581446
1436.212771,8290.306550,-3034.844362,1149.143247
1436.213101,9030.512492,-3182.885551,536.266849
1436.213430,8660.409521,-5699.585753,153.219100
1436.213759,7105.977043,-7920.203579,-383.047749
1436.214088,5255.462188,-9992.780217,-383.047749
1436.214417,4737.318029,-10288.862594,-306.438199
1436.214747,3775.050304,-12139.377449,0.000000
1436.215076,3478.967927,-12805.562797,995.924147
1436.215405,4885.359217,-8956.491898,1225.752797
1436.215734,7105.977043,-7031.956449,2068.457845
1436.216063,7994.224174,-4811.338623,2834.553343
1436.216393,8142.265362,-2442.679609,2374.896044
1436.216722,8068.244768,-2738.761985,1685.410096
1436.217051,7550.100608,-1480.411884,612.876398
1436.217380,7105.977043,-2812.782580,0.000000
1436.217709,8512.368333,-4145.153275,842.705048
1436.218039,9844.739029,-3997.112087,306.438199
1436.218368,8808.450710,-6957.935855,229.828649
1436.218697,7476.080014,-8290.306550,-306.438199
1436.219026,6809.894666,-9992.780217,536.266849
1436.219355,5551.544565,-11843.295072,-76.609550
1436.219684,4145.153275,-12139.377449,0.000000
1436.220014,3627.009116,-10140.821405,-229.828649
1436.220343,5551.544565,-8068.244768,612.876398
1436.220672,6809.894666,-6883.915261,1991.848295
1436.221001,8216.285956,-5181.441594,3064.381992
1436.221330,8882.471304,-2812.782580,2528.115143
1436.221660,8660.409521,-2442.679609,1838.629195
1436.221989,8142.265362,-2516.700203,1685.410096
1436.222318,7698.141797,-4293.194464,1225.752797
1436.222647,8734.430116,-4367.215058,383.047749
1436.222976,8956.491898,-4737.318029,536.266849
1436.223306,7402.059420,-7179.997637,0.000000
1436.223635,6735.874072,-8512.368333,-612.876398
1436.223964,5625.565159,-10807.006753,-383.047749
1436.224293,4145.153275,-12435.459826,153.219100
1436.224622,2886.803174,-12509.480420,459.657299
1436.224952,2960.823768,-10288.862594,153.219100
1436.225281,4663.297435,-7105.977043,1149.143247
1436.225610,7624.121203,-6069.688724,2681.334243
1436.225939,9622.677246,-4663.297435,3830.477490
1436.226268,9992.780217,-1776.494261,3140.991542
1436.226598,8364.327145,-1776.494261,1455.581446
1436.226927,7624.121203,-1776.494261,1378.971896
1436.227256,7624.121203,-3478.967927,536.266849
1436.227585,8586.388927,-4441.235652,995.924147
1436.227914,9030.512492,-5699.585753,1608.800546
1436.228243,8216.285956,-7772.162391,1072.533697
1436.228573,6291.750507,-9400.615463,76.609550
1436.228902,4737.318029,-9474.636058,0.000000
1436.229231,4367.215058,-11251.130318,-229.828649
1436.229560,3108.864956,-12361.439231,76.609550
1436.229889,3256.906145,-9400.615463,306.438199
1436.230219,5181.441594,-6809.894666,1302.362347
1436.230548,8216.285956,-4293.194464,1838.629195
1436.230877,9622.677246,-3478.967927,3370.820191
1436.231206,9474.636058,-3330.926739,4366.744339
1436.231535,9030.512492,-3478.967927,2068.457845
1436.231865,7624.121203,-2960.823768,995.924147
1436.232194,7846.182985,-4515.256246,0.000000
1436.232523,9474.636058,-4219.173869,383.047749
1436.232852,8956.491898,-6069.688724,383.047749
1436.233181,7476.080014,-8586.388927,76.609550
1436.233511,5921.647536,-8882.471304,-689.485948
1436.233840,5551.544565,-10066.800811,-536.266849
1436.234169,4959.379811,-12583.501014,0.000000
1436.234498,3404.947333,-12361.439231,459.657299
1436.234827,3849.070898,-8882.471304,612.876398
1436.235157,5847.626942,-6883.915261,1072.533697
1436.235486,8290.306550,-4737.318029,2987.772442
1436.235815,10510.924376,-3108.864956,3294.210641
1436.236144,9918.759623,-1776.494261,2451.505594
1436.236473,8364.327145,-1554.432478,1378.971896
1436.236802,6883.915261,-3404.947333,612.876398
1436.237132,7105.977043,-4589.276840,1149.143247
1436.237461,8956.491898,-4589.276840,612.876398
1436.237790,8068.244768,-6735.874072,153.219100
1436.238119,6069.688724,-8068.244768,-766.095498
1436.238448,5255.462188,-10584.944971,-536.266849
1436.238778,4811.338623,-11917.315666,229.828649
1436.239107,3997.112087,-12213.398043,153.219100
1436.239436,2960.823768,-10140.821405,-153.219100
1436.239765,3552.988522,-7920.203579,76.609550
1436.240094,6809.894666,-6587.832884,1915.238745
1436.240424,8956.491898,-4737.318029,3600.648841
1436.240753,9474.636058,-3552.988522,3447.429741
1436.241082,9400.615463,-1628.453072,2757.943793
1436.241411,8290.306550,-592.164754,612.876398
1436.241740,7476.080014,-3923.091493,0.000000
1436.242070,8364.327145,-3552.988522,1149.143247
1436.242399,9104.533087,-3627.009116,-536.266849
1436.242728,8438.347739,-6069.688724,0.000000
1436.243057,7772.162391,-7772.162391,1225.752797
1436.243386,6957.935855,-11177.109724,306.438199
1436.243716,4737.318029,-11177.109724,-306.438199
1436.244045,1850.514855,-12139.377449,-612.876398
1436.244374,2294.638420,-11177.109724,0.000000
1436.244703,4441.235652,-7624.121203,1072.533697
1436.245032,7698.141797,-6365.771101,2374.896044
1436.245361,9400.615463,-4441.235652,3217.601092
1436.245691,9918.759623,-2664.741391,3140.991542
1436.246020,8882.471304,-2664.741391,1915.238745
1436.246349,7846.182985,-3256.906145,1302.362347
1436.246678,7476.080014,-4367.215058,842.705048
1436.247007,8586.388927,-4367.215058,0.000000
1436.247337,8364.327145,-4589.276840,-153.219100
1436.247666,7550.100608,-7624.121203,0.000000
1436.247995,7105.977043,-9400.615463,-306.438199
1436.248324,6069.688724,-9844.739029,0.000000
1436.248653,5255.462188,-11473.192101,612.876398
1436.248983,4145.153275,-12287.418637,536.266849
1436.249312,3552.988522,-10584.944971,1378.971896
1436.249641,4737.318029,-7624.121203,1072.533697
1436.249970,7550.100608,-6439.791695,2451.505594
1436.250299,9696.697840,-3701.029710,3524.039291
1436.250629,9548.656652,-2146.597232,2911.162892
1436.250958,8660.409521,-2442.679609,1838.629195
1436.251287,7920.203579,-3256.906145,1608.800546
1436.251616,7994.224174,-4293.194464,1532.190996
1436.251945,7920.203579,-4367.215058,919.314598
1436.252274,7920.203579,-4663.297435,612.876398
1436.252604,6735.874072,-7031.956449,-689.485948
1436.252933,5477.523971,-7994.224174,-1072.533697
1436.253262,4885.359217,-9992.780217,0.000000
1436.253591,5181.441594,-11473.192101,76.609550
1436.253920,4737.318029,-11029.068536,689.485948
1436.254250,4663.297435,-9178.553681,689.485948
1436.254579,6439.791695,-7846.182985,2145.067394
1436.254908,8438.347739,-5847.626942,3677.258390
1436.255237,10066.800811,-4441.235652,3600.648841
1436.255566,9992.780217,-2442.679609,2604.724693
1436.255896,8808.450710,-1850.514855,1838.629195
1436.256225,7846.182985,-2664.741391,1532.190996
1436.256554,6809.894666,-3627.009116,0.000000
1436.256883,6587.832884,-3478.967927,536.266849
1436.257212,7254.018232,-5033.400406,-383.047749
1436.257542,6883.915261,-6661.853478,0.000000
1436.257871,5995.668130,-9104.533087,459.657299
1436.258200,5773.606348,-11547.212695,842.705048
1436.258529,5403.503377,-11473.192101,0.000000
1436.258858,4367.215058,-11769.274478,536.266849
1436.259188,5329.482782,-8734.430116,1149.143247
1436.259517,7476.080014,-7254.018232,1685.410096
1436.259846,9104.533087,-5773.606348,2604.724693
1436.260175,9400.615463,-3849.070898,2604.724693
1436.260504,9400.615463,-1998.556043,2068.457845
1436.260833,8216.285956,-2294.638420,842.705048
1436.261163,6735.874072,-4367.215058,459.657299
1436.261492,7031.956449,-4811.338623,153.219100
1436.261821,8512.368333,-5551.544565,0.000000
1436.262150,7624.121203,-7105.977043,0.000000
1436.262479,6439.791695,-7476.080014,-995.924147
1436.262809,5107.421000,-10436.903782,-919.314598
1436.263138,4737.318029,-9400.615463,-1378.971896
1436.263467,4441.235652,-11621.233289,-612.876398
1436.263796,5477.523971,-11325.150913,1532.190996
1436.264125,7254.018232,-8142.265362,2451.505594
1436.264455,8734.430116,-6587.832884,2987.772442
1436.264784,8438.347739,-4293.194464,3370.820191
1436.265113,8734.430116,-1554.432478,2528.115143
1436.265442,8660.409521,-888.247130,1149.143247
1436.265771,7328.038826,-1776.494261,842.705048
1436.266101,6957.935855,-3923.091493,612.876398
1436.266430,7254.018232,-4515.256246,-459.657299
1436.266759,7402.059420,-5699.585753,0.000000
1436.267088,6661.853478,-7105.977043,-383.047749
1436.267417,5921.647536,-9178.553681,-1378.971896
1436.267746,5107.421000,-10510.924376,-995.924147
1436.268075,5033.400406,-11103.089130,-383.047749
1436.268405,5107.421000,-11843.295072,229.828649
1436.268734,5551.544565,-9326.594869,1072.533697
1436.269063,6587.832884,-7105.977043,1149.143247
1436.269392,8438.347739,-5107.421000,1838.629195
1436.269721,9696.697840,-3627.009116,3294.210641
1436.270050,10066.800811,-2812.782580,3907.087040
1436.270379,9770.718434,-2146.597232,2374.896044
1436.270708,8364.327145,-3256.906145,919.314598
1436.271037,7698.141797,-3404.947333,459.657299
1436.271366,7402.059420,-5773.606348,-995.924147
1436.271695,7550.100608,-6365.771101,0.000000
1436.272025,7031.956449,-7179.997637,-919.314598
1436.272354,5551.544565,-8808.450710,-1838.629195
1436.272683,4663.297435,-10066.800811,-536.266849
1436.273012,4737.318029,-13323.706956,1225.752797
1436.273341,4885.359217,-13101.645173,919.314598
1436.273670,4589.276840,-9770.718434,1838.629195
1436.273999,5625.565159,-7328.038826,2528.115143
1436.274328,8660.409521,-4589.276840,3217.601092
1436.274657,9770.718434,-3478.967927,4136.915689
1436.274986,9178.553681,-1702.473667,2987.772442
1436.275315,7920.203579,-962.267725,1532.190996
1436.275645,7179.997637,-2738.761985,919.314598
1436.275974,7402.059420,-4441.235652,995.924147
1436.276303,7624.121203,-6587.832884,1149.143247
1436.276632,8290.306550,-7476.080014,995.924147
1436.276961,5773.606348,-9030.512492,-383.047749
1436.277290,4737.318029,-9622.677246,-306.438199
1436.277619,5181.441594,-10214.842000,0.000000
1436.277948,4293.194464,-9918.759623,-306.438199
1436.278277,2812.782580,-10807.006753,689.485948
1436.278606,3478.967927,-9104.533087,766.095498
1436.278935,6587.832884,-5847.626942,2145.067394
1436.279265,9770.718434,-5329.482782,5132.839837
1436.279594,11843.295072,-3923.091493,6971.469032
1436.279923,10881.027347,-1480.411884,4749.792088
1436.280252,8512.368333,-962.267725,1838.629195
1436.280581,7031.956449,-1554.432478,0.000000
1436.280910,7328.038826,-3330.926739,0.000000
1436.281239,8290.306550,-4737.318029,-306.438199
1436.281568,7846.182985,-6365.771101,0.000000
1436.281897,6365.771101,-9622.677246,-459.657299
1436.282226,5181.441594,-10362.883188,-536.266849
1436.282555,3923.091493,-12657.521608,-306.438199
1436.282885,3627.009116,-13545.768739,0.000000
1436.283214,3552.988522,-11621.233289,459.657299
1436.283543,4441.235652,-8512.368333,536.266849
1436.283872,7031.956449,-5699.585753,1608.800546
1436.284201,10807.006753,-5033.400406,4903.011187
1436.284530,12361.439231,-2886.803174,4903.011187
1436.284859,11029.068536,-888.247130,3217.601092
1436.285188,8882.471304,-814.226536,2221.676944
1436.285517,8290.306550,-1554.432478,229.828649
1436.285846,7920.203579,-5107.421000,0.000000
1436.286176,8068.244768,-7105.977043,842.705048
1436.286505,8068.244768,-7402.059420,-153.219100
1436.286834,5255.462188,-9252.574275,-1608.800546
1436.287163,3701.029710,-9474.636058,-2068.457845
1436.287492,2812.782580,-12287.418637,-1378.971896
1436.287821,3404.947333,-12287.418637,0.000000
1436.288150,3552.988522,-11769.274478,306.438199
1436.288479,4663.297435,-8216.285956,1685.410096
1436.288808,8216.285956,-5403.503377,2451.505594
1436.289137,10288.862594,-3701.029710,3983.696590
1436.289466,10807.006753,-2516.700203,4903.011187
1436.289796,10214.842000,-1036.288319,3677.258390
1436.290125,9696.697840,-888.247130,1378.971896
1436.290454,8364.327145,-2146.597232,459.657299
1436.290783,7254.018232,-3849.070898,-306.438199
1436.291112,7328.038826,-5329.482782,-766.095498
1436.291441,5773.606348,-6661.853478,-1149.143247
1436.291770,4219.173869,-8808.450710,-2145.067394
1436.292099,3627.009116,-11399.171507,-1149.143247
1436.292428,3923.091493,-12583.501014,689.485948
1436.292757,3775.050304,-13545.768739,229.828649
1436.293086,2960.823768,-11399.171507,1149.143247
1436.293416,4441.235652,-7031.956449,842.705048
1436.293745,8216.285956,-5477.523971,2757.943793
1436.294074,10584.944971,-3997.112087,4903.011187
1436.294403,10881.027347,-888.247130,4749.792088
1436.294732,10436.903782,888.247130,2681.334243
1436.295061,9844.739029,-518.144159,1991.848295
1436.295390,9178.553681,-2738.761985,1762.019645
1436.295719,9104.533087,-5699.585753,1302.362347
1436.296048,7994.224174,-6365.771101,76.609550
1436.296377,5403.503377,-8512.368333,-2068.457845
1436.296706,2812.782580,-10584.944971,-2451.505594
1436.297036,2442.679609,-12361.439231,-2298.286494
1436.297365,3182.885551,-14063.912898,-1302.362347
1436.297694,3108.864956,-13619.789333,0.000000
1436.298023,3552.988522,-11621.233289,842.705048
1436.298352,5551.544565,-8734.430116,1762.019645
1436.298681,8290.306550,-6661.853478,3907.087040
1436.299010,10658.965565,-4885.359217,5209.449386
1436.299339,10732.986159,-1776.494261,4749.792088
1436.299668,10510.924376,1332.370696,2987.772442
1436.299997,10288.862594,740.205942,1455.581446
1436.300326,9770.718434,-592.164754,919.314598
1436.300656,9252.574275,-2960.823768,1762.019645
1436.300985,9474.636058,-5181.441594,536.266849
1436.301314,7254.018232,-7476.080014,-689.485948
1436.301643,3923.091493,-10732.986159,0.000000
1436.301972,2516.700203,-11991.336260,-1532.190996
1436.302301,1998.556043,-13471.748144,-1072.533697
1436.302630,2072.576638,-13249.686362,0.000000
1436.302959,2812.782580,-10881.027347,76.609550
1436.303288,4959.379811,-7105.977043,995.924147
1436.303617,8586.388927,-5921.647536,4673.182538
1436.303947,11325.150913,-3182.885551,5056.230287
1436.304276,11473.192101,-370.102971,4060.306139
1436.304605,9844.739029,296.082377,2681.334243
1436.304934,9918.759623,0.000000,2298.286494
1436.305263,10510.924376,-1036.288319,1532.190996
1436.305592,9992.780217,-3478.967927,1072.533697
1436.305921,8142.265362,-4515.256246,-229.828649
1436.306250,4959.379811,-8586.388927,-1532.190996
1436.306579,3182.885551,-10807.006753,-2451.505594
1436.306908,2220.617826,-13101.645173,-1685.410096
1436.307237,2664.741391,-15174.221811,0.000000
1436.307567,2886.803174,-13989.892304,383.047749
1436.307896,3701.029710,-11621.233289,1225.752797
1436.308225,5773.606348,-7031.956449,1838.629195
1436.308554,8660.409521,-4737.318029,3140.991542
1436.308883,10955.047942,-1850.514855,4136.915689
1436.309212,11399.171507,1480.411884,3064.381992
1436.309541,11843.295072,518.144159,2068.457845
1436.309870,11325.150913,0.000000,3217.601092
1436.310199,10362.883188,-3256.906145,1149.143247
1436.310528,9030.512492,-5773.606348,1149.143247
1436.310857,6883.915261,-5921.647536,-1608.800546
1436.311187,3849.070898,-11029.068536,-2757.943793
1436.311516,2590.720797,-11843.295072,-2221.676944
1436.311845,2664.741391,-13767.830521,-2451.505594
1436.312174,2442.679609,-16506.592507,0.000000
1436.312503,2294.638420,-14359.995275,995.924147
1436.312832,2442.679609,-9474.636058,-229.828649
1436.313161,3923.091493,-6143.709319,689.485948
1436.313490,7402.059420,-4663.297435,4136.915689
1436.313819,11251.130318,-2664.741391,4290.134789
1436.314148,11917.315666,1036.288319,4366.744339
1436.314477,12139.377449,3256.906145,3064.381992
1436.314807,12361.439231,2960.823768,1838.629195
1436.315136,11029.068536,-370.102971,1225.752797
1436.315465,9400.615463,-4367.215058,536.266849
1436.315794,7994.224174,-5699.585753,-919.314598
1436.316123,4885.359217,-9696.697840,-2451.505594
1436.316452,2812.782580,-12583.501014,-2221.676944
1436.316781,2442.679609,-15618.345376,-1072.533697
1436.317110,2368.659014,-17764.942608,842.705048
1436.317439,2072.576638,-13841.851115,0.000000
1436.317768,2072.576638,-9252.574275,153.219100
1436.318097,4959.379811,-5625.565159,919.314598
1436.318427,8734.430116,-4071.132681,3294.210641
1436.318756,9696.697840,-1628.453072,4213.525239
1436.319085,11103.089130,1924.535449,3600.648841
1436.319414,12731.542202,3404.947333,2681.334243
1436.319743,12509.480420,1998.556043,1762.019645
1436.320072,11251.130318,-2072.576638,1838.629195
1436.320401,9992.780217,-4737.318029,1072.533697
1436.320730,7846.182985,-5477.523971,-1685.410096
1436.321059,4441.235652,-10955.047942,-2681.334243
1436.321388,3404.947333,-13989.892304,-1149.143247
1436.321718,3330.926739,-16210.510130,-995.924147
1436.322047,1702.473667,-16136.489536,-1302.362347
1436.322376,592.164754,-13767.830521,-306.438199
1436.322705,2590.720797,-9844.739029,0.000000
1436.323034,5921.647536,-7994.224174,2451.505594
1436.323363,8956.491898,-4589.276840,4979.620737
1436.323692,10732.986159,-962.267725,4749.792088
1436.324021,11251.130318,2442.679609,2451.505594
1436.324350,11325.150913,3552.988522,2681.334243
1436.324679,11769.274478,1628.453072,2451.505594
1436.325008,11769.274478,-1258.350101,1838.629195
1436.325338,10066.800811,-3256.906145,1455.581446
1436.325667,7254.018232,-7031.956449,-306.438199
1436.325996,4441.235652,-11917.315666,-1378.971896
1436.326325,2072.576638,-13545.768739,-1149.143247
1436.326654,1628.453072,-16284.530724,-612.876398
1436.326983,666.185348,-16506.592507,-536.266849
1436.327312,740.205942,-12583.501014,153.219100
1436.327641,2442.679609,-8660.409521,0.000000
1436.327970,6661.853478,-6735.874072,2374.896044
1436.328299,10362.883188,-3997.112087,4826.401637
1436.328628,11399.171507,0.000000,3983.696590
1436.328958,11621.233289,814.226536,3753.867940
1436.329287,12065.356855,2960.823768,2987.772442
1436.329616,13027.624579,814.226536,1455.581446
1436.329945,12065.356855,-1258.350101,1838.629195
1436.330274,9770.718434,-3627.009116,1072.533697
1436.330603,7402.059420,-7846.182985,-1225.752797
1436.330932,5477.523971,-10436.903782,-536.266849
1436.331261,3034.844362,-12805.562797,-1608.800546
1436.331590,1776.494261,-16062.468941,-995.924147
1436.331919,0.000000,-17616.901420,0.000000
1436.332248,222.061783,-14285.974681,-76.609550
1436.332578,2368.659014,-7254.018232,459.657299
1436.332907,6809.894666,-6291.750507,3140.991542
1436.333236,10881.027347,-3330.926739,4519.963438
1436.333565,10732.986159,-370.102971,4290.134789
1436.333894,10214.842000,962.267725,2911.162892
1436.334223,11399.171507,4515.256246,1302.362347
1436.334552,11769.274478,666.185348,1608.800546
1436.334881,12065.356855,-2516.700203,2298.286494
1436.335210,10955.047942,-4811.338623,1532.190996
1436.335539,7105.977043,-9252.574275,-1302.362347
1436.335868,3627.009116,-11547.212695,-1991.848295
1436.336198,2294.638420,-15100.201217,-995.924147
1436.336527,1850.514855,-17838.963202,-306.438199
1436.336856,370.102971,-16506.592507,-1149.143247
1436.337185,-370.102971,-12139.377449,-153.219100
1436.337514,2812.782580,-7772.162391,0.000000
1436.337843,7920.203579,-6809.894666,3140.991542
1436.338172,11103.089130,-3330.926739,5286.058936
1436.338501,11473.192101,-370.102971,4290.134789
1436.338830,11695.253884,2516.700203,3677.258390
1436.339159,12065.356855,4219.173869,1838.629195
1436.339489,11843.295072,518.144159,1302.362347
1436.339818,11547.212695,-1480.411884,1302.362347
1436.340147,9918.759623,-3775.050304,76.609550
1436.340476,6365.771101,-7402.059420,-2451.505594
1436.340805,3182.885551,-12213.398043,-1838.629195
1436.341134,2886.803174,-16136.489536,-459.657299
1436.341463,1998.556043,-17246.798449,-229.828649
1436.341792,370.102971,-15692.365970,-459.657299
1436.342121,222.061783,-12065.356855,0.000000
1436.342450,3775.050304,-7254.018232,153.219100
1436.342779,7698.141797,-6883.915261,2604.724693
1436.343109,10066.800811,-3034.844362,4519.963438
1436.343438,10436.903782,-1036.288319,2528.115143
1436.343767,10955.047942,2960.823768,2681.334243
1436.344096,12287.418637,3256.906145,2068.457845
1436.344425,13323.706956,-296.082377,2757.943793
1436.344754,13323.706956,-1850.514855,2604.724693
1436.345083,9104.533087,-4219.173869,842.705048
1436.345412,5403.503377,-7254.018232,-2451.505594
1436.345741,2664.741391,-12213.398043,-1915.238745
1436.346070,2294.638420,-14211.954086,-766.095498
1436.346399,962.267725,-17987.004391,-459.657299
1436.346729,370.102971,-16136.489536,536.266849
1436.347058,1332.370696,-10955.047942,0.000000
1436.347387,4589.276840,-8512.368333,1455.581446
1436.347716,7624.121203,-5625.565159,4443.353888
1436.348045,9696.697840,-1924.535449,3753.867940
1436.348374,9992.780217,-1850.514855,3600.648841
1436.348703,11325.150913,1554.432478,3600.648841
1436.349032,12139.377449,1258.350101,1532.190996
1436.349361,11399.171507,74.020594,1378.971896
1436.349690,10584.944971,-2886.803174,1532.190996
1436.350019,8512.368333,-5255.462188,-689.485948
1436.350349,4959.379811,-8808.450710,-2374.896044
1436.350678,3330.926739,-12287.418637,-306.438199
1436.351007,3627.009116,-15544.324782,0.000000
1436.351336,2886.803174,-17394.839637,459.657299
1436.351665,888.247130,-14137.933492,919.314598
1436.351994,1184.329507,-9326.594869,76.609550
1436.352323,5181.441594,-6957.935855,1532.190996
1436.352652,9400.615463,-4737.318029,4213.525239
1436.352981,10288.862594,-1702.473667,3140.991542
1436.353310,9770.718434,-518.144159,3830.477490
1436.353640,10881.027347,2516.700203,2374.896044
1436.353969,11177.109724,592.164754,2068.457845
1436.354298,11695.253884,370.102971,2298.286494
1436.354627,11325.150913,-1998.556043,1608.800546
1436.354956,8586.388927,-6513.812290,153.219100
1436.355285,5699.585753,-9400.615463,-842.705048
1436.355614,3330.926739,-12657.521608,-1225.752797
1436.355943,2590.720797,-13989.892304,-1072.533697
1436.356272,1554.432478,-16210.510130,-306.438199
1436.356601,444.123565,-12953.603985,-459.657299
1436.356930,2368.659014,-9030.512492,689.485948
1436.357260,7254.018232,-6661.853478,2451.505594
1436.357589,11325.150913,-4737.318029,4979.620737
1436.357918,11399.171507,-1480.411884,4060.306139
1436.358247,10584.944971,-666.185348,2681.334243
1436.358576,10732.986159,1332.370696,1838.629195
1436.358905,10584.944971,-296.082377,995.924147
1436.359234,10510.924376,-962.267725,612.876398
1436.359563,9326.594869,-2960.823768,-306.438199
1436.359892,7105.977043,-7105.977043,-1991.848295
1436.360221,4811.338623,-10955.047942,-1608.800546
1436.360550,3997.112087,-13175.665768,0.000000
1436.360880,2960.823768,-15248.242405,-306.438199
1436.361209,2072.576638,-16136.489536,-76.609550
1436.361538,1850.514855,-12805.562797,0.000000
1436.361867,3478.967927,-8734.430116,766.095498
1436.362196,7105.977043,-6809.894666,3447.429741
1436.362525,9992.780217,-3404.947333,4366.744339
1436.362854,9696.697840,74.020594,2987.772442
1436.363183,8734.430116,1776.494261,1915.238745
1436.363512,9326.594869,1776.494261,383.047749
1436.363841,9918.759623,-1332.370696,995.924147
1436.364170,9770.718434,-2886.803174,995.924147
1436.364500,9474.636058,-4515.256246,-306.438199
1436.364829,6661.853478,-8364.327145,-1762.019645
1436.365158,4367.215058,-11177.109724,-1455.581446
1436.365487,3330.926739,-14137.933492,-995.924147
1436.365816,3404.947333,-14878.139434,-306.438199
1436.366145,2516.700203,-14137.933492,-536.266849
1436.366474,2368.659014,-11325.150913,306.438199
1436.366803,4959.379811,-7994.224174,1838.629195
1436.367132,8660.409521,-7179.997637,4749.792088
1436.367461,11029.068536,-3997.112087,5209.449386
1436.367790,10140.821405,0.000000,3677.258390
1436.368120,9992.780217,2146.597232,1838.629195
1436.368449,10066.800811,1998.556043,536.266849
1436.368778,9326.594869,-666.185348,919.314598
1436.369107,9548.656652,-2220.617826,153.219100
1436.369436,8364.327145,-4811.338623,-1225.752797
1436.369766,5625.565159,-9400.615463,-1532.190996
1436.370095,3997.112087,-13101.645173,0.000000
1436.370424,4145.153275,-15174.221811,153.219100
1436.370753,3404.947333,-14063.912898,0.000000
1436.371082,2368.659014,-14730.098246,0.000000
1436.371411,3627.009116,-10510.924376,2068.457845
1436.371740,7254.018232,-6957.935855,2451.505594
1436.372069,8882.471304,-5033.400406,2834.553343
1436.372398,9252.574275,-1258.350101,3677.258390
1436.372727,9400.615463,-1332.370696,2298.286494
1436.373056,9548.656652,-370.102971,2757.943793
1436.373385,9178.553681,148.041188,2451.505594
1436.373714,9844.739029,-2146.597232,1532.190996
1436.374043,10362.883188,-2294.638420,919.314598
1436.374372,8438.347739,-7031.956449,995.924147
1436.374701,5255.462188,-9474.636058,-1225.752797
1436.375030,2960.823768,-10436.903782,-919.314598
1436.375359,2664.741391,-12435.459826,-1072.533697
1436.375688,2294.638420,-13397.727550,-536.266849
1436.376017,2664.741391,-13545.768739,1685.410096
1436.376346,5107.421000,-9844.739029,3677.258390
1436.376675,7846.182985,-6069.688724,3064.381992
1436.377004,9474.636058,-3923.091493,4596.572988
1436.377333,10066.800811,-1184.329507,3370.820191
1436.377662,9844.739029,-1184.329507,2145.067394
1436.377991,8882.471304,444.123565,2451.505594
1436.378320,8512.368333,-1110.308913,76.609550
1436.378649,8808.450710,-1924.535449,306.438199
1436.378979,8882.471304,-4071.132681,306.438199
1436.379308,7179.997637,-7920.203579,-306.438199
1436.379637,4811.338623,-10140.821405,-1225.752797
1436.379966,3552.988522,-13101.645173,-1149.143247
1436.380295,3775.050304,-13915.871710,-689.485948
1436.380624,3997.112087,-13545.768739,306.438199
1436.380953,4663.297435,-11621.233289,2221.676944
1436.381282,5699.585753,-6439.791695,1225.752797
1436.381611,7624.121203,-6069.688724,3447.429741
1436.381940,10436.903782,-3034.844362,4290.134789
1436.382269,10658.965565,-444.123565,3294.210641
1436.382598,9622.677246,-518.144159,2528.115143
1436.382927,9178.553681,-518.144159,1455.581446
1436.383256,8956.491898,-3849.070898,842.705048
1436.383585,8068.244768,-4441.235652,766.095498
1436.383914,7105.977043,-5181.441594,-536.266849
1436.384243,3775.050304,-8808.450710,-2911.162892
1436.384572,2738.761985,-10732.986159,-2528.115143
1436.384901,3404.947333,-14063.912898,-1455.581446
1436.385230,4145.153275,-14137.933492,612.876398
1436.385559,4441.235652,-13249.686362,689.485948
1436.385888,4663.297435,-9622.677246,1225.752797
1436.386217,6735.874072,-6661.853478,2528.115143
1436.386546,9622.677246,-5995.668130,4136.915689
1436.386875,11769.274478,-2368.659014,4903.011187
1436.387204,10214.842000,0.000000,3064.381992
1436.387533,9548.656652,-74.020594,1455.581446
1436.387862,9474.636058,0.000000,1302.362347
1436.388192,8808.450710,-4145.153275,919.314598
1436.388521,8438.347739,-4811.338623,306.438199
1436.388850,6365.771101,-6587.832884,-766.095498
1436.389179,4589.276840,-10214.842000,-1915.238745
1436.389508,3701.029710,-11769.274478,-1455.581446
1436.389837,3552.988522,-13545.768739,0.000000
1436.390166,3923.091493,-12509.480420,0.000000
1436.390495,2960.823768,-10955.047942,-612.876398
1436.390824,3108.864956,-7328.038826,0.000000
1436.391153,6513.812290,-5477.523971,2604.724693
1436.391482,11029.068536,-4811.338623,4826.401637
1436.391811,12509.480420,-1628.453072,5975.544884
1436.392140,11547.212695,-666.185348,4366.744339
1436.392469,10807.006753,-296.082377,3217.601092
1436.392798,9104.533087,-444.123565,689.485948
1436.393127,7476.080014,-4071.132681,-919.314598
1436.393456,7105.977043,-5403.503377,-1149.143247
1436.393785,5847.626942,-7476.080014,-2451.505594
1436.394114,3552.988522,-10436.903782,-2834.553343
1436.394443,2368.659014,-11695.253884,-1532.190996
1436.394772,4219.173869,-14878.139434,0.000000
1436.395101,5255.462188,-13841.851115,306.438199
1436.395430,3627.009116,-11917.315666,1762.019645
1436.395759,4071.132681,-7772.162391,1225.752797
1436.396088,8438.347739,-5033.400406,3064.381992
1436.396417,10955.047942,-3330.926739,3983.696590
1436.396746,11029.068536,-814.226536,4519.963438
1436.397075,10955.047942,296.082377,3600.648841
1436.397405,10436.903782,370.102971,2451.505594
1436.397734,8956.491898,-962.267725,1455.581446
1436.398063,7624.121203,-5477.523971,1532.190996
1436.398392,8068.244768,-5773.606348,0.000000
1436.398721,5773.606348,-8364.327145,-2145.067394
1436.399050,3256.906145,-11399.171507,-1072.533697
1436.399379,2960.823768,-12435.459826,-1838.629195
1436.399708,3552.988522,-12805.562797,-1302.362347
1436.400037,2886.803174,-12879.583391,0.000000
1436.400366,2590.720797,-11029.068536,76.609550
1436.400695,4441.235652,-7476.080014,1685.410096
1436.401024,7920.203579,-5847.626942,3677.258390
1436.401353,10955.047942,-3108.864956,4826.401637
1436.401682,11547.212695,-1554.432478,5132.839837
1436.402011,11325.150913,518.144159,4673.182538
1436.402340,10584.944971,-592.164754,2451.505594
1436.402669,9104.533087,-592.164754,1532.190996
1436.402998,8882.471304,-2442.679609,536.266849
1436.403327,8512.368333,-5107.421000,-306.438199
1436.403656,5773.606348,-7772.162391,-842.705048
1436.403985,3404.947333,-11103.089130,-1838.629195
1436.404314,2886.803174,-12435.459826,-1608.800546
1436.404643,3256.906145,-13693.809927,-306.438199
1436.404972,3330.926739,-13249.686362,229.828649
1436.405301,3627.009116,-12213.398043,1149.143247
1436.405630,5551.544565,-6883.915261,2681.334243
1436.405959,9178.553681,-4663.297435,3677.258390
1436.406288,11621.233289,-2960.823768,4673.182538
1436.406618,11547.212695,0.000000,5132.839837
1436.406947,10584.944971,-666.185348,2681.334243
1436.407276,10436.903782,0.000000,2221.676944
1436.407605,9030.512492,-2664.741391,919.314598
1436.407934,8512.368333,-5329.482782,-459.657299
1436.408263,7402.059420,-6957.935855,0.000000
1436.408592,5329.482782,-10436.903782,-1608.800546
1436.408921,3627.009116,-11769.274478,-2298.286494
1436.409250,2590.720797,-13619.789333,-1608.800546
1436.409579,2664.741391,-13545.768739,-766.095498
