#time,accel_x,accel_y,accel_z
1386.533281,6513.812290,-6439.791695,1685.410096
1386.533612,7031.956449,-6587.832884,1685.410096
1386.533942,6883.915261,-6439.791695,1072.533697
1386.534272,6661.853478,-6661.853478,1378.971896
1386.534602,6957.935855,-6957.935855,995.924147
1386.534932,6809.894666,-7031.956449,536.266849
1386.535263,6439.791695,-6883.915261,919.314598
1386.535593,6661.853478,-6735.874072,536.266849
1386.535923,6957.935855,-6587.832884,919.314598
1386.536253,6957.935855,-6513.812290,1455.581446
1386.536584,7254.018232,-6439.791695,919.314598
1386.536914,7328.038826,-6217.729913,1225.752797
1386.537244,7105.977043,-6661.853478,1072.533697
1386.537574,7105.977043,-6513.812290,842.705048
1386.537905,7476.080014,-5995.668130,1072.533697
1386.538235,7328.038826,-5995.668130,1225.752797
1386.538565,7476.080014,-5699.585753,995.924147
1386.538895,7105.977043,-6217.729913,1225.752797
1386.539226,7402.059420,-6513.812290,1072.533697
1386.539556,6809.894666,-6291.750507,612.876398
1386.539886,6661.853478,-6365.771101,1072.533697
1386.540216,6513.812290,-6587.832884,1149.143247
1386.540547,6883.915261,-6513.812290,536.266849
1386.540877,6809.894666,-6365.771101,1149.143247
1386.541207,7031.956449,-6661.853478,1149.143247
1386.541537,7031.956449,-6513.812290,1225.752797
1386.541868,6883.915261,-6735.874072,919.314598
1386.542198,6883.915261,-6809.894666,229.828649
1386.542528,6587.832884,-6735.874072,919.314598
1386.542858,6883.915261,-7105.977043,689.485948
1386.543189,7179.997637,-6883.915261,1302.362347
1386.543519,7254.018232,-6365.771101,1225.752797
1386.543849,7105.977043,-7031.956449,1072.533697
1386.544179,7105.977043,-6365.771101,1072.533697
1386.544510,6809.894666,-6587.832884,919.314598
1386.544840,6883.915261,-6661.853478,842.705048
1386.545170,6735.874072,-6291.750507,1685.410096
1386.545500,7179.997637,-5921.647536,995.924147
1386.545831,7328.038826,-6291.750507,1302.362347
1386.546161,7031.956449,-6217.729913,1225.752797
1386.546491,6883.915261,-6587.832884,1225.752797
1386.546821,7105.977043,-5921.647536,1072.533697
1386.547151,6735.874072,-6439.791695,1149.143247
1386.547482,6439.791695,-6661.853478,919.314598
1386.547812,6513.812290,-6809.894666,1072.533697
1386.548142,6735.874072,-6735.874072,1225.752797
1386.548472,6735.874072,-6809.894666,1225.752797
1386.548803,6661.853478,-6735.874072,1149.143247
1386.549133,6661.853478,-6661.853478,1149.143247
1386.549463,6735.874072,-6883.915261,766.095498
1386.549793,6735.874072,-6809.894666,995.924147
1386.550124,6735.874072,-6883.915261,995.924147
1386.550454,7179.997637,-6513.812290,612.876398
1386.550784,7402.059420,-6365.771101,1149.143247
1386.551114,7105.977043,-6365.771101,1072.533697
1386.551445,7402.059420,-6883.915261,995.924147
1386.551775,7179.997637,-6661.853478,1225.752797
1386.552105,6957.935855,-6735.874072,612.876398
1386.552435,6883.915261,-6587.832884,919.314598
1386.552766,7179.997637,-6513.812290,1072.533697
1386.553096,7624.121203,-6365.771101,766.095498
1386.553426,7105.977043,-6217.729913,1302.362347
1386.553756,7254.018232,-6217.729913,1302.362347
1386.554087,7105.977043,-6069.688724,766.095498
1386.554417,7328.038826,-5773.606348,1455.581446
1386.554747,6735.874072,-6587.832884,766.095498
1386.555077,6661.853478,-6513.812290,1149.143247
1386.555408,6883.915261,-6957.935855,1225.752797
1386.555738,7031.956449,-7105.977043,842.705048
1386.556068,6809.894666,-6661.853478,1072.533697
1386.556398,6439.791695,-6735.874072,1378.971896
1386.556729,7105.977043,-6809.894666,842.705048
1386.557059,6661.853478,-6735.874072,612.876398
1386.557389,6661.853478,-6587.832884,919.314598
1386.557719,7105.977043,-6513.812290,1149.143247
1386.558050,7624.121203,-6365.771101,1302.362347
1386.558380,7105.977043,-6809.894666,1378.971896
1386.558710,7179.997637,-6365.771101,1072.533697
1386.559040,7402.059420,-5477.523971,689.485948
1386.559371,6513.812290,-6957.935855,766.095498
1386.559701,6957.935855,-6439.791695,919.314598
1386.560031,7105.977043,-6291.750507,536.266849
1386.560361,7328.038826,-6217.729913,306.438199
1386.560691,7105.977043,-6143.709319,1149.143247
1386.561022,7105.977043,-6513.812290,1072.533697
1386.561352,6957.935855,-6143.709319,1225.752797
1386.561682,7105.977043,-6513.812290,1149.143247
1386.562012,7031.956449,-5699.585753,689.485948
1386.562343,6217.729913,-6809.894666,766.095498
1386.562673,6735.874072,-6957.935855,919.314598
1386.563003,6809.894666,-6883.915261,1072.533697
1386.563333,6883.915261,-7031.956449,1149.143247
1386.563664,6809.894666,-6957.935855,1378.971896
1386.563994,6661.853478,-7402.059420,1378.971896
1386.564324,6735.874072,-7105.977043,995.924147
1386.564654,6587.832884,-6957.935855,919.314598
1386.564985,7105.977043,-6883.915261,1149.143247
1386.565315,6957.935855,-6513.812290,1149.143247
1386.565645,7179.997637,-6069.688724,1149.143247
1386.565975,7328.038826,-6809.894666,1072.533697
1386.566306,7328.038826,-6291.750507,1225.752797
1386.566636,7328.038826,-6439.791695,1225.752797
1386.566966,7105.977043,-6291.750507,1149.143247
1386.567296,6809.894666,-6217.729913,689.485948
1386.567627,7105.977043,-6513.812290,842.705048
1386.567957,7179.997637,-6661.853478,1378.971896
1386.568287,7179.997637,-6513.812290,1302.362347
1386.568617,7254.018232,-6143.709319,842.705048
1386.568948,6957.935855,-6439.791695,1072.533697
1386.569278,6957.935855,-6291.750507,1072.533697
1386.569608,6883.915261,-6587.832884,766.095498
1386.569938,6883.915261,-6513.812290,995.924147
1386.570269,7105.977043,-6365.771101,1455.581446
1386.570599,7105.977043,-6513.812290,1072.533697
1386.570929,6957.935855,-6735.874072,1149.143247
1386.571259,6513.812290,-6217.729913,995.924147
1386.571590,6735.874072,-6957.935855,766.095498
1386.571920,6587.832884,-6735.874072,1072.533697
1386.572250,6809.894666,-6957.935855,612.876398
1386.572580,7624.121203,-7105.977043,1149.143247
1386.572911,7105.977043,-6513.812290,1378.971896
1386.573241,7105.977043,-6513.812290,766.095498
1386.573571,7105.977043,-6291.750507,995.924147
1386.573901,7105.977043,-7105.977043,1072.533697
1386.574231,7179.997637,-6661.853478,842.705048
1386.574562,7105.977043,-6439.791695,1072.533697
1386.574892,7179.997637,-6365.771101,1072.533697
1386.575222,7105.977043,-6143.709319,842.705048
1386.575552,6661.853478,-6439.791695,1378.971896
1386.575883,7105.977043,-6365.771101,1378.971896
1386.576213,7105.977043,-6291.750507,1149.143247
1386.576543,6735.874072,-6365.771101,1149.143247
1386.576873,6513.812290,-6513.812290,919.314598
1386.577204,6661.853478,-6069.688724,995.924147
1386.577534,6661.853478,-6809.894666,1149.143247
1386.577864,6735.874072,-6883.915261,919.314598
1386.578194,6735.874072,-6587.832884,1072.533697
1386.578525,6735.874072,-6957.935855,919.314598
1386.578855,6661.853478,-7254.018232,612.876398
1386.579185,6735.874072,-7031.956449,919.314598
1386.579515,6587.832884,-6957.935855,919.314598
1386.579846,6883.915261,-6735.874072,1072.533697
1386.580176,7254.018232,-6365.771101,1838.629195
1386.580506,7402.059420,-6439.791695,766.095498
1386.580836,7328.038826,-6661.853478,1072.533697
1386.581167,7105.977043,-6217.729913,1072.533697
1386.581497,7031.956449,-6513.812290,919.314598
1386.581827,7105.977043,-6661.853478,1302.362347
1386.582157,7179.997637,-6143.709319,689.485948
1386.582488,7105.977043,-6069.688724,1072.533697
1386.582818,7031.956449,-6217.729913,1149.143247
1386.583148,6957.935855,-6513.812290,1225.752797
1386.583478,7402.059420,-6513.812290,842.705048
1386.583809,6957.935855,-6661.853478,1225.752797
1386.584139,7105.977043,-6661.853478,842.705048
1386.584469,6587.832884,-6661.853478,995.924147
1386.584799,6735.874072,-6291.750507,1455.581446
1386.585130,7105.977043,-6809.894666,995.924147
1386.585460,6883.915261,-6513.812290,1225.752797
1386.585790,6661.853478,-6587.832884,1072.533697
1386.586120,6809.894666,-6513.812290,612.876398
1386.586451,7031.956449,-6957.935855,1532.190996
1386.586781,6809.894666,-6513.812290,919.314598
1386.587111,6883.915261,-6809.894666,766.095498
1386.587441,7105.977043,-6365.771101,1302.362347
1386.587771,7328.038826,-6217.729913,1149.143247
1386.588102,7328.038826,-6587.832884,1149.143247
1386.588432,7328.038826,-6291.750507,919.314598
1386.588762,7328.038826,-6513.812290,536.266849
1386.589092,7105.977043,-6587.832884,919.314598
1386.589423,6883.915261,-6513.812290,1149.143247
1386.589753,7254.018232,-6365.771101,995.924147
1386.590083,6809.894666,-6069.688724,1072.533697
1386.590413,6809.894666,-7031.956449,919.314598
1386.590744,7105.977043,-5921.647536,995.924147
1386.591074,6587.832884,-6365.771101,919.314598
1386.591404,6587.832884,-6217.729913,1072.533697
1386.591734,6735.874072,-6439.791695,766.095498
1386.592065,6809.894666,-6735.874072,766.095498
1386.592395,6883.915261,-7031.956449,995.924147
1386.592725,7105.977043,-6809.894666,842.705048
1386.593055,6883.915261,-6883.915261,1225.752797
1386.593386,7031.956449,-7031.956449,1455.581446
1386.593716,6883.915261,-7105.977043,612.876398
1386.594046,6661.853478,-6957.935855,1072.533697
1386.594376,6587.832884,-7105.977043,766.095498
1386.594707,6957.935855,-6513.812290,842.705048
1386.595037,7105.977043,-6217.729913,995.924147
1386.595367,6883.915261,-6291.750507,1685.410096
1386.595697,7328.038826,-6439.791695,919.314598
1386.596028,7254.018232,-6957.935855,995.924147
1386.596358,7105.977043,-6513.812290,1072.533697
1386.596688,7254.018232,-6365.771101,1378.971896
1386.597018,7624.121203,-6143.709319,1072.533697
1386.597349,7179.997637,-6439.791695,1302.362347
1386.597679,7105.977043,-6587.832884,1149.143247
1386.598008,7179.997637,-6439.791695,1072.533697
1386.598338,6957.935855,-6365.771101,536.266849
1386.598667,7105.977043,-6365.771101,1225.752797
1386.598997,6661.853478,-6587.832884,766.095498
1386.599326,6883.915261,-6439.791695,1072.533697
1386.599656,6809.894666,-6513.812290,1149.143247
1386.599985,6513.812290,-6513.812290,1225.752797
1386.600315,6883.915261,-6365.771101,842.705048
1386.600644,6957.935855,-6661.853478,1072.533697
1386.600974,6957.935855,-7105.977043,766.095498
1386.601304,7105.977043,-7105.977043,1302.362347
1386.601633,6513.812290,-7105.977043,842.705048
1386.601963,7105.977043,-6883.915261,995.924147
1386.602292,7328.038826,-6661.853478,1149.143247
1386.602622,7105.977043,-6587.832884,1149.143247
1386.602951,7105.977043,-6587.832884,1225.752797
1386.603281,7402.059420,-6143.709319,1225.752797
1386.603610,7105.977043,-6513.812290,766.095498
1386.603940,7105.977043,-6291.750507,995.924147
1386.604269,7105.977043,-6217.729913,689.485948
1386.604599,7624.121203,-5921.647536,612.876398
1386.604928,6809.894666,-6217.729913,919.314598
1386.605258,6809.894666,-6217.729913,995.924147
1386.605587,6883.915261,-6439.791695,919.314598
1386.605917,6957.935855,-6661.853478,1455.581446
1386.606246,7105.977043,-6513.812290,919.314598
1386.606576,6735.874072,-6735.874072,459.657299
1386.606905,6513.812290,-6957.935855,1225.752797
1386.607235,6735.874072,-6365.771101,1225.752797
1386.607564,7105.977043,-6735.874072,995.924147
1386.607894,6883.915261,-6587.832884,1378.971896
1386.608224,6809.894666,-6735.874072,459.657299
1386.608553,6809.894666,-6661.853478,842.705048
1386.608883,6661.853478,-6883.915261,995.924147
1386.609212,6661.853478,-7105.977043,842.705048
1386.609542,7105.977043,-6513.812290,1072.533697
1386.609871,7105.977043,-6661.853478,1072.533697
1386.610201,7476.080014,-6587.832884,995.924147
1386.610530,7624.121203,-6809.894666,1455.581446
1386.610860,7105.977043,-6513.812290,995.924147
1386.611189,7179.997637,-6291.750507,919.314598
1386.611519,7105.977043,-6217.729913,919.314598
1386.611848,7105.977043,-6587.832884,995.924147
1386.612178,7105.977043,-6513.812290,766.095498
1386.612507,7105.977043,-6661.853478,1532.190996
1386.612837,7105.977043,-6143.709319,919.314598
1386.613166,7031.956449,-6587.832884,1149.143247
1386.613496,7105.977043,-6365.771101,766.095498
1386.613825,6957.935855,-6439.791695,842.705048
1386.614155,6883.915261,-6883.915261,1378.971896
1386.614484,7031.956449,-7105.977043,1072.533697
1386.614814,7105.977043,-6587.832884,919.314598
1386.615144,6957.935855,-6291.750507,1225.752797
1386.615473,6735.874072,-7105.977043,842.705048
1386.615803,6809.894666,-6661.853478,995.924147
1386.616132,6883.915261,-6883.915261,995.924147
1386.616462,6735.874072,-7254.018232,995.924147
1386.616791,6957.935855,-6513.812290,1225.752797
1386.617121,7105.977043,-6217.729913,1149.143247
1386.617450,7031.956449,-6661.853478,1302.362347
1386.617780,7105.977043,-6143.709319,1149.143247
1386.618109,7105.977043,-6883.915261,766.095498
1386.618439,7105.977043,-6735.874072,1149.143247
1386.618768,7105.977043,-6513.812290,1072.533697
1386.619098,7254.018232,-6439.791695,1149.143247
1386.619427,6883.915261,-6143.709319,995.924147
1386.619757,6957.935855,-6217.729913,2145.067394
1386.620086,7105.977043,-6365.771101,1149.143247
1386.620416,6957.935855,-6439.791695,1149.143247
1386.620745,6661.853478,-6365.771101,995.924147
1386.621075,6587.832884,-7031.956449,306.438199
1386.621404,6513.812290,-6883.915261,1072.533697
1386.621734,6809.894666,-7105.977043,1225.752797
1386.622064,6735.874072,-6809.894666,1072.533697
1386.622393,6735.874072,-6883.915261,1302.362347
1386.622723,6957.935855,-6661.853478,612.876398
1386.623052,6735.874072,-7254.018232,919.314598
1386.623382,6143.709319,-6513.812290,919.314598
1386.623711,6735.874072,-7105.977043,536.266849
1386.624041,7179.997637,-6809.894666,766.095498
1386.624370,7402.059420,-6661.853478,1302.362347
1386.624700,7105.977043,-6513.812290,1072.533697
1386.625029,7031.956449,-6587.832884,842.705048
1386.625359,7105.977043,-6661.853478,1149.143247
1386.625688,7105.977043,-6439.791695,1149.143247
1386.626018,6587.832884,-6291.750507,1149.143247
1386.626347,7105.977043,-5921.647536,842.705048
1386.626677,7402.059420,-6513.812290,842.705048
1386.627006,7105.977043,-6217.729913,1149.143247
1386.627336,7105.977043,-6069.688724,1149.143247
1386.627665,7105.977043,-6291.750507,842.705048
1386.627995,6883.915261,-6587.832884,1225.752797
1386.628324,6809.894666,-6661.853478,995.924147
1386.628654,7179.997637,-7105.977043,1149.143247
1386.628983,6883.915261,-6957.935855,1225.752797
1386.629313,6883.915261,-6587.832884,766.095498
1386.629643,6957.935855,-6587.832884,1072.533697
1386.629972,7031.956449,-6883.915261,1149.143247
1386.630302,6735.874072,-6439.791695,536.266849
1386.630631,6439.791695,-6883.915261,919.314598
1386.630961,6587.832884,-6883.915261,842.705048
1386.631290,6883.915261,-6587.832884,459.657299
1386.631620,7179.997637,-6587.832884,1225.752797
1386.631949,7550.100608,-6809.894666,1225.752797
1386.632279,7550.100608,-6587.832884,1302.362347
1386.632608,7402.059420,-6217.729913,1072.533697
1386.632938,7105.977043,-6735.874072,995.924147
1386.633267,7105.977043,-6291.750507,766.095498
1386.633597,7031.956449,-6365.771101,919.314598
1386.633926,7254.018232,-6217.729913,995.924147
1386.634256,7031.956449,-6291.750507,1225.752797
1386.634585,6883.915261,-6439.791695,919.314598
1386.634915,6883.915261,-6513.812290,1072.533697
1386.635244,6513.812290,-6291.750507,1072.533697
1386.635574,6365.771101,-6735.874072,995.924147
1386.635903,6587.832884,-6513.812290,842.705048
1386.636233,7179.997637,-6513.812290,1149.143247
1386.636563,7031.956449,-6735.874072,1532.190996
1386.636892,6883.915261,-6513.812290,1072.533697
1386.637222,6587.832884,-6291.750507,1072.533697
1386.637551,6587.832884,-7031.956449,842.705048
1386.637881,6439.791695,-6809.894666,1302.362347
1386.638210,6587.832884,-7179.997637,766.095498
1386.638540,6809.894666,-7105.977043,919.314598
1386.638869,7105.977043,-6587.832884,1149.143247
1386.639199,7031.956449,-6513.812290,1302.362347
1386.639528,7402.059420,-6661.853478,612.876398
1386.639858,7105.977043,-6587.832884,919.314598
1386.640187,7179.997637,-6587.832884,842.705048
1386.640517,7402.059420,-6587.832884,995.924147
1386.640846,7328.038826,-5921.647536,919.314598
1386.641176,7402.059420,-6365.771101,919.314598
1386.641505,7254.018232,-6217.729913,1225.752797
1386.641835,7105.977043,-6513.812290,1225.752797
1386.642164,7476.080014,-6513.812290,689.485948
1386.642494,6809.894666,-6365.771101,1225.752797
1386.642823,6735.874072,-6439.791695,766.095498
1386.643153,6661.853478,-6661.853478,919.314598
1386.643483,6809.894666,-6883.915261,995.924147
1386.643812,7402.059420,-6365.771101,919.314598
1386.644142,7105.977043,-6809.894666,1225.752797
1386.644471,7031.956449,-6587.832884,1455.581446
1386.644801,6957.935855,-6439.791695,919.314598
1386.645130,6587.832884,-6957.935855,842.705048
1386.645460,6513.812290,-6587.832884,1532.190996
1386.645789,6957.935855,-6883.915261,842.705048
1386.646119,7179.997637,-6735.874072,689.485948
1386.646448,7328.038826,-6513.812290,1378.971896
1386.646778,7179.997637,-6735.874072,919.314598
1386.647107,7105.977043,-6217.729913,1072.533697
1386.647437,7179.997637,-6513.812290,1149.143247
1386.647766,7105.977043,-6439.791695,842.705048
1386.648096,7031.956449,-6365.771101,1072.533697
1386.648425,7476.080014,-5995.668130,842.705048
1386.648755,7254.018232,-5995.668130,1225.752797
1386.649084,7105.977043,-5477.523971,1532.190996
1386.649414,7402.059420,-5033.400406,1149.143247
1386.649743,7994.224174,-5625.565159,1608.800546
1386.650073,8290.306550,-5551.544565,919.314598
1386.650402,7920.203579,-6143.709319,1302.362347
1386.650732,6883.915261,-6513.812290,536.266849
1386.651062,5847.626942,-7179.997637,383.047749
1386.651391,5995.668130,-7031.956449,612.876398
1386.651721,6439.791695,-6957.935855,689.485948
1386.652050,7179.997637,-7550.100608,1378.971896
1386.652380,7920.203579,-6735.874072,1225.752797
1386.652709,7994.224174,-5847.626942,1608.800546
1386.653039,8068.244768,-4589.276840,1149.143247
1386.653368,7402.059420,-5107.421000,1149.143247
1386.653698,7772.162391,-4737.318029,1149.143247
1386.654027,8734.430116,-4515.256246,995.924147
1386.654357,8882.471304,-5107.421000,766.095498
1386.654686,8808.450710,-4737.318029,689.485948
1386.655016,7772.162391,-5699.585753,229.828649
1386.655345,7994.224174,-4885.359217,612.876398
1386.655675,8512.368333,-5699.585753,306.438199
1386.656004,8364.327145,-6217.729913,919.314598
1386.656334,8512.368333,-5329.482782,766.095498
1386.656663,8364.327145,-5551.544565,766.095498
1386.656993,8512.368333,-4959.379811,1149.143247
1386.657322,8586.388927,-4811.338623,1072.533697
1386.657652,8956.491898,-4219.173869,766.095498
1386.657982,8882.471304,-3923.091493,1532.190996
1386.658311,9030.512492,-4293.194464,1532.190996
1386.658641,9474.636058,-3034.844362,1685.410096
1386.658970,9400.615463,-3478.967927,1838.629195
1386.659300,10066.800811,-2664.741391,1532.190996
1386.659629,9696.697840,-2960.823768,1072.533697
1386.659959,9548.656652,-3849.070898,1149.143247
1386.660288,9548.656652,-3256.906145,1225.752797
1386.660618,9918.759623,-5255.462188,1149.143247
1386.660947,9548.656652,-5033.400406,1149.143247
1386.661277,8734.430116,-5551.544565,689.485948
1386.661606,8216.285956,-5699.585753,1072.533697
1386.661936,7698.141797,-4885.359217,1072.533697
1386.662265,7994.224174,-5921.647536,306.438199
1386.662595,8142.265362,-5255.462188,536.266849
1386.662924,8290.306550,-5181.441594,1378.971896
1386.663254,8512.368333,-4515.256246,689.485948
1386.663583,8438.347739,-3997.112087,1225.752797
1386.663913,8364.327145,-4367.215058,612.876398
1386.664242,9030.512492,-3997.112087,383.047749
1386.664572,9918.759623,-4219.173869,766.095498
1386.664902,10214.842000,-3923.091493,919.314598
1386.665231,9770.718434,-4293.194464,1455.581446
1386.665561,9548.656652,-4367.215058,1608.800546
1386.665890,9622.677246,-4219.173869,536.266849
1386.666220,9326.594869,-5107.421000,1072.533697
1386.666549,9252.574275,-4663.297435,1762.019645
1386.666879,8438.347739,-4811.338623,1302.362347
1386.667208,7994.224174,-4145.153275,1072.533697
1386.667538,7698.141797,-4737.318029,1225.752797
1386.667867,8882.471304,-4589.276840,1608.800546
1386.668197,9696.697840,-3701.029710,2145.067394
1386.668526,9696.697840,-3627.009116,2298.286494
1386.668856,9326.594869,-2960.823768,842.705048
1386.669185,9326.594869,-4293.194464,1149.143247
1386.669515,8808.450710,-4367.215058,459.657299
1386.669844,8882.471304,-4367.215058,306.438199
1386.670174,8956.491898,-4737.318029,229.828649
1386.670503,8882.471304,-5181.441594,-383.047749
1386.670833,8660.409521,-6069.688724,306.438199
1386.671162,8808.450710,-5921.647536,383.047749
1386.671492,8290.306550,-5921.647536,689.485948
1386.671821,8586.388927,-5551.544565,1149.143247
1386.672151,8142.265362,-5181.441594,1532.190996
1386.672481,7994.224174,-5181.441594,1915.238745
1386.672810,8956.491898,-4737.318029,1915.238745
1386.673140,9030.512492,-4811.338623,2451.505594
1386.673469,9474.636058,-2960.823768,1838.629195
1386.673799,9474.636058,-2368.659014,1762.019645
1386.674128,9474.636058,-1850.514855,1685.410096
1386.674458,10140.821405,-1702.473667,459.657299
1386.674787,10288.862594,-2368.659014,306.438199
1386.675117,10214.842000,-2960.823768,0.000000
1386.675446,9844.739029,-3923.091493,153.219100
1386.675776,9548.656652,-4663.297435,-306.438199
1386.676105,8438.347739,-6291.750507,0.000000
1386.676435,7920.203579,-8068.244768,689.485948
1386.676764,7846.182985,-8586.388927,919.314598
1386.677094,7402.059420,-7772.162391,919.314598
1386.677423,7105.977043,-6809.894666,995.924147
1386.677753,6809.894666,-6291.750507,612.876398
1386.678082,7328.038826,-5403.503377,1149.143247
1386.678412,8364.327145,-3404.947333,1455.581446
1386.678741,9474.636058,-2442.679609,2221.676944
1386.679071,10436.903782,-962.267725,1915.238745
1386.679401,10658.965565,-518.144159,1915.238745
1386.679730,11029.068536,-148.041188,1455.581446
1386.680060,11547.212695,-296.082377,842.705048
1386.680389,12139.377449,-1110.308913,1532.190996
1386.680719,12657.521608,-1480.411884,1532.190996
1386.681048,11621.233289,-2590.720797,1378.971896
1386.681378,10140.821405,-4293.194464,1608.800546
1386.681707,8364.327145,-6809.894666,1302.362347
1386.682037,6661.853478,-9252.574275,919.314598
1386.682366,4589.276840,-9696.697840,153.219100
1386.682696,3627.009116,-10140.821405,-766.095498
1386.683025,3849.070898,-9178.553681,-1149.143247
1386.683355,5107.421000,-8364.327145,-76.609550
1386.683684,7105.977043,-7698.141797,766.095498
1386.684014,9400.615463,-4441.235652,1302.362347
1386.684343,10140.821405,-2516.700203,1378.971896
1386.684673,10732.986159,-518.144159,1685.410096
1386.685002,10881.027347,0.000000,1149.143247
1386.685332,11843.295072,-444.123565,1149.143247
1386.685661,12287.418637,222.061783,1225.752797
1386.685991,13175.665768,-444.123565,1838.629195
1386.686321,13545.768739,-1924.535449,2604.724693
1386.686650,12435.459826,-3330.926739,3370.820191
1386.686980,10436.903782,-3256.906145,2221.676944
1386.687309,8142.265362,-5033.400406,1149.143247
1386.687639,6143.709319,-7105.977043,1455.581446
1386.687968,4959.379811,-8364.327145,0.000000
1386.688298,3701.029710,-9474.636058,-536.266849
1386.688627,3404.947333,-8216.285956,-459.657299
1386.688957,5477.523971,-6217.729913,-766.095498
1386.689286,8956.491898,-4071.132681,-306.438199
1386.689616,11177.109724,-3108.864956,1072.533697
1386.689945,12361.439231,-2294.638420,1762.019645
1386.690275,12879.583391,-814.226536,1608.800546
1386.690604,11621.233289,-1924.535449,1762.019645
1386.690934,11177.109724,-2738.761985,1302.362347
1386.691263,9474.636058,-4663.297435,689.485948
1386.691593,8290.306550,-6217.729913,995.924147
1386.691922,7624.121203,-7328.038826,842.705048
1386.692252,7920.203579,-8142.265362,2221.676944
1386.692581,8586.388927,-6661.853478,2451.505594
1386.692911,8068.244768,-4293.194464,842.705048
1386.693241,7402.059420,-2368.659014,-306.438199
1386.693570,7254.018232,-3182.885551,-229.828649
1386.693900,8364.327145,-4219.173869,0.000000
1386.694229,7920.203579,-4441.235652,536.266849
1386.694559,8438.347739,-2960.823768,459.657299
1386.694888,9252.574275,-2960.823768,-229.828649
1386.695218,9474.636058,-5847.626942,1378.971896
1386.695547,9992.780217,-7476.080014,1762.019645
1386.695877,9548.656652,-7698.141797,2451.505594
1386.696206,8438.347739,-5699.585753,1455.581446
1386.696536,7031.956449,-4737.318029,-612.876398
1386.696865,5625.565159,-6143.709319,459.657299
1386.697195,6291.750507,-8734.430116,612.876398
1386.697524,6291.750507,-9844.739029,1455.581446
1386.697854,6217.729913,-7772.162391,995.924147
1386.698183,5625.565159,-6513.812290,383.047749
1386.698513,5773.606348,-5847.626942,-76.609550
1386.698842,5847.626942,-6883.915261,229.828649
1386.699172,6661.853478,-7328.038826,306.438199
1386.699501,7920.203579,-4441.235652,536.266849
1386.699831,9030.512492,-2886.803174,689.485948
1386.700160,9770.718434,-2146.597232,919.314598
1386.700490,10362.883188,-3034.844362,612.876398
1386.700820,9326.594869,-5773.606348,1302.362347
1386.701149,8882.471304,-6809.894666,2298.286494
1386.701479,9030.512492,-6143.709319,2068.457845
1386.701808,8438.347739,-4885.359217,1149.143247
1386.702138,7698.141797,-6365.771101,1915.238745
1386.702467,7402.059420,-7624.121203,2145.067394
1386.702797,6661.853478,-7105.977043,1608.800546
1386.703126,5995.668130,-5773.606348,306.438199
1386.703456,5329.482782,-4071.132681,76.609550
1386.703785,6587.832884,-5551.544565,689.485948
1386.704115,6809.894666,-7476.080014,1608.800546
1386.704444,5551.544565,-7994.224174,1838.629195
1386.704774,5255.462188,-7254.018232,229.828649
1386.705103,6513.812290,-5255.462188,536.266849
1386.705433,8216.285956,-6809.894666,2298.286494
1386.705762,9104.533087,-7846.182985,2681.334243
1386.706092,8734.430116,-6365.771101,1991.848295
1386.706421,7105.977043,-5699.585753,536.266849
1386.706751,7254.018232,-5699.585753,1302.362347
1386.707080,7624.121203,-7105.977043,1915.238745
1386.707410,6587.832884,-6883.915261,1225.752797
1386.707739,5255.462188,-5995.668130,1225.752797
1386.708069,5255.462188,-6365.771101,1378.971896
1386.708398,7476.080014,-5625.565159,1915.238745
1386.708728,7920.203579,-5403.503377,1991.848295
1386.709057,6957.935855,-4737.318029,919.314598
1386.709387,6439.791695,-4071.132681,-229.828649
1386.709716,7179.997637,-5995.668130,995.924147
1386.710046,8438.347739,-7179.997637,2451.505594
1386.710375,8586.388927,-8364.327145,1915.238745
1386.710705,7179.997637,-6513.812290,919.314598
1386.711035,5773.606348,-8364.327145,229.828649
1386.711364,5773.606348,-9770.718434,1149.143247
1386.711694,6957.935855,-9400.615463,1685.410096
1386.712023,6809.894666,-8882.471304,995.924147
1386.712353,5773.606348,-6957.935855,-306.438199
1386.712682,4663.297435,-6217.729913,-306.438199
1386.713012,5403.503377,-7402.059420,153.219100
1386.713341,6217.729913,-6957.935855,1225.752797
1386.713671,6513.812290,-6365.771101,1072.533697
1386.714000,6661.853478,-5033.400406,0.000000
1386.714330,7179.997637,-5477.523971,1072.533697
1386.714659,8660.409521,-7328.038826,2298.286494
1386.714989,9474.636058,-6439.791695,2068.457845
1386.715318,8216.285956,-3997.112087,842.705048
1386.715648,8216.285956,-4145.153275,306.438199
1386.715977,8734.430116,-6291.750507,1838.629195
1386.716307,8290.306550,-8216.285956,2528.115143
1386.716636,6735.874072,-6587.832884,536.266849
1386.716966,4441.235652,-5329.482782,-689.485948
1386.717295,4367.215058,-6291.750507,76.609550
1386.717625,6513.812290,-8512.368333,1685.410096
1386.717954,7624.121203,-8068.244768,2757.943793
1386.718284,7105.977043,-5255.462188,995.924147
1386.718613,6143.709319,-3923.091493,-1225.752797
1386.718943,6661.853478,-4737.318029,229.828649
1386.719272,7772.162391,-6513.812290,1149.143247
1386.719602,8216.285956,-6735.874072,1149.143247
1386.719931,7402.059420,-5551.544565,0.000000
1386.720261,6809.894666,-6217.729913,0.000000
1386.720590,7476.080014,-7179.997637,919.314598
1386.720920,9178.553681,-8586.388927,2221.676944
1386.721249,8216.285956,-7550.100608,919.314598
1386.721579,5995.668130,-5477.523971,0.000000
1386.721909,6069.688724,-6069.688724,-536.266849
1386.722238,7328.038826,-7402.059420,1685.410096
1386.722568,7846.182985,-8512.368333,2374.896044
1386.722897,6513.812290,-6439.791695,689.485948
1386.723227,4071.132681,-5477.523971,-383.047749
1386.723556,4219.173869,-6439.791695,0.000000
1386.723886,6513.812290,-8364.327145,1532.190996
1386.724215,8068.244768,-8438.347739,2221.676944
1386.724545,7254.018232,-5477.523971,383.047749
1386.724874,7105.977043,-4515.256246,0.000000
1386.725204,7328.038826,-6365.771101,1302.362347
1386.725533,7994.224174,-7476.080014,2451.505594
1386.725863,7624.121203,-8068.244768,1302.362347
1386.726192,5921.647536,-5847.626942,153.219100
1386.726522,4959.379811,-6661.853478,-229.828649
1386.726851,6143.709319,-8808.450710,1532.190996
1386.727181,7698.141797,-8068.244768,3370.820191
1386.727510,7920.203579,-6809.894666,1762.019645
1386.727840,7328.038826,-4441.235652,689.485948
1386.728169,7105.977043,-4663.297435,919.314598
1386.728499,7994.224174,-6217.729913,1685.410096
1386.728828,7550.100608,-6365.771101,2451.505594
1386.729158,5625.565159,-5477.523971,0.000000
1386.729487,4219.173869,-4515.256246,-1072.533697
1386.729817,5625.565159,-6809.894666,919.314598
1386.730146,8216.285956,-9178.553681,2604.724693
1386.730476,8956.491898,-6957.935855,2834.553343
1386.730805,7328.038826,-4885.359217,919.314598
1386.731135,5995.668130,-4367.215058,-459.657299
1386.731464,6513.812290,-6587.832884,842.705048
1386.731794,7179.997637,-8290.306550,1378.971896
1386.732124,6439.791695,-7698.141797,689.485948
1386.732453,5773.606348,-5699.585753,0.000000
1386.732783,6143.709319,-6217.729913,766.095498
1386.733112,7624.121203,-8142.265362,1685.410096
1386.733442,8586.388927,-7476.080014,2604.724693
1386.733771,7846.182985,-5033.400406,766.095498
1386.734101,6735.874072,-4885.359217,0.000000
1386.734430,6513.812290,-5477.523971,766.095498
1386.734760,7031.956449,-7550.100608,1455.581446
1386.735089,6735.874072,-6809.894666,689.485948
1386.735419,5773.606348,-6217.729913,-612.876398
1386.735748,5329.482782,-7402.059420,-306.438199
1386.736078,7328.038826,-9178.553681,1762.019645
1386.736407,8438.347739,-8512.368333,2681.334243
1386.736737,8586.388927,-6143.709319,1149.143247
1386.737066,7254.018232,-5329.482782,153.219100
1386.737396,7105.977043,-5329.482782,766.095498
1386.737725,7772.162391,-6365.771101,1302.362347
1386.738055,7698.141797,-6513.812290,2374.896044
1386.738384,6587.832884,-4441.235652,76.609550
1386.738714,6513.812290,-4959.379811,-306.438199
1386.739043,6661.853478,-7254.018232,1302.362347
1386.739373,7994.224174,-7624.121203,1838.629195
1386.739702,8068.244768,-6883.915261,1762.019645
1386.740032,6735.874072,-4885.359217,536.266849
1386.740361,6365.771101,-5033.400406,0.000000
1386.740691,7624.121203,-6883.915261,1149.143247
1386.741020,7772.162391,-8734.430116,1915.238745
1386.741350,6365.771101,-8142.265362,306.438199
1386.741679,4737.318029,-6735.874072,-229.828649
1386.742009,5255.462188,-7254.018232,0.000000
1386.742339,7179.997637,-9326.594869,3140.991542
1386.742668,8216.285956,-7402.059420,3140.991542
1386.742998,7550.100608,-5477.523971,919.314598
1386.743327,7031.956449,-3552.988522,383.047749
1386.743657,7328.038826,-4515.256246,1072.533697
1386.743986,7846.182985,-6883.915261,1991.848295
1386.744316,7402.059420,-5847.626942,1149.143247
1386.744645,5699.585753,-5551.544565,0.000000
1386.744975,5921.647536,-6513.812290,0.000000
1386.745304,7550.100608,-7772.162391,1685.410096
1386.745634,8142.265362,-8586.388927,2298.286494
1386.745963,6439.791695,-7698.141797,383.047749
1386.746293,5033.400406,-6809.894666,0.000000
1386.746622,6291.750507,-7105.977043,306.438199
1386.746952,7846.182985,-8438.347739,1378.971896
1386.747281,7698.141797,-7994.224174,3064.381992
1386.747611,6513.812290,-5773.606348,842.705048
1386.747940,5255.462188,-5329.482782,-153.219100
1386.748270,5847.626942,-7179.997637,1455.581446
1386.748599,6587.832884,-6883.915261,1762.019645
1386.748929,7550.100608,-6291.750507,1072.533697
1386.749258,6809.894666,-3997.112087,0.000000
1386.749588,6957.935855,-3997.112087,0.000000
1386.749917,8660.409521,-5995.668130,1532.190996
1386.750247,9252.574275,-7624.121203,2604.724693
1386.750576,7105.977043,-7476.080014,2068.457845
1386.750906,5403.503377,-5403.503377,-536.266849
1386.751235,5625.565159,-6661.853478,0.000000
1386.751565,7402.059420,-8364.327145,2221.676944
1386.751894,8290.306550,-7994.224174,2298.286494
1386.752224,7772.162391,-6513.812290,995.924147
1386.752553,7179.997637,-3478.967927,76.609550
1386.752883,7476.080014,-5033.400406,1991.848295
1386.753213,8290.306550,-7402.059420,2451.505594
1386.753542,6957.935855,-6439.791695,1072.533697
1386.753872,4737.318029,-5773.606348,-306.438199
1386.754201,4441.235652,-5477.523971,-766.095498
1386.754531,6291.750507,-7772.162391,1225.752797
1386.754860,7920.203579,-8512.368333,2604.724693
1386.755190,7772.162391,-7179.997637,1378.971896
1386.755519,6587.832884,-5033.400406,229.828649
1386.755849,7105.977043,-4885.359217,229.828649
1386.756178,8216.285956,-6587.832884,1378.971896
1386.756508,7698.141797,-7105.977043,1838.629195
1386.756837,6143.709319,-6661.853478,306.438199
1386.757167,5625.565159,-5773.606348,-689.485948
1386.757496,6661.853478,-6809.894666,229.828649
1386.757826,7994.224174,-8734.430116,2528.115143
1386.758155,8364.327145,-7920.203579,2451.505594
1386.758485,5921.647536,-5329.482782,0.000000
1386.758814,5477.523971,-4885.359217,76.609550
1386.759144,7624.121203,-6957.935855,1225.752797
1386.759473,7624.121203,-8216.285956,2068.457845
1386.759803,5773.606348,-7550.100608,842.705048
1386.760132,3849.070898,-6661.853478,-919.314598
1386.760462,4959.379811,-6217.729913,-383.047749
1386.760791,7328.038826,-9030.512492,1838.629195
1386.761121,8734.430116,-8512.368333,3294.210641
1386.761450,8290.306550,-5995.668130,1915.238745
1386.761780,6957.935855,-4811.338623,0.000000
1386.762109,6957.935855,-4367.215058,842.705048
1386.762439,7550.100608,-7031.956449,1915.238745
1386.762768,7254.018232,-6513.812290,1685.410096
1386.763098,5699.585753,-5477.523971,76.609550
1386.763428,5773.606348,-5255.462188,-383.047749
1386.763757,7105.977043,-6661.853478,1532.190996
1386.764087,8586.388927,-8512.368333,2834.553343
1386.764416,7698.141797,-6809.894666,1838.629195
1386.764746,6365.771101,-5033.400406,306.438199
1386.765075,7105.977043,-4811.338623,689.485948
1386.765405,8438.347739,-7402.059420,2298.286494
1386.765734,7920.203579,-8142.265362,2298.286494
1386.766064,5773.606348,-6217.729913,153.219100
1386.766393,4367.215058,-5773.606348,-612.876398
1386.766723,5773.606348,-7105.977043,229.828649
1386.767052,7402.059420,-8734.430116,2221.676944
1386.767382,8068.244768,-8068.244768,2911.162892
1386.767711,7105.977043,-5107.421000,919.314598
1386.768041,6661.853478,-3627.009116,-536.266849
1386.768370,7179.997637,-5181.441594,1532.190996
1386.768700,8438.347739,-7031.956449,2298.286494
1386.769029,7476.080014,-6291.750507,1378.971896
1386.769359,5773.606348,-4515.256246,229.828649
1386.769688,6661.853478,-5329.482782,76.609550
1386.770018,8290.306550,-7550.100608,1991.848295
1386.770347,8660.409521,-8068.244768,2757.943793
1386.770677,7624.121203,-6735.874072,1072.533697
1386.771006,6365.771101,-3701.029710,-76.609550
1386.771336,6143.709319,-5551.544565,153.219100
1386.771665,7105.977043,-8586.388927,1532.190996
1386.771995,7105.977043,-8512.368333,1608.800546
1386.772324,5033.400406,-7402.059420,-306.438199
1386.772654,3552.988522,-6587.832884,-1378.971896
1386.772983,5181.441594,-8142.265362,842.705048
1386.773313,8808.450710,-9326.594869,2681.334243
1386.773643,9104.533087,-7031.956449,2374.896044
1386.773972,6957.935855,-5699.585753,536.266849
1386.774302,6365.771101,-3997.112087,229.828649
1386.774631,7254.018232,-6365.771101,842.705048
1386.774961,7328.038826,-7328.038826,1685.410096
1386.775290,6365.771101,-4885.359217,306.438199
1386.775620,6217.729913,-6439.791695,0.000000
1386.775949,7698.141797,-6291.750507,1302.362347
1386.776279,8290.306550,-8808.450710,2374.896044
1386.776608,7994.224174,-7772.162391,2528.115143
1386.776938,6957.935855,-5477.523971,459.657299
1386.777267,5847.626942,-5551.544565,-536.266849
1386.777597,6069.688724,-7624.121203,1225.752797
1386.777926,6809.894666,-8438.347739,1915.238745
1386.778256,6587.832884,-7254.018232,612.876398
1386.778585,4737.318029,-5403.503377,-229.828649
1386.778915,4811.338623,-6513.812290,0.000000
1386.779244,7254.018232,-8216.285956,2145.067394
1386.779574,8512.368333,-8068.244768,2604.724693
1386.779903,7254.018232,-5255.462188,919.314598
1386.780233,6661.853478,-4219.173869,-536.266849
1386.780562,7476.080014,-3701.029710,306.438199
1386.780892,9400.615463,-5921.647536,1915.238745
1386.781221,8734.430116,-6587.832884,2834.553343
1386.781551,7328.038826,-4811.338623,689.485948
1386.781880,6661.853478,-5403.503377,-459.657299
1386.782210,6883.915261,-7031.956449,1608.800546
1386.782539,7920.203579,-8512.368333,2374.896044
1386.782869,7476.080014,-7105.977043,1532.190996
1386.783198,5625.565159,-5033.400406,842.705048
1386.783528,5847.626942,-5329.482782,0.000000
1386.783857,7179.997637,-6661.853478,1455.581446
1386.784187,7624.121203,-7846.182985,2451.505594
1386.784517,5847.626942,-7105.977043,229.828649
1386.784846,4441.235652,-5551.544565,-842.705048
1386.785176,4441.235652,-7698.141797,0.000000
1386.785505,6809.894666,-9474.636058,1608.800546
1386.785835,7994.224174,-7846.182985,2451.505594
1386.786164,7624.121203,-5921.647536,766.095498
1386.786494,7179.997637,-4219.173869,0.000000
1386.786823,8142.265362,-5255.462188,1225.752797
1386.787153,8734.430116,-7846.182985,2298.286494
1386.787482,7698.141797,-6587.832884,1685.410096
1386.787812,5847.626942,-5551.544565,-766.095498
1386.788141,5033.400406,-6365.771101,-306.438199
1386.788471,5773.606348,-7994.224174,1378.971896
1386.788800,8068.244768,-8290.306550,2528.115143
1386.789130,8290.306550,-6661.853478,1685.410096
1386.789459,7254.018232,-4663.297435,842.705048
1386.789789,7328.038826,-5033.400406,842.705048
1386.790118,7550.100608,-6883.915261,1608.800546
1386.790448,7179.997637,-7402.059420,1915.238745
1386.790777,5995.668130,-6439.791695,842.705048
1386.791107,5181.441594,-5921.647536,0.000000
1386.791436,5921.647536,-8512.368333,1762.019645
1386.791766,7328.038826,-9252.574275,2681.334243
1386.792095,7920.203579,-6587.832884,1838.629195
1386.792425,6439.791695,-4589.276840,383.047749
1386.792754,5181.441594,-5033.400406,229.828649
1386.793084,6587.832884,-6069.688724,1532.190996
1386.793413,7402.059420,-7031.956449,1915.238745
1386.793743,6957.935855,-5847.626942,1225.752797
1386.794072,6587.832884,-4885.359217,383.047749
1386.794402,6809.894666,-6217.729913,153.219100
1386.794732,8364.327145,-8660.409521,2757.943793
1386.795061,9918.759623,-7624.121203,3217.601092
1386.795391,8882.471304,-5033.400406,1072.533697
1386.795720,6883.915261,-4589.276840,306.438199
1386.796050,6587.832884,-5921.647536,842.705048
1386.796379,7476.080014,-7550.100608,1838.629195
1386.796709,6883.915261,-7994.224174,1302.362347
1386.797038,5033.400406,-6883.915261,0.000000
1386.797368,3701.029710,-6513.812290,-1455.581446
1386.797697,4811.338623,-8660.409521,995.924147
1386.798027,6957.935855,-9326.594869,2528.115143
1386.798356,8438.347739,-6587.832884,1685.410096
1386.798686,7105.977043,-4589.276840,229.828649
1386.799015,6957.935855,-5033.400406,153.219100
1386.799344,7254.018232,-6809.894666,1072.533697
1386.799674,7698.141797,-6809.894666,1302.362347
1386.800003,6957.935855,-5477.523971,76.609550
1386.800332,7328.038826,-6143.709319,306.438199
1386.800662,9178.553681,-6957.935855,2068.457845
1386.800991,9030.512492,-8216.285956,2528.115143
1386.801321,8142.265362,-6883.915261,1302.362347
1386.801650,6809.894666,-4589.276840,-306.438199
1386.801979,5477.523971,-5551.544565,-1072.533697
1386.802309,5995.668130,-7624.121203,1225.752797
1386.802638,6735.874072,-7920.203579,1532.190996
1386.802967,6217.729913,-6883.915261,1149.143247
1386.803297,5033.400406,-6661.853478,-229.828649
1386.803626,5329.482782,-6957.935855,306.438199
1386.803955,7328.038826,-9178.553681,1838.629195
1386.804285,8068.244768,-7846.182985,2221.676944
1386.804614,7772.162391,-4589.276840,919.314598
1386.804943,7550.100608,-4293.194464,0.000000
1386.805273,8512.368333,-5033.400406,1149.143247
1386.805602,8808.450710,-6809.894666,1608.800546
1386.805931,7920.203579,-6587.832884,1991.848295
1386.806261,6143.709319,-5477.523971,-306.438199
1386.806590,5551.544565,-6735.874072,-306.438199
1386.806919,6735.874072,-7550.100608,1455.581446
1386.807249,7698.141797,-8290.306550,2451.505594
1386.807578,8438.347739,-6143.709319,1685.410096
1386.807908,7031.956449,-4219.173869,76.609550
1386.808237,7179.997637,-5403.503377,612.876398
1386.808566,7772.162391,-6735.874072,1762.019645
1386.808896,7476.080014,-7254.018232,2145.067394
1386.809225,5625.565159,-5995.668130,-153.219100
1386.809554,4959.379811,-5995.668130,-919.314598
1386.809884,5699.585753,-7920.203579,536.266849
1386.810213,7994.224174,-8882.471304,2528.115143
1386.810542,8808.450710,-7105.977043,2528.115143
1386.810872,7402.059420,-4737.318029,306.438199
1386.811201,6661.853478,-4367.215058,-153.219100
1386.811530,7105.977043,-5847.626942,1072.533697
1386.811860,8290.306550,-6513.812290,1378.971896
1386.812189,7846.182985,-5699.585753,1608.800546
1386.812518,6291.750507,-5477.523971,0.000000
1386.812848,5995.668130,-6735.874072,76.609550
1386.813177,7031.956449,-8216.285956,1915.238745
1386.813506,8290.306550,-7698.141797,2528.115143
1386.813836,7920.203579,-6661.853478,1532.190996
1386.814165,7328.038826,-3849.070898,459.657299
1386.814495,7105.977043,-5847.626942,1302.362347
1386.814824,7920.203579,-7550.100608,2221.676944
1386.815153,6217.729913,-7254.018232,1608.800546
1386.815483,4589.276840,-7254.018232,-689.485948
1386.815812,4663.297435,-6883.915261,-306.438199
1386.816141,5995.668130,-9104.533087,1378.971896
1386.816471,7772.162391,-9696.697840,2374.896044
1386.816800,7550.100608,-6883.915261,1762.019645
1386.817129,6143.709319,-4811.338623,-689.485948
1386.817459,6143.709319,-4737.318029,-459.657299
1386.817788,7105.977043,-6365.771101,919.314598
1386.818117,7920.203579,-7402.059420,2068.457845
1386.818447,6957.935855,-5921.647536,842.705048
1386.818776,6661.853478,-5551.544565,229.828649
1386.819105,6809.894666,-5847.626942,919.314598
1386.819435,8142.265362,-7624.121203,2604.724693
1386.819764,8808.450710,-6957.935855,2987.772442
1386.820094,7846.182985,-4885.359217,995.924147
1386.820423,7179.997637,-4737.318029,919.314598
1386.820752,7698.141797,-5329.482782,2451.505594
1386.821082,7179.997637,-7402.059420,1991.848295
1386.821411,5551.544565,-7105.977043,612.876398
1386.821740,4145.153275,-5995.668130,-842.705048
1386.822070,4145.153275,-8068.244768,-612.876398
1386.822399,5847.626942,-8734.430116,1685.410096
1386.822728,7698.141797,-8660.409521,2298.286494
1386.823058,8290.306550,-6291.750507,1225.752797
1386.823387,7105.977043,-4219.173869,153.219100
1386.823716,6957.935855,-5255.462188,383.047749
1386.824046,7698.141797,-7105.977043,1455.581446
1386.824375,7920.203579,-6069.688724,1378.971896
1386.824704,7031.956449,-6069.688724,306.438199
1386.825034,7179.997637,-5773.606348,612.876398
1386.825363,8512.368333,-7031.956449,2374.896044
1386.825692,9548.656652,-7031.956449,3370.820191
1386.826022,8882.471304,-6069.688724,2451.505594
1386.826351,7105.977043,-4071.132681,689.485948
1386.826681,6587.832884,-4441.235652,76.609550
1386.827010,6809.894666,-6513.812290,1532.190996
1386.827339,6439.791695,-7179.997637,1532.190996
1386.827669,4959.379811,-7179.997637,306.438199
1386.827998,3923.091493,-6883.915261,-459.657299
1386.828327,4293.194464,-7624.121203,76.609550
1386.828657,5921.647536,-9104.533087,1378.971896
1386.828986,8068.244768,-7550.100608,2221.676944
1386.829315,7698.141797,-5699.585753,536.266849
1386.829645,7550.100608,-4589.276840,612.876398
1386.829974,8216.285956,-5477.523971,1532.190996
1386.830303,8364.327145,-6143.709319,1455.581446
1386.830633,7105.977043,-5921.647536,383.047749
1386.830962,6143.709319,-6587.832884,0.000000
1386.831291,7105.977043,-7254.018232,229.828649
1386.831621,7698.141797,-7624.121203,1762.019645
1386.831950,7624.121203,-7550.100608,1762.019645
1386.832279,7402.059420,-5625.565159,842.705048
1386.832609,6735.874072,-5255.462188,0.000000
1386.832938,6143.709319,-6069.688724,306.438199
1386.833268,6587.832884,-7476.080014,1378.971896
1386.833597,6439.791695,-7476.080014,1072.533697
1386.833926,5033.400406,-7254.018232,-306.438199
1386.834256,4737.318029,-7402.059420,-689.485948
1386.834585,6143.709319,-8364.327145,1455.581446
1386.834914,7772.162391,-9918.759623,1838.629195
1386.835244,7031.956449,-7550.100608,1762.019645
1386.835573,7105.977043,-4959.379811,536.266849
1386.835902,7772.162391,-4663.297435,0.000000
1386.836232,8142.265362,-5995.668130,1302.362347
1386.836561,7402.059420,-7328.038826,1685.410096
1386.836890,6661.853478,-5477.523971,153.219100
1386.837220,6883.915261,-4663.297435,-383.047749
1386.837549,7105.977043,-6439.791695,1225.752797
1386.837878,8068.244768,-7105.977043,2451.505594
1386.838208,8882.471304,-7105.977043,1915.238745
1386.838537,7105.977043,-4885.359217,0.000000
1386.838866,6291.750507,-4589.276840,0.000000
1386.839196,7772.162391,-5625.565159,919.314598
1386.839525,8882.471304,-6809.894666,2374.896044
1386.839855,7031.956449,-7254.018232,1838.629195
1386.840184,5329.482782,-6809.894666,0.000000
1386.840513,5477.523971,-6957.935855,153.219100
1386.840843,6735.874072,-8216.285956,1455.581446
1386.841172,7105.977043,-7698.141797,2374.896044
1386.841501,7179.997637,-5921.647536,689.485948
1386.841831,7031.956449,-4737.318029,-153.219100
1386.842160,7698.141797,-5477.523971,1072.533697
1386.842489,8808.450710,-7031.956449,2298.286494
1386.842819,8364.327145,-6513.812290,2068.457845
1386.843148,6587.832884,-4737.318029,0.000000
1386.843477,5625.565159,-5699.585753,-919.314598
1386.843807,6439.791695,-7624.121203,0.000000
1386.844136,7994.224174,-9252.574275,2528.115143
1386.844465,7846.182985,-7254.018232,1685.410096
1386.844795,6809.894666,-5033.400406,0.000000
1386.845124,6291.750507,-6069.688724,0.000000
1386.845454,7920.203579,-7550.100608,1838.629195
1386.845783,7254.018232,-8586.388927,2221.676944
1386.846112,6365.771101,-7476.080014,1149.143247
1386.846442,5403.503377,-5921.647536,-229.828649
1386.846771,6217.729913,-6735.874072,306.438199
1386.847100,7031.956449,-8734.430116,1685.410096
1386.847430,7105.977043,-7031.956449,1762.019645
1386.847759,6735.874072,-5625.565159,306.438199
1386.848088,6291.750507,-4959.379811,0.000000
1386.848418,7254.018232,-5551.544565,1991.848295
1386.848747,8734.430116,-7031.956449,2374.896044
1386.849076,7179.997637,-7624.121203,1455.581446
1386.849406,5181.441594,-6587.832884,-612.876398
1386.849735,5699.585753,-6883.915261,229.828649
1386.850064,7772.162391,-7846.182985,2374.896044
1386.850394,9104.533087,-8068.244768,2987.772442
1386.850723,7550.100608,-5921.647536,1378.971896
1386.851052,6217.729913,-4663.297435,0.000000
1386.851382,6883.915261,-5921.647536,689.485948
1386.851711,7179.997637,-6957.935855,2221.676944
1386.852041,7105.977043,-6365.771101,1915.238745
1386.852370,5329.482782,-6217.729913,0.000000
1386.852699,4959.379811,-6735.874072,306.438199
1386.853029,5699.585753,-8216.285956,995.924147
1386.853358,7105.977043,-8956.491898,2298.286494
1386.853687,7624.121203,-5995.668130,1762.019645
1386.854017,6661.853478,-5107.421000,-153.219100
1386.854346,6661.853478,-5107.421000,306.438199
1386.854675,7846.182985,-5551.544565,1915.238745
1386.855005,8734.430116,-7105.977043,2221.676944
1386.855334,7105.977043,-5847.626942,1149.143247
1386.855663,5995.668130,-5107.421000,0.000000
1386.855993,6883.915261,-6291.750507,995.924147
1386.856322,8068.244768,-7624.121203,2298.286494
1386.856651,8660.409521,-7624.121203,3140.991542
1386.856981,7772.162391,-4811.338623,995.924147
1386.857310,6883.915261,-3849.070898,0.000000
1386.857639,8068.244768,-4811.338623,1762.019645
1386.857969,8142.265362,-6735.874072,2374.896044
1386.858298,6587.832884,-6587.832884,1225.752797
1386.858628,4737.318029,-6365.771101,-229.828649
1386.858957,4737.318029,-7105.977043,0.000000
1386.859286,5921.647536,-7846.182985,1302.362347
1386.859616,7105.977043,-8438.347739,2145.067394
1386.859945,7031.956449,-7105.977043,1149.143247
1386.860274,6513.812290,-5403.503377,0.000000
1386.860604,6661.853478,-5477.523971,-383.047749
1386.860933,7476.080014,-7402.059420,1762.019645
1386.861262,8142.265362,-6291.750507,1225.752797
1386.861592,6883.915261,-5699.585753,536.266849
1386.861921,6143.709319,-6661.853478,76.609550
1386.862250,7105.977043,-7402.059420,1225.752797
1386.862580,8586.388927,-7994.224174,2681.334243
1386.862909,7920.203579,-7402.059420,1608.800546
1386.863238,6217.729913,-4145.153275,-306.438199
1386.863568,5847.626942,-5033.400406,76.609550
1386.863897,7772.162391,-7105.977043,1838.629195
1386.864227,7920.203579,-7698.141797,2221.676944
1386.864556,6069.688724,-6883.915261,1072.533697
1386.864885,5329.482782,-5847.626942,-689.485948
1386.865215,5255.462188,-7476.080014,612.876398
1386.865544,6217.729913,-8882.471304,2451.505594
1386.865873,7328.038826,-8068.244768,1915.238745
1386.866203,6809.894666,-5329.482782,76.609550
1386.866532,5995.668130,-4293.194464,-766.095498
1386.866861,6809.894666,-6365.771101,536.266849
1386.867191,7920.203579,-7550.100608,2068.457845
1386.867520,7179.997637,-7105.977043,1072.533697
1386.867849,5847.626942,-5329.482782,0.000000
1386.868179,6291.750507,-5625.565159,-306.438199
1386.868508,8216.285956,-7179.997637,1915.238745
1386.868837,9400.615463,-7624.121203,2987.772442
1386.869167,8364.327145,-6143.709319,1608.800546
1386.869496,6735.874072,-3849.070898,0.000000
1386.869825,7624.121203,-4885.359217,919.314598
1386.870155,8512.368333,-7031.956449,2528.115143
1386.870484,7550.100608,-7402.059420,1915.238745
1386.870814,5255.462188,-6587.832884,612.876398
1386.871143,4219.173869,-6365.771101,-306.438199
1386.871472,4737.318029,-7624.121203,459.657299
1386.871802,7031.956449,-9104.533087,2604.724693
1386.872131,7476.080014,-6957.935855,2374.896044
1386.872460,6587.832884,-4589.276840,-536.266849
1386.872790,6735.874072,-3997.112087,306.438199
1386.873119,7846.182985,-5699.585753,1378.971896
1386.873448,9622.677246,-6513.812290,2145.067394
1386.873778,7920.203579,-5847.626942,1225.752797
1386.874107,6513.812290,-5181.441594,-383.047749
1386.874436,7105.977043,-5995.668130,306.438199
1386.874766,8512.368333,-8216.285956,1915.238745
1386.875095,8882.471304,-7772.162391,2757.943793
1386.875424,8586.388927,-5033.400406,689.485948
1386.875754,7105.977043,-4515.256246,0.000000
1386.876083,6809.894666,-6883.915261,1378.971896
1386.876412,6809.894666,-8068.244768,1915.238745
1386.876742,5995.668130,-7105.977043,76.609550
1386.877071,4219.173869,-6661.853478,-689.485948
1386.877401,3849.070898,-7031.956449,-612.876398
1386.877730,6143.709319,-7772.162391,1378.971896
1386.878059,7846.182985,-8808.450710,2911.162892
1386.878389,8142.265362,-6217.729913,1608.800546
1386.878718,7550.100608,-4219.173869,612.876398
1386.879047,7476.080014,-4885.359217,536.266849
1386.879377,8290.306550,-6957.935855,2068.457845
1386.879706,8068.244768,-6957.935855,1915.238745
1386.880035,6513.812290,-6365.771101,0.000000
1386.880365,5551.544565,-6439.791695,-229.828649
1386.880694,5699.585753,-8586.388927,842.705048
1386.881023,6661.853478,-9844.739029,2145.067394
1386.881353,6661.853478,-7994.224174,1455.581446
1386.881682,6069.688724,-5477.523971,0.000000
1386.882011,6439.791695,-5181.441594,229.828649
1386.882341,7994.224174,-6735.874072,1838.629195
1386.882670,8290.306550,-6957.935855,2451.505594
1386.882999,6661.853478,-5995.668130,459.657299
1386.883329,5255.462188,-4811.338623,-995.924147
1386.883658,5921.647536,-7105.977043,306.438199
1386.883988,7846.182985,-8512.368333,2451.505594
1386.884317,9104.533087,-6809.894666,2987.772442
1386.884646,8512.368333,-5033.400406,1532.190996
1386.884976,6661.853478,-3478.967927,76.609550
1386.885305,6661.853478,-5107.421000,306.438199
1386.885634,7031.956449,-6735.874072,1302.362347
1386.885964,6661.853478,-6365.771101,1302.362347
1386.886293,6365.771101,-5699.585753,0.000000
1386.886622,6291.750507,-6217.729913,766.095498
1386.886952,7254.018232,-8438.347739,1991.848295
1386.887281,8216.285956,-8512.368333,2681.334243
1386.887610,7105.977043,-6143.709319,1455.581446
1386.887940,6439.791695,-4589.276840,-306.438199
1386.888269,6291.750507,-5921.647536,76.609550
1386.888598,7698.141797,-6883.915261,2221.676944
1386.888928,7698.141797,-7698.141797,1838.629195
1386.889257,6513.812290,-5403.503377,459.657299
1386.889587,4737.318029,-6143.709319,-612.876398
1386.889916,5403.503377,-7920.203579,995.924147
1386.890245,7402.059420,-8438.347739,2374.896044
1386.890575,8068.244768,-7031.956449,2221.676944
1386.890904,7105.977043,-4515.256246,842.705048
1386.891233,7031.956449,-4663.297435,459.657299
1386.891563,7402.059420,-5995.668130,1149.143247
1386.891892,7624.121203,-7031.956449,1838.629195
1386.892221,6735.874072,-6291.750507,383.047749
1386.892551,5403.503377,-5625.565159,-995.924147
1386.892880,6143.709319,-7772.162391,0.000000
1386.893209,7698.141797,-9252.574275,2681.334243
1386.893539,8586.388927,-8660.409521,2757.943793
1386.893868,7105.977043,-6069.688724,1838.629195
1386.894197,5921.647536,-4885.359217,153.219100
1386.894527,6883.915261,-6883.915261,76.609550
1386.894856,7624.121203,-7550.100608,2221.676944
1386.895185,6883.915261,-6735.874072,1762.019645
1386.895515,5921.647536,-5625.565159,0.000000
1386.895844,5329.482782,-5699.585753,0.000000
1386.896174,6513.812290,-7402.059420,1149.143247
1386.896503,8512.368333,-7254.018232,2528.115143
1386.896832,8956.491898,-5107.421000,1685.410096
1386.897162,7105.977043,-4293.194464,-153.219100
1386.897491,6365.771101,-4811.338623,306.438199
1386.897820,6883.915261,-6957.935855,1455.581446
1386.898150,7031.956449,-7031.956449,1225.752797
1386.898479,5551.544565,-6735.874072,766.095498
1386.898808,5255.462188,-5921.647536,76.609550
1386.899138,6661.853478,-7698.141797,1072.533697
1386.899467,7994.224174,-8586.388927,2911.162892
1386.899796,8364.327145,-6661.853478,2145.067394
1386.900126,7402.059420,-5255.462188,689.485948
1386.900455,6661.853478,-4515.256246,459.657299
1386.900784,6809.894666,-6957.935855,1455.581446
1386.901114,7772.162391,-7550.100608,2374.896044
1386.901443,6513.812290,-6365.771101,1685.410096
1386.901773,4737.318029,-6661.853478,-689.485948
1386.902102,4515.256246,-7328.038826,-383.047749
1386.902431,5847.626942,-8956.491898,1455.581446
1386.902761,6957.935855,-8956.491898,2145.067394
1386.903090,7031.956449,-6365.771101,919.314598
1386.903419,6883.915261,-4663.297435,-153.219100
1386.903749,7624.121203,-4885.359217,306.438199
1386.904078,8216.285956,-6661.853478,1838.629195
1386.904407,7550.100608,-5847.626942,1915.238745
1386.904737,7476.080014,-5033.400406,153.219100
1386.905066,7550.100608,-5847.626942,0.000000
1386.905395,7476.080014,-7402.059420,1455.581446
1386.905725,7698.141797,-9474.636058,2528.115143
1386.906054,8142.265362,-5847.626942,1149.143247
1386.906384,6365.771101,-6587.832884,0.000000
1386.906713,6217.729913,-5699.585753,766.095498
1386.907042,7920.203579,-5403.503377,1455.581446
1386.907372,7920.203579,-7254.018232,1685.410096
1386.907701,6069.688724,-6069.688724,766.095498
1386.908030,4885.359217,-6735.874072,-306.438199
1386.908360,5329.482782,-7846.182985,536.266849
1386.908689,5921.647536,-8882.471304,1838.629195
1386.909018,7031.956449,-7624.121203,1915.238745
1386.909348,6957.935855,-5033.400406,-383.047749
1386.909677,6957.935855,-4737.318029,229.828649
1386.910006,8364.327145,-5699.585753,1532.190996
1386.910336,8956.491898,-6735.874072,2374.896044
1386.910665,7846.182985,-5995.668130,1225.752797
1386.910995,6291.750507,-5921.647536,-383.047749
1386.911324,5995.668130,-7254.018232,0.000000
1386.911653,6513.812290,-8364.327145,1685.410096
1386.911983,7179.997637,-8956.491898,2757.943793
1386.912312,7698.141797,-5477.523971,842.705048
1386.912641,6735.874072,-4589.276840,306.438199
1386.912971,6809.894666,-5995.668130,842.705048
1386.913300,7105.977043,-7624.121203,1455.581446
1386.913629,6439.791695,-7105.977043,1532.190996
1386.913959,5033.400406,-5847.626942,-766.095498
1386.914288,4737.318029,-6809.894666,-536.266849
1386.914618,6069.688724,-8438.347739,1532.190996
1386.914947,8142.265362,-9400.615463,2911.162892
1386.915276,8586.388927,-6587.832884,2451.505594
1386.915606,7031.956449,-3330.926739,0.000000
1386.915935,6883.915261,-4219.173869,459.657299
1386.916264,8216.285956,-5847.626942,1762.019645
1386.916594,8142.265362,-7031.956449,2298.286494
1386.916923,6365.771101,-5033.400406,919.314598
1386.917252,5921.647536,-5255.462188,-689.485948
1386.917582,6735.874072,-7105.977043,1225.752797
1386.917911,8142.265362,-7994.224174,2834.553343
1386.918240,8142.265362,-7920.203579,2451.505594
1386.918570,7105.977043,-4737.318029,459.657299
1386.918899,5921.647536,-4959.379811,-612.876398
1386.919229,6661.853478,-7105.977043,536.266849
1386.919558,7476.080014,-8068.244768,1991.848295
1386.919887,6587.832884,-7772.162391,1302.362347
1386.920217,5107.421000,-6513.812290,0.000000
1386.920546,4959.379811,-7772.162391,383.047749
1386.920875,6439.791695,-8290.306550,1991.848295
1386.921205,8660.409521,-7772.162391,2757.943793
1386.921534,7994.224174,-5329.482782,1378.971896
1386.921863,6735.874072,-3478.967927,0.000000
1386.922193,6957.935855,-4293.194464,153.219100
1386.922522,8142.265362,-6217.729913,2298.286494
1386.922852,8142.265362,-7105.977043,2068.457845
1386.923181,7328.038826,-6439.791695,689.485948
1386.923510,7031.956449,-5551.544565,306.438199
1386.923840,7031.956449,-7994.224174,995.924147
1386.924169,7846.182985,-8956.491898,2681.334243
1386.924498,7179.997637,-6883.915261,1302.362347
1386.924828,6587.832884,-5477.523971,-536.266849
1386.925157,6365.771101,-5033.400406,383.047749
1386.925486,7476.080014,-7476.080014,1378.971896
1386.925816,7550.100608,-7698.141797,1685.410096
1386.926145,5699.585753,-7476.080014,1225.752797
1386.926474,4515.256246,-6883.915261,-689.485948
1386.926804,5921.647536,-6735.874072,383.047749
1386.927133,6809.894666,-8438.347739,2451.505594
1386.927463,8290.306550,-7402.059420,1532.190996
1386.927792,8364.327145,-4367.215058,842.705048
1386.928121,7105.977043,-4515.256246,306.438199
1386.928451,6439.791695,-6661.853478,459.657299
1386.928780,7550.100608,-6809.894666,2068.457845
1386.929109,7179.997637,-6883.915261,842.705048
1386.929439,5995.668130,-5773.606348,306.438199
1386.929768,6735.874072,-6809.894666,842.705048
1386.930097,8290.306550,-8068.244768,1685.410096
1386.930427,8438.347739,-6809.894666,2757.943793
1386.930756,6661.853478,-6143.709319,1455.581446
1386.931085,6365.771101,-4145.153275,0.000000
1386.931415,5847.626942,-5403.503377,0.000000
1386.931744,7105.977043,-8142.265362,1532.190996
1386.932074,7254.018232,-7105.977043,1915.238745
1386.932403,5995.668130,-6883.915261,689.485948
1386.932732,5847.626942,-6661.853478,-306.438199
1386.933062,6069.688724,-7698.141797,1302.362347
1386.933391,7402.059420,-8216.285956,1838.629195
1386.933720,7550.100608,-5921.647536,1225.752797
1386.934050,6809.894666,-4367.215058,229.828649
1386.934379,7254.018232,-4145.153275,383.047749
1386.934708,9178.553681,-5699.585753,1838.629195
1386.935038,9178.553681,-7031.956449,2911.162892
1386.935367,7328.038826,-5255.462188,1072.533697
1386.935697,6513.812290,-5921.647536,0.000000
1386.936026,6513.812290,-6809.894666,766.095498
1386.936355,7105.977043,-7402.059420,1838.629195
1386.936685,7624.121203,-7328.038826,2068.457845
1386.937014,6365.771101,-5921.647536,459.657299
1386.937343,5329.482782,-6143.709319,76.609550
1386.937673,6809.894666,-7254.018232,76.609550
1386.938002,7105.977043,-7550.100608,2451.505594
1386.938331,6587.832884,-7698.141797,995.924147
1386.938661,4885.359217,-7254.018232,0.000000
1386.938990,4959.379811,-7328.038826,536.266849
1386.939319,7105.977043,-7994.224174,766.095498
1386.939649,7550.100608,-7846.182985,2221.676944
1386.939978,6957.935855,-5847.626942,842.705048
1386.940308,7105.977043,-4737.318029,-306.438199
1386.940637,8216.285956,-4737.318029,842.705048
1386.940966,9474.636058,-6365.771101,2451.505594
1386.941296,8808.450710,-5699.585753,2145.067394
1386.941625,7402.059420,-4737.318029,536.266849
1386.941954,7105.977043,-5329.482782,383.047749
1386.942284,7254.018232,-6661.853478,1149.143247
1386.942613,7179.997637,-8586.388927,2451.505594
1386.942942,6661.853478,-7105.977043,1455.581446
1386.943272,5403.503377,-5625.565159,-612.876398
1386.943601,5477.523971,-5699.585753,0.000000
1386.943930,6513.812290,-7624.121203,1455.581446
1386.944260,7328.038826,-7994.224174,1685.410096
1386.944589,6661.853478,-7698.141797,1225.752797
1386.944919,6143.709319,-6883.915261,536.266849
1386.945248,6661.853478,-7328.038826,459.657299
1386.945577,7031.956449,-7328.038826,2145.067394
1386.945907,7402.059420,-7772.162391,2145.067394
1386.946236,7179.997637,-5329.482782,766.095498
1386.946565,6809.894666,-4293.194464,-229.828649
1386.946895,7476.080014,-5181.441594,536.266849
1386.947224,7698.141797,-6069.688724,1455.581446
1386.947553,6957.935855,-7031.956449,995.924147
1386.947883,5699.585753,-5773.606348,-536.266849
1386.948212,5699.585753,-6587.832884,229.828649
1386.948542,7624.121203,-7402.059420,1838.629195
1386.948871,8216.285956,-8290.306550,2987.772442
1386.949200,7846.182985,-6143.709319,842.705048
1386.949530,7328.038826,-4515.256246,153.219100
1386.949859,7402.059420,-5181.441594,536.266849
1386.950188,8068.244768,-7031.956449,2221.676944
1386.950518,8142.265362,-7402.059420,2374.896044
1386.950847,6439.791695,-5699.585753,153.219100
1386.951176,5033.400406,-5329.482782,-689.485948
1386.951506,5107.421000,-8068.244768,1455.581446
1386.951835,6809.894666,-9178.553681,2451.505594
1386.952164,7105.977043,-6957.935855,1225.752797
1386.952494,6513.812290,-4811.338623,0.000000
1386.952823,6957.935855,-4367.215058,-383.047749
1386.953153,7105.977043,-6809.894666,995.924147
1386.953482,7254.018232,-7402.059420,1378.971896
1386.953811,6587.832884,-6809.894666,229.828649
1386.954141,6661.853478,-6217.729913,0.000000
1386.954470,7772.162391,-5847.626942,459.657299
1386.954799,8808.450710,-8808.450710,3064.381992
1386.955129,9474.636058,-7105.977043,2604.724693
1386.955458,8216.285956,-4293.194464,919.314598
1386.955787,7328.038826,-3923.091493,919.314598
1386.956117,7328.038826,-5625.565159,1378.971896
1386.956446,7476.080014,-7105.977043,1762.019645
1386.956776,6069.688724,-7402.059420,1149.143247
1386.957105,4367.215058,-7179.997637,-612.876398
1386.957434,5255.462188,-7698.141797,-383.047749
1386.957764,6809.894666,-8956.491898,1455.581446
1386.958093,7402.059420,-9030.512492,2145.067394
1386.958422,6661.853478,-6291.750507,1149.143247
1386.958752,5921.647536,-4737.318029,-536.266849
1386.959081,6513.812290,-5403.503377,0.000000
1386.959410,7550.100608,-6809.894666,1455.581446
1386.959740,8216.285956,-7031.956449,2298.286494
1386.960069,7550.100608,-5847.626942,842.705048
1386.960398,6439.791695,-4885.359217,536.266849
1386.960728,7105.977043,-6883.915261,1455.581446
1386.961057,8290.306550,-7328.038826,2451.505594
1386.961387,8586.388927,-6439.791695,2221.676944
1386.961716,7328.038826,-4367.215058,766.095498
1386.962045,6883.915261,-4293.194464,153.219100
1386.962375,7179.997637,-7179.997637,1302.362347
1386.962704,7031.956449,-8438.347739,2298.286494
1386.963033,5551.544565,-7254.018232,76.609550
1386.963363,4145.153275,-6957.935855,-766.095498
1386.963692,4071.132681,-7179.997637,0.000000
1386.964021,6365.771101,-9178.553681,1685.410096
1386.964351,7846.182985,-7846.182985,2528.115143
1386.964680,7476.080014,-5033.400406,612.876398
1386.965009,7328.038826,-3701.029710,153.219100
1386.965339,7920.203579,-4145.153275,1225.752797
1386.965668,8734.430116,-7254.018232,2221.676944
1386.965998,8956.491898,-4441.235652,1455.581446
1386.966327,7031.956449,-5847.626942,766.095498
1386.966656,6883.915261,-7031.956449,0.000000
1386.966986,7254.018232,-7698.141797,1762.019645
1386.967315,7994.224174,-8364.327145,3217.601092
1386.967644,7550.100608,-5921.647536,1378.971896
1386.967974,5773.606348,-4441.235652,-536.266849
1386.968303,6217.729913,-5551.544565,306.438199
1386.968632,7550.100608,-7254.018232,1302.362347
1386.968962,7624.121203,-7920.203579,2451.505594
1386.969291,6291.750507,-5699.585753,766.095498
1386.969621,5329.482782,-5625.565159,-766.095498
1386.969950,5625.565159,-7328.038826,536.266849
1386.970279,7031.956449,-9030.512492,1991.848295
1386.970609,7920.203579,-7624.121203,2374.896044
1386.970938,7550.100608,-4515.256246,76.609550
1386.971267,7179.997637,-4959.379811,0.000000
1386.971597,7994.224174,-5181.441594,842.705048
1386.971926,7846.182985,-8068.244768,2145.067394
1386.972255,7624.121203,-6069.688724,919.314598
1386.972585,6883.915261,-4959.379811,0.000000
1386.972914,6809.894666,-5921.647536,689.485948
1386.973243,7550.100608,-8142.265362,2221.676944
1386.973573,7920.203579,-7994.224174,2451.505594
1386.973902,6957.935855,-6513.812290,1072.533697
1386.974232,5699.585753,-5107.421000,-229.828649
1386.974561,6143.709319,-6439.791695,689.485948
1386.974890,7031.956449,-7476.080014,1838.629195
1386.975220,7105.977043,-8586.388927,1685.410096
1386.975549,5551.544565,-6291.750507,76.609550
1386.975878,4737.318029,-7179.997637,-459.657299
1386.976208,4885.359217,-9400.615463,919.314598
1386.976537,6957.935855,-7920.203579,2298.286494
1386.976866,7105.977043,-6809.894666,689.485948
1386.977196,6809.894666,-5033.400406,842.705048
1386.977525,7698.141797,-4219.173869,459.657299
1386.977854,9178.553681,-5625.565159,1302.362347
1386.978184,8882.471304,-5551.544565,2298.286494
1386.978513,7402.059420,-4737.318029,689.485948
1386.978843,6365.771101,-4737.318029,0.000000
1386.979172,7179.997637,-6513.812290,1532.190996
1386.979501,8364.327145,-8142.265362,2834.553343
1386.979831,9030.512492,-7254.018232,3294.210641
1386.980160,7920.203579,-4737.318029,842.705048
1386.980489,6217.729913,-4367.215058,0.000000
1386.980819,6217.729913,-7624.121203,995.924147
1386.981148,6809.894666,-8142.265362,1685.410096
1386.981477,5403.503377,-8142.265362,383.047749
1386.981807,4441.235652,-6883.915261,-229.828649
1386.982136,4441.235652,-7920.203579,0.000000
1386.982466,6217.729913,-9400.615463,1455.581446
1386.982795,7105.977043,-7402.059420,1532.190996
1386.983124,6883.915261,-5921.647536,995.924147
1386.983454,6735.874072,-4737.318029,76.609550
1386.983783,7328.038826,-4589.276840,842.705048
1386.984112,8734.430116,-6957.935855,1838.629195
1386.984442,9104.533087,-6143.709319,2068.457845
1386.984771,7476.080014,-5699.585753,536.266849
1386.985100,6513.812290,-6809.894666,229.828649
1386.985430,7105.977043,-7328.038826,1915.238745
1386.985759,8660.409521,-7846.182985,2374.896044
1386.986088,8142.265362,-6513.812290,1685.410096
1386.986418,7105.977043,-5477.523971,459.657299
1386.986747,7031.956449,-5329.482782,689.485948
1386.987077,7105.977043,-7772.162391,1532.190996
1386.987406,5921.647536,-7920.203579,1685.410096
1386.987735,4959.379811,-5847.626942,153.219100
1386.988065,4145.153275,-6587.832884,-766.095498
1386.988394,5699.585753,-7476.080014,766.095498
1386.988723,7402.059420,-8364.327145,3064.381992
1386.989053,8808.450710,-6661.853478,2528.115143
1386.989382,7772.162391,-4293.194464,536.266849
1386.989711,6587.832884,-4663.297435,-229.828649
1386.990041,7254.018232,-5773.606348,1149.143247
1386.990370,8068.244768,-7920.203579,1532.190996
1386.990700,7476.080014,-7624.121203,1378.971896
1386.991029,5625.565159,-6291.750507,0.000000
1386.991358,5921.647536,-6513.812290,-459.657299
1386.991688,7402.059420,-7994.224174,1991.848295
1386.992017,7994.224174,-8216.285956,2451.505594
1386.992346,7772.162391,-5403.503377,995.924147
1386.992676,6661.853478,-3997.112087,0.000000
1386.993005,6661.853478,-5773.606348,383.047749
1386.993334,7550.100608,-7105.977043,1685.410096
1386.993664,6735.874072,-7550.100608,1455.581446
1386.993993,5625.565159,-6291.750507,76.609550
1386.994322,5477.523971,-6883.915261,0.000000
1386.994652,6513.812290,-7772.162391,1532.190996
1386.994981,7550.100608,-8068.244768,2221.676944
1386.995311,7772.162391,-6217.729913,1915.238745
1386.995640,6439.791695,-4885.359217,0.000000
1386.995969,5921.647536,-5477.523971,0.000000
1386.996299,7105.977043,-6365.771101,1302.362347
1386.996628,7402.059420,-7105.977043,2145.067394
1386.996957,6735.874072,-5403.503377,766.095498
1386.997287,5921.647536,-5477.523971,0.000000
1386.997616,6661.853478,-6143.709319,842.705048
1386.997945,8290.306550,-7550.100608,2528.115143
1386.998275,9252.574275,-6661.853478,2987.772442
1386.998604,7624.121203,-4885.359217,995.924147
1386.998933,6735.874072,-4071.132681,76.609550
1386.999263,7476.080014,-5847.626942,1455.581446
1386.999592,8216.285956,-7550.100608,2834.553343
1386.999921,7846.182985,-7031.956449,1838.629195
1387.000251,5551.544565,-5995.668130,76.609550
1387.000580,4441.235652,-7624.121203,229.828649
1387.000909,5551.544565,-8216.285956,995.924147
1387.001238,6365.771101,-8068.244768,2451.505594
1387.001567,6587.832884,-6217.729913,76.609550
1387.001896,6439.791695,-4663.297435,153.219100
1387.002225,7328.038826,-5033.400406,536.266849
1387.002555,8290.306550,-6809.894666,2528.115143
1387.002884,8438.347739,-6809.894666,2068.457845
1387.003213,7550.100608,-5995.668130,612.876398
1387.003542,6217.729913,-6735.874072,153.219100
1387.003871,6809.894666,-7994.224174,1838.629195
1387.004200,8068.244768,-7920.203579,2374.896044
1387.004530,7254.018232,-6735.874072,1072.533697
1387.004859,6587.832884,-4885.359217,0.000000
1387.005188,6735.874072,-5477.523971,153.219100
1387.005517,7179.997637,-7402.059420,1608.800546
1387.005846,7254.018232,-7846.182985,2374.896044
1387.006175,5995.668130,-6661.853478,459.657299
1387.006504,4737.318029,-5847.626942,-612.876398
1387.006834,5255.462188,-7328.038826,689.485948
1387.007163,7328.038826,-8142.265362,1838.629195
1387.007492,8216.285956,-7105.977043,2068.457845
1387.007821,7624.121203,-5329.482782,919.314598
1387.008150,7254.018232,-3997.112087,-383.047749
1387.008479,6587.832884,-5847.626942,689.485948
1387.008809,7254.018232,-7772.162391,1762.019645
1387.009138,7105.977043,-7402.059420,1378.971896
1387.009467,5847.626942,-6365.771101,153.219100
1387.009796,6143.709319,-6809.894666,612.876398
1387.010125,7846.182985,-7772.162391,1991.848295
1387.010454,8364.327145,-7031.956449,2451.505594
1387.010784,7328.038826,-6217.729913,919.314598
1387.011113,6957.935855,-3997.112087,76.609550
1387.011442,7402.059420,-4959.379811,919.314598
1387.011771,7550.100608,-6513.812290,2221.676944
1387.012100,7476.080014,-6513.812290,2451.505594
1387.012429,6143.709319,-6513.812290,306.438199
1387.012758,4219.173869,-6661.853478,-383.047749
1387.013088,5699.585753,-7402.059420,1532.190996
1387.013417,7624.121203,-7994.224174,1302.362347
1387.013746,7105.977043,-6069.688724,919.314598
1387.014075,6365.771101,-4885.359217,-612.876398
1387.014404,7031.956449,-5329.482782,-229.828649
1387.014733,8364.327145,-7698.141797,1685.410096
1387.015063,9104.533087,-8068.244768,3140.991542
1387.015392,7920.203579,-6513.812290,1149.143247
1387.015721,6217.729913,-6143.709319,76.609550
1387.016050,6217.729913,-7328.038826,536.266849
1387.016379,7772.162391,-7328.038826,2068.457845
1387.016708,8216.285956,-6439.791695,1072.533697
1387.017037,7254.018232,-4737.318029,919.314598
1387.017367,6957.935855,-4071.132681,153.219100
1387.017696,7772.162391,-5773.606348,1302.362347
1387.018025,8216.285956,-7846.182985,2834.553343
1387.018354,7105.977043,-7254.018232,2451.505594
1387.018683,5921.647536,-5847.626942,76.609550
1387.019012,4589.276840,-7179.997637,-306.438199
1387.019342,5255.462188,-8216.285956,1072.533697
1387.019671,7254.018232,-8660.409521,1838.629195
1387.020000,7105.977043,-7105.977043,689.485948
1387.020329,5995.668130,-5181.441594,0.000000
1387.020658,6661.853478,-6143.709319,229.828649
1387.020987,8068.244768,-7698.141797,1455.581446
1387.021316,7476.080014,-7105.977043,1838.629195
1387.021646,6291.750507,-6069.688724,153.219100
1387.021975,5995.668130,-5995.668130,0.000000
1387.022304,7031.956449,-7254.018232,1455.581446
1387.022633,8438.347739,-7846.182985,2221.676944
1387.022962,8586.388927,-6809.894666,2374.896044
1387.023291,7105.977043,-5181.441594,536.266849
1387.023621,7105.977043,-5403.503377,459.657299
1387.023950,7920.203579,-6291.750507,1991.848295
1387.024279,7550.100608,-6217.729913,1762.019645
1387.024608,6217.729913,-5995.668130,612.876398
1387.024937,5181.441594,-7179.997637,689.485948
1387.025266,5181.441594,-7772.162391,766.095498
1387.025596,5921.647536,-7920.203579,2145.067394
1387.025925,6661.853478,-7402.059420,2068.457845
1387.026254,7105.977043,-5255.462188,306.438199
1387.026583,6957.935855,-4959.379811,153.219100
1387.026912,7772.162391,-5551.544565,1532.190996
1387.027241,9622.677246,-6069.688724,2604.724693
1387.027570,8512.368333,-5329.482782,1378.971896
1387.027900,7031.956449,-5033.400406,383.047749
1387.028229,6217.729913,-6661.853478,383.047749
1387.028558,6661.853478,-7550.100608,689.485948
1387.028887,6587.832884,-7772.162391,1302.362347
1387.029216,6439.791695,-6957.935855,689.485948
1387.029545,7105.977043,-5033.400406,153.219100
1387.029875,7254.018232,-5847.626942,536.266849
1387.030204,8586.388927,-6957.935855,2298.286494
1387.030533,7328.038826,-7031.956449,1608.800546
1387.030862,5625.565159,-5477.523971,0.000000
1387.031191,5033.400406,-5625.565159,-229.828649
1387.031520,5921.647536,-7254.018232,1608.800546
1387.031849,7624.121203,-8808.450710,2374.896044
1387.032179,7550.100608,-8216.285956,2451.505594
1387.032508,7105.977043,-5181.441594,766.095498
1387.032837,6735.874072,-4367.215058,0.000000
1387.033166,7846.182985,-5107.421000,1302.362347
1387.033495,8216.285956,-6143.709319,1762.019645
1387.033824,7328.038826,-6143.709319,1072.533697
1387.034154,6365.771101,-5403.503377,229.828649
1387.034483,6365.771101,-7328.038826,459.657299
1387.034812,7624.121203,-8364.327145,2528.115143
1387.035141,7476.080014,-8142.265362,2528.115143
1387.035470,6143.709319,-6957.935855,229.828649
1387.035799,5181.441594,-5403.503377,-459.657299
1387.036129,5847.626942,-6513.812290,306.438199
1387.036458,7179.997637,-7772.162391,919.314598
1387.036787,7031.956449,-6883.915261,1608.800546
1387.037116,5847.626942,-7105.977043,383.047749
1387.037445,5403.503377,-7624.121203,612.876398
1387.037774,6883.915261,-8808.450710,1532.190996
1387.038103,8290.306550,-7698.141797,2987.772442
1387.038433,8660.409521,-5033.400406,1455.581446
1387.038762,7624.121203,-4145.153275,306.438199
1387.039091,6661.853478,-4441.235652,1149.143247
1387.039420,7920.203579,-6069.688724,1149.143247
1387.039749,7772.162391,-6587.832884,1991.848295
1387.040078,6735.874072,-5921.647536,689.485948
1387.040408,5847.626942,-7105.977043,306.438199
1387.040737,6069.688724,-7624.121203,1608.800546
1387.041066,6661.853478,-8734.430116,2145.067394
1387.041395,6661.853478,-9252.574275,1762.019645
1387.041724,6661.853478,-3701.029710,-383.047749
1387.042053,6513.812290,-5847.626942,153.219100
1387.042382,7698.141797,-6809.894666,1455.581446
1387.042712,8512.368333,-5995.668130,2987.772442
1387.043041,8808.450710,-6661.853478,2145.067394
1387.043370,7105.977043,-3849.070898,536.266849
1387.043699,5477.523971,-7031.956449,229.828649
1387.044028,6143.709319,-5921.647536,919.314598
1387.044357,6291.750507,-9030.512492,2145.067394
1387.044687,7698.141797,-6439.791695,842.705048
1387.045016,7772.162391,-3627.009116,536.266849
1387.045345,8512.368333,-5551.544565,1685.410096
1387.045674,9326.594869,-5477.523971,2145.067394
1387.046003,7698.141797,-6587.832884,1838.629195
1387.046332,5995.668130,-5403.503377,-459.657299
1387.046662,4219.173869,-6217.729913,-995.924147
1387.046991,5847.626942,-8734.430116,1532.190996
1387.047320,7328.038826,-8068.244768,2374.896044
1387.047649,7772.162391,-6957.935855,2451.505594
1387.047978,7105.977043,-6069.688724,1072.533697
1387.048307,7402.059420,-4441.235652,-306.438199
1387.048636,7550.100608,-7402.059420,2374.896044
1387.048966,7179.997637,-7254.018232,1915.238745
1387.049295,6439.791695,-6883.915261,153.219100
1387.049624,4515.256246,-5699.585753,-689.485948
1387.049953,4737.318029,-8364.327145,153.219100
1387.050282,7476.080014,-9030.512492,2298.286494
1387.050611,9104.533087,-6809.894666,2221.676944
1387.050941,7254.018232,-5995.668130,229.828649
1387.051270,6217.729913,-4219.173869,-459.657299
1387.051599,6957.935855,-6291.750507,919.314598
1387.051928,7328.038826,-7402.059420,995.924147
1387.052257,6735.874072,-5921.647536,919.314598
1387.052586,5995.668130,-5847.626942,0.000000
1387.052915,6513.812290,-6735.874072,0.000000
1387.053245,7254.018232,-8808.450710,2298.286494
1387.053574,8142.265362,-8216.285956,2681.334243
1387.053903,8216.285956,-5773.606348,459.657299
1387.054232,7031.956449,-5625.565159,919.314598
1387.054561,6809.894666,-5921.647536,1225.752797
1387.054890,7254.018232,-7476.080014,1915.238745
1387.055220,6809.894666,-6439.791695,1762.019645
1387.055549,5477.523971,-6365.771101,-306.438199
1387.055878,5477.523971,-7105.977043,0.000000
1387.056207,6143.709319,-7254.018232,1072.533697
1387.056536,7624.121203,-7920.203579,2374.896044
1387.056865,8068.244768,-5699.585753,1685.410096
1387.057194,7476.080014,-4885.359217,689.485948
1387.057524,7550.100608,-4367.215058,1072.533697
1387.057853,7328.038826,-5995.668130,995.924147
1387.058182,7328.038826,-7105.977043,1532.190996
1387.058511,6291.750507,-6291.750507,383.047749
1387.058840,5773.606348,-6661.853478,0.000000
1387.059169,6809.894666,-8068.244768,459.657299
1387.059499,7698.141797,-9104.533087,2528.115143
1387.059828,8586.388927,-7476.080014,2298.286494
1387.060157,7698.141797,-5551.544565,459.657299
1387.060486,6661.853478,-3701.029710,0.000000
1387.060815,6661.853478,-6439.791695,459.657299
1387.061144,7179.997637,-7476.080014,1685.410096
1387.061474,5551.544565,-6661.853478,1072.533697
1387.061803,4811.338623,-5995.668130,-536.266849
1387.062132,4737.318029,-7179.997637,76.609550
1387.062461,6587.832884,-8438.347739,2528.115143
1387.062790,8142.265362,-7328.038826,2911.162892
1387.063119,7624.121203,-5329.482782,1072.533697
1387.063448,6439.791695,-3701.029710,-306.438199
1387.063778,6365.771101,-5477.523971,229.828649
1387.064107,7846.182985,-7328.038826,1685.410096
1387.064436,8882.471304,-6291.750507,2298.286494
1387.064765,7772.162391,-5921.647536,995.924147
1387.065094,7402.059420,-6513.812290,536.266849
1387.065423,7328.038826,-7179.997637,1608.800546
1387.065753,7920.203579,-8438.347739,2145.067394
1387.066082,7105.977043,-6365.771101,1302.362347
1387.066411,6513.812290,-4663.297435,306.438199
1387.066740,6587.832884,-5181.441594,229.828649
1387.067069,6957.935855,-7105.977043,1302.362347
1387.067398,6883.915261,-8142.265362,1915.238745
1387.067727,5847.626942,-6439.791695,612.876398
1387.068057,4663.297435,-6143.709319,-919.314598
1387.068386,4959.379811,-8956.491898,612.876398
1387.068715,7328.038826,-9104.533087,2911.162892
1387.069044,8586.388927,-7920.203579,1915.238745
1387.069373,7402.059420,-4737.318029,1225.752797
1387.069702,7105.977043,-3775.050304,459.657299
1387.070032,8734.430116,-5921.647536,1378.971896
1387.070361,8808.450710,-6217.729913,2298.286494
1387.070690,7402.059420,-5847.626942,1455.581446
1387.071019,6217.729913,-5181.441594,-229.828649
1387.071348,5847.626942,-5847.626942,-229.828649
1387.071677,7105.977043,-7624.121203,1991.848295
1387.072007,9030.512492,-7772.162391,2528.115143
1387.072336,8364.327145,-5995.668130,2451.505594
1387.072665,6809.894666,-4737.318029,153.219100
1387.072994,5995.668130,-6069.688724,229.828649
1387.073323,6661.853478,-7846.182985,1225.752797
1387.073652,6513.812290,-7476.080014,1072.533697
1387.073981,5551.544565,-6661.853478,-229.828649
1387.074311,4811.338623,-7105.977043,0.000000
1387.074640,6735.874072,-8068.244768,1455.581446
1387.074969,7772.162391,-8660.409521,3064.381992
1387.075298,7402.059420,-5625.565159,1991.848295
1387.075627,6587.832884,-3627.009116,306.438199
1387.075956,6439.791695,-3849.070898,0.000000
1387.076286,7105.977043,-5329.482782,1149.143247
1387.076615,8068.244768,-6809.894666,2374.896044
1387.076944,8364.327145,-6069.688724,1455.581446
1387.077273,7105.977043,-5773.606348,306.438199
1387.077602,5773.606348,-8068.244768,612.876398
1387.077931,6809.894666,-8882.471304,2451.505594
1387.078260,7698.141797,-7920.203579,1685.410096
1387.078590,6809.894666,-5107.421000,612.876398
1387.078919,6439.791695,-4885.359217,0.000000
1387.079248,7476.080014,-6439.791695,766.095498
1387.079577,7994.224174,-7920.203579,2221.676944
1387.079906,6513.812290,-7179.997637,1915.238745
1387.080235,5477.523971,-5921.647536,-842.705048
1387.080565,4515.256246,-6661.853478,-842.705048
1387.080894,6217.729913,-8808.450710,995.924147
1387.081223,7920.203579,-8216.285956,1838.629195
1387.081552,7846.182985,-5477.523971,1608.800546
1387.081881,7624.121203,-4367.215058,0.000000
1387.082210,7624.121203,-4663.297435,842.705048
1387.082540,8512.368333,-6365.771101,2068.457845
1387.082869,8142.265362,-6069.688724,1685.410096
1387.083198,6883.915261,-5181.441594,383.047749
1387.083527,6291.750507,-6587.832884,229.828649
1387.083856,7254.018232,-8068.244768,1532.190996
1387.084185,7772.162391,-8512.368333,2374.896044
1387.084514,7328.038826,-7179.997637,1455.581446
1387.084844,5995.668130,-5107.421000,-153.219100
1387.085173,6735.874072,-5403.503377,229.828649
1387.085502,7772.162391,-7402.059420,1838.629195
1387.085831,7476.080014,-7550.100608,1991.848295
1387.086160,6365.771101,-5403.503377,306.438199
1387.086489,4737.318029,-6587.832884,-1072.533697
1387.086819,5107.421000,-8290.306550,229.828649
1387.087148,6957.935855,-9252.574275,1915.238745
1387.087477,7994.224174,-7994.224174,2221.676944
1387.087806,7105.977043,-5033.400406,536.266849
1387.088135,6587.832884,-4737.318029,-153.219100
1387.088464,7402.059420,-4959.379811,842.705048
1387.088793,8660.409521,-6587.832884,1915.238745
1387.089123,7846.182985,-5107.421000,1991.848295
1387.089452,7105.977043,-4663.297435,306.438199
1387.089781,7105.977043,-5995.668130,536.266849
1387.090110,7994.224174,-6957.935855,2451.505594
1387.090439,8438.347739,-7328.038826,3447.429741
1387.090768,8364.327145,-5403.503377,1762.019645
1387.091098,7105.977043,-3775.050304,0.000000
1387.091427,7105.977043,-5625.565159,689.485948
1387.091756,7920.203579,-6143.709319,2451.505594
1387.092085,7254.018232,-7254.018232,766.095498
1387.092414,4959.379811,-7105.977043,-229.828649
1387.092743,4145.153275,-7994.224174,-459.657299
1387.093072,5329.482782,-9474.636058,383.047749
1387.093402,7031.956449,-9030.512492,2068.457845
1387.093731,6883.915261,-7698.141797,1762.019645
1387.094060,6883.915261,-5921.647536,153.219100
1387.094389,7105.977043,-4811.338623,76.609550
1387.094718,8068.244768,-5995.668130,1378.971896
1387.095047,8882.471304,-6143.709319,1991.848295
1387.095377,7254.018232,-5033.400406,689.485948
1387.095706,6439.791695,-5403.503377,-612.876398
1387.096035,6587.832884,-6809.894666,689.485948
1387.096364,7846.182985,-8364.327145,2451.505594
1387.096693,8216.285956,-7624.121203,2681.334243
1387.097022,7105.977043,-5107.421000,306.438199
1387.097352,5921.647536,-4293.194464,-612.876398
1387.097681,6957.935855,-6957.935855,766.095498
1387.098010,7031.956449,-8956.491898,1991.848295
1387.098339,5403.503377,-9252.574275,1455.581446
1387.098668,4515.256246,-7105.977043,-612.876398
1387.098997,4515.256246,-7105.977043,-306.438199
1387.099326,6291.750507,-9252.574275,1762.019645
1387.099656,8068.244768,-9252.574275,2451.505594
1387.099985,7550.100608,-5477.523971,1532.190996
1387.100314,7105.977043,-4071.132681,-459.657299
1387.100643,7105.977043,-3627.009116,536.266849
1387.100972,8290.306550,-5403.503377,1532.190996
1387.101301,8734.430116,-5699.585753,1455.581446
1387.101631,7476.080014,-4737.318029,612.876398
1387.101960,7105.977043,-6143.709319,0.000000
1387.102289,7698.141797,-6439.791695,1378.971896
1387.102618,7994.224174,-8882.471304,3140.991542
1387.102947,7550.100608,-7550.100608,1991.848295
1387.103276,5921.647536,-4737.318029,-612.876398
1387.103606,5403.503377,-5921.647536,-383.047749
1387.103935,7179.997637,-7179.997637,1455.581446
1387.104264,7920.203579,-8068.244768,3217.601092
1387.104593,6809.894666,-6365.771101,1455.581446
1387.104922,4515.256246,-6439.791695,-766.095498
1387.105252,4959.379811,-7550.100608,306.438199
1387.105581,6809.894666,-8438.347739,1532.190996
1387.105910,7624.121203,-7920.203579,2681.334243
1387.106239,6883.915261,-4515.256246,995.924147
1387.106568,6365.771101,-4219.173869,-766.095498
1387.106898,7846.182985,-6069.688724,766.095498
1387.107227,8438.347739,-7254.018232,2451.505594
1387.107556,7920.203579,-7105.977043,1225.752797
1387.107885,6143.709319,-6957.935855,383.047749
1387.108214,5403.503377,-6217.729913,0.000000
1387.108544,7179.997637,-7105.977043,1149.143247
1387.108873,7846.182985,-8068.244768,2528.115143
1387.109202,7920.203579,-6217.729913,1532.190996
1387.109531,7105.977043,-4219.173869,-383.047749
1387.109860,7254.018232,-5625.565159,459.657299
1387.110189,8068.244768,-6439.791695,2145.067394
1387.110519,8216.285956,-7698.141797,1991.848295
1387.110848,5699.585753,-7476.080014,536.266849
1387.111177,3849.070898,-7624.121203,-383.047749
1387.111506,4737.318029,-9104.533087,0.000000
1387.111835,6513.812290,-9178.553681,2068.457845
1387.112165,5773.606348,-8956.491898,1302.362347
1387.112494,5255.462188,-7476.080014,0.000000
1387.112823,5551.544565,-7105.977043,-153.219100
1387.113152,6439.791695,-7994.224174,1455.581446
1387.113481,5995.668130,-8586.388927,2068.457845
1387.113811,5329.482782,-6513.812290,689.485948
1387.114140,3997.112087,-6587.832884,-689.485948
1387.114469,5181.441594,-7179.997637,0.000000
1387.114798,7254.018232,-8438.347739,2068.457845
1387.115127,8956.491898,-8290.306550,2911.162892
1387.115457,8216.285956,-5995.668130,2145.067394
1387.115786,6883.915261,-6291.750507,459.657299
1387.116115,6661.853478,-6439.791695,536.266849
1387.116444,7179.997637,-8216.285956,1838.629195
1387.116773,6883.915261,-8956.491898,1685.410096
1387.117102,4663.297435,-7328.038826,229.828649
1387.117432,3182.885551,-7254.018232,0.000000
1387.117761,3997.112087,-8438.347739,1455.581446
1387.118090,6217.729913,-8438.347739,3600.648841
1387.118419,6957.935855,-7105.977043,2681.334243
1387.118748,5477.523971,-5107.421000,612.876398
1387.119078,5551.544565,-5033.400406,306.438199
1387.119407,6217.729913,-5773.606348,459.657299
1387.119736,6291.750507,-8660.409521,1455.581446
1387.120065,5033.400406,-9770.718434,1378.971896
1387.120394,3404.947333,-10955.047942,229.828649
1387.120724,2442.679609,-11843.295072,76.609550
1387.121053,3256.906145,-12287.418637,1072.533697
1387.121382,4145.153275,-12139.377449,1608.800546
1387.121711,4663.297435,-9844.739029,919.314598
1387.122040,3997.112087,-7920.203579,383.047749
1387.122369,4367.215058,-6291.750507,1149.143247
1387.122699,6735.874072,-5477.523971,383.047749
1387.123028,7476.080014,-5773.606348,1762.019645
1387.123357,6735.874072,-7031.956449,2374.896044
1387.123686,5181.441594,-8438.347739,2068.457845
1387.124015,3997.112087,-8290.306550,919.314598
1387.124345,2664.741391,-9178.553681,-306.438199
1387.124674,2886.803174,-10362.883188,-536.266849
1387.125003,3923.091493,-11843.295072,0.000000
1387.125332,4441.235652,-13027.624579,1455.581446
1387.125661,4737.318029,-11251.130318,1608.800546
1387.125991,5403.503377,-8216.285956,1302.362347
1387.126320,5921.647536,-6291.750507,995.924147
1387.126649,5773.606348,-6513.812290,919.314598
1387.126978,5551.544565,-8068.244768,1685.410096
1387.127307,5773.606348,-8364.327145,2451.505594
1387.127637,5625.565159,-7772.162391,2145.067394
1387.127966,5181.441594,-6957.935855,919.314598
1387.128295,4663.297435,-7402.059420,383.047749
1387.128624,3478.967927,-9992.780217,383.047749
1387.128953,3997.112087,-11177.109724,1685.410096
1387.129282,4367.215058,-9474.636058,1149.143247
1387.129612,4589.276840,-8438.347739,306.438199
1387.129941,4145.153275,-8364.327145,689.485948
1387.130270,5107.421000,-9178.553681,1072.533697
1387.130599,6217.729913,-9104.533087,1455.581446
1387.130928,6957.935855,-7105.977043,1991.848295
1387.131258,6735.874072,-6291.750507,1608.800546
1387.131587,7328.038826,-6365.771101,1685.410096
1387.131916,5995.668130,-7550.100608,1225.752797
1387.132245,4589.276840,-8586.388927,842.705048
1387.132574,3775.050304,-8808.450710,229.828649
1387.132904,3997.112087,-8586.388927,153.219100
1387.133233,4145.153275,-9474.636058,766.095498
1387.133562,4737.318029,-10881.027347,1378.971896
1387.133891,4737.318029,-11547.212695,1838.629195
1387.134220,3701.029710,-11103.089130,1762.019645
1387.134550,3701.029710,-9252.574275,1608.800546
1387.134879,4367.215058,-6809.894666,1072.533697
1387.135208,6439.791695,-5181.441594,1378.971896
1387.135537,6957.935855,-5107.421000,2221.676944
1387.135866,7105.977043,-5773.606348,1915.238745
1387.136195,6661.853478,-6809.894666,1302.362347
1387.136525,4959.379811,-7105.977043,689.485948
1387.136854,3849.070898,-9474.636058,459.657299
1387.137183,3404.947333,-10881.027347,766.095498
1387.137512,2812.782580,-11843.295072,306.438199
1387.137841,3108.864956,-12139.377449,-229.828649
1387.138171,3997.112087,-11251.130318,-383.047749
1387.138500,4737.318029,-11029.068536,0.000000
1387.138829,5329.482782,-10658.965565,919.314598
1387.139158,4959.379811,-10066.800811,1378.971896
1387.139487,4071.132681,-8660.409521,1455.581446
1387.139817,4441.235652,-7105.977043,1762.019645
1387.140146,5625.565159,-6513.812290,2757.943793
1387.140475,7328.038826,-4441.235652,2911.162892
1387.140804,7476.080014,-4293.194464,2374.896044
1387.141133,6069.688724,-4663.297435,1149.143247
1387.141462,4663.297435,-6735.874072,0.000000
1387.141792,3849.070898,-8808.450710,-612.876398
1387.142121,3849.070898,-10436.903782,-459.657299
1387.142450,3997.112087,-13323.706956,612.876398
1387.142779,5033.400406,-12879.583391,1532.190996
1387.143108,5699.585753,-11917.315666,1838.629195
1387.143438,4885.359217,-10362.883188,1455.581446
1387.143767,4663.297435,-9178.553681,995.924147
1387.144096,3552.988522,-9104.533087,536.266849
1387.144425,3108.864956,-8586.388927,842.705048
1387.144754,3775.050304,-7105.977043,995.924147
1387.145084,4663.297435,-6587.832884,536.266849
1387.145413,4959.379811,-6735.874072,536.266849
1387.145742,5033.400406,-6809.894666,1378.971896
1387.146071,5477.523971,-7105.977043,689.485948
1387.146400,5477.523971,-7105.977043,229.828649
1387.146730,5773.606348,-7994.224174,842.705048
1387.147059,5773.606348,-10436.903782,1072.533697
1387.147388,6143.709319,-11399.171507,2145.067394
1387.147717,6217.729913,-10955.047942,2221.676944
1387.148046,5625.565159,-9326.594869,2221.676944
1387.148375,5329.482782,-8216.285956,1991.848295
1387.148705,4737.318029,-7550.100608,1762.019645
1387.149034,3627.009116,-7328.038826,766.095498
1387.149363,2886.803174,-7402.059420,459.657299
1387.149692,3108.864956,-6439.791695,-153.219100
1387.150021,3552.988522,-7031.956449,-612.876398
1387.150351,4441.235652,-7698.141797,536.266849
1387.150680,5329.482782,-8586.388927,536.266849
1387.151009,5625.565159,-9844.739029,842.705048
1387.151338,6291.750507,-10658.965565,1225.752797
1387.151667,6069.688724,-11103.089130,1608.800546
1387.151997,6365.771101,-10510.924376,2221.676944
1387.152326,6439.791695,-9992.780217,2451.505594
1387.152655,5995.668130,-8586.388927,2604.724693
1387.152984,5699.585753,-7698.141797,2681.334243
1387.153313,5625.565159,-6587.832884,2528.115143
1387.153642,6291.750507,-5625.565159,2451.505594
1387.153972,6143.709319,-5551.544565,2681.334243
1387.154301,5699.585753,-6291.750507,1685.410096
1387.154630,5033.400406,-6809.894666,1149.143247
1387.154959,4441.235652,-7772.162391,1225.752797
1387.155288,4589.276840,-8956.491898,1072.533697
1387.155618,4663.297435,-8734.430116,1915.238745
1387.155947,4959.379811,-9918.759623,1838.629195
1387.156276,4811.338623,-11029.068536,1838.629195
1387.156605,4737.318029,-10658.965565,2911.162892
1387.156934,5403.503377,-9622.677246,3064.381992
1387.157264,6513.812290,-7476.080014,4366.744339
1387.157593,6809.894666,-6143.709319,4290.134789
1387.157922,6735.874072,-5625.565159,3907.087040
1387.158251,6143.709319,-5181.441594,3677.258390
1387.158580,6069.688724,-5255.462188,3217.601092
1387.158910,5995.668130,-5033.400406,1455.581446
1387.159239,5181.441594,-6883.915261,1762.019645
1387.159568,5773.606348,-7846.182985,2681.334243
1387.159897,6883.915261,-8808.450710,2451.505594
1387.160226,6513.812290,-8660.409521,3600.648841
1387.160555,6365.771101,-8734.430116,2987.772442
1387.160885,5995.668130,-8512.368333,2757.943793
1387.161214,5625.565159,-8142.265362,3370.820191
1387.161543,5477.523971,-7772.162391,3907.087040
1387.161872,6217.729913,-6217.729913,4749.792088
1387.162201,7846.182985,-5107.421000,4826.401637
1387.162531,8142.265362,-4293.194464,4979.620737
1387.162860,8364.327145,-3701.029710,5439.278036
1387.163189,8882.471304,-2664.741391,4826.401637
1387.163518,8142.265362,-3478.967927,4213.525239
1387.163847,7550.100608,-4811.338623,4060.306139
1387.164177,7846.182985,-5847.626942,4366.744339
1387.164506,7846.182985,-7698.141797,4136.915689
1387.164835,7402.059420,-9178.553681,4749.792088
1387.165164,6291.750507,-9992.780217,3677.258390
1387.165493,4811.338623,-10732.986159,2987.772442
1387.165823,3627.009116,-10066.800811,3064.381992
1387.166152,2812.782580,-10362.883188,3064.381992
1387.166481,3108.864956,-9400.615463,3524.039291
1387.166810,4145.153275,-7402.059420,3753.867940
1387.167139,5551.544565,-6291.750507,4749.792088
1387.167468,7994.224174,-5033.400406,5669.106685
1387.167798,9696.697840,-4071.132681,7431.126331
1387.168127,9770.718434,-4145.153275,6358.592633
1387.168456,9548.656652,-2886.803174,5515.887586
1387.168785,9548.656652,-2738.761985,5286.058936
1387.169114,9400.615463,-3627.009116,4903.011187
1387.169444,9178.553681,-4737.318029,6052.154434
1387.169773,9030.512492,-5921.647536,4979.620737
1387.170102,7994.224174,-6069.688724,4596.572988
1387.170431,6587.832884,-7105.977043,4136.915689
1387.170760,5181.441594,-8586.388927,4366.744339
1387.171090,4293.194464,-9104.533087,4213.525239
1387.171419,3108.864956,-9696.697840,3524.039291
1387.171748,2294.638420,-9474.636058,2911.162892
1387.172077,2294.638420,-9030.512492,3294.210641
1387.172406,3701.029710,-8660.409521,3677.258390
1387.172735,5403.503377,-7994.224174,4443.353888
1387.173065,7105.977043,-5921.647536,4749.792088
1387.173394,9030.512492,-4811.338623,5132.839837
1387.173723,10362.883188,-3404.947333,5745.716235
1387.174052,10955.047942,-2368.659014,5745.716235
1387.174381,10066.800811,-3182.885551,4673.182538
1387.174711,8882.471304,-3849.070898,4136.915689
1387.175040,7105.977043,-6143.709319,3677.258390
1387.175369,6291.750507,-7624.121203,3600.648841
1387.175698,5181.441594,-8956.491898,2757.943793
1387.176027,4737.318029,-9622.677246,2298.286494
1387.176357,4737.318029,-9770.718434,2911.162892
1387.176686,5329.482782,-9326.594869,4213.525239
1387.177015,5847.626942,-7624.121203,3830.477490
1387.177344,6735.874072,-5699.585753,3983.696590
1387.177673,7994.224174,-4367.215058,4213.525239
1387.178003,9696.697840,-3849.070898,4749.792088
1387.178332,10658.965565,-4737.318029,5286.058936
1387.178661,9770.718434,-4145.153275,4213.525239
1387.178990,8142.265362,-4959.379811,3140.991542
1387.179319,6069.688724,-6513.812290,2604.724693
1387.179648,5477.523971,-7846.182985,2528.115143
1387.179978,5181.441594,-9400.615463,2298.286494
1387.180307,4737.318029,-9030.512492,3217.601092
1387.180636,5625.565159,-8660.409521,3524.039291
1387.180965,6957.935855,-7772.162391,3753.867940
1387.181294,7698.141797,-6365.771101,4519.963438
1387.181624,7698.141797,-6439.791695,3983.696590
1387.181953,7550.100608,-5477.523971,3830.477490
1387.182282,7698.141797,-4589.276840,3677.258390
1387.182611,8290.306550,-3775.050304,3447.429741
1387.182940,9104.533087,-2960.823768,3600.648841
1387.183270,9474.636058,-3849.070898,4366.744339
1387.183599,8808.450710,-4219.173869,3753.867940
1387.183928,7550.100608,-5699.585753,3294.210641
1387.184257,6291.750507,-8142.265362,2834.553343
1387.184586,5773.606348,-10584.944971,3140.991542
1387.184916,4589.276840,-11325.150913,3140.991542
1387.185245,3478.967927,-10658.965565,2757.943793
1387.185574,3182.885551,-9474.636058,2757.943793
1387.185903,4663.297435,-7254.018232,3600.648841
1387.186232,6217.729913,-5921.647536,3677.258390
1387.186561,7105.977043,-5625.565159,4519.963438
1387.186891,8216.285956,-4293.194464,5132.839837
1387.187220,8734.430116,-4145.153275,5056.230287
1387.187549,9178.553681,-2812.782580,6665.030833
1387.187878,9844.739029,-2146.597232,5132.839837
1387.188207,9770.718434,-3330.926739,4290.134789
1387.188537,8956.491898,-4219.173869,4213.525239
1387.188866,7624.121203,-6957.935855,3370.820191
1387.189195,6661.853478,-9178.553681,2528.115143
1387.189524,4959.379811,-10881.027347,2757.943793
1387.189853,3701.029710,-12731.542202,3217.601092
1387.190183,2812.782580,-11843.295072,3140.991542
1387.190512,3034.844362,-9548.656652,2911.162892
1387.190841,4145.153275,-7624.121203,3370.820191
1387.191170,6513.812290,-4737.318029,3753.867940
1387.191499,8438.347739,-3701.029710,5822.325785
1387.191828,9992.780217,-3108.864956,6281.983084
1387.192158,10584.944971,-2220.617826,6205.373534
1387.192487,9770.718434,-1406.391290,5515.887586
1387.192816,9030.512492,-2812.782580,4903.011187
1387.193145,8142.265362,-4367.215058,4903.011187
1387.193474,8512.368333,-7105.977043,4519.963438
1387.193804,8364.327145,-8586.388927,4290.134789
1387.194133,7550.100608,-8364.327145,3907.087040
1387.194462,6365.771101,-9992.780217,3140.991542
1387.194791,4811.338623,-9844.739029,1991.848295
1387.195120,3034.844362,-9030.512492,2145.067394
1387.195450,3034.844362,-8290.306550,1455.581446
1387.195779,4737.318029,-7105.977043,2757.943793
1387.196108,6365.771101,-5699.585753,4060.306139
1387.196437,7846.182985,-5551.544565,3677.258390
1387.196766,7402.059420,-4811.338623,3907.087040
1387.197096,7994.224174,-5107.421000,4213.525239
1387.197425,8586.388927,-4737.318029,3983.696590
1387.197754,8586.388927,-3701.029710,3600.648841
1387.198083,8142.265362,-2738.761985,2604.724693
1387.198412,7624.121203,-5033.400406,2604.724693
1387.198741,7698.141797,-7994.224174,3140.991542
1387.199071,7624.121203,-9474.636058,4136.915689
1387.199400,7772.162391,-8364.327145,3753.867940
1387.199729,6587.832884,-8438.347739,2145.067394
1387.200058,4293.194464,-8068.244768,689.485948
1387.200387,3627.009116,-7402.059420,229.828649
1387.200717,5033.400406,-7698.141797,1378.971896
1387.201046,6439.791695,-5329.482782,1302.362347
1387.201375,7402.059420,-3404.947333,2145.067394
1387.201704,7846.182985,-3108.864956,1608.800546
1387.202033,8438.347739,-5255.462188,2145.067394
1387.202363,7772.162391,-7105.977043,3064.381992
1387.202692,9400.615463,-6587.832884,3370.820191
1387.203021,9548.656652,-7254.018232,3064.381992
1387.203350,8216.285956,-7476.080014,2604.724693
1387.203679,6143.709319,-9178.553681,919.314598
1387.204008,3997.112087,-9178.553681,612.876398
1387.204338,3701.029710,-7698.141797,459.657299
1387.204667,5329.482782,-5477.523971,0.000000
1387.204996,6957.935855,-4663.297435,459.657299
1387.205325,7624.121203,-5477.523971,919.314598
1387.205654,7994.224174,-7179.997637,2145.067394
1387.205983,7772.162391,-7179.997637,2298.286494
1387.206312,7772.162391,-5847.626942,1149.143247
1387.206642,6957.935855,-4811.338623,76.609550
1387.206971,7105.977043,-5625.565159,153.219100
1387.207300,7105.977043,-6809.894666,842.705048
1387.207629,7550.100608,-7179.997637,919.314598
1387.207958,7476.080014,-6735.874072,459.657299
1387.208287,7254.018232,-6217.729913,0.000000
1387.208616,7476.080014,-7550.100608,766.095498
1387.208946,6883.915261,-8956.491898,1149.143247
1387.209275,5995.668130,-9696.697840,1149.143247
1387.209604,5403.503377,-7698.141797,229.828649
1387.209933,5329.482782,-6883.915261,0.000000
1387.210262,6069.688724,-6735.874072,-383.047749
1387.210591,6069.688724,-5033.400406,459.657299
1387.210920,6513.812290,-5181.441594,0.000000
1387.211250,7550.100608,-3997.112087,459.657299
1387.211579,9178.553681,-3849.070898,1302.362347
1387.211908,10066.800811,-4737.318029,2298.286494
1387.212237,9622.677246,-6069.688724,2911.162892
1387.212566,7920.203579,-6809.894666,1915.238745
1387.212895,6587.832884,-6735.874072,0.000000
1387.213224,5773.606348,-7698.141797,153.219100
1387.213554,6143.709319,-7031.956449,229.828649
1387.213883,6883.915261,-7179.997637,459.657299
1387.214212,6217.729913,-7994.224174,536.266849
1387.214541,5921.647536,-7698.141797,919.314598
1387.214870,6735.874072,-7698.141797,1532.190996
1387.215199,7105.977043,-6513.812290,1608.800546
1387.215528,6735.874072,-6735.874072,1685.410096
1387.215858,6217.729913,-5847.626942,1608.800546
1387.216187,6883.915261,-5477.523971,1149.143247
1387.216516,7031.956449,-5995.668130,1762.019645
1387.216845,7105.977043,-4071.132681,2145.067394
1387.217174,7179.997637,-4737.318029,1378.971896
1387.217503,7105.977043,-5699.585753,1378.971896
1387.217832,7772.162391,-7105.977043,1685.410096
1387.218162,8512.368333,-7698.141797,2451.505594
1387.218491,8142.265362,-6735.874072,2145.067394
1387.218820,6439.791695,-7846.182985,1838.629195
1387.219149,5773.606348,-8956.491898,306.438199
1387.219478,5625.565159,-8808.450710,0.000000
1387.219807,5995.668130,-7254.018232,766.095498
1387.220136,6587.832884,-5921.647536,383.047749
1387.220465,7031.956449,-6069.688724,1532.190996
1387.220795,7772.162391,-5255.462188,1915.238745
1387.221124,8364.327145,-5847.626942,2221.676944
1387.221453,8216.285956,-5551.544565,3140.991542
1387.221782,6809.894666,-5699.585753,2298.286494
1387.222111,5181.441594,-7624.121203,1378.971896
1387.222440,5255.462188,-7846.182985,2068.457845
1387.222769,6365.771101,-7624.121203,2298.286494
1387.223099,6957.935855,-6587.832884,1762.019645
1387.223428,7179.997637,-5995.668130,2221.676944
1387.223757,7105.977043,-6439.791695,995.924147
1387.224086,6957.935855,-6883.915261,536.266849
1387.224415,6957.935855,-5995.668130,1149.143247
1387.224744,6439.791695,-6069.688724,0.000000
1387.225073,5921.647536,-7624.121203,766.095498
1387.225403,6439.791695,-7698.141797,1225.752797
1387.225732,8142.265362,-6661.853478,1455.581446
1387.226061,8734.430116,-4737.318029,1149.143247
1387.226390,7105.977043,-5329.482782,766.095498
1387.226719,6069.688724,-6291.750507,229.828649
1387.227048,6957.935855,-6217.729913,459.657299
1387.227377,7920.203579,-5921.647536,689.485948
1387.227707,7698.141797,-5847.626942,1532.190996
1387.228036,7105.977043,-8216.285956,1991.848295
1387.228365,6809.894666,-9178.553681,1455.581446
1387.228694,6809.894666,-7920.203579,1378.971896
1387.229023,7179.997637,-5921.647536,689.485948
1387.229352,7698.141797,-4811.338623,1225.752797
1387.229681,7624.121203,-6513.812290,766.095498
1387.230011,7031.956449,-6069.688724,612.876398
1387.230340,6957.935855,-4885.359217,76.609550
1387.230669,7105.977043,-4663.297435,536.266849
1387.230998,6143.709319,-6661.853478,536.266849
1387.231327,5551.544565,-9696.697840,76.609550
1387.231656,6069.688724,-8438.347739,995.924147
1387.231985,7402.059420,-6883.915261,306.438199
1387.232315,7624.121203,-5699.585753,383.047749
1387.232644,6809.894666,-6439.791695,153.219100
1387.232973,7476.080014,-6661.853478,-689.485948
1387.233302,7920.203579,-6217.729913,383.047749
1387.233631,7920.203579,-5995.668130,995.924147
1387.233960,7476.080014,-7105.977043,1455.581446
1387.234289,6735.874072,-8142.265362,2068.457845
1387.234619,6143.709319,-8290.306550,1302.362347
1387.234948,5995.668130,-7105.977043,766.095498
1387.235277,6661.853478,-5699.585753,1149.143247
1387.235606,6809.894666,-5403.503377,612.876398
1387.235935,6365.771101,-6069.688724,842.705048
1387.236264,6069.688724,-5551.544565,536.266849
1387.236593,7105.977043,-5107.421000,459.657299
1387.236923,7179.997637,-5921.647536,995.924147
1387.237252,5995.668130,-7328.038826,1608.800546
1387.237581,6365.771101,-8290.306550,919.314598
1387.237910,7328.038826,-7846.182985,1302.362347
1387.238239,7994.224174,-6439.791695,1608.800546
1387.238568,7920.203579,-5995.668130,229.828649
1387.238897,7031.956449,-6069.688724,-306.438199
1387.239227,6439.791695,-7105.977043,0.000000
1387.239556,7105.977043,-6217.729913,0.000000
1387.239885,7476.080014,-5921.647536,1378.971896
1387.240214,7476.080014,-7105.977043,1762.019645
1387.240543,6365.771101,-8142.265362,1608.800546
1387.240872,5551.544565,-7476.080014,842.705048
1387.241201,6735.874072,-6143.709319,1072.533697
1387.241531,7624.121203,-4811.338623,1991.848295
1387.241860,7994.224174,-5403.503377,1532.190996
1387.242189,7254.018232,-5255.462188,1838.629195
1387.242518,7624.121203,-5551.544565,1762.019645
1387.242847,8290.306550,-5329.482782,1838.629195
1387.243176,7476.080014,-5625.565159,1378.971896
1387.243505,6069.688724,-6143.709319,1225.752797
1387.243834,6217.729913,-7698.141797,459.657299
1387.244164,7254.018232,-7624.121203,612.876398
1387.244493,7920.203579,-6217.729913,1532.190996
1387.244822,7994.224174,-6439.791695,766.095498
1387.245151,7105.977043,-7624.121203,919.314598
1387.245480,6291.750507,-7698.141797,842.705048
1387.245809,6809.894666,-7105.977043,612.876398
1387.246138,7105.977043,-6883.915261,1072.533697
1387.246468,5921.647536,-7402.059420,1072.533697
1387.246797,5551.544565,-8068.244768,1072.533697
1387.247126,6661.853478,-7328.038826,1838.629195
1387.247455,8142.265362,-5921.647536,2987.772442
1387.247784,8586.388927,-4885.359217,3140.991542
1387.248113,7476.080014,-5699.585753,2068.457845
1387.248442,6217.729913,-5403.503377,689.485948
1387.248772,6143.709319,-4811.338623,153.219100
1387.249101,7254.018232,-5255.462188,459.657299
1387.249430,6883.915261,-6735.874072,1455.581446
1387.249759,5477.523971,-8734.430116,1072.533697
1387.250088,6069.688724,-9178.553681,995.924147
1387.250417,7254.018232,-8142.265362,1762.019645
1387.250746,7920.203579,-6439.791695,1762.019645
1387.251076,6883.915261,-6069.688724,919.314598
1387.251405,6143.709319,-7031.956449,689.485948
1387.251734,6809.894666,-5773.606348,689.485948
1387.252063,7550.100608,-5107.421000,1149.143247
1387.252392,7550.100608,-5847.626942,1838.629195
1387.252721,6439.791695,-6735.874072,1991.848295
1387.253050,5921.647536,-8512.368333,1378.971896
1387.253380,6217.729913,-7698.141797,1608.800546
1387.253709,6661.853478,-5625.565159,2068.457845
1387.254038,6957.935855,-4885.359217,0.000000
1387.254367,6439.791695,-6069.688724,842.705048
1387.254696,6809.894666,-5847.626942,689.485948
1387.255025,8438.347739,-5847.626942,612.876398
1387.255354,7624.121203,-5847.626942,1072.533697
1387.255684,6735.874072,-7179.997637,689.485948
1387.256013,5847.626942,-8068.244768,0.000000
1387.256342,6883.915261,-7402.059420,153.219100
1387.256671,8512.368333,-6365.771101,766.095498
1387.257000,9252.574275,-4737.318029,1991.848295
1387.257329,8438.347739,-6217.729913,1072.533697
1387.257658,7698.141797,-5329.482782,612.876398
1387.257988,7179.997637,-5033.400406,-459.657299
1387.258317,7105.977043,-5477.523971,459.657299
1387.258646,7328.038826,-6883.915261,76.609550
1387.258975,5699.585753,-8438.347739,1149.143247
1387.259304,5995.668130,-8512.368333,612.876398
1387.259633,7328.038826,-7846.182985,1532.190996
1387.259962,8438.347739,-6661.853478,2451.505594
1387.260292,7772.162391,-6365.771101,1762.019645
1387.260621,6291.750507,-6439.791695,306.438199
1387.260950,5921.647536,-5329.482782,-383.047749
1387.261279,7105.977043,-4663.297435,76.609550
1387.261608,7550.100608,-5551.544565,1149.143247
1387.261937,6587.832884,-7105.977043,766.095498
1387.262266,6439.791695,-7920.203579,0.000000
1387.262596,7254.018232,-7328.038826,842.705048
1387.262925,7772.162391,-6217.729913,766.095498
1387.263254,7550.100608,-6143.709319,1455.581446
1387.263583,6957.935855,-6735.874072,383.047749
1387.263912,6587.832884,-7105.977043,-229.828649
1387.264241,7031.956449,-6661.853478,919.314598
1387.264570,7846.182985,-6587.832884,1685.410096
1387.264900,7476.080014,-7476.080014,1225.752797
1387.265229,5403.503377,-8142.265362,1225.752797
1387.265558,5255.462188,-7772.162391,919.314598
1387.265887,6143.709319,-6661.853478,1225.752797
1387.266216,6439.791695,-4885.359217,2221.676944
1387.266545,6735.874072,-5625.565159,1532.190996
1387.266874,6661.853478,-5477.523971,1378.971896
1387.267203,6957.935855,-5329.482782,1302.362347
1387.267533,6883.915261,-5773.606348,1685.410096
1387.267862,6365.771101,-5699.585753,612.876398
1387.268191,5921.647536,-7698.141797,153.219100
1387.268520,6661.853478,-8364.327145,612.876398
1387.268849,7328.038826,-7698.141797,1532.190996
1387.269178,8216.285956,-5921.647536,1455.581446
1387.269507,7772.162391,-6069.688724,919.314598
1387.269837,6735.874072,-7179.997637,689.485948
1387.270166,6735.874072,-7179.997637,842.705048
1387.270495,7550.100608,-6217.729913,1072.533697
1387.270824,7402.059420,-5329.482782,1685.410096
1387.271153,7105.977043,-7105.977043,1762.019645
1387.271482,6883.915261,-7550.100608,2145.067394
1387.271811,7105.977043,-6291.750507,1608.800546
1387.272141,7254.018232,-4663.297435,2221.676944
1387.272470,7994.224174,-5181.441594,2451.505594
1387.272799,7994.224174,-5403.503377,1685.410096
1387.273128,7031.956449,-5995.668130,1072.533697
1387.273457,6735.874072,-6735.874072,995.924147
1387.273786,7105.977043,-5033.400406,1149.143247
1387.274115,5921.647536,-7105.977043,-459.657299
1387.274445,5551.544565,-8216.285956,383.047749
1387.274774,6587.832884,-7476.080014,612.876398
1387.275103,7994.224174,-8068.244768,1532.190996
1387.275432,9104.533087,-6513.812290,2681.334243
1387.275761,7328.038826,-6587.832884,1378.971896
1387.276090,7105.977043,-6587.832884,153.219100
1387.276419,7402.059420,-5995.668130,919.314598
1387.276749,8290.306550,-5699.585753,1838.629195
1387.277078,7920.203579,-6143.709319,1072.533697
1387.277407,5255.462188,-7328.038826,919.314598
1387.277736,4811.338623,-7328.038826,76.609550
1387.278065,6439.791695,-7328.038826,1149.143247
1387.278394,7846.182985,-6291.750507,2221.676944
1387.278723,7328.038826,-6217.729913,2451.505594
1387.279053,6957.935855,-6661.853478,1838.629195
1387.279382,7105.977043,-6291.750507,919.314598
1387.279711,7624.121203,-4737.318029,1378.971896
1387.280040,7105.977043,-5033.400406,842.705048
1387.280369,5625.565159,-6735.874072,536.266849
1387.280698,4885.359217,-7254.018232,-76.609550
1387.281027,5255.462188,-7328.038826,0.000000
1387.281357,6735.874072,-5329.482782,995.924147
1387.281686,7105.977043,-6217.729913,1149.143247
1387.282015,7624.121203,-6883.915261,1302.362347
1387.282344,7772.162391,-8586.388927,919.314598
1387.282673,7846.182985,-7179.997637,1225.752797
1387.283002,7920.203579,-5921.647536,766.095498
1387.283331,6587.832884,-7254.018232,383.047749
1387.283661,5773.606348,-7476.080014,689.485948
1387.283990,6069.688724,-7476.080014,229.828649
1387.284319,7105.977043,-5995.668130,1225.752797
1387.284648,7994.224174,-4959.379811,2145.067394
1387.284977,8068.244768,-5329.482782,1378.971896
1387.285306,7402.059420,-6365.771101,689.485948
1387.285635,7476.080014,-6587.832884,1455.581446
1387.285965,7624.121203,-5403.503377,1685.410096
1387.286294,6809.894666,-5329.482782,229.828649
1387.286623,5847.626942,-6957.935855,0.000000
1387.286952,6365.771101,-6883.915261,-229.828649
1387.287281,7624.121203,-6439.791695,0.000000
1387.287610,8586.388927,-6587.832884,766.095498
1387.287939,8586.388927,-6291.750507,1225.752797
1387.288268,8216.285956,-6883.915261,842.705048
1387.288598,8586.388927,-6957.935855,1762.019645
1387.288927,7846.182985,-5995.668130,1838.629195
1387.289256,7550.100608,-5699.585753,919.314598
1387.289585,5477.523971,-6883.915261,0.000000
1387.289914,4219.173869,-7698.141797,-153.219100
1387.290243,5329.482782,-7105.977043,995.924147
1387.290572,6883.915261,-6217.729913,919.314598
1387.290902,7772.162391,-5773.606348,1991.848295
1387.291231,7624.121203,-6513.812290,1762.019645
1387.291560,7772.162391,-6883.915261,995.924147
1387.291889,8216.285956,-5329.482782,1072.533697
1387.292218,7328.038826,-5181.441594,1225.752797
1387.292547,6143.709319,-6661.853478,459.657299
1387.292876,4737.318029,-6735.874072,0.000000
1387.293206,4885.359217,-7031.956449,-536.266849
1387.293535,7550.100608,-6587.832884,1149.143247
1387.293864,8586.388927,-5773.606348,2451.505594
1387.294193,7920.203579,-6735.874072,1378.971896
1387.294522,6143.709319,-7179.997637,842.705048
1387.294851,6735.874072,-7105.977043,1072.533697
1387.295180,7476.080014,-6143.709319,689.485948
1387.295510,6957.935855,-7179.997637,1532.190996
1387.295839,5773.606348,-8216.285956,1608.800546
1387.296168,5773.606348,-7179.997637,766.095498
1387.296497,6661.853478,-7105.977043,1072.533697
1387.296826,6809.894666,-6143.709319,2374.896044
1387.297155,7328.038826,-5699.585753,1532.190996
1387.297484,6661.853478,-6069.688724,1149.143247
1387.297814,6143.709319,-6069.688724,306.438199
1387.298143,7254.018232,-5773.606348,995.924147
1387.298472,7624.121203,-5477.523971,1532.190996
1387.298801,6809.894666,-7624.121203,689.485948
1387.299130,6069.688724,-8364.327145,766.095498
1387.299459,7031.956449,-6809.894666,0.000000
1387.299788,7920.203579,-6069.688724,0.000000
1387.300118,8142.265362,-5699.585753,995.924147
1387.300447,8216.285956,-6513.812290,459.657299
1387.300776,7846.182985,-7105.977043,459.657299
1387.301105,8142.265362,-7105.977043,1685.410096
1387.301434,8364.327145,-6661.853478,2451.505594
1387.301763,7624.121203,-7476.080014,2451.505594
1387.302092,5551.544565,-7105.977043,842.705048
1387.302422,5033.400406,-6365.771101,-459.657299
1387.302755,6513.812290,-5995.668130,306.438199
1387.303084,7994.224174,-4959.379811,2298.286494
1387.303413,7624.121203,-5551.544565,2221.676944
1387.303742,7254.018232,-5551.544565,1225.752797
1387.304071,7105.977043,-5329.482782,2068.457845
1387.304400,7328.038826,-6365.771101,1532.190996
1387.304730,7105.977043,-7254.018232,2068.457845
1387.305059,5403.503377,-6883.915261,383.047749
1387.305388,4885.359217,-7254.018232,-689.485948
1387.305717,5995.668130,-6439.791695,-689.485948
1387.306046,7476.080014,-6957.935855,1072.533697
1387.306375,8068.244768,-6735.874072,1378.971896
1387.306704,7105.977043,-6365.771101,153.219100
1387.307034,6735.874072,-7105.977043,766.095498
1387.307363,7698.141797,-6513.812290,1762.019645
1387.307692,8512.368333,-6069.688724,1455.581446
1387.308021,7402.059420,-7994.224174,2451.505594
1387.308350,6439.791695,-7846.182985,1302.362347
1387.308679,6143.709319,-6069.688724,766.095498
1387.309009,6883.915261,-5181.441594,1378.971896
1387.309338,7254.018232,-4737.318029,1378.971896
1387.309667,6439.791695,-5699.585753,995.924147
1387.309996,5995.668130,-6661.853478,383.047749
1387.310325,5699.585753,-6217.729913,612.876398
1387.310654,7105.977043,-6217.729913,919.314598
1387.310984,7105.977043,-7920.203579,995.924147
1387.311313,5847.626942,-8734.430116,306.438199
1387.311642,6513.812290,-9030.512492,-229.828649
1387.311971,7254.018232,-7254.018232,-153.219100
1387.312300,8142.265362,-6291.750507,536.266849
1387.312629,8142.265362,-6587.832884,612.876398
1387.312959,7105.977043,-6513.812290,229.828649
1387.313288,7179.997637,-7179.997637,612.876398
1387.313617,7698.141797,-6587.832884,1455.581446
1387.313946,8142.265362,-7105.977043,1838.629195
1387.314275,6809.894666,-8142.265362,1455.581446
1387.314604,5847.626942,-7328.038826,612.876398
1387.314934,6069.688724,-6661.853478,229.828649
1387.315263,6957.935855,-4959.379811,842.705048
1387.315592,7328.038826,-4367.215058,995.924147
1387.315921,7254.018232,-5329.482782,842.705048
1387.316250,7698.141797,-5403.503377,1225.752797
1387.316579,8068.244768,-5551.544565,1532.190996
1387.316909,7624.121203,-5847.626942,1762.019645
1387.317238,6661.853478,-7550.100608,1455.581446
1387.317567,5625.565159,-8216.285956,0.000000
1387.317896,5329.482782,-7698.141797,76.609550
1387.318225,6957.935855,-6587.832884,1302.362347
1387.318554,7179.997637,-4811.338623,919.314598
1387.318884,6809.894666,-5921.647536,766.095498
1387.319213,6513.812290,-6957.935855,229.828649
1387.319542,7179.997637,-6143.709319,842.705048
1387.319871,7994.224174,-6365.771101,1762.019645
1387.320200,7698.141797,-7328.038826,2451.505594
1387.320529,6661.853478,-7476.080014,2604.724693
1387.320859,6735.874072,-7772.162391,689.485948
1387.321188,6217.729913,-6217.729913,842.705048
1387.321517,6957.935855,-4959.379811,1455.581446
1387.321846,7328.038826,-5995.668130,1072.533697
1387.322175,7031.956449,-5995.668130,1915.238745
1387.322504,7105.977043,-6587.832884,1378.971896
1387.322833,7846.182985,-6217.729913,1915.238745
1387.323163,7698.141797,-6809.894666,2221.676944
1387.323492,6143.709319,-7624.121203,1532.190996
1387.323821,4959.379811,-6661.853478,0.000000
1387.324150,6143.709319,-6661.853478,-76.609550
1387.324479,8068.244768,-6143.709319,766.095498
1387.324808,7920.203579,-6217.729913,1302.362347
1387.325138,7031.956449,-7254.018232,842.705048
1387.325467,6735.874072,-7476.080014,919.314598
1387.325796,7402.059420,-7328.038826,1532.190996
1387.326125,7402.059420,-7402.059420,1685.410096
1387.326454,5995.668130,-8142.265362,1149.143247
1387.326783,5255.462188,-7920.203579,536.266849
1387.327113,5551.544565,-7920.203579,229.828649
1387.327442,6883.915261,-6217.729913,1225.752797
1387.327771,8216.285956,-4663.297435,2451.505594
1387.328100,7402.059420,-5403.503377,1838.629195
1387.328429,7254.018232,-6069.688724,1762.019645
1387.328758,7179.997637,-6513.812290,1838.629195
1387.329088,7772.162391,-6143.709319,1455.581446
1387.329417,6809.894666,-5699.585753,1225.752797
1387.329746,5773.606348,-7254.018232,0.000000
1387.330075,5625.565159,-8142.265362,0.000000
1387.330404,7031.956449,-6809.894666,842.705048
1387.330733,7179.997637,-5477.523971,842.705048
1387.331063,7624.121203,-6143.709319,1685.410096
1387.331392,7179.997637,-6957.935855,1302.362347
1387.331721,7105.977043,-7402.059420,995.924147
1387.332050,7328.038826,-6439.791695,1608.800546
1387.332379,7698.141797,-6439.791695,2528.115143
1387.332708,7031.956449,-7698.141797,1378.971896
1387.333038,6365.771101,-7105.977043,1455.581446
1387.333367,5921.647536,-6291.750507,1685.410096
1387.333696,6439.791695,-5181.441594,919.314598
1387.334025,6809.894666,-4885.359217,1072.533697
1387.334354,6809.894666,-6143.709319,1378.971896
1387.334683,7031.956449,-6365.771101,229.828649
1387.335013,7550.100608,-5773.606348,1378.971896
1387.335342,7624.121203,-5477.523971,1149.143247
1387.335671,6809.894666,-6735.874072,842.705048
1387.336000,6217.729913,-8216.285956,306.438199
1387.336329,6069.688724,-8586.388927,-306.438199
1387.336658,7105.977043,-6513.812290,459.657299
1387.336988,7698.141797,-5625.565159,1149.143247
1387.337317,8068.244768,-6957.935855,1762.019645
1387.337646,7550.100608,-6661.853478,1225.752797
1387.337975,7550.100608,-6957.935855,1838.629195
1387.338304,8142.265362,-5699.585753,1838.629195
1387.338633,7476.080014,-5625.565159,1915.238745
1387.338962,5403.503377,-7328.038826,995.924147
1387.339292,5181.441594,-7846.182985,459.657299
1387.339621,6069.688724,-6735.874072,995.924147
1387.339950,7105.977043,-5699.585753,1455.581446
1387.340279,7328.038826,-6069.688724,1378.971896
1387.340608,6809.894666,-6513.812290,1532.190996
1387.340937,6957.935855,-6957.935855,383.047749
1387.341267,6587.832884,-6365.771101,1072.533697
1387.341596,6957.935855,-6587.832884,1149.143247
1387.341925,6217.729913,-7402.059420,842.705048
1387.342254,5625.565159,-7846.182985,612.876398
1387.342583,6587.832884,-6957.935855,536.266849
1387.342912,7920.203579,-5699.585753,919.314598
1387.343242,7920.203579,-4959.379811,612.876398
1387.343571,6291.750507,-6439.791695,612.876398
1387.343900,6439.791695,-6587.832884,306.438199
1387.344229,7698.141797,-5773.606348,919.314598
1387.344558,7994.224174,-6143.709319,1302.362347
1387.344887,7624.121203,-7031.956449,1455.581446
1387.345217,6217.729913,-7994.224174,1302.362347
1387.345546,6365.771101,-7328.038826,383.047749
1387.345875,7031.956449,-5847.626942,1072.533697
1387.346204,7476.080014,-5033.400406,1991.848295
1387.346533,7476.080014,-5699.585753,2145.067394
1387.346862,6365.771101,-5921.647536,1225.752797
1387.347192,6513.812290,-5403.503377,383.047749
1387.347521,7105.977043,-5033.400406,612.876398
