#time,accel_x,accel_y,accel_z
1462.137935,7179.997637,-6143.709319,919.314598
1462.138265,6661.853478,-6217.729913,766.095498
1462.138595,6513.812290,-6439.791695,1072.533697
1462.138925,6883.915261,-6217.729913,1302.362347
1462.139256,7031.956449,-6661.853478,995.924147
1462.139586,7031.956449,-6439.791695,1149.143247
1462.139916,7031.956449,-6661.853478,1072.533697
1462.140246,7402.059420,-6957.935855,1532.190996
1462.140577,6735.874072,-6883.915261,995.924147
1462.140907,6661.853478,-6883.915261,842.705048
1462.141237,6661.853478,-6883.915261,995.924147
1462.141567,6439.791695,-6883.915261,612.876398
1462.141898,7328.038826,-6957.935855,842.705048
1462.142228,6883.915261,-6365.771101,1225.752797
1462.142558,6809.894666,-6587.832884,919.314598
1462.142888,6883.915261,-6587.832884,919.314598
1462.143218,6735.874072,-6439.791695,1225.752797
1462.143549,7031.956449,-7031.956449,1149.143247
1462.143879,7105.977043,-6513.812290,689.485948
1462.144209,7328.038826,-6217.729913,1072.533697
1462.144539,7254.018232,-6661.853478,1302.362347
1462.144870,6957.935855,-6365.771101,1149.143247
1462.145200,6661.853478,-6735.874072,1149.143247
1462.145530,6735.874072,-6587.832884,842.705048
1462.145860,6735.874072,-6291.750507,842.705048
1462.146191,6587.832884,-6661.853478,1072.533697
1462.146521,6809.894666,-6587.832884,1149.143247
1462.146851,6587.832884,-6883.915261,1149.143247
1462.147181,6735.874072,-6661.853478,1149.143247
1462.147512,6513.812290,-6661.853478,842.705048
1462.147842,6809.894666,-6069.688724,995.924147
1462.148172,7031.956449,-7031.956449,919.314598
1462.148502,6809.894666,-6809.894666,995.924147
1462.148833,6957.935855,-6883.915261,919.314598
1462.149163,6883.915261,-7179.997637,1072.533697
1462.149493,7105.977043,-6291.750507,1302.362347
1462.149823,7105.977043,-6291.750507,995.924147
1462.150153,7105.977043,-6661.853478,919.314598
1462.150484,7254.018232,-6439.791695,995.924147
1462.150814,7105.977043,-6439.791695,1149.143247
1462.151144,7031.956449,-6661.853478,1072.533697
1462.151474,7179.997637,-5699.585753,919.314598
1462.151805,7476.080014,-5995.668130,1225.752797
1462.152135,7179.997637,-6439.791695,995.924147
1462.152465,7328.038826,-6217.729913,766.095498
1462.152795,7254.018232,-6143.709319,995.924147
1462.153126,7105.977043,-6291.750507,919.314598
1462.153456,6957.935855,-6217.729913,842.705048
1462.153786,6365.771101,-6439.791695,1225.752797
1462.154116,7179.997637,-6587.832884,1225.752797
1462.154447,6883.915261,-6661.853478,1225.752797
1462.154777,6661.853478,-6883.915261,1149.143247
1462.155107,6661.853478,-7179.997637,1378.971896
1462.155437,7105.977043,-6439.791695,1378.971896
1462.155767,6587.832884,-6883.915261,1149.143247
1462.156098,6513.812290,-6883.915261,766.095498
1462.156428,6661.853478,-6735.874072,689.485948
1462.156758,7254.018232,-7105.977043,1072.533697
1462.157088,7550.100608,-6513.812290,919.314598
1462.157419,7179.997637,-6883.915261,919.314598
1462.157749,7328.038826,-6513.812290,1378.971896
1462.158079,6883.915261,-7031.956449,919.314598
1462.158409,6809.894666,-6513.812290,919.314598
1462.158740,6439.791695,-5921.647536,1149.143247
1462.159070,7105.977043,-6217.729913,995.924147
1462.159400,7105.977043,-6217.729913,1072.533697
1462.159730,6735.874072,-6735.874072,1532.190996
1462.160061,6735.874072,-6365.771101,1302.362347
1462.160391,7105.977043,-6439.791695,842.705048
1462.160721,6661.853478,-6587.832884,1149.143247
1462.161051,6291.750507,-6735.874072,995.924147
1462.161381,7031.956449,-6957.935855,1149.143247
1462.161712,6513.812290,-6587.832884,1225.752797
1462.162042,6809.894666,-6587.832884,1149.143247
1462.162372,6809.894666,-6661.853478,612.876398
1462.162702,6661.853478,-6809.894666,1225.752797
1462.163033,6735.874072,-6587.832884,1378.971896
1462.163363,6883.915261,-6661.853478,1225.752797
1462.163693,6883.915261,-6735.874072,842.705048
1462.164023,7031.956449,-6735.874072,612.876398
1462.164354,7402.059420,-6809.894666,1302.362347
1462.164684,7402.059420,-5995.668130,1378.971896
1462.165014,7550.100608,-6513.812290,1225.752797
1462.165344,7105.977043,-6217.729913,1149.143247
1462.165675,7254.018232,-6957.935855,919.314598
1462.166005,6735.874072,-6069.688724,1455.581446
1462.166335,7105.977043,-6439.791695,1072.533697
1462.166665,7254.018232,-6513.812290,1072.533697
1462.166995,7105.977043,-5921.647536,842.705048
1462.167326,7031.956449,-6143.709319,1072.533697
1462.167656,7254.018232,-5477.523971,766.095498
1462.167986,7328.038826,-6217.729913,995.924147
1462.168316,7031.956449,-5995.668130,1302.362347
1462.168647,6957.935855,-6513.812290,1072.533697
1462.168977,6883.915261,-6439.791695,919.314598
1462.169307,6883.915261,-6661.853478,1302.362347
1462.169637,6883.915261,-6661.853478,1302.362347
1462.169968,6513.812290,-6883.915261,1225.752797
1462.170298,6661.853478,-6883.915261,1072.533697
1462.170628,6809.894666,-6587.832884,459.657299
1462.170958,6513.812290,-6587.832884,1149.143247
1462.171289,6513.812290,-7105.977043,536.266849
1462.171619,7105.977043,-6661.853478,1072.533697
1462.171949,7254.018232,-6217.729913,995.924147
1462.172279,7402.059420,-6661.853478,995.924147
1462.172610,7105.977043,-6587.832884,995.924147
1462.172940,7105.977043,-6735.874072,842.705048
1462.173270,7105.977043,-6957.935855,919.314598
1462.173600,6957.935855,-5995.668130,1455.581446
1462.173930,7624.121203,-6735.874072,1149.143247
1462.174261,7105.977043,-6661.853478,1455.581446
1462.174591,6735.874072,-6661.853478,1149.143247
1462.174921,7105.977043,-6291.750507,919.314598
1462.175251,7105.977043,-6587.832884,1225.752797
1462.175582,6587.832884,-6217.729913,1072.533697
1462.175912,6513.812290,-6365.771101,995.924147
1462.176242,6513.812290,-6883.915261,1302.362347
1462.176572,6587.832884,-6291.750507,1072.533697
1462.176903,7179.997637,-6957.935855,1149.143247
1462.177233,7105.977043,-6291.750507,919.314598
1462.177563,7031.956449,-6735.874072,919.314598
1462.177893,6957.935855,-6809.894666,1072.533697
1462.178224,6883.915261,-6661.853478,1149.143247
1462.178554,6957.935855,-6883.915261,689.485948
1462.178884,7105.977043,-6883.915261,766.095498
1462.179214,7105.977043,-6513.812290,1149.143247
1462.179544,7105.977043,-6661.853478,995.924147
1462.179875,7254.018232,-6587.832884,1455.581446
1462.180205,7179.997637,-6291.750507,1072.533697
1462.180535,7254.018232,-6513.812290,919.314598
1462.180865,7179.997637,-5847.626942,842.705048
1462.181196,7105.977043,-5625.565159,1302.362347
1462.181526,7476.080014,-5921.647536,612.876398
1462.181856,7624.121203,-6069.688724,1149.143247
1462.182186,7179.997637,-6365.771101,1072.533697
1462.182517,7476.080014,-6217.729913,1072.533697
1462.182847,6809.894666,-6143.709319,1225.752797
1462.183177,6439.791695,-6513.812290,689.485948
1462.183507,6661.853478,-6661.853478,612.876398
1462.183838,6883.915261,-6809.894666,1225.752797
1462.184168,6809.894666,-7105.977043,1149.143247
1462.184498,7254.018232,-6957.935855,536.266849
1462.184828,6735.874072,-6587.832884,1225.752797
1462.185158,6735.874072,-6809.894666,842.705048
1462.185489,6809.894666,-6661.853478,766.095498
1462.185819,6439.791695,-6439.791695,1455.581446
1462.186149,6735.874072,-7031.956449,842.705048
1462.186479,7105.977043,-6587.832884,1455.581446
1462.186810,7254.018232,-6735.874072,1532.190996
1462.187140,7105.977043,-7105.977043,1072.533697
1462.187470,7105.977043,-6365.771101,1378.971896
1462.187800,6661.853478,-7179.997637,995.924147
1462.188131,6587.832884,-6439.791695,919.314598
1462.188461,7105.977043,-6069.688724,1378.971896
1462.188791,7031.956449,-6217.729913,689.485948
1462.189121,7179.997637,-6291.750507,1149.143247
1462.189452,7105.977043,-6587.832884,1302.362347
1462.189782,7179.997637,-6291.750507,536.266849
1462.190112,6809.894666,-6217.729913,1225.752797
1462.190442,7105.977043,-6513.812290,1378.971896
1462.190773,6735.874072,-6661.853478,612.876398
1462.191103,6957.935855,-6883.915261,1302.362347
1462.191433,6957.935855,-6809.894666,1149.143247
1462.191763,6365.771101,-6957.935855,766.095498
1462.192093,6809.894666,-6513.812290,1302.362347
1462.192424,6661.853478,-6735.874072,995.924147
1462.192754,6587.832884,-6883.915261,689.485948
1462.193084,6735.874072,-6513.812290,689.485948
1462.193414,6809.894666,-7179.997637,766.095498
1462.193745,7105.977043,-6809.894666,1072.533697
1462.194075,7328.038826,-6291.750507,1149.143247
1462.194405,6957.935855,-6587.832884,995.924147
1462.194735,7179.997637,-6291.750507,1378.971896
1462.195066,7920.203579,-6883.915261,536.266849
1462.195396,7254.018232,-6735.874072,842.705048
1462.195726,7179.997637,-6217.729913,306.438199
1462.196056,7328.038826,-6291.750507,842.705048
1462.196387,7402.059420,-5921.647536,995.924147
1462.196717,7105.977043,-5921.647536,1072.533697
1462.197047,7105.977043,-5847.626942,995.924147
1462.197377,7105.977043,-6143.709319,1225.752797
1462.197707,7105.977043,-6069.688724,1608.800546
1462.198038,6513.812290,-6217.729913,1072.533697
1462.198368,6735.874072,-6809.894666,919.314598
1462.198698,6661.853478,-6587.832884,1072.533697
1462.199028,6735.874072,-6587.832884,1072.533697
1462.199359,6957.935855,-6661.853478,1302.362347
1462.199689,6809.894666,-6587.832884,995.924147
1462.200019,6809.894666,-6957.935855,1149.143247
1462.200349,6439.791695,-7254.018232,919.314598
1462.200680,6513.812290,-6883.915261,1149.143247
1462.201010,7328.038826,-6809.894666,536.266849
1462.201340,7254.018232,-6365.771101,1378.971896
1462.201670,7254.018232,-6291.750507,1149.143247
1462.202001,7328.038826,-6587.832884,1302.362347
1462.202331,7105.977043,-6587.832884,1072.533697
1462.202661,7105.977043,-6883.915261,1149.143247
1462.202991,6883.915261,-6883.915261,919.314598
1462.203321,6883.915261,-6513.812290,1149.143247
1462.203652,6957.935855,-6513.812290,995.924147
1462.203982,7328.038826,-6291.750507,1302.362347
1462.204312,7031.956449,-6513.812290,1378.971896
1462.204642,7179.997637,-6661.853478,1072.533697
1462.204973,6661.853478,-6365.771101,919.314598
1462.205303,6587.832884,-6439.791695,842.705048
1462.205633,6957.935855,-6439.791695,612.876398
1462.205963,6735.874072,-6957.935855,1225.752797
1462.206294,6883.915261,-6809.894666,1149.143247
1462.206624,7105.977043,-6735.874072,995.924147
1462.206954,6883.915261,-6809.894666,1302.362347
1462.207284,6809.894666,-6809.894666,383.047749
1462.207615,6735.874072,-7105.977043,536.266849
1462.207945,6587.832884,-7550.100608,919.314598
1462.208275,6809.894666,-6809.894666,766.095498
1462.208605,7105.977043,-6291.750507,1838.629195
1462.208934,7105.977043,-6291.750507,1225.752797
1462.209264,7328.038826,-6365.771101,995.924147
1462.209593,7105.977043,-6069.688724,1072.533697
1462.209923,7105.977043,-6365.771101,995.924147
1462.210253,7105.977043,-6217.729913,1302.362347
1462.210582,7031.956449,-5773.606348,766.095498
1462.210912,7254.018232,-5995.668130,1072.533697
1462.211241,7624.121203,-6291.750507,1149.143247
1462.211571,7624.121203,-6513.812290,1455.581446
1462.211900,7254.018232,-6217.729913,842.705048
1462.212230,6661.853478,-6735.874072,1149.143247
1462.212560,6661.853478,-6513.812290,842.705048
1462.212889,6513.812290,-6957.935855,919.314598
1462.213219,6957.935855,-6883.915261,842.705048
1462.213548,7031.956449,-6291.750507,919.314598
1462.213878,6439.791695,-6365.771101,995.924147
1462.214208,6809.894666,-6439.791695,1302.362347
1462.214537,6957.935855,-6291.750507,1608.800546
1462.214867,6809.894666,-6957.935855,766.095498
1462.215196,6513.812290,-6661.853478,842.705048
1462.215526,6513.812290,-7254.018232,766.095498
1462.215855,6883.915261,-7254.018232,1149.143247
1462.216185,7031.956449,-6661.853478,1302.362347
1462.216515,7105.977043,-6957.935855,919.314598
1462.216844,7105.977043,-6661.853478,842.705048
1462.217174,6883.915261,-6957.935855,766.095498
1462.217503,6661.853478,-6809.894666,919.314598
1462.217833,7031.956449,-6217.729913,229.828649
1462.218163,7179.997637,-5921.647536,1149.143247
1462.218492,7254.018232,-6291.750507,1302.362347
1462.218822,7031.956449,-6513.812290,1225.752797
1462.219151,7031.956449,-5921.647536,766.095498
1462.219481,7031.956449,-6587.832884,995.924147
1462.219810,6513.812290,-7105.977043,1149.143247
1462.220140,6735.874072,-6439.791695,612.876398
1462.220470,6809.894666,-7105.977043,1072.533697
1462.220799,6809.894666,-6513.812290,2068.457845
1462.221129,7105.977043,-6587.832884,995.924147
1462.221458,7105.977043,-6883.915261,995.924147
1462.221788,6809.894666,-6365.771101,689.485948
1462.222118,7105.977043,-7031.956449,689.485948
1462.222447,6957.935855,-7031.956449,1302.362347
1462.222777,6735.874072,-7031.956449,995.924147
1462.223106,7031.956449,-7031.956449,842.705048
1462.223436,7105.977043,-6587.832884,995.924147
1462.223766,7624.121203,-6513.812290,1915.238745
1462.224095,7402.059420,-6587.832884,1225.752797
1462.224425,7402.059420,-6513.812290,1072.533697
1462.224754,7105.977043,-6217.729913,536.266849
1462.225084,7698.141797,-6513.812290,689.485948
1462.225413,7476.080014,-5995.668130,1072.533697
1462.225743,7254.018232,-6143.709319,919.314598
1462.226073,7254.018232,-6439.791695,1072.533697
1462.226402,6957.935855,-6587.832884,1378.971896
1462.226732,7031.956449,-6291.750507,919.314598
1462.227061,6735.874072,-6291.750507,842.705048
1462.227391,6217.729913,-6291.750507,1072.533697
1462.227721,6661.853478,-6513.812290,612.876398
1462.228050,6735.874072,-6513.812290,1072.533697
1462.228380,6735.874072,-6883.915261,995.924147
1462.228709,6957.935855,-6513.812290,995.924147
1462.229039,6809.894666,-6735.874072,1225.752797
1462.229368,6513.812290,-6661.853478,1149.143247
1462.229698,6883.915261,-6587.832884,689.485948
1462.230028,6883.915261,-6735.874072,842.705048
1462.230357,6735.874072,-6957.935855,919.314598
1462.230687,7105.977043,-6883.915261,919.314598
1462.231016,7105.977043,-6809.894666,1685.410096
1462.231346,7179.997637,-6513.812290,1302.362347
1462.231676,7179.997637,-6513.812290,919.314598
1462.232005,6735.874072,-6809.894666,1149.143247
1462.232335,6957.935855,-6661.853478,919.314598
1462.232664,7476.080014,-6513.812290,995.924147
1462.232994,6809.894666,-6217.729913,1072.533697
1462.233323,6735.874072,-5921.647536,1149.143247
1462.233653,7105.977043,-6587.832884,1302.362347
1462.233983,6957.935855,-6883.915261,766.095498
1462.234312,7179.997637,-6587.832884,995.924147
1462.234642,6883.915261,-6587.832884,919.314598
1462.234971,6661.853478,-6735.874072,766.095498
1462.235301,6735.874072,-6883.915261,995.924147
1462.235631,7031.956449,-6735.874072,1149.143247
1462.235960,7031.956449,-6439.791695,842.705048
1462.236290,7105.977043,-6513.812290,1072.533697
1462.236619,6883.915261,-6661.853478,1149.143247
1462.236949,6809.894666,-6809.894666,689.485948
1462.237278,7105.977043,-6957.935855,995.924147
1462.237608,7031.956449,-6809.894666,766.095498
1462.237938,7179.997637,-6957.935855,689.485948
1462.238267,7105.977043,-6365.771101,1302.362347
1462.238597,7254.018232,-6587.832884,1072.533697
1462.238926,7402.059420,-5995.668130,842.705048
1462.239256,6957.935855,-6291.750507,842.705048
1462.239586,6809.894666,-6439.791695,919.314598
1462.239915,7179.997637,-6143.709319,842.705048
1462.240245,7328.038826,-6217.729913,1302.362347
1462.240574,7476.080014,-6143.709319,1072.533697
1462.240904,7328.038826,-6291.750507,1072.533697
1462.241234,7105.977043,-6365.771101,1225.752797
1462.241563,7105.977043,-6217.729913,1072.533697
1462.241893,6513.812290,-6291.750507,1072.533697
1462.242222,6439.791695,-6513.812290,766.095498
1462.242552,6809.894666,-6957.935855,919.314598
1462.242881,7031.956449,-7105.977043,1072.533697
1462.243211,6957.935855,-6661.853478,1302.362347
1462.243541,6661.853478,-6661.853478,1072.533697
1462.243870,7031.956449,-7031.956449,1225.752797
1462.244200,6735.874072,-6809.894666,1149.143247
1462.244529,6587.832884,-6957.935855,995.924147
1462.244859,6513.812290,-6883.915261,536.266849
1462.245189,6661.853478,-7179.997637,919.314598
1462.245518,6809.894666,-6957.935855,1149.143247
1462.245848,6957.935855,-5995.668130,842.705048
1462.246177,7105.977043,-6735.874072,536.266849
1462.246507,7179.997637,-6735.874072,995.924147
1462.246836,6809.894666,-7031.956449,459.657299
1462.247166,6957.935855,-6809.894666,995.924147
1462.247496,7105.977043,-6217.729913,1225.752797
1462.247825,7105.977043,-5921.647536,842.705048
1462.248155,7254.018232,-6439.791695,1149.143247
1462.248484,7105.977043,-6661.853478,1532.190996
1462.248814,7105.977043,-6365.771101,1072.533697
1462.249144,6735.874072,-6143.709319,842.705048
1462.249473,6661.853478,-6365.771101,995.924147
1462.249803,6587.832884,-6809.894666,919.314598
1462.250132,6883.915261,-6735.874072,1225.752797
1462.250462,6883.915261,-6661.853478,1532.190996
1462.250791,6883.915261,-6291.750507,842.705048
1462.251121,7624.121203,-6439.791695,1378.971896
1462.251451,7624.121203,-5477.523971,919.314598
1462.251780,7698.141797,-5625.565159,689.485948
1462.252110,7994.224174,-5625.565159,1302.362347
1462.252439,8364.327145,-6069.688724,1685.410096
1462.252769,8142.265362,-6291.750507,229.828649
1462.253099,6809.894666,-6883.915261,612.876398
1462.253428,6069.688724,-7179.997637,153.219100
1462.253758,6809.894666,-6439.791695,76.609550
1462.254087,7920.203579,-6291.750507,536.266849
1462.254417,7994.224174,-6365.771101,995.924147
1462.254747,8512.368333,-5107.421000,1455.581446
1462.255076,8734.430116,-3775.050304,995.924147
1462.255406,8882.471304,-4589.276840,1378.971896
1462.255735,8586.388927,-4219.173869,1455.581446
1462.256065,9030.512492,-4219.173869,1685.410096
1462.256394,8956.491898,-4589.276840,1225.752797
1462.256724,8142.265362,-4589.276840,842.705048
1462.257054,7846.182985,-6143.709319,383.047749
1462.257383,7624.121203,-5033.400406,76.609550
1462.257713,7994.224174,-5625.565159,612.876398
1462.258042,8438.347739,-6587.832884,1072.533697
1462.258372,8142.265362,-5773.606348,919.314598
1462.258702,8142.265362,-5995.668130,612.876398
1462.259031,7402.059420,-5329.482782,1072.533697
1462.259361,7550.100608,-5403.503377,689.485948
1462.259690,8364.327145,-4293.194464,842.705048
1462.260020,9178.553681,-4367.215058,995.924147
1462.260349,9400.615463,-4219.173869,1302.362347
1462.260679,9548.656652,-3182.885551,1532.190996
1462.261009,9548.656652,-3701.029710,1149.143247
1462.261338,9770.718434,-3330.926739,1072.533697
1462.261668,9844.739029,-3256.906145,1149.143247
1462.261997,9474.636058,-3997.112087,1455.581446
1462.262327,9548.656652,-3701.029710,1149.143247
1462.262657,9622.677246,-4441.235652,1302.362347
1462.262986,9696.697840,-4441.235652,1302.362347
1462.263316,9252.574275,-5773.606348,1149.143247
1462.263645,8586.388927,-5699.585753,1532.190996
1462.263975,8068.244768,-5255.462188,612.876398
1462.264304,7624.121203,-5477.523971,766.095498
1462.264634,7179.997637,-4515.256246,1072.533697
1462.264964,7846.182985,-5551.544565,1302.362347
1462.265293,8882.471304,-4071.132681,1532.190996
1462.265623,9030.512492,-3849.070898,1455.581446
1462.265952,8808.450710,-3849.070898,1072.533697
1462.266282,9104.533087,-2886.803174,459.657299
1462.266612,9474.636058,-4515.256246,536.266849
1462.266941,9178.553681,-4367.215058,536.266849
1462.267271,8882.471304,-5699.585753,153.219100
1462.267600,9474.636058,-5477.523971,1149.143247
1462.267930,9030.512492,-4737.318029,459.657299
1462.268259,8660.409521,-5551.544565,0.000000
1462.268589,9030.512492,-5329.482782,536.266849
1462.268919,8808.450710,-5995.668130,995.924147
1462.269248,8882.471304,-5107.421000,1225.752797
1462.269578,8586.388927,-3775.050304,1149.143247
1462.269907,9178.553681,-3923.091493,1762.019645
1462.270237,9696.697840,-3108.864956,2451.505594
1462.270567,9918.759623,-2812.782580,2911.162892
1462.270896,10140.821405,-2442.679609,1991.848295
1462.271226,10214.842000,-2368.659014,1455.581446
1462.271555,9548.656652,-3034.844362,919.314598
1462.271885,8956.491898,-3182.885551,459.657299
1462.272215,8586.388927,-4441.235652,229.828649
1462.272544,8808.450710,-5033.400406,-229.828649
1462.272874,8438.347739,-5329.482782,-612.876398
1462.273203,8438.347739,-6587.832884,-153.219100
1462.273533,8512.368333,-6883.915261,995.924147
1462.273862,8216.285956,-7624.121203,842.705048
1462.274192,7846.182985,-6587.832884,919.314598
1462.274522,7772.162391,-6069.688724,1762.019645
1462.274851,8660.409521,-5477.523971,1915.238745
1462.275181,9696.697840,-4219.173869,2987.772442
1462.275510,9918.759623,-3034.844362,2604.724693
1462.275840,10288.862594,-1850.514855,1991.848295
1462.276170,10288.862594,-962.267725,1378.971896
1462.276499,10288.862594,-1110.308913,919.314598
1462.276829,10732.986159,-1554.432478,0.000000
1462.277158,9992.780217,-1924.535449,-383.047749
1462.277488,10140.821405,-3404.947333,0.000000
1462.277817,9992.780217,-4811.338623,153.219100
1462.278147,9252.574275,-6217.729913,1072.533697
1462.278477,9030.512492,-7105.977043,842.705048
1462.278806,7550.100608,-8290.306550,766.095498
1462.279136,6661.853478,-8586.388927,1149.143247
1462.279465,5773.606348,-8364.327145,229.828649
1462.279795,5847.626942,-7328.038826,153.219100
1462.280125,6587.832884,-5255.462188,842.705048
1462.280454,7994.224174,-4441.235652,1225.752797
1462.280784,9178.553681,-3108.864956,2145.067394
1462.281113,9770.718434,-1480.411884,1991.848295
1462.281443,10214.842000,-888.247130,1685.410096
1462.281772,10584.944971,222.061783,919.314598
1462.282102,11325.150913,-1702.473667,536.266849
1462.282432,11769.274478,-962.267725,1302.362347
1462.282761,12213.398043,-888.247130,1455.581446
1462.283091,12213.398043,-2886.803174,919.314598
1462.283420,11251.130318,-2590.720797,2068.457845
1462.283750,9548.656652,-6809.894666,1608.800546
1462.284080,8512.368333,-7846.182985,1608.800546
1462.284409,6143.709319,-8364.327145,842.705048
1462.284739,3775.050304,-8956.491898,-536.266849
1462.285068,2812.782580,-8586.388927,-1072.533697
1462.285398,3775.050304,-8364.327145,-919.314598
1462.285727,6883.915261,-6883.915261,459.657299
1462.286057,8956.491898,-5625.565159,1149.143247
1462.286387,10807.006753,-3182.885551,2145.067394
1462.286716,11251.130318,-1776.494261,1915.238745
1462.287046,11547.212695,-1924.535449,1762.019645
1462.287375,11325.150913,1110.308913,1915.238745
1462.287705,11473.192101,-222.061783,612.876398
1462.288035,11769.274478,-1924.535449,1225.752797
1462.288364,12509.480420,-1258.350101,2604.724693
1462.288694,12805.562797,-4663.297435,3217.601092
1462.289023,11621.233289,-3478.967927,2298.286494
1462.289353,7846.182985,-5477.523971,1532.190996
1462.289683,6143.709319,-6957.935855,153.219100
1462.290012,4367.215058,-7179.997637,-76.609550
1462.290342,4145.153275,-8364.327145,-1532.190996
1462.290671,4071.132681,-7402.059420,-1149.143247
1462.291001,5551.544565,-5847.626942,-306.438199
1462.291330,8956.491898,-4515.256246,-229.828649
1462.291660,11473.192101,-3108.864956,689.485948
1462.291990,13323.706956,-3182.885551,2604.724693
1462.292319,13397.727550,-1184.329507,2528.115143
1462.292649,12361.439231,-1554.432478,1915.238745
1462.292978,10584.944971,-2368.659014,1991.848295
1462.293308,9770.718434,-2960.823768,1378.971896
1462.293638,8512.368333,-5773.606348,766.095498
1462.293967,7476.080014,-6513.812290,1302.362347
1462.294297,7254.018232,-9178.553681,1838.629195
1462.294626,7920.203579,-6957.935855,1915.238745
1462.294956,7476.080014,-4589.276840,383.047749
1462.295285,6143.709319,-3627.009116,-536.266849
1462.295615,7105.977043,-3108.864956,0.000000
1462.295945,8734.430116,-3627.009116,995.924147
1462.296274,9992.780217,-2960.823768,1378.971896
1462.296604,10362.883188,-740.205942,1455.581446
1462.296933,11177.109724,-1998.556043,612.876398
1462.297263,11251.130318,-3478.967927,1455.581446
1462.297593,11473.192101,-4515.256246,2604.724693
1462.297922,11473.192101,-5329.482782,2834.553343
1462.298252,9474.636058,-4737.318029,1302.362347
1462.298581,7550.100608,-4589.276840,-383.047749
1462.298911,6809.894666,-5329.482782,-383.047749
1462.299240,6735.874072,-7846.182985,306.438199
1462.299570,7031.956449,-8512.368333,1302.362347
1462.299900,7031.956449,-7698.141797,1532.190996
1462.300229,7179.997637,-5329.482782,0.000000
1462.300559,6735.874072,-4737.318029,0.000000
1462.300888,7105.977043,-6587.832884,919.314598
1462.301218,8586.388927,-4959.379811,1302.362347
1462.301548,9696.697840,-2368.659014,612.876398
1462.301877,10140.821405,-1480.411884,1225.752797
1462.302207,11251.130318,518.144159,1378.971896
1462.302536,11917.315666,-1924.535449,1532.190996
1462.302866,11103.089130,-3182.885551,1838.629195
1462.303195,9844.739029,-4293.194464,1072.533697
1462.303525,10362.883188,-4219.173869,1378.971896
1462.303855,9918.759623,-3404.947333,1685.410096
1462.304184,9326.594869,-5403.503377,2145.067394
1462.304514,9178.553681,-5477.523971,1455.581446
1462.304843,8660.409521,-5329.482782,766.095498
1462.305173,8290.306550,-5181.441594,1149.143247
1462.305503,8142.265362,-4367.215058,1455.581446
1462.305832,7254.018232,-5403.503377,-229.828649
1462.306162,5921.647536,-5181.441594,-1225.752797
1462.306491,6069.688724,-4885.359217,-842.705048
1462.306821,8142.265362,-5921.647536,0.000000
1462.307151,10807.006753,-5329.482782,2145.067394
1462.307480,11473.192101,-3627.009116,2068.457845
1462.307809,11103.089130,-3108.864956,995.924147
1462.308138,9844.739029,-4589.276840,1915.238745
1462.308468,9030.512492,-5625.565159,1991.848295
1462.308797,8142.265362,-5847.626942,459.657299
1462.309126,8142.265362,-3404.947333,459.657299
1462.309456,9474.636058,-2960.823768,1302.362347
1462.309785,11103.089130,-3849.070898,2681.334243
1462.310114,10807.006753,-3330.926739,3140.991542
1462.310443,10584.944971,-888.247130,2145.067394
1462.310773,9992.780217,-1258.350101,995.924147
1462.311102,8882.471304,-2812.782580,995.924147
1462.311431,7550.100608,-4811.338623,0.000000
1462.311761,6809.894666,-5847.626942,306.438199
1462.312090,7994.224174,-5773.606348,459.657299
1462.312419,9548.656652,-5403.503377,612.876398
1462.312748,10584.944971,-6217.729913,2068.457845
1462.313078,10362.883188,-6291.750507,1072.533697
1462.313407,7698.141797,-7179.997637,306.438199
1462.313736,5477.523971,-6365.771101,0.000000
1462.314066,5551.544565,-5625.565159,-766.095498
1462.314395,6365.771101,-6143.709319,-536.266849
1462.314724,7105.977043,-6291.750507,689.485948
1462.315054,8660.409521,-5847.626942,1455.581446
1462.315383,10066.800811,-4367.215058,2068.457845
1462.315712,9400.615463,-4737.318029,2145.067394
1462.316041,7994.224174,-5773.606348,1072.533697
1462.316371,6809.894666,-5477.523971,0.000000
1462.316700,6217.729913,-5551.544565,76.609550
1462.317029,7105.977043,-5699.585753,0.000000
1462.317359,8734.430116,-5699.585753,1455.581446
1462.317688,10214.842000,-5329.482782,2451.505594
1462.318017,9548.656652,-5403.503377,1838.629195
1462.318346,7772.162391,-4219.173869,306.438199
1462.318676,6217.729913,-4737.318029,229.828649
1462.319005,7031.956449,-5107.421000,536.266849
1462.319334,8586.388927,-3997.112087,689.485948
1462.319664,9104.533087,-3923.091493,1225.752797
1462.319993,9252.574275,-5033.400406,689.485948
1462.320322,8660.409521,-5329.482782,1149.143247
1462.320651,7328.038826,-6661.853478,229.828649
1462.320981,6217.729913,-8882.471304,1378.971896
1462.321310,6513.812290,-6661.853478,0.000000
1462.321639,6661.853478,-7550.100608,229.828649
1462.321969,6439.791695,-8586.388927,1072.533697
1462.322298,7179.997637,-8512.368333,766.095498
1462.322627,7328.038826,-7846.182985,1072.533697
1462.322957,6291.750507,-7994.224174,919.314598
1462.323286,5255.462188,-7031.956449,153.219100
1462.323615,5921.647536,-6291.750507,153.219100
1462.323944,7105.977043,-6513.812290,153.219100
1462.324274,7476.080014,-4885.359217,1685.410096
1462.324603,7772.162391,-5255.462188,2145.067394
1462.324932,8364.327145,-4589.276840,1302.362347
1462.325262,8734.430116,-4293.194464,1608.800546
1462.325591,8438.347739,-5847.626942,2834.553343
1462.325920,8290.306550,-5477.523971,2145.067394
1462.326249,7550.100608,-5625.565159,919.314598
1462.326579,6809.894666,-5329.482782,842.705048
1462.326908,5921.647536,-5477.523971,1532.190996
1462.327237,5847.626942,-7698.141797,1762.019645
1462.327567,5625.565159,-6069.688724,689.485948
1462.327896,6513.812290,-5329.482782,1302.362347
1462.328225,9252.574275,-5921.647536,2068.457845
1462.328554,9400.615463,-6883.915261,1685.410096
1462.328884,7105.977043,-6513.812290,1685.410096
1462.329213,5107.421000,-6735.874072,76.609550
1462.329542,5921.647536,-5921.647536,-766.095498
1462.329872,6069.688724,-7328.038826,612.876398
1462.330201,7031.956449,-8216.285956,1915.238745
1462.330530,7624.121203,-7254.018232,919.314598
1462.330860,7031.956449,-8512.368333,919.314598
1462.331189,5477.523971,-9178.553681,1532.190996
1462.331518,4515.256246,-7772.162391,612.876398
1462.331847,4219.173869,-9326.594869,459.657299
1462.332177,4737.318029,-8216.285956,1455.581446
1462.332506,7105.977043,-6365.771101,1455.581446
1462.332835,8660.409521,-4737.318029,1532.190996
1462.333165,7476.080014,-4589.276840,1915.238745
1462.333494,7846.182985,-5699.585753,1072.533697
1462.333823,7328.038826,-5033.400406,76.609550
1462.334152,7105.977043,-5625.565159,536.266849
1462.334482,7772.162391,-7328.038826,1532.190996
1462.334811,9104.533087,-5921.647536,995.924147
1462.335140,7846.182985,-7846.182985,689.485948
1462.335470,6587.832884,-8068.244768,1149.143247
1462.335799,7105.977043,-8734.430116,1302.362347
1462.336128,5699.585753,-8142.265362,0.000000
1462.336457,4441.235652,-7550.100608,689.485948
1462.336787,5847.626942,-6735.874072,1149.143247
1462.337116,7698.141797,-4145.153275,153.219100
1462.337445,7476.080014,-6069.688724,1838.629195
1462.337775,7105.977043,-5995.668130,2221.676944
1462.338104,7476.080014,-4515.256246,842.705048
1462.338433,6883.915261,-5625.565159,689.485948
1462.338763,7105.977043,-5699.585753,1455.581446
1462.339092,8512.368333,-6513.812290,1378.971896
1462.339421,9622.677246,-5403.503377,1149.143247
1462.339750,8586.388927,-6069.688724,1915.238745
1462.340080,8142.265362,-6735.874072,1302.362347
1462.340409,7179.997637,-5551.544565,229.828649
1462.340738,4811.338623,-7105.977043,0.000000
1462.341068,5403.503377,-7476.080014,459.657299
1462.341397,6439.791695,-6883.915261,459.657299
1462.341726,6143.709319,-7550.100608,766.095498
1462.342055,6365.771101,-6809.894666,1378.971896
1462.342385,6143.709319,-6587.832884,612.876398
1462.342714,5625.565159,-6365.771101,0.000000
1462.343043,5847.626942,-7328.038826,689.485948
1462.343373,8142.265362,-5847.626942,1378.971896
1462.343702,9918.759623,-5255.462188,1072.533697
1462.344031,9252.574275,-6957.935855,2145.067394
1462.344360,8142.265362,-5921.647536,1302.362347
1462.344690,7105.977043,-6587.832884,383.047749
1462.345019,6439.791695,-7624.121203,-459.657299
1462.345348,6365.771101,-6809.894666,1225.752797
1462.345678,7402.059420,-7624.121203,995.924147
1462.346007,6513.812290,-7179.997637,612.876398
1462.346336,5255.462188,-7105.977043,1302.362347
1462.346666,5551.544565,-6957.935855,0.000000
1462.346995,4811.338623,-7328.038826,0.000000
1462.347324,4959.379811,-7328.038826,306.438199
1462.347653,6957.935855,-7031.956449,1685.410096
1462.347983,8586.388927,-5551.544565,842.705048
1462.348312,8290.306550,-5329.482782,1455.581446
1462.348641,8808.450710,-5181.441594,1225.752797
1462.348971,8882.471304,-6143.709319,1302.362347
1462.349300,8290.306550,-5847.626942,1225.752797
1462.349629,8364.327145,-5847.626942,1915.238745
1462.349958,8068.244768,-5107.421000,612.876398
1462.350288,7402.059420,-5403.503377,0.000000
1462.350617,6365.771101,-6809.894666,1455.581446
1462.350946,6809.894666,-7772.162391,842.705048
1462.351276,5403.503377,-7476.080014,76.609550
1462.351605,3923.091493,-7105.977043,229.828649
1462.351934,4959.379811,-8290.306550,2221.676944
1462.352263,7476.080014,-6957.935855,842.705048
1462.352593,7328.038826,-5847.626942,2145.067394
1462.352922,7105.977043,-4959.379811,1608.800546
1462.353251,8142.265362,-5329.482782,919.314598
1462.353581,7994.224174,-4145.153275,1455.581446
1462.353910,8438.347739,-5551.544565,1302.362347
1462.354239,9918.759623,-4441.235652,2145.067394
1462.354569,9474.636058,-5033.400406,1991.848295
1462.354898,7105.977043,-8438.347739,1302.362347
1462.355227,5255.462188,-7105.977043,2221.676944
1462.355556,4515.256246,-8290.306550,0.000000
1462.355886,3404.947333,-9400.615463,-383.047749
1462.356215,3478.967927,-9918.759623,689.485948
1462.356544,5181.441594,-8216.285956,459.657299
1462.356874,7624.121203,-6217.729913,1302.362347
1462.357203,7031.956449,-7179.997637,1685.410096
1462.357532,7476.080014,-6143.709319,1378.971896
1462.357861,7254.018232,-6439.791695,689.485948
1462.358191,7105.977043,-5773.606348,842.705048
1462.358520,7846.182985,-3923.091493,1762.019645
1462.358849,8882.471304,-5181.441594,1915.238745
1462.359179,9474.636058,-5477.523971,2451.505594
1462.359508,8290.306550,-7031.956449,2451.505594
1462.359837,7031.956449,-6957.935855,1225.752797
1462.360166,4811.338623,-7031.956449,-612.876398
1462.360496,4071.132681,-8290.306550,0.000000
1462.360825,5033.400406,-9474.636058,689.485948
1462.361154,6661.853478,-7402.059420,1455.581446
1462.361484,7031.956449,-6809.894666,1838.629195
1462.361813,7254.018232,-6661.853478,1532.190996
1462.362142,7550.100608,-5255.462188,2068.457845
1462.362472,7402.059420,-4959.379811,536.266849
1462.362801,7476.080014,-3034.844362,919.314598
1462.363130,7920.203579,-3478.967927,919.314598
1462.363459,8882.471304,-5403.503377,1838.629195
1462.363789,8586.388927,-5847.626942,2374.896044
1462.364118,7328.038826,-6809.894666,919.314598
1462.364447,6291.750507,-6883.915261,383.047749
1462.364777,5699.585753,-8586.388927,842.705048
1462.365106,6291.750507,-9770.718434,1532.190996
1462.365435,6661.853478,-7994.224174,766.095498
1462.365764,6143.709319,-7105.977043,306.438199
1462.366094,5403.503377,-6587.832884,153.219100
1462.366423,5403.503377,-7179.997637,0.000000
1462.366752,6439.791695,-7105.977043,1608.800546
1462.367082,7550.100608,-5625.565159,1685.410096
1462.367411,8142.265362,-4219.173869,1072.533697
1462.367740,7920.203579,-4811.338623,1072.533697
1462.368069,8290.306550,-5921.647536,1225.752797
1462.368399,8438.347739,-5921.647536,1302.362347
1462.368728,7105.977043,-6217.729913,536.266849
1462.369057,5847.626942,-7105.977043,689.485948
1462.369387,5847.626942,-9252.574275,919.314598
1462.369716,5847.626942,-8956.491898,229.828649
1462.370045,5255.462188,-8808.450710,766.095498
1462.370375,5329.482782,-8364.327145,306.438199
1462.370704,6587.832884,-6883.915261,1072.533697
1462.371033,6957.935855,-5699.585753,1225.752797
1462.371362,7328.038826,-5625.565159,1532.190996
1462.371692,8216.285956,-4737.318029,842.705048
1462.372021,7698.141797,-4071.132681,1302.362347
1462.372350,7550.100608,-4885.359217,1302.362347
1462.372680,8068.244768,-5477.523971,1072.533697
1462.373009,8364.327145,-5477.523971,766.095498
1462.373338,7994.224174,-7254.018232,1685.410096
1462.373667,8586.388927,-7846.182985,2145.067394
1462.373997,8216.285956,-7476.080014,766.095498
1462.374326,6587.832884,-6957.935855,919.314598
1462.374655,5181.441594,-7624.121203,229.828649
1462.374985,4737.318029,-6957.935855,-306.438199
1462.375314,5107.421000,-8068.244768,0.000000
1462.375643,5477.523971,-6883.915261,1225.752797
1462.375972,7179.997637,-5699.585753,1072.533697
1462.376302,8290.306550,-5699.585753,995.924147
1462.376631,8586.388927,-4071.132681,2374.896044
1462.376960,8068.244768,-4663.297435,1532.190996
1462.377290,7105.977043,-6291.750507,306.438199
1462.377619,5995.668130,-6439.791695,459.657299
1462.377948,6735.874072,-8068.244768,1072.533697
1462.378278,8364.327145,-8068.244768,1532.190996
1462.378607,8216.285956,-7920.203579,2145.067394
1462.378936,7402.059420,-8142.265362,1455.581446
1462.379265,5995.668130,-7846.182985,383.047749
1462.379595,5033.400406,-7402.059420,-229.828649
1462.379924,4293.194464,-7254.018232,0.000000
1462.380253,5625.565159,-5773.606348,459.657299
1462.380583,6883.915261,-4589.276840,153.219100
1462.380912,7476.080014,-4293.194464,1455.581446
1462.381241,8882.471304,-4219.173869,2451.505594
1462.381570,9400.615463,-4663.297435,1915.238745
1462.381900,8660.409521,-5107.421000,1915.238745
1462.382229,7994.224174,-5625.565159,2068.457845
1462.382558,8142.265362,-6735.874072,689.485948
1462.382888,7105.977043,-7179.997637,2145.067394
1462.383217,7105.977043,-7550.100608,2068.457845
1462.383546,6883.915261,-7254.018232,-153.219100
1462.383875,4737.318029,-6661.853478,0.000000
1462.384205,4737.318029,-8068.244768,536.266849
1462.384534,6809.894666,-7698.141797,842.705048
1462.384863,7031.956449,-5477.523971,306.438199
1462.385193,5551.544565,-6809.894666,995.924147
1462.385522,6365.771101,-6069.688724,766.095498
1462.385851,7698.141797,-5477.523971,1072.533697
1462.386181,7476.080014,-6735.874072,1225.752797
1462.386510,7476.080014,-6587.832884,1378.971896
1462.386839,8512.368333,-7254.018232,1378.971896
1462.387168,8438.347739,-7920.203579,536.266849
1462.387498,7476.080014,-7476.080014,1685.410096
1462.387827,7179.997637,-7624.121203,766.095498
1462.388156,6069.688724,-6513.812290,-306.438199
1462.388486,5181.441594,-7402.059420,0.000000
1462.388815,6587.832884,-6661.853478,1149.143247
1462.389144,7550.100608,-6365.771101,1072.533697
1462.389473,7105.977043,-6809.894666,1072.533697
1462.389803,6957.935855,-5033.400406,1455.581446
1462.390132,6809.894666,-4737.318029,76.609550
1462.390461,6439.791695,-6217.729913,689.485948
1462.390791,6735.874072,-6439.791695,1915.238745
1462.391120,7772.162391,-7328.038826,1838.629195
1462.391449,8882.471304,-5773.606348,1915.238745
1462.391778,8808.450710,-6069.688724,1991.848295
1462.392108,7328.038826,-6217.729913,919.314598
1462.392437,6291.750507,-7179.997637,153.219100
1462.392766,5477.523971,-6291.750507,-229.828649
1462.393096,6439.791695,-5995.668130,919.314598
1462.393425,8142.265362,-5699.585753,1378.971896
1462.393754,8364.327145,-4589.276840,766.095498
1462.394084,7624.121203,-5847.626942,1991.848295
1462.394413,7105.977043,-5699.585753,842.705048
1462.394742,6365.771101,-5847.626942,0.000000
1462.395071,5255.462188,-6957.935855,766.095498
1462.395401,6291.750507,-7105.977043,1225.752797
1462.395730,7698.141797,-7698.141797,1302.362347
1462.396059,7476.080014,-6809.894666,1762.019645
1462.396389,7624.121203,-7254.018232,1455.581446
1462.396718,7402.059420,-6587.832884,689.485948
1462.397047,6143.709319,-6661.853478,76.609550
1462.397376,6291.750507,-7846.182985,689.485948
1462.397706,7179.997637,-6661.853478,1072.533697
1462.398035,6957.935855,-7402.059420,612.876398
1462.398364,5773.606348,-7328.038826,1225.752797
1462.398694,5773.606348,-5995.668130,153.219100
1462.399023,6069.688724,-6661.853478,153.219100
1462.399352,5033.400406,-6883.915261,612.876398
1462.399682,6217.729913,-8512.368333,2221.676944
1462.400011,8068.244768,-7031.956449,1532.190996
1462.400340,7624.121203,-6365.771101,1378.971896
1462.400669,7031.956449,-5921.647536,1532.190996
1462.400999,8216.285956,-6217.729913,1455.581446
1462.401328,7772.162391,-7105.977043,1149.143247
1462.401657,7179.997637,-5551.544565,995.924147
1462.401987,8660.409521,-5477.523971,1455.581446
1462.402316,9400.615463,-4959.379811,1378.971896
1462.402645,7994.224174,-4885.359217,1378.971896
1462.402974,7105.977043,-5995.668130,1225.752797
1462.403304,6143.709319,-6587.832884,919.314598
1462.403633,4589.276840,-7254.018232,76.609550
1462.403962,3775.050304,-7476.080014,1072.533697
1462.404292,5625.565159,-6735.874072,383.047749
1462.404621,7550.100608,-6883.915261,1455.581446
1462.404950,7698.141797,-7031.956449,2374.896044
1462.405279,7994.224174,-6957.935855,2681.334243
1462.405609,8290.306550,-5107.421000,766.095498
1462.405938,7920.203579,-4663.297435,1762.019645
1462.406267,7772.162391,-5773.606348,1608.800546
1462.406596,7698.141797,-5403.503377,919.314598
1462.406925,7031.956449,-6883.915261,919.314598
1462.407254,6291.750507,-7254.018232,1225.752797
1462.407583,5699.585753,-7476.080014,306.438199
1462.407912,4811.338623,-6883.915261,76.609550
1462.408241,4293.194464,-8734.430116,536.266849
1462.408570,5551.544565,-8808.450710,229.828649
1462.408899,6439.791695,-7624.121203,689.485948
1462.409229,7179.997637,-7476.080014,1608.800546
1462.409558,8438.347739,-6365.771101,1838.629195
1462.409887,7772.162391,-5551.544565,689.485948
1462.410216,6439.791695,-6217.729913,0.000000
1462.410545,7476.080014,-5847.626942,1378.971896
1462.410874,9474.636058,-5329.482782,2221.676944
1462.411203,9326.594869,-5625.565159,1838.629195
1462.411532,7105.977043,-5995.668130,1685.410096
1462.411861,5847.626942,-5625.565159,0.000000
1462.412190,4959.379811,-7846.182985,0.000000
1462.412519,5181.441594,-8660.409521,1455.581446
1462.412848,6069.688724,-8438.347739,1149.143247
1462.413178,6217.729913,-7105.977043,689.485948
1462.413507,6513.812290,-6661.853478,1455.581446
1462.413836,7105.977043,-7179.997637,1608.800546
1462.414165,6809.894666,-6809.894666,1532.190996
1462.414494,6365.771101,-6069.688724,1302.362347
1462.414823,6365.771101,-5403.503377,842.705048
1462.415152,8216.285956,-3775.050304,842.705048
1462.415481,9326.594869,-5403.503377,1762.019645
1462.415810,9178.553681,-4811.338623,1455.581446
1462.416139,8734.430116,-5921.647536,1685.410096
1462.416468,7402.059420,-5847.626942,536.266849
1462.416797,6291.750507,-5921.647536,689.485948
1462.417127,6957.935855,-6883.915261,1302.362347
1462.417456,7179.997637,-7402.059420,1608.800546
1462.417785,6291.750507,-7254.018232,229.828649
1462.418114,5403.503377,-6883.915261,995.924147
1462.418443,6513.812290,-7031.956449,1225.752797
1462.418772,6069.688724,-8364.327145,383.047749
1462.419101,5033.400406,-6143.709319,536.266849
1462.419430,5255.462188,-7624.121203,919.314598
1462.419759,6809.894666,-6291.750507,76.609550
1462.420088,7328.038826,-4959.379811,1455.581446
1462.420417,8068.244768,-7105.977043,2451.505594
1462.420746,9474.636058,-4885.359217,1685.410096
1462.421076,7698.141797,-6217.729913,1072.533697
1462.421405,6365.771101,-8438.347739,1532.190996
1462.421734,6291.750507,-7550.100608,612.876398
1462.422063,7328.038826,-7846.182985,0.000000
1462.422392,5773.606348,-8882.471304,1149.143247
1462.422721,5329.482782,-7105.977043,766.095498
1462.423050,5107.421000,-7846.182985,0.000000
1462.423379,4811.338623,-6735.874072,229.828649
1462.423708,5995.668130,-5625.565159,842.705048
1462.424037,7994.224174,-4737.318029,306.438199
1462.424366,7772.162391,-4737.318029,766.095498
1462.424695,7846.182985,-6439.791695,1608.800546
1462.425025,8660.409521,-5699.585753,1762.019645
1462.425354,8438.347739,-5477.523971,1378.971896
1462.425683,8068.244768,-6587.832884,1838.629195
1462.426012,8882.471304,-6143.709319,1762.019645
1462.426341,9178.553681,-6143.709319,2145.067394
1462.426670,8364.327145,-5847.626942,1991.848295
1462.426999,6513.812290,-6661.853478,1378.971896
1462.427328,5033.400406,-6439.791695,229.828649
1462.427657,3775.050304,-6809.894666,-306.438199
1462.427986,4663.297435,-6957.935855,229.828649
1462.428315,5921.647536,-6439.791695,1072.533697
1462.428644,6661.853478,-6513.812290,766.095498
1462.428974,7328.038826,-5329.482782,1302.362347
1462.429303,7105.977043,-6143.709319,689.485948
1462.429632,7846.182985,-6143.709319,383.047749
1462.429961,8216.285956,-6291.750507,1991.848295
1462.430290,8956.491898,-6291.750507,1225.752797
1462.430619,8290.306550,-6365.771101,1072.533697
1462.430948,8216.285956,-7105.977043,2298.286494
1462.431277,8586.388927,-7031.956449,995.924147
1462.431606,7105.977043,-6661.853478,383.047749
1462.431935,5403.503377,-7179.997637,842.705048
1462.432264,5033.400406,-7846.182985,0.000000
1462.432593,5403.503377,-6439.791695,383.047749
1462.432923,4441.235652,-7105.977043,-306.438199
1462.433252,5181.441594,-7698.141797,459.657299
1462.433581,6883.915261,-6439.791695,229.828649
1462.433910,6809.894666,-6587.832884,0.000000
1462.434239,6883.915261,-6809.894666,2298.286494
1462.434568,8142.265362,-6883.915261,1762.019645
1462.434897,8290.306550,-6439.791695,689.485948
1462.435226,7179.997637,-6957.935855,2298.286494
1462.435555,7846.182985,-7254.018232,1838.629195
1462.435884,7846.182985,-6143.709319,689.485948
1462.436213,5625.565159,-6291.750507,1225.752797
1462.436542,6291.750507,-6513.812290,1225.752797
1462.436872,8142.265362,-5477.523971,612.876398
1462.437201,7624.121203,-5107.421000,919.314598
1462.437530,6439.791695,-5773.606348,1608.800546
1462.437859,7328.038826,-5329.482782,1225.752797
1462.438188,6513.812290,-6513.812290,76.609550
1462.438517,5625.565159,-6587.832884,995.924147
1462.438846,6217.729913,-7402.059420,1072.533697
1462.439175,7105.977043,-6809.894666,383.047749
1462.439504,6957.935855,-7550.100608,1532.190996
1462.439833,7402.059420,-7402.059420,2374.896044
1462.440162,8734.430116,-5847.626942,1608.800546
1462.440491,7994.224174,-6217.729913,1532.190996
1462.440821,7179.997637,-5255.462188,1455.581446
1462.441150,8512.368333,-4885.359217,1072.533697
1462.441479,8882.471304,-6291.750507,2068.457845
1462.441808,7031.956449,-6513.812290,1455.581446
1462.442137,5847.626942,-6291.750507,919.314598
1462.442466,4885.359217,-7254.018232,-153.219100
1462.442795,5403.503377,-8586.388927,842.705048
1462.443124,6439.791695,-7254.018232,2068.457845
1462.443453,7031.956449,-6587.832884,689.485948
1462.443782,6661.853478,-7179.997637,1378.971896
1462.444111,6143.709319,-7105.977043,1149.143247
1462.444440,6217.729913,-7328.038826,0.000000
1462.444770,5773.606348,-6143.709319,459.657299
1462.445099,6587.832884,-6883.915261,1072.533697
1462.445428,7994.224174,-6439.791695,1302.362347
1462.445757,8438.347739,-6883.915261,1838.629195
1462.446086,8364.327145,-5921.647536,1915.238745
1462.446415,7328.038826,-6291.750507,995.924147
1462.446744,5107.421000,-6513.812290,-306.438199
1462.447073,4737.318029,-6439.791695,153.219100
1462.447402,5995.668130,-7772.162391,842.705048
1462.447731,7772.162391,-6735.874072,2374.896044
1462.448060,8216.285956,-6291.750507,2221.676944
1462.448389,7772.162391,-6143.709319,1915.238745
1462.448719,7179.997637,-5033.400406,919.314598
1462.449048,6587.832884,-4737.318029,76.609550
1462.449377,7105.977043,-4737.318029,1378.971896
1462.449706,9030.512492,-5403.503377,2145.067394
1462.450035,10140.821405,-5551.544565,1915.238745
1462.450364,8734.430116,-5181.441594,1685.410096
1462.450693,7254.018232,-6291.750507,1225.752797
1462.451022,6291.750507,-6291.750507,383.047749
1462.451351,5625.565159,-7624.121203,153.219100
1462.451680,4885.359217,-9844.739029,919.314598
1462.452009,5551.544565,-9326.594869,1685.410096
1462.452339,6291.750507,-7772.162391,689.485948
1462.452668,5551.544565,-7846.182985,919.314598
1462.452997,6143.709319,-7772.162391,919.314598
1462.453326,6735.874072,-6661.853478,383.047749
1462.453655,6883.915261,-6809.894666,1455.581446
1462.453984,8364.327145,-4959.379811,1225.752797
1462.454313,9030.512492,-6069.688724,1149.143247
1462.454642,8808.450710,-5551.544565,919.314598
1462.454971,7179.997637,-7105.977043,1762.019645
1462.455300,6661.853478,-6735.874072,536.266849
1462.455629,4959.379811,-7698.141797,0.000000
1462.455958,4663.297435,-8586.388927,229.828649
1462.456288,5773.606348,-8216.285956,842.705048
1462.456617,6809.894666,-8142.265362,1225.752797
1462.456946,6513.812290,-7698.141797,2145.067394
1462.457275,6439.791695,-6217.729913,1455.581446
1462.457604,7031.956449,-4663.297435,1072.533697
1462.457933,6587.832884,-4441.235652,612.876398
1462.458262,7550.100608,-4441.235652,1838.629195
1462.458591,9474.636058,-3478.967927,1915.238745
1462.458920,9992.780217,-4811.338623,2068.457845
1462.459249,8734.430116,-5329.482782,2451.505594
1462.459578,7772.162391,-4959.379811,1225.752797
1462.459907,6809.894666,-5921.647536,0.000000
1462.460237,5921.647536,-7550.100608,536.266849
1462.460566,6365.771101,-9030.512492,1149.143247
1462.460895,7846.182985,-8364.327145,1149.143247
1462.461224,6957.935855,-7476.080014,689.485948
1462.461553,5403.503377,-7550.100608,612.876398
1462.461882,5329.482782,-7550.100608,153.219100
1462.462211,5033.400406,-7105.977043,0.000000
1462.462540,6809.894666,-6513.812290,1762.019645
1462.462869,8512.368333,-3923.091493,2298.286494
1462.463198,9178.553681,-3330.926739,1302.362347
1462.463527,7994.224174,-5403.503377,1455.581446
1462.463856,7698.141797,-6217.729913,1762.019645
1462.464186,7328.038826,-6957.935855,229.828649
1462.464515,6143.709319,-6809.894666,1149.143247
1462.464844,6291.750507,-8364.327145,1302.362347
1462.465173,7772.162391,-8364.327145,1302.362347
1462.465502,7105.977043,-8808.450710,919.314598
1462.465831,5329.482782,-8068.244768,1838.629195
1462.466160,5625.565159,-8068.244768,-153.219100
1462.466489,5033.400406,-6439.791695,-1225.752797
1462.466818,5033.400406,-5403.503377,766.095498
1462.467147,7476.080014,-5403.503377,689.485948
1462.467476,8882.471304,-4589.276840,1685.410096
1462.467805,8216.285956,-5033.400406,1991.848295
1462.468135,8290.306550,-5107.421000,919.314598
1462.468464,8068.244768,-4071.132681,229.828649
1462.468793,6513.812290,-6809.894666,766.095498
1462.469122,5699.585753,-8882.471304,1532.190996
1462.469451,7772.162391,-7846.182985,1149.143247
1462.469780,8660.409521,-7772.162391,1149.143247
1462.470109,8660.409521,-6661.853478,2145.067394
1462.470438,8512.368333,-6587.832884,2528.115143
1462.470767,6587.832884,-6069.688724,306.438199
1462.471096,4071.132681,-6217.729913,0.000000
1462.471425,5329.482782,-5551.544565,1072.533697
1462.471754,7328.038826,-4811.338623,383.047749
1462.472084,7105.977043,-5403.503377,1378.971896
1462.472413,6809.894666,-5995.668130,2298.286494
1462.472742,7031.956449,-6069.688724,459.657299
1462.473071,6587.832884,-5847.626942,0.000000
1462.473400,6143.709319,-7476.080014,1532.190996
1462.473729,8142.265362,-9178.553681,1378.971896
1462.474058,8734.430116,-7254.018232,1378.971896
1462.474387,7624.121203,-7698.141797,1991.848295
1462.474716,7846.182985,-8512.368333,1991.848295
1462.475045,7846.182985,-6587.832884,995.924147
1462.475374,5625.565159,-4959.379811,0.000000
1462.475703,5699.585753,-6587.832884,689.485948
1462.476033,7328.038826,-6513.812290,1225.752797
1462.476362,6661.853478,-3997.112087,0.000000
1462.476691,5255.462188,-6365.771101,1072.533697
1462.477020,5847.626942,-7031.956449,383.047749
1462.477349,5995.668130,-5995.668130,-536.266849
1462.477678,5551.544565,-7698.141797,766.095498
1462.478007,7698.141797,-7254.018232,1378.971896
1462.478336,9326.594869,-7105.977043,1685.410096
1462.478665,9326.594869,-6957.935855,2298.286494
1462.478994,7328.038826,-6735.874072,1762.019645
1462.479323,7328.038826,-5847.626942,766.095498
1462.479652,6735.874072,-5551.544565,536.266849
1462.479982,6735.874072,-5551.544565,1072.533697
1462.480311,7846.182985,-4959.379811,1991.848295
1462.480640,8660.409521,-4737.318029,1532.190996
1462.480969,7402.059420,-5107.421000,1225.752797
1462.481298,5699.585753,-5403.503377,383.047749
1462.481627,4811.338623,-7476.080014,229.828649
1462.481956,5329.482782,-7698.141797,0.000000
1462.482285,5625.565159,-8734.430116,612.876398
1462.482614,7031.956449,-8660.409521,1302.362347
1462.482943,7994.224174,-9252.574275,1455.581446
1462.483272,7624.121203,-8068.244768,2145.067394
1462.483601,6735.874072,-7402.059420,612.876398
1462.483931,6809.894666,-4737.318029,383.047749
1462.484260,7698.141797,-5477.523971,1455.581446
1462.484589,8512.368333,-4441.235652,1532.190996
1462.484918,9030.512492,-4515.256246,1838.629195
1462.485247,8364.327145,-5181.441594,1762.019645
1462.485576,7105.977043,-3701.029710,1149.143247
1462.485905,5181.441594,-7254.018232,1149.143247
1462.486234,4589.276840,-7476.080014,459.657299
1462.486563,5255.462188,-7402.059420,153.219100
1462.486892,6069.688724,-9548.656652,1225.752797
1462.487221,7550.100608,-7698.141797,1838.629195
1462.487550,7624.121203,-8290.306550,1455.581446
1462.487880,6957.935855,-8068.244768,842.705048
1462.488209,5403.503377,-6143.709319,-459.657299
1462.488538,6513.812290,-6439.791695,1149.143247
1462.488867,8216.285956,-4885.359217,766.095498
1462.489196,9104.533087,-5033.400406,1455.581446
1462.489525,9326.594869,-3330.926739,1838.629195
1462.489854,9178.553681,-4219.173869,1532.190996
1462.490183,7550.100608,-5847.626942,1149.143247
1462.490512,5625.565159,-5551.544565,153.219100
1462.490841,5847.626942,-6661.853478,383.047749
1462.491170,6957.935855,-8364.327145,995.924147
1462.491500,7031.956449,-7550.100608,1225.752797
1462.491829,6809.894666,-7328.038826,1685.410096
1462.492158,6809.894666,-8660.409521,1149.143247
1462.492487,5921.647536,-6957.935855,229.828649
1462.492816,5551.544565,-6661.853478,383.047749
1462.493145,7105.977043,-6661.853478,919.314598
1462.493474,8142.265362,-6365.771101,1532.190996
1462.493803,8142.265362,-5329.482782,2298.286494
1462.494132,7624.121203,-5033.400406,1302.362347
1462.494461,7624.121203,-4737.318029,842.705048
1462.494790,7550.100608,-5329.482782,612.876398
1462.495119,6661.853478,-7920.203579,1455.581446
1462.495449,7254.018232,-8438.347739,2145.067394
1462.495778,7105.977043,-8216.285956,995.924147
1462.496107,6439.791695,-6957.935855,153.219100
1462.496436,5477.523971,-8290.306550,689.485948
1462.496765,5921.647536,-7476.080014,0.000000
1462.497094,6587.832884,-7550.100608,919.314598
1462.497423,7179.997637,-6587.832884,1608.800546
1462.497752,7624.121203,-6365.771101,842.705048
1462.498081,7846.182985,-4959.379811,459.657299
1462.498410,7179.997637,-5181.441594,919.314598
1462.498739,6587.832884,-5921.647536,766.095498
1462.499068,7031.956449,-5847.626942,1302.362347
1462.499398,7402.059420,-7105.977043,1608.800546
1462.499727,7772.162391,-6587.832884,1762.019645
1462.500056,7624.121203,-6735.874072,1762.019645
1462.500385,6735.874072,-7624.121203,1378.971896
1462.500714,5477.523971,-7105.977043,1838.629195
1462.501043,4219.173869,-7179.997637,0.000000
1462.501372,4737.318029,-6809.894666,0.000000
1462.501701,6587.832884,-6587.832884,1838.629195
1462.502030,7698.141797,-5847.626942,1685.410096
1462.502359,8290.306550,-5995.668130,2145.067394
1462.502688,8438.347739,-5033.400406,1991.848295
1462.503017,7698.141797,-5699.585753,1455.581446
1462.503347,6809.894666,-5329.482782,766.095498
1462.503676,6291.750507,-5551.544565,1225.752797
1462.504005,6439.791695,-8586.388927,766.095498
1462.504334,7105.977043,-8290.306550,1072.533697
1462.504663,6809.894666,-8882.471304,1762.019645
1462.504992,7031.956449,-8660.409521,1302.362347
1462.505321,5699.585753,-6883.915261,536.266849
1462.505650,4589.276840,-7846.182985,-383.047749
1462.505979,5107.421000,-6883.915261,0.000000
1462.506308,7031.956449,-6365.771101,689.485948
1462.506637,7846.182985,-5699.585753,1302.362347
1462.506966,7920.203579,-5255.462188,1762.019645
1462.507296,8142.265362,-5847.626942,1762.019645
1462.507625,7105.977043,-5773.606348,383.047749
1462.507954,5921.647536,-6291.750507,1455.581446
1462.508283,8512.368333,-6883.915261,2298.286494
1462.508612,8586.388927,-6957.935855,1608.800546
1462.508941,7624.121203,-6735.874072,2145.067394
1462.509270,7031.956449,-6291.750507,2374.896044
1462.509599,6217.729913,-7254.018232,76.609550
1462.509928,4959.379811,-7105.977043,612.876398
1462.510258,4663.297435,-7031.956449,536.266849
1462.510587,6809.894666,-6883.915261,612.876398
1462.510916,7476.080014,-5181.441594,689.485948
1462.511245,6587.832884,-5921.647536,842.705048
1462.511574,7105.977043,-5995.668130,995.924147
1462.511903,7624.121203,-5995.668130,612.876398
1462.512232,7550.100608,-6217.729913,1532.190996
1462.512562,7550.100608,-5625.565159,1838.629195
1462.512891,9030.512492,-6883.915261,1915.238745
1462.513220,8586.388927,-6661.853478,1608.800546
1462.513549,8290.306550,-6217.729913,2145.067394
1462.513878,7550.100608,-6291.750507,1378.971896
1462.514207,6883.915261,-6217.729913,229.828649
1462.514536,5625.565159,-6883.915261,1149.143247
1462.514865,5847.626942,-6883.915261,1072.533697
1462.515195,7105.977043,-5699.585753,459.657299
1462.515524,6809.894666,-5699.585753,383.047749
1462.515853,6291.750507,-5255.462188,1532.190996
1462.516182,6735.874072,-6661.853478,229.828649
1462.516511,6661.853478,-6661.853478,995.924147
1462.516840,6661.853478,-7328.038826,1302.362347
1462.517169,6957.935855,-9178.553681,1685.410096
1462.517498,6661.853478,-7698.141797,383.047749
1462.517828,6957.935855,-7698.141797,1225.752797
1462.518157,7402.059420,-7105.977043,2068.457845
1462.518486,6735.874072,-6661.853478,229.828649
1462.518815,5625.565159,-6587.832884,1378.971896
1462.519144,7624.121203,-5699.585753,1302.362347
1462.519473,8956.491898,-5625.565159,536.266849
1462.519802,8290.306550,-5329.482782,612.876398
1462.520132,6957.935855,-6957.935855,1838.629195
1462.520461,7920.203579,-5625.565159,0.000000
1462.520790,6439.791695,-6143.709319,76.609550
1462.521119,5551.544565,-7105.977043,689.485948
1462.521448,7031.956449,-7772.162391,995.924147
1462.521777,6735.874072,-7402.059420,1455.581446
1462.522106,6143.709319,-7402.059420,1378.971896
1462.522435,7476.080014,-5921.647536,1532.190996
1462.522765,7550.100608,-5477.523971,1072.533697
1462.523094,5921.647536,-6587.832884,612.876398
1462.523423,5773.606348,-7254.018232,1838.629195
1462.523752,8290.306550,-5847.626942,1455.581446
1462.524081,8438.347739,-4293.194464,612.876398
1462.524410,6735.874072,-5329.482782,1225.752797
1462.524739,7254.018232,-5699.585753,1838.629195
1462.525068,7328.038826,-6069.688724,306.438199
1462.525398,5625.565159,-6291.750507,306.438199
1462.525727,5773.606348,-6439.791695,1302.362347
1462.526056,8068.244768,-7254.018232,842.705048
1462.526385,7772.162391,-7328.038826,1149.143247
1462.526714,6513.812290,-8068.244768,1685.410096
1462.527043,6587.832884,-7846.182985,1225.752797
1462.527372,6809.894666,-6143.709319,0.000000
1462.527702,6809.894666,-5403.503377,919.314598
1462.528031,8808.450710,-5181.441594,1378.971896
1462.528360,8882.471304,-4885.359217,842.705048
1462.528689,7920.203579,-5403.503377,1915.238745
1462.529018,7920.203579,-6587.832884,2221.676944
1462.529347,7994.224174,-4811.338623,1149.143247
1462.529676,6291.750507,-5625.565159,-383.047749
1462.530005,5033.400406,-8068.244768,919.314598
1462.530335,6587.832884,-7994.224174,383.047749
1462.530664,7179.997637,-8216.285956,459.657299
1462.530993,6513.812290,-7994.224174,1378.971896
1462.531322,6365.771101,-7254.018232,995.924147
1462.531651,5699.585753,-7402.059420,-689.485948
1462.531980,4737.318029,-8438.347739,383.047749
1462.532309,5773.606348,-7920.203579,1225.752797
1462.532639,7476.080014,-6735.874072,766.095498
1462.532968,7476.080014,-6143.709319,1455.581446
1462.533297,7476.080014,-5403.503377,1762.019645
1462.533626,7105.977043,-5995.668130,842.705048
1462.533955,6735.874072,-4959.379811,-229.828649
1462.534284,6291.750507,-7476.080014,1378.971896
1462.534613,8216.285956,-3997.112087,229.828649
1462.534942,7994.224174,-6735.874072,1455.581446
1462.535272,7994.224174,-7179.997637,2068.457845
1462.535601,7624.121203,-5403.503377,1072.533697
1462.535930,6809.894666,-6883.915261,1149.143247
1462.536259,6143.709319,-5477.523971,306.438199
1462.536588,7031.956449,-5699.585753,1225.752797
1462.536917,7402.059420,-5329.482782,1378.971896
1462.537246,7846.182985,-5921.647536,1072.533697
1462.537575,7772.162391,-6143.709319,1685.410096
1462.537905,7402.059420,-6291.750507,1072.533697
1462.538234,7179.997637,-5699.585753,76.609550
1462.538563,7105.977043,-5995.668130,1915.238745
1462.538892,7772.162391,-7031.956449,1685.410096
1462.539221,7105.977043,-7328.038826,1225.752797
1462.539550,6143.709319,-5699.585753,612.876398
1462.539879,5847.626942,-7698.141797,842.705048
1462.540209,6217.729913,-7402.059420,689.485948
1462.540538,6143.709319,-6809.894666,919.314598
1462.540867,6513.812290,-8142.265362,1455.581446
1462.541196,7402.059420,-6661.853478,842.705048
1462.541525,6809.894666,-6883.915261,1225.752797
1462.541854,6365.771101,-6217.729913,766.095498
1462.542183,6439.791695,-6809.894666,689.485948
1462.542512,6809.894666,-6957.935855,689.485948
1462.542842,6365.771101,-6587.832884,995.924147
1462.543171,7179.997637,-6809.894666,1915.238745
1462.543500,8364.327145,-6513.812290,1762.019645
1462.543829,8956.491898,-5921.647536,2374.896044
1462.544158,7179.997637,-6883.915261,1991.848295
1462.544487,5551.544565,-6957.935855,1072.533697
1462.544816,3775.050304,-6661.853478,-689.485948
1462.545145,4367.215058,-7105.977043,229.828649
1462.545475,5625.565159,-6735.874072,612.876398
1462.545804,7772.162391,-6809.894666,1532.190996
1462.546133,8734.430116,-6587.832884,2757.943793
1462.546462,8734.430116,-5107.421000,1455.581446
1462.546791,6661.853478,-5921.647536,306.438199
1462.547120,5921.647536,-5403.503377,383.047749
1462.547449,6735.874072,-6069.688724,612.876398
1462.547779,9104.533087,-6439.791695,1762.019645
1462.548108,9030.512492,-6217.729913,2451.505594
1462.548437,8808.450710,-6143.709319,2757.943793
1462.548766,8216.285956,-5329.482782,1302.362347
1462.549095,6661.853478,-6291.750507,536.266849
1462.549424,6661.853478,-5699.585753,1685.410096
1462.549753,7994.224174,-4885.359217,995.924147
1462.550082,7254.018232,-5625.565159,306.438199
1462.550412,6735.874072,-5847.626942,1838.629195
1462.550741,7920.203579,-7179.997637,1838.629195
1462.551070,6661.853478,-7105.977043,0.000000
1462.551399,4441.235652,-6513.812290,995.924147
1462.551728,4959.379811,-7846.182985,689.485948
1462.552057,8142.265362,-7402.059420,1685.410096
1462.552386,8068.244768,-7698.141797,2221.676944
1462.552715,7476.080014,-7846.182985,2604.724693
1462.553045,7550.100608,-6513.812290,1378.971896
1462.553374,5181.441594,-6513.812290,229.828649
1462.553703,3552.988522,-7772.162391,995.924147
1462.554032,5181.441594,-6291.750507,306.438199
1462.554361,6809.894666,-6809.894666,0.000000
1462.554690,6291.750507,-7698.141797,1762.019645
1462.555019,6439.791695,-7772.162391,1455.581446
1462.555349,6143.709319,-7402.059420,-153.219100
1462.555678,4737.318029,-6883.915261,-689.485948
1462.556007,5329.482782,-7476.080014,995.924147
1462.556336,7772.162391,-7476.080014,612.876398
1462.556665,8660.409521,-5995.668130,1455.581446
1462.556994,7846.182985,-6365.771101,1838.629195
1462.557323,8438.347739,-5033.400406,919.314598
1462.557652,6883.915261,-4885.359217,459.657299
1462.557982,5699.585753,-6735.874072,1072.533697
1462.558311,7328.038826,-5921.647536,1608.800546
1462.558640,7624.121203,-6217.729913,612.876398
1462.558969,7402.059420,-6143.709319,1302.362347
1462.559298,7105.977043,-6957.935855,1685.410096
1462.559627,6661.853478,-6217.729913,229.828649
1462.559956,5847.626942,-7328.038826,76.609550
1462.560285,6365.771101,-8290.306550,1149.143247
1462.560615,8290.306550,-6439.791695,1302.362347
1462.560944,8586.388927,-6291.750507,1225.752797
1462.561273,8142.265362,-6883.915261,2911.162892
1462.561602,8216.285956,-5255.462188,1149.143247
1462.561931,7105.977043,-5107.421000,-459.657299
1462.562260,5847.626942,-6291.750507,459.657299
1462.562589,6809.894666,-5699.585753,1455.581446
1462.562919,8290.306550,-5921.647536,459.657299
1462.563248,8142.265362,-6291.750507,1072.533697
1462.563577,7994.224174,-6513.812290,1762.019645
1462.563906,7772.162391,-5847.626942,383.047749
1462.564235,6291.750507,-8142.265362,-229.828649
1462.564564,4737.318029,-8660.409521,306.438199
1462.564893,6809.894666,-7846.182985,0.000000
1462.565222,7772.162391,-8142.265362,1149.143247
1462.565552,7402.059420,-7254.018232,2451.505594
1462.565881,8808.450710,-5847.626942,1762.019645
1462.566210,7624.121203,-5329.482782,766.095498
1462.566539,6291.750507,-4515.256246,306.438199
1462.566868,6513.812290,-4737.318029,1685.410096
1462.567197,8142.265362,-5699.585753,1378.971896
1462.567526,6957.935855,-5921.647536,0.000000
1462.567855,5551.544565,-6217.729913,1762.019645
1462.568185,6957.935855,-6143.709319,1378.971896
1462.568514,7402.059420,-7402.059420,0.000000
1462.568843,5329.482782,-8290.306550,2221.676944
1462.569172,6143.709319,-7476.080014,766.095498
1462.569501,7772.162391,-7476.080014,76.609550
1462.569830,7698.141797,-6365.771101,1991.848295
1462.570159,7179.997637,-7254.018232,1838.629195
1462.570489,8290.306550,-4959.379811,919.314598
1462.570818,6291.750507,-5699.585753,229.828649
1462.571147,5255.462188,-6365.771101,536.266849
1462.571476,7550.100608,-4737.318029,1302.362347
1462.571805,8882.471304,-5847.626942,766.095498
1462.572134,7994.224174,-6661.853478,2374.896044
1462.572463,7402.059420,-6217.729913,1838.629195
1462.572792,7328.038826,-5699.585753,-153.219100
1462.573122,5921.647536,-6883.915261,229.828649
1462.573451,5847.626942,-8290.306550,1072.533697
1462.573780,7624.121203,-8364.327145,1302.362347
1462.574109,7476.080014,-7624.121203,1532.190996
1462.574438,6735.874072,-7550.100608,2068.457845
1462.574767,6439.791695,-6143.709319,1532.190996
1462.575096,5625.565159,-6809.894666,919.314598
1462.575425,5329.482782,-5551.544565,612.876398
1462.575755,6883.915261,-5921.647536,1302.362347
1462.576084,7402.059420,-5255.462188,1378.971896
1462.576413,7105.977043,-7179.997637,2068.457845
1462.576742,7179.997637,-6957.935855,2068.457845
1462.577071,7179.997637,-6143.709319,766.095498
1462.577400,5847.626942,-7031.956449,229.828649
1462.577729,5625.565159,-7698.141797,1455.581446
1462.578059,6513.812290,-8364.327145,842.705048
1462.578388,6217.729913,-8882.471304,919.314598
1462.578717,4737.318029,-9326.594869,1072.533697
1462.579046,4589.276840,-9844.739029,459.657299
1462.579375,3627.009116,-9178.553681,-153.219100
1462.579704,3034.844362,-8882.471304,229.828649
1462.580033,4885.359217,-7254.018232,766.095498
1462.580362,7031.956449,-6587.832884,919.314598
1462.580692,6883.915261,-5477.523971,1302.362347
1462.581021,6513.812290,-6143.709319,1685.410096
1462.581350,7105.977043,-6291.750507,1225.752797
1462.581679,5995.668130,-7031.956449,0.000000
1462.582008,5033.400406,-8956.491898,1302.362347
1462.582337,6587.832884,-8808.450710,1915.238745
1462.582666,7624.121203,-8438.347739,1762.019645
1462.582995,7402.059420,-7920.203579,1838.629195
1462.583325,6957.935855,-7179.997637,1608.800546
1462.583654,5995.668130,-6883.915261,383.047749
1462.583983,5181.441594,-7772.162391,306.438199
1462.584312,4959.379811,-7031.956449,1149.143247
1462.584641,7031.956449,-5699.585753,842.705048
1462.584970,7476.080014,-6513.812290,1302.362347
1462.585299,6883.915261,-7105.977043,2451.505594
1462.585629,6439.791695,-7920.203579,842.705048
1462.585958,4515.256246,-8438.347739,-383.047749
1462.586287,3330.926739,-9622.677246,0.000000
1462.586616,4145.153275,-10881.027347,1455.581446
1462.586945,5477.523971,-11103.089130,995.924147
1462.587274,4811.338623,-9918.759623,2451.505594
1462.587603,4737.318029,-8808.450710,2604.724693
1462.587932,5773.606348,-7179.997637,1608.800546
1462.588262,4441.235652,-5551.544565,1378.971896
1462.588591,4219.173869,-6439.791695,1532.190996
1462.588920,5329.482782,-5625.565159,1302.362347
1462.589249,5995.668130,-6587.832884,1991.848295
1462.589578,6143.709319,-7402.059420,2374.896044
1462.589907,5403.503377,-6439.791695,1455.581446
1462.590236,3923.091493,-7105.977043,-459.657299
1462.590565,2368.659014,-10140.821405,-689.485948
1462.590895,1776.494261,-11991.336260,0.000000
1462.591224,3701.029710,-11769.274478,306.438199
1462.591553,4737.318029,-11917.315666,536.266849
1462.591882,5329.482782,-11769.274478,1149.143247
1462.592211,5329.482782,-10436.903782,766.095498
1462.592540,4367.215058,-9696.697840,689.485948
1462.592869,3775.050304,-8660.409521,0.000000
1462.593199,4441.235652,-8438.347739,1302.362347
1462.593528,5995.668130,-6587.832884,2145.067394
1462.593857,7105.977043,-6291.750507,2604.724693
1462.594186,6957.935855,-5773.606348,2757.943793
1462.594515,5921.647536,-5773.606348,2298.286494
1462.594844,5403.503377,-4737.318029,0.000000
1462.595173,4441.235652,-6735.874072,0.000000
1462.595502,4219.173869,-10584.944971,995.924147
1462.595832,4071.132681,-13915.871710,1225.752797
1462.596161,2590.720797,-14804.118840,459.657299
1462.596490,1702.473667,-13545.768739,-229.828649
1462.596819,2516.700203,-11695.253884,306.438199
1462.597148,4959.379811,-11029.068536,1991.848295
1462.597477,6143.709319,-8290.306550,2068.457845
1462.597806,5773.606348,-6143.709319,919.314598
1462.598135,5551.544565,-5477.523971,1685.410096
1462.598465,6365.771101,-6217.729913,2145.067394
1462.598794,5995.668130,-6291.750507,1685.410096
1462.599123,5773.606348,-4663.297435,766.095498
1462.599452,5551.544565,-6291.750507,995.924147
1462.599781,6809.894666,-6957.935855,1378.971896
1462.600110,7105.977043,-8660.409521,2528.115143
1462.600439,5625.565159,-8068.244768,612.876398
1462.600769,5181.441594,-8438.347739,-306.438199
1462.601098,4441.235652,-9770.718434,0.000000
1462.601427,3552.988522,-12731.542202,459.657299
1462.601756,3775.050304,-13027.624579,842.705048
1462.602085,3182.885551,-9770.718434,0.000000
1462.602414,3108.864956,-9992.780217,0.000000
1462.602743,3182.885551,-11695.253884,1915.238745
1462.603072,3256.906145,-10288.862594,2068.457845
1462.603402,3627.009116,-6587.832884,689.485948
1462.603731,5107.421000,-4145.153275,0.000000
1462.604060,7402.059420,-2442.679609,1532.190996
1462.604389,9252.574275,-4811.338623,3370.820191
1462.604718,9548.656652,-6069.688724,4213.525239
1462.605047,6957.935855,-5699.585753,2145.067394
1462.605376,4515.256246,-7105.977043,-383.047749
1462.605705,2886.803174,-10807.006753,0.000000
1462.606035,2590.720797,-14656.077652,1225.752797
1462.606364,3627.009116,-13915.871710,1378.971896
1462.606693,3775.050304,-10140.821405,-306.438199
1462.607022,4737.318029,-7624.121203,-306.438199
1462.607351,6365.771101,-7550.100608,612.876398
1462.607680,6291.750507,-8882.471304,1302.362347
1462.608009,4071.132681,-9474.636058,842.705048
1462.608339,2072.576638,-9400.615463,-766.095498
1462.608668,1258.350101,-9548.656652,-1225.752797
1462.608997,2516.700203,-10807.006753,1072.533697
1462.609326,5033.400406,-11917.315666,2834.553343
1462.609655,7105.977043,-8216.285956,4136.915689
1462.609984,6587.832884,-6661.853478,1838.629195
1462.610313,5995.668130,-5107.421000,2221.676944
1462.610642,6735.874072,-4811.338623,1685.410096
1462.610971,7624.121203,-6291.750507,1149.143247
1462.611301,6217.729913,-5921.647536,1149.143247
1462.611630,5329.482782,-9252.574275,2298.286494
1462.611959,5033.400406,-10807.006753,2604.724693
1462.612288,4737.318029,-8660.409521,1685.410096
1462.612617,3182.885551,-9474.636058,0.000000
1462.612946,2368.659014,-9770.718434,-1225.752797
1462.613275,2442.679609,-11695.253884,-383.047749
1462.613604,3330.926739,-12509.480420,536.266849
1462.613933,4663.297435,-9178.553681,842.705048
1462.614262,5551.544565,-7920.203579,0.000000
1462.614591,4811.338623,-8364.327145,153.219100
1462.614920,4737.318029,-9548.656652,1455.581446
1462.615249,6439.791695,-8882.471304,1838.629195
1462.615579,7698.141797,-6143.709319,2221.676944
1462.615908,7772.162391,-4219.173869,2298.286494
1462.616237,8068.244768,-5329.482782,2298.286494
1462.616566,7624.121203,-7105.977043,2298.286494
1462.616895,5477.523971,-9474.636058,2145.067394
1462.617224,3478.967927,-9252.574275,1149.143247
1462.617553,1776.494261,-9622.677246,-383.047749
1462.617882,1332.370696,-10881.027347,-76.609550
1462.618211,1924.535449,-12213.398043,612.876398
1462.618540,2738.761985,-10732.986159,1532.190996
1462.618869,4071.132681,-9104.533087,1455.581446
1462.619198,4811.338623,-6735.874072,1455.581446
1462.619528,6439.791695,-5995.668130,1072.533697
1462.619857,6735.874072,-6217.729913,1149.143247
1462.620186,6143.709319,-6513.812290,689.485948
1462.620515,5699.585753,-8290.306550,536.266849
1462.620844,6217.729913,-9548.656652,1072.533697
1462.621173,6513.812290,-9844.739029,2068.457845
1462.621502,5773.606348,-9992.780217,1608.800546
1462.621831,4811.338623,-10584.944971,306.438199
1462.622160,2886.803174,-11695.253884,-536.266849
1462.622489,2146.597232,-11769.274478,-919.314598
1462.622818,2960.823768,-11399.171507,-612.876398
1462.623147,4145.153275,-9474.636058,766.095498
1462.623477,4145.153275,-9104.533087,1072.533697
1462.623806,4737.318029,-8068.244768,1532.190996
1462.624135,5329.482782,-7179.997637,2221.676944
1462.624464,6587.832884,-5699.585753,2834.553343
1462.624793,7179.997637,-4441.235652,2757.943793
1462.625122,7105.977043,-3552.988522,1838.629195
1462.625451,6883.915261,-4367.215058,842.705048
1462.625780,6217.729913,-7550.100608,1225.752797
1462.626109,5847.626942,-9400.615463,1608.800546
1462.626438,5847.626942,-10510.924376,1225.752797
1462.626767,5329.482782,-10807.006753,995.924147
1462.627096,4885.359217,-10214.842000,919.314598
1462.627425,4441.235652,-10436.903782,612.876398
1462.627755,4071.132681,-9548.656652,536.266849
1462.628084,3108.864956,-10658.965565,229.828649
1462.628413,2294.638420,-10362.883188,0.000000
1462.628742,2220.617826,-9992.780217,0.000000
1462.629071,2812.782580,-10732.986159,842.705048
1462.629400,4071.132681,-9844.739029,842.705048
1462.629729,4811.338623,-7920.203579,1378.971896
1462.630058,6513.812290,-5625.565159,1378.971896
1462.630387,7254.018232,-4071.132681,1378.971896
1462.630716,7328.038826,-3701.029710,2451.505594
1462.631045,7994.224174,-5625.565159,2145.067394
1462.631374,7105.977043,-8290.306550,2451.505594
1462.631704,6069.688724,-9696.697840,2451.505594
1462.632033,5699.585753,-10214.842000,2451.505594
1462.632362,5033.400406,-9622.677246,2298.286494
1462.632691,3849.070898,-10658.965565,1072.533697
1462.633020,3108.864956,-10436.903782,842.705048
1462.633349,2664.741391,-9474.636058,383.047749
1462.633678,3108.864956,-9326.594869,0.000000
1462.634007,2960.823768,-7920.203579,-153.219100
1462.634336,3330.926739,-8586.388927,-229.828649
1462.634665,4219.173869,-8734.430116,153.219100
1462.634994,5181.441594,-8216.285956,1149.143247
1462.635323,6143.709319,-9030.512492,2374.896044
1462.635653,6883.915261,-8956.491898,1762.019645
1462.635982,6143.709319,-8216.285956,1762.019645
1462.636311,6069.688724,-8364.327145,1838.629195
1462.636640,5995.668130,-8586.388927,1915.238745
1462.636969,5255.462188,-8882.471304,2451.505594
1462.637298,4737.318029,-8734.430116,2451.505594
1462.637627,4885.359217,-7920.203579,2221.676944
1462.637956,4737.318029,-7105.977043,1685.410096
1462.638285,5181.441594,-7698.141797,2068.457845
1462.638614,5551.544565,-7698.141797,2451.505594
1462.638943,5625.565159,-7031.956449,2145.067394
1462.639272,5477.523971,-7105.977043,1685.410096
1462.639602,4441.235652,-8142.265362,1072.533697
1462.639931,4663.297435,-9252.574275,919.314598
1462.640260,4293.194464,-10066.800811,1532.190996
1462.640589,4737.318029,-9992.780217,2528.115143
1462.640918,4959.379811,-9474.636058,2911.162892
1462.641247,5847.626942,-9178.553681,3677.258390
1462.641576,6735.874072,-8068.244768,3294.210641
1462.641905,6957.935855,-7105.977043,3830.477490
1462.642234,6439.791695,-6439.791695,3370.820191
1462.642563,5921.647536,-5551.544565,3140.991542
1462.642892,5847.626942,-5255.462188,2528.115143
1462.643221,7031.956449,-5921.647536,2451.505594
1462.643550,6957.935855,-6957.935855,2451.505594
1462.643880,6661.853478,-7624.121203,2451.505594
1462.644209,5995.668130,-8068.244768,2221.676944
1462.644538,5995.668130,-8290.306550,3064.381992
1462.644867,6143.709319,-8734.430116,2987.772442
1462.645196,5995.668130,-7698.141797,2911.162892
1462.645525,5551.544565,-7402.059420,3370.820191
1462.645854,6513.812290,-7254.018232,4366.744339
1462.646183,7105.977043,-6069.688724,4826.401637
1462.646512,8142.265362,-5403.503377,4903.011187
1462.646841,8512.368333,-4737.318029,4979.620737
1462.647170,8290.306550,-4071.132681,4903.011187
1462.647499,8290.306550,-4219.173869,4826.401637
1462.647829,8586.388927,-4071.132681,4673.182538
1462.648158,8438.347739,-4515.256246,4443.353888
1462.648487,7476.080014,-5699.585753,4213.525239
1462.648816,7105.977043,-7105.977043,4443.353888
1462.649145,6661.853478,-8216.285956,3907.087040
1462.649474,5477.523971,-9400.615463,3524.039291
1462.649803,4515.256246,-9622.677246,3524.039291
1462.650132,3997.112087,-10288.862594,3600.648841
1462.650461,4145.153275,-9696.697840,3140.991542
1462.650790,3997.112087,-9400.615463,3677.258390
1462.651119,4589.276840,-9030.512492,4136.915689
1462.651448,5255.462188,-7402.059420,4519.963438
1462.651778,6439.791695,-5773.606348,4903.011187
1462.652107,7994.224174,-5329.482782,5209.449386
1462.652436,9548.656652,-4441.235652,6052.154434
1462.652765,10288.862594,-4145.153275,6435.202183
1462.653094,9770.718434,-2738.761985,5286.058936
1462.653423,9104.533087,-2738.761985,5209.449386
1462.653752,8364.327145,-3923.091493,4673.182538
1462.654081,8290.306550,-5847.626942,4749.792088
1462.654410,7698.141797,-6217.729913,4979.620737
1462.654739,7105.977043,-7031.956449,4213.525239
1462.655068,5847.626942,-8808.450710,4366.744339
1462.655397,5329.482782,-8956.491898,4136.915689
1462.655726,4515.256246,-9474.636058,3600.648841
1462.656056,3552.988522,-10436.903782,3064.381992
1462.656385,2886.803174,-9844.739029,3294.210641
1462.656714,3256.906145,-9474.636058,2757.943793
1462.657043,4367.215058,-7994.224174,3447.429741
1462.657372,6291.750507,-7328.038826,4826.401637
1462.657701,8438.347739,-5699.585753,5132.839837
1462.658030,9474.636058,-3923.091493,5362.668486
1462.658359,9696.697840,-2960.823768,5592.497135
1462.658688,10510.924376,-1850.514855,4903.011187
1462.659017,9548.656652,-2442.679609,4443.353888
1462.659346,7994.224174,-5107.421000,3753.867940
1462.659675,7179.997637,-6661.853478,3447.429741
1462.660005,6735.874072,-7698.141797,3524.039291
1462.660334,6143.709319,-8808.450710,3064.381992
1462.660663,5773.606348,-9474.636058,3524.039291
1462.660992,5773.606348,-9474.636058,3907.087040
1462.661321,5995.668130,-8586.388927,3983.696590
1462.661650,5477.523971,-6587.832884,3677.258390
1462.661979,6439.791695,-5033.400406,3907.087040
1462.662308,7920.203579,-4071.132681,4060.306139
1462.662637,9178.553681,-4515.256246,4596.572988
1462.662966,8364.327145,-5107.421000,4060.306139
1462.663295,7994.224174,-5551.544565,3447.429741
1462.663624,7402.059420,-6217.729913,3217.601092
1462.663954,6291.750507,-7031.956449,3600.648841
1462.664283,6069.688724,-7846.182985,3064.381992
1462.664612,5403.503377,-7624.121203,2757.943793
1462.664941,5773.606348,-7698.141797,2834.553343
1462.665270,7105.977043,-7105.977043,4060.306139
1462.665599,8364.327145,-5921.647536,4596.572988
1462.665928,7624.121203,-5995.668130,3753.867940
1462.666257,7920.203579,-5921.647536,4366.744339
1462.666586,7550.100608,-5255.462188,3753.867940
1462.666915,7550.100608,-5107.421000,3140.991542
1462.667244,7698.141797,-3701.029710,3983.696590
1462.667573,7994.224174,-3997.112087,3677.258390
1462.667902,8660.409521,-4737.318029,3983.696590
1462.668232,7624.121203,-5847.626942,3830.477490
1462.668561,7402.059420,-8068.244768,3753.867940
1462.668890,6291.750507,-9622.677246,3677.258390
1462.669219,4515.256246,-10436.903782,3217.601092
1462.669548,3256.906145,-10584.944971,2451.505594
1462.669877,3182.885551,-9104.533087,2221.676944
1462.670206,4959.379811,-7179.997637,3217.601092
1462.670535,6365.771101,-5921.647536,3907.087040
1462.670864,7624.121203,-5255.462188,5286.058936
1462.671193,8216.285956,-4441.235652,4979.620737
1462.671522,7179.997637,-3330.926739,4826.401637
1462.671851,7920.203579,-3478.967927,4596.572988
1462.672181,9326.594869,-3849.070898,4903.011187
1462.672510,9844.739029,-4515.256246,4749.792088
1462.672839,9770.718434,-4811.338623,4903.011187
1462.673168,8512.368333,-6291.750507,4519.963438
1462.673497,7105.977043,-8290.306550,3140.991542
1462.673826,4811.338623,-10362.883188,2528.115143
1462.674155,3256.906145,-11473.192101,2681.334243
1462.674484,2886.803174,-11473.192101,3294.210641
1462.674813,3182.885551,-9770.718434,2911.162892
1462.675142,4293.194464,-7698.141797,3370.820191
1462.675471,5699.585753,-5107.421000,4443.353888
1462.675800,8290.306550,-3849.070898,5132.839837
1462.676130,10584.944971,-3701.029710,5592.497135
1462.676459,9918.759623,-1924.535449,5975.544884
1462.676788,9622.677246,-1776.494261,5286.058936
1462.677117,9474.636058,-2886.803174,4903.011187
1462.677446,8290.306550,-4515.256246,4596.572988
1462.677775,7179.997637,-7254.018232,4290.134789
1462.678104,7402.059420,-8364.327145,4749.792088
1462.678433,7254.018232,-9400.615463,4136.915689
1462.678762,6291.750507,-10658.965565,3677.258390
1462.679091,4737.318029,-9030.512492,3217.601092
1462.679420,4293.194464,-7846.182985,2451.505594
1462.679749,4145.153275,-7846.182985,2681.334243
1462.680078,5181.441594,-6513.812290,4366.744339
1462.680408,6957.935855,-4589.276840,4749.792088
1462.680737,7846.182985,-4367.215058,4903.011187
1462.681066,7772.162391,-4959.379811,4979.620737
1462.681395,7920.203579,-5773.606348,4826.401637
1462.681724,8068.244768,-5625.565159,4826.401637
1462.682053,8142.265362,-5773.606348,4903.011187
1462.682382,8882.471304,-5329.482782,4596.572988
1462.682711,8068.244768,-5699.585753,3907.087040
1462.683040,7031.956449,-8068.244768,4213.525239
1462.683369,6735.874072,-8586.388927,4826.401637
1462.683698,7328.038826,-8364.327145,3907.087040
1462.684027,6069.688724,-8068.244768,3677.258390
1462.684357,4959.379811,-7624.121203,3217.601092
1462.684686,4959.379811,-8364.327145,3830.477490
1462.685015,5773.606348,-7624.121203,4443.353888
1462.685344,7105.977043,-4959.379811,3907.087040
1462.685673,7772.162391,-3108.864956,4749.792088
1462.686002,7920.203579,-2294.638420,3753.867940
1462.686331,7402.059420,-5181.441594,3753.867940
1462.686660,7328.038826,-6143.709319,4366.744339
1462.686989,8216.285956,-6957.935855,4673.182538
1462.687318,8512.368333,-7179.997637,4366.744339
1462.687647,7105.977043,-8068.244768,4136.915689
1462.687976,6143.709319,-9992.780217,4290.134789
1462.688306,5773.606348,-8512.368333,4826.401637
1462.688635,6143.709319,-7105.977043,3907.087040
1462.688964,6661.853478,-6587.832884,3907.087040
1462.689293,7105.977043,-4885.359217,3983.696590
1462.689622,7105.977043,-4959.379811,3677.258390
1462.689951,6143.709319,-4737.318029,3753.867940
1462.690280,6069.688724,-5625.565159,3983.696590
1462.690609,7476.080014,-5847.626942,2528.115143
1462.690938,8142.265362,-5551.544565,4060.306139
1462.691267,8808.450710,-4885.359217,4903.011187
1462.691596,8216.285956,-6217.729913,4060.306139
1462.691925,7624.121203,-8438.347739,4060.306139
1462.692255,6513.812290,-8364.327145,3600.648841
1462.692584,6365.771101,-8068.244768,3524.039291
1462.692913,5921.647536,-8438.347739,4290.134789
1462.693242,5033.400406,-9252.574275,4596.572988
1462.693571,4811.338623,-8438.347739,3830.477490
1462.693900,6513.812290,-4293.194464,3907.087040
1462.694229,8438.347739,-4145.153275,4673.182538
1462.694558,9252.574275,-3627.009116,4673.182538
1462.694887,7846.182985,-4145.153275,4519.963438
1462.695216,6957.935855,-4663.297435,3064.381992
1462.695545,6439.791695,-3923.091493,1838.629195
1462.695874,6957.935855,-4589.276840,1762.019645
1462.696203,7994.224174,-6883.915261,3140.991542
1462.696533,8512.368333,-8142.265362,3753.867940
1462.696862,7402.059420,-8808.450710,3370.820191
1462.697191,6365.771101,-7698.141797,3677.258390
1462.697520,6957.935855,-8734.430116,3217.601092
1462.697849,6439.791695,-9918.759623,4060.306139
1462.698178,5033.400406,-9548.656652,3983.696590
1462.698507,4145.153275,-6587.832884,2681.334243
1462.698836,5255.462188,-4441.235652,2834.553343
1462.699165,7105.977043,-5403.503377,3830.477490
1462.699494,8438.347739,-5033.400406,5439.278036
1462.699823,8808.450710,-4145.153275,4749.792088
1462.700152,8882.471304,-3034.844362,3140.991542
1462.700482,8290.306550,-2294.638420,2145.067394
1462.700811,7402.059420,-4589.276840,2451.505594
1462.701140,7328.038826,-5255.462188,1302.362347
1462.701469,7254.018232,-5477.523971,689.485948
1462.701798,6069.688724,-7624.121203,-383.047749
1462.702127,5181.441594,-10658.965565,612.876398
1462.702456,5477.523971,-12287.418637,2681.334243
1462.702785,6143.709319,-12287.418637,2528.115143
1462.703114,5403.503377,-10214.842000,1762.019645
1462.703443,5329.482782,-7772.162391,2451.505594
1462.703772,6587.832884,-7698.141797,3217.601092
1462.704101,8438.347739,-5255.462188,3907.087040
1462.704431,8586.388927,-2368.659014,2834.553343
1462.704760,7994.224174,-1850.514855,2681.334243
1462.705089,8438.347739,-3182.885551,2451.505594
1462.705418,9030.512492,-3849.070898,2911.162892
1462.705747,8512.368333,-2886.803174,2068.457845
1462.706076,8660.409521,-4811.338623,1378.971896
1462.706405,7550.100608,-6069.688724,1072.533697
1462.706734,5699.585753,-8290.306550,0.000000
1462.707063,5329.482782,-11843.295072,536.266849
1462.707392,4885.359217,-11843.295072,306.438199
1462.707721,3182.885551,-10658.965565,-536.266849
1462.708050,3478.967927,-10436.903782,-383.047749
1462.708379,6513.812290,-8438.347739,2374.896044
1462.708709,8660.409521,-6661.853478,2757.943793
1462.709038,7846.182985,-4737.318029,2451.505594
1462.709367,7254.018232,-2516.700203,3294.210641
1462.709696,8734.430116,-2146.597232,2374.896044
1462.710025,9252.574275,-2220.617826,1685.410096
1462.710354,8660.409521,-2368.659014,1608.800546
1462.710683,9252.574275,-4515.256246,536.266849
1462.711013,9178.553681,-5107.421000,-995.924147
1462.711342,5847.626942,-6143.709319,-1455.581446
1462.711671,4959.379811,-8956.491898,-766.095498
1462.712000,5625.565159,-11917.315666,-536.266849
1462.712329,4663.297435,-12583.501014,536.266849
1462.712658,4293.194464,-11917.315666,1455.581446
1462.712987,5995.668130,-9770.718434,1915.238745
1462.713317,6809.894666,-6809.894666,2451.505594
1462.713646,6439.791695,-4515.256246,1991.848295
1462.713975,8068.244768,-3478.967927,2374.896044
1462.714304,9474.636058,-1628.453072,2451.505594
1462.714633,8882.471304,-1480.411884,1685.410096
1462.714962,8216.285956,-1702.473667,1455.581446
1462.715291,8216.285956,-3627.009116,306.438199
1462.715621,7550.100608,-6439.791695,-766.095498
1462.715950,5403.503377,-7698.141797,459.657299
1462.716279,6143.709319,-10658.965565,0.000000
1462.716608,6735.874072,-11547.212695,0.000000
1462.716937,5773.606348,-11399.171507,1072.533697
1462.717266,5181.441594,-11251.130318,306.438199
1462.717595,4959.379811,-8142.265362,0.000000
1462.717925,4663.297435,-7254.018232,536.266849
1462.718254,6069.688724,-5403.503377,1225.752797
1462.718583,9326.594869,-2442.679609,2681.334243
1462.718912,11177.109724,-2516.700203,3447.429741
1462.719241,10955.047942,-1850.514855,3830.477490
1462.719570,9548.656652,-3182.885551,2221.676944
1462.719899,7772.162391,-3775.050304,76.609550
1462.720229,6735.874072,-3923.091493,-766.095498
1462.720558,6587.832884,-7698.141797,0.000000
1462.720887,6735.874072,-8586.388927,-229.828649
1462.721216,5847.626942,-10881.027347,229.828649
1462.721545,5921.647536,-11251.130318,1072.533697
1462.721874,5255.462188,-10732.986159,1149.143247
1462.722203,4219.173869,-10510.924376,1149.143247
1462.722533,4663.297435,-7772.162391,1302.362347
1462.722862,6439.791695,-6069.688724,842.705048
1462.723191,7994.224174,-2368.659014,1302.362347
1462.723520,8142.265362,-1776.494261,1838.629195
1462.723849,8364.327145,-2960.823768,1838.629195
1462.724178,8068.244768,-2072.576638,842.705048
1462.724507,8142.265362,-4885.359217,1455.581446
1462.724837,8216.285956,-7105.977043,2221.676944
1462.725166,7550.100608,-8660.409521,1149.143247
1462.725495,6365.771101,-9252.574275,0.000000
1462.725824,5773.606348,-9252.574275,-306.438199
1462.726153,5551.544565,-9918.759623,76.609550
1462.726482,4737.318029,-8586.388927,-689.485948
1462.726811,3849.070898,-9252.574275,306.438199
1462.727140,6069.688724,-8512.368333,1225.752797
1462.727470,7994.224174,-5329.482782,2374.896044
1462.727799,8290.306550,-3849.070898,2451.505594
1462.728128,8882.471304,-3775.050304,3064.381992
1462.728457,9474.636058,-2812.782580,1378.971896
1462.728786,7328.038826,-3330.926739,0.000000
1462.729115,6809.894666,-3701.029710,2068.457845
1462.729444,7772.162391,-6291.750507,842.705048
1462.729774,7550.100608,-7550.100608,459.657299
1462.730103,5847.626942,-8512.368333,919.314598
1462.730432,6143.709319,-10214.842000,1455.581446
1462.730761,5181.441594,-9030.512492,306.438199
1462.731090,3701.029710,-10288.862594,0.000000
1462.731419,4219.173869,-9178.553681,766.095498
1462.731748,6957.935855,-7179.997637,153.219100
1462.732078,8142.265362,-4737.318029,919.314598
1462.732407,7994.224174,-3923.091493,2145.067394
1462.732736,8734.430116,-3552.988522,1838.629195
1462.733065,8438.347739,-2146.597232,689.485948
1462.733394,7550.100608,-3256.906145,1838.629195
1462.733723,8808.450710,-5847.626942,1762.019645
1462.734052,8956.491898,-6587.832884,1608.800546
1462.734382,7550.100608,-7772.162391,1991.848295
1462.734711,7550.100608,-8142.265362,1072.533697
1462.735040,6809.894666,-8216.285956,229.828649
1462.735369,4367.215058,-8660.409521,-306.438199
1462.735698,3923.091493,-9696.697840,-153.219100
1462.736027,5699.585753,-8364.327145,229.828649
1462.736356,6809.894666,-6587.832884,919.314598
1462.736686,7550.100608,-5921.647536,2451.505594
1462.737015,8660.409521,-6069.688724,1838.629195
1462.737344,7476.080014,-4737.318029,536.266849
1462.737673,6957.935855,-4145.153275,1072.533697
1462.738002,7846.182985,-5033.400406,2145.067394
1462.738331,7994.224174,-6365.771101,2221.676944
1462.738660,7328.038826,-6291.750507,1072.533697
1462.738990,6365.771101,-6365.771101,306.438199
1462.739319,6143.709319,-7920.203579,-536.266849
1462.739648,5255.462188,-7772.162391,229.828649
1462.739977,5625.565159,-10140.821405,995.924147
1462.740306,7105.977043,-8734.430116,1072.533697
1462.740635,7105.977043,-6143.709319,536.266849
1462.740964,7105.977043,-6291.750507,1455.581446
1462.741294,7920.203579,-5329.482782,1072.533697
1462.741623,6883.915261,-5403.503377,383.047749
1462.741952,6143.709319,-4145.153275,76.609550
1462.742281,6365.771101,-5033.400406,1608.800546
1462.742610,7994.224174,-5625.565159,2451.505594
1462.742939,8364.327145,-6069.688724,2451.505594
1462.743268,7994.224174,-7328.038826,1838.629195
1462.743598,7550.100608,-6809.894666,1532.190996
1462.743927,6069.688724,-7105.977043,459.657299
1462.744256,5477.523971,-7624.121203,1532.190996
1462.744585,6735.874072,-7920.203579,689.485948
1462.744914,7328.038826,-7402.059420,919.314598
1462.745243,6513.812290,-6217.729913,919.314598
1462.745572,6587.832884,-7476.080014,1072.533697
1462.745902,6587.832884,-5403.503377,-459.657299
1462.746231,5995.668130,-4959.379811,0.000000
1462.746560,6809.894666,-7772.162391,2068.457845
1462.746889,7994.224174,-5921.647536,1455.581446
1462.747218,7254.018232,-6143.709319,1838.629195
1462.747547,7550.100608,-5995.668130,1915.238745
1462.747876,8216.285956,-5995.668130,1838.629195
1462.748206,7772.162391,-6735.874072,1838.629195
1462.748535,6439.791695,-6735.874072,1378.971896
1462.748864,7550.100608,-8290.306550,2068.457845
1462.749193,9030.512492,-6661.853478,1608.800546
1462.749522,7476.080014,-6291.750507,1685.410096
1462.749851,6513.812290,-6069.688724,1149.143247
1462.750180,5625.565159,-5329.482782,-766.095498
1462.750510,4145.153275,-6291.750507,-1378.971896
1462.750839,4811.338623,-7402.059420,536.266849
1462.751168,7105.977043,-7846.182985,1915.238745
1462.751497,7846.182985,-7624.121203,2068.457845
1462.751826,7920.203579,-6587.832884,2451.505594
1462.752155,7550.100608,-7031.956449,2374.896044
1462.752484,6809.894666,-6661.853478,1072.533697
1462.752814,5329.482782,-6217.729913,612.876398
1462.753143,6513.812290,-5551.544565,383.047749
1462.753472,8734.430116,-5403.503377,1378.971896
1462.753801,8586.388927,-5625.565159,1915.238745
1462.754130,7624.121203,-7105.977043,2221.676944
1462.754459,7328.038826,-6587.832884,459.657299
1462.754788,6217.729913,-6291.750507,-1685.410096
1462.755118,4959.379811,-7105.977043,153.219100
1462.755447,6439.791695,-8142.265362,1302.362347
1462.755776,7031.956449,-7328.038826,612.876398
1462.756105,6439.791695,-5477.523971,536.266849
1462.756434,6513.812290,-5329.482782,1532.190996
1462.756763,7179.997637,-6217.729913,1378.971896
1462.757092,7179.997637,-6883.915261,1838.629195
1462.757422,6883.915261,-6217.729913,1838.629195
1462.757751,9178.553681,-5773.606348,2068.457845
1462.758080,9030.512492,-4811.338623,1991.848295
1462.758409,7920.203579,-6143.709319,1762.019645
1462.758738,7550.100608,-5995.668130,842.705048
1462.759067,6217.729913,-4811.338623,-1225.752797
1462.759396,5329.482782,-7254.018232,-536.266849
1462.759726,6439.791695,-9400.615463,536.266849
1462.760055,6883.915261,-9252.574275,459.657299
1462.760384,6883.915261,-7179.997637,-153.219100
1462.760713,7328.038826,-7476.080014,766.095498
1462.761042,7772.162391,-6439.791695,1532.190996
1462.761371,6957.935855,-5921.647536,383.047749
1462.761700,6439.791695,-6291.750507,1685.410096
1462.762030,8438.347739,-5403.503377,1378.971896
1462.762359,8438.347739,-4071.132681,612.876398
1462.762688,7179.997637,-4367.215058,1378.971896
1462.763017,7254.018232,-5255.462188,612.876398
1462.763346,7179.997637,-5107.421000,-842.705048
1462.763675,5847.626942,-6069.688724,-306.438199
1462.764004,6883.915261,-8290.306550,1225.752797
1462.764333,7772.162391,-8660.409521,1302.362347
1462.764663,7328.038826,-7624.121203,1072.533697
1462.764992,6143.709319,-7402.059420,919.314598
1462.765321,6291.750507,-6217.729913,766.095498
1462.765650,5551.544565,-6365.771101,76.609550
1462.765979,5625.565159,-6069.688724,1072.533697
1462.766308,7476.080014,-6661.853478,1608.800546
1462.766637,8586.388927,-5107.421000,1915.238745
1462.766967,8068.244768,-4811.338623,1302.362347
1462.767296,7105.977043,-5033.400406,1685.410096
1462.767625,6513.812290,-4737.318029,-383.047749
1462.767954,5181.441594,-6143.709319,-766.095498
1462.768283,5329.482782,-6809.894666,1072.533697
1462.768612,7550.100608,-8660.409521,1225.752797
1462.768941,8734.430116,-8438.347739,1608.800546
1462.769271,8216.285956,-8512.368333,2374.896044
1462.769600,7179.997637,-8142.265362,1532.190996
1462.769929,5403.503377,-5699.585753,0.000000
1462.770258,4737.318029,-6587.832884,229.828649
1462.770587,6735.874072,-6661.853478,995.924147
1462.770916,8586.388927,-5033.400406,1225.752797
1462.771245,8734.430116,-6069.688724,2681.334243
1462.771575,8808.450710,-5699.585753,2604.724693
1462.771904,7179.997637,-5107.421000,689.485948
1462.772233,5181.441594,-5033.400406,-612.876398
1462.772562,4885.359217,-6809.894666,0.000000
1462.772891,7328.038826,-7254.018232,1225.752797
1462.773220,7624.121203,-8216.285956,1302.362347
1462.773549,6735.874072,-7846.182985,1685.410096
1462.773879,7328.038826,-9326.594869,2528.115143
1462.774208,6957.935855,-8734.430116,1915.238745
1462.774537,4737.318029,-6883.915261,0.000000
1462.774866,4737.318029,-7179.997637,612.876398
1462.775195,7698.141797,-6365.771101,842.705048
1462.775524,8586.388927,-4219.173869,1149.143247
1462.775853,7698.141797,-5255.462188,2145.067394
1462.776183,7994.224174,-4515.256246,612.876398
1462.776512,6069.688724,-5033.400406,0.000000
1462.776841,5255.462188,-7772.162391,1072.533697
1462.777170,6439.791695,-8956.491898,2451.505594
1462.777499,7920.203579,-7179.997637,1762.019645
1462.777828,7402.059420,-6365.771101,1149.143247
1462.778157,6809.894666,-6883.915261,2068.457845
1462.778487,7179.997637,-5551.544565,1378.971896
1462.778816,7254.018232,-5551.544565,306.438199
1462.779145,6661.853478,-6735.874072,2068.457845
1462.779474,7772.162391,-6069.688724,1762.019645
1462.779803,8290.306550,-5255.462188,1685.410096
1462.780132,7772.162391,-5847.626942,2145.067394
1462.780461,7105.977043,-6735.874072,1608.800546
1462.780791,7031.956449,-5625.565159,-229.828649
1462.781120,5033.400406,-6217.729913,153.219100
1462.781449,5403.503377,-7105.977043,536.266849
1462.781778,6587.832884,-7624.121203,689.485948
1462.782107,7105.977043,-7402.059420,1915.238745
1462.782436,7328.038826,-7846.182985,2374.896044
1462.782765,7328.038826,-6143.709319,2145.067394
1462.783095,6513.812290,-5403.503377,1225.752797
1462.783424,5995.668130,-6957.935855,1532.190996
1462.783753,8068.244768,-6587.832884,1608.800546
1462.784082,8438.347739,-5181.441594,1455.581446
1462.784411,7550.100608,-5033.400406,689.485948
1462.784740,7105.977043,-5699.585753,229.828649
1462.785069,6365.771101,-5699.585753,-995.924147
1462.785399,5181.441594,-7031.956449,-306.438199
1462.785728,5995.668130,-9252.574275,1455.581446
1462.786057,7772.162391,-9252.574275,2451.505594
1462.786386,7920.203579,-7772.162391,1915.238745
1462.786715,7254.018232,-7031.956449,2374.896044
1462.787044,6883.915261,-5329.482782,1532.190996
1462.787373,5921.647536,-4293.194464,-459.657299
1462.787703,5329.482782,-5107.421000,0.000000
1462.788032,6883.915261,-5329.482782,842.705048
1462.788361,8290.306550,-5551.544565,842.705048
1462.788690,8734.430116,-5773.606348,1991.848295
1462.789019,8586.388927,-8882.471304,2145.067394
1462.789348,7402.059420,-8586.388927,612.876398
1462.789677,5033.400406,-7328.038826,76.609550
1462.790007,4589.276840,-7846.182985,-229.828649
1462.790336,6143.709319,-6883.915261,-612.876398
1462.790665,6661.853478,-6883.915261,-306.438199
1462.790994,7254.018232,-7105.977043,1225.752797
1462.791323,8438.347739,-6809.894666,2451.505594
1462.791652,7920.203579,-6661.853478,1532.190996
1462.791981,6661.853478,-5329.482782,1532.190996
1462.792311,6735.874072,-6735.874072,1455.581446
1462.792640,8734.430116,-4737.318029,1608.800546
1462.792969,8290.306550,-4219.173869,1072.533697
1462.793298,8068.244768,-5477.523971,995.924147
1462.793627,7328.038826,-5403.503377,0.000000
1462.793956,5329.482782,-6587.832884,-1149.143247
1462.794285,5107.421000,-8808.450710,459.657299
1462.794615,6291.750507,-10436.903782,1532.190996
1462.794944,6291.750507,-8364.327145,919.314598
1462.795273,5847.626942,-8290.306550,1149.143247
1462.795602,7105.977043,-7328.038826,3370.820191
1462.795931,7550.100608,-3701.029710,1532.190996
1462.796260,6661.853478,-5403.503377,612.876398
1462.796589,6217.729913,-5107.421000,2145.067394
1462.796919,7402.059420,-4737.318029,1378.971896
1462.797248,7846.182985,-3997.112087,1455.581446
1462.797577,6883.915261,-4071.132681,1225.752797
1462.797906,7550.100608,-7179.997637,383.047749
1462.798235,7402.059420,-7254.018232,0.000000
1462.798564,6143.709319,-9104.533087,919.314598
1462.798893,5995.668130,-9252.574275,689.485948
1462.799223,6809.894666,-8660.409521,842.705048
1462.799552,6735.874072,-7624.121203,1225.752797
1462.799881,7476.080014,-7179.997637,1225.752797
1462.800210,7550.100608,-5107.421000,1608.800546
1462.800539,6587.832884,-4145.153275,766.095498
1462.800868,6735.874072,-4663.297435,1455.581446
1462.801197,8586.388927,-4367.215058,2298.286494
1462.801527,9696.697840,-3849.070898,1915.238745
1462.801856,8364.327145,-5107.421000,2374.896044
1462.802185,6883.915261,-6217.729913,689.485948
1462.802514,5625.565159,-6809.894666,-1072.533697
1462.802843,5033.400406,-8438.347739,-536.266849
1462.803172,5699.585753,-10436.903782,1149.143247
1462.803501,6957.935855,-10955.047942,1378.971896
1462.803830,6587.832884,-9474.636058,1072.533697
1462.804160,5847.626942,-8216.285956,1915.238745
1462.804489,6809.894666,-5551.544565,995.924147
1462.804818,7328.038826,-3849.070898,612.876398
1462.805147,7031.956449,-5181.441594,1838.629195
1462.805476,8586.388927,-3552.988522,1455.581446
1462.805805,8882.471304,-3552.988522,1762.019645
1462.806134,8512.368333,-4811.338623,2451.505594
1462.806464,7994.224174,-4663.297435,689.485948
1462.806793,6291.750507,-6513.812290,-1225.752797
1462.807122,4663.297435,-7328.038826,-612.876398
1462.807451,5033.400406,-9474.636058,153.219100
1462.807780,6661.853478,-10807.006753,1915.238745
1462.808109,7179.997637,-8364.327145,1608.800546
1462.808438,7402.059420,-8364.327145,1838.629195
1462.808768,8142.265362,-7179.997637,2911.162892
1462.809097,6365.771101,-4293.194464,1225.752797
1462.809426,5403.503377,-4071.132681,612.876398
1462.809755,7698.141797,-3256.906145,995.924147
1462.810084,9030.512492,-2368.659014,612.876398
1462.810413,7920.203579,-3182.885551,919.314598
1462.810742,7179.997637,-5255.462188,919.314598
1462.811072,6513.812290,-7254.018232,-1225.752797
1462.811401,5477.523971,-7328.038826,-766.095498
1462.811730,5995.668130,-10881.027347,1149.143247
1462.812059,7550.100608,-12139.377449,1378.971896
1462.812388,7328.038826,-9844.739029,1225.752797
1462.812718,5255.462188,-8808.450710,-383.047749
1462.813047,6439.791695,-7772.162391,689.485948
1462.813376,7031.956449,-5403.503377,766.095498
1462.813705,6661.853478,-5107.421000,383.047749
1462.814034,7846.182985,-4589.276840,1838.629195
1462.814363,9548.656652,-2516.700203,2298.286494
1462.814693,9696.697840,-3330.926739,1915.238745
1462.815022,7920.203579,-3997.112087,2145.067394
1462.815351,6883.915261,-3404.947333,229.828649
1462.815680,6365.771101,-5995.668130,-1378.971896
1462.816009,5921.647536,-8216.285956,919.314598
1462.816339,6143.709319,-9992.780217,76.609550
1462.816668,6439.791695,-11769.274478,689.485948
1462.816997,6365.771101,-9548.656652,1532.190996
1462.817326,5847.626942,-9696.697840,1915.238745
1462.817655,5921.647536,-7031.956449,1302.362347
1462.817985,5033.400406,-5551.544565,919.314598
1462.818314,6661.853478,-5403.503377,1685.410096
1462.818643,8956.491898,-3627.009116,1838.629195
1462.818972,9104.533087,-1702.473667,2451.505594
1462.819301,8364.327145,-1850.514855,1302.362347
1462.819630,7254.018232,-3701.029710,229.828649
1462.819960,6439.791695,-3701.029710,-995.924147
1462.820289,6143.709319,-7179.997637,0.000000
1462.820618,7772.162391,-10140.821405,1302.362347
1462.820947,8216.285956,-10584.944971,2068.457845
1462.821276,7476.080014,-11843.295072,1838.629195
1462.821606,6735.874072,-10510.924376,1762.019645
1462.821935,6217.729913,-8290.306550,1608.800546
1462.822264,4589.276840,-7031.956449,0.000000
1462.822593,4959.379811,-5255.462188,536.266849
1462.822922,7846.182985,-4811.338623,1149.143247
1462.823251,9622.677246,-2516.700203,2451.505594
1462.823581,9104.533087,-2664.741391,3447.429741
1462.823910,8216.285956,-2294.638420,1532.190996
1462.824239,5921.647536,-2590.720797,-1225.752797
1462.824568,4959.379811,-5403.503377,-612.876398
1462.824897,7031.956449,-8586.388927,1149.143247
1462.825227,8142.265362,-10658.965565,1762.019645
1462.825556,7994.224174,-10955.047942,2068.457845
1462.825885,7402.059420,-11029.068536,1762.019645
1462.826214,6143.709319,-9326.594869,459.657299
1462.826543,4219.173869,-7920.203579,153.219100
1462.826873,4441.235652,-8216.285956,76.609550
1462.827202,6809.894666,-5995.668130,1072.533697
1462.827531,8512.368333,-3552.988522,2451.505594
1462.827860,7994.224174,-2886.803174,2145.067394
1462.828189,8438.347739,-3108.864956,1378.971896
1462.828518,7402.059420,-4145.153275,689.485948
1462.828848,5995.668130,-4367.215058,0.000000
1462.829177,5921.647536,-7698.141797,1378.971896
1462.829506,8142.265362,-8808.450710,2604.724693
1462.829835,8734.430116,-9474.636058,1378.971896
1462.830164,7179.997637,-9252.574275,1149.143247
1462.830494,5773.606348,-8734.430116,1378.971896
1462.830823,4811.338623,-8216.285956,0.000000
1462.831152,4885.359217,-5773.606348,229.828649
1462.831481,5773.606348,-7328.038826,1378.971896
1462.831810,8808.450710,-5625.565159,3217.601092
1462.832139,9474.636058,-4441.235652,2834.553343
1462.832469,7920.203579,-5033.400406,2757.943793
1462.832798,6217.729913,-1554.432478,-1149.143247
1462.833127,5107.421000,-3997.112087,-1378.971896
1462.833456,5181.441594,-7031.956449,995.924147
1462.833785,6143.709319,-7476.080014,383.047749
1462.834115,7105.977043,-10288.862594,995.924147
1462.834444,8068.244768,-9400.615463,2451.505594
1462.834773,8068.244768,-9252.574275,2834.553343
1462.835102,6883.915261,-8660.409521,2298.286494
1462.835431,5551.544565,-6883.915261,1378.971896
1462.835760,6587.832884,-6291.750507,689.485948
1462.836090,8068.244768,-5033.400406,1455.581446
1462.836419,8438.347739,-3478.967927,1762.019645
1462.836748,8438.347739,-3627.009116,1685.410096
1462.837077,7328.038826,-3256.906145,-766.095498
1462.837406,4663.297435,-3552.988522,-1532.190996
1462.837736,4959.379811,-7920.203579,612.876398
1462.838065,7846.182985,-9622.677246,1915.238745
1462.838394,7624.121203,-9844.739029,1838.629195
1462.838723,7402.059420,-9548.656652,2374.896044
1462.839052,7772.162391,-8660.409521,2451.505594
1462.839382,7105.977043,-7105.977043,1685.410096
1462.839711,6069.688724,-6957.935855,689.485948
1462.840040,5995.668130,-4737.318029,689.485948
1462.840369,7994.224174,-4589.276840,1072.533697
1462.840698,7920.203579,-3849.070898,1378.971896
1462.841027,7772.162391,-5033.400406,3217.601092
1462.841357,8216.285956,-5329.482782,1608.800546
1462.841686,6365.771101,-4219.173869,-995.924147
1462.842015,4737.318029,-6143.709319,-536.266849
1462.842344,6365.771101,-8660.409521,689.485948
1462.842673,8364.327145,-9326.594869,612.876398
1462.843003,8216.285956,-9400.615463,1455.581446
1462.843332,7550.100608,-8734.430116,2068.457845
1462.843661,6957.935855,-6291.750507,229.828649
1462.843990,5551.544565,-6439.791695,76.609550
1462.844319,6143.709319,-6735.874072,1685.410096
1462.844648,8956.491898,-5107.421000,1915.238745
1462.844978,9252.574275,-4589.276840,2451.505594
1462.845307,7624.121203,-4441.235652,1991.848295
1462.845636,7402.059420,-4589.276840,459.657299
1462.845965,6439.791695,-4737.318029,-1378.971896
1462.846294,3849.070898,-5625.565159,-1072.533697
1462.846624,4367.215058,-8882.471304,383.047749
1462.846953,7624.121203,-9400.615463,1378.971896
1462.847282,8290.306550,-8882.471304,1762.019645
1462.847611,7179.997637,-9104.533087,2298.286494
1462.847940,6439.791695,-8808.450710,1378.971896
1462.848269,5551.544565,-7698.141797,229.828649
1462.848599,5625.565159,-7105.977043,0.000000
1462.848928,5403.503377,-5329.482782,842.705048
1462.849257,7920.203579,-3627.009116,1685.410096
1462.849586,8512.368333,-5181.441594,2145.067394
1462.849915,7550.100608,-4367.215058,1838.629195
1462.850245,6587.832884,-2738.761985,-766.095498
1462.850574,6217.729913,-4515.256246,-766.095498
1462.850903,6735.874072,-7476.080014,1455.581446
1462.851232,7031.956449,-8808.450710,842.705048
1462.851561,8734.430116,-9770.718434,1608.800546
1462.851891,8586.388927,-8734.430116,3140.991542
1462.852220,7698.141797,-8660.409521,1685.410096
1462.852549,6217.729913,-7772.162391,842.705048
1462.852878,5107.421000,-7550.100608,689.485948
1462.853207,6291.750507,-5995.668130,0.000000
1462.853536,7179.997637,-4071.132681,995.924147
1462.853866,7624.121203,-4515.256246,1991.848295
1462.854195,9178.553681,-4959.379811,1991.848295
1462.854524,8068.244768,-3849.070898,995.924147
1462.854853,5699.585753,-3552.988522,76.609550
1462.855182,5773.606348,-6587.832884,-306.438199
1462.855512,7105.977043,-8438.347739,995.924147
1462.855841,7550.100608,-9474.636058,995.924147
1462.856170,8290.306550,-9992.780217,2221.676944
1462.856499,7772.162391,-9104.533087,2451.505594
1462.856828,6365.771101,-7402.059420,306.438199
1462.857157,4811.338623,-7994.224174,842.705048
1462.857487,6291.750507,-7328.038826,1685.410096
1462.857816,7624.121203,-5255.462188,1302.362347
1462.858145,7698.141797,-3849.070898,1685.410096
1462.858474,7920.203579,-4071.132681,2451.505594
1462.858803,8216.285956,-3256.906145,1149.143247
1462.859133,6365.771101,-2368.659014,-689.485948
1462.859462,4515.256246,-5107.421000,0.000000
1462.859791,6587.832884,-7402.059420,612.876398
1462.860120,8216.285956,-8512.368333,1991.848295
1462.860449,7846.182985,-9474.636058,2451.505594
1462.860778,6883.915261,-9770.718434,2681.334243
1462.861108,6143.709319,-6291.750507,766.095498
1462.861437,4589.276840,-7624.121203,-612.876398
1462.861766,5477.523971,-8290.306550,1532.190996
1462.862095,8068.244768,-6661.853478,2451.505594
1462.862424,7994.224174,-4441.235652,1532.190996
1462.862754,6735.874072,-4959.379811,2068.457845
1462.863083,6661.853478,-4959.379811,612.876398
1462.863412,6439.791695,-4367.215058,-1685.410096
1462.863741,4737.318029,-4737.318029,-383.047749
1462.864070,6143.709319,-6439.791695,842.705048
1462.864400,8734.430116,-7772.162391,689.485948
1462.864729,8808.450710,-8216.285956,2451.505594
1462.865058,8438.347739,-8734.430116,2528.115143
1462.865387,7698.141797,-7550.100608,1225.752797
1462.865716,6365.771101,-6957.935855,919.314598
1462.866045,5773.606348,-8438.347739,995.924147
1462.866375,7179.997637,-7698.141797,2145.067394
1462.866704,8956.491898,-5625.565159,1915.238745
1462.867033,7550.100608,-5699.585753,1915.238745
1462.867362,6513.812290,-4885.359217,766.095498
1462.867691,5403.503377,-2886.803174,-1762.019645
1462.868021,5329.482782,-3849.070898,-842.705048
1462.868350,6513.812290,-6883.915261,842.705048
1462.868679,8068.244768,-7846.182985,2451.505594
1462.869008,8290.306550,-8364.327145,2374.896044
1462.869337,7920.203579,-8216.285956,3140.991542
1462.869666,6883.915261,-7328.038826,1685.410096
1462.869996,5551.544565,-6143.709319,-612.876398
1462.870325,4737.318029,-7624.121203,536.266849
1462.870654,6735.874072,-7698.141797,612.876398
1462.870983,8142.265362,-6069.688724,842.705048
1462.871312,8142.265362,-6069.688724,2068.457845
1462.871642,7994.224174,-6809.894666,1455.581446
1462.871971,6439.791695,-4811.338623,0.000000
1462.872300,4367.215058,-5403.503377,-306.438199
1462.872629,4959.379811,-6957.935855,536.266849
1462.872958,7624.121203,-6291.750507,1225.752797
1462.873287,8290.306550,-6957.935855,1532.190996
1462.873617,8290.306550,-7550.100608,2221.676944
1462.873946,7550.100608,-7624.121203,2528.115143
1462.874275,6513.812290,-5329.482782,153.219100
1462.874604,4885.359217,-6587.832884,76.609550
1462.874933,7105.977043,-7179.997637,1608.800546
1462.875263,8808.450710,-7105.977043,1149.143247
1462.875592,7994.224174,-5995.668130,1608.800546
1462.875921,7624.121203,-6809.894666,1685.410096
1462.876250,7031.956449,-6217.729913,-536.266849
1462.876579,5255.462188,-5847.626942,-995.924147
1462.876909,5033.400406,-6883.915261,459.657299
1462.877238,6957.935855,-7402.059420,459.657299
1462.877567,7994.224174,-8068.244768,1532.190996
1462.877896,6661.853478,-7402.059420,1608.800546
1462.878225,7624.121203,-7179.997637,2451.505594
1462.878554,6883.915261,-5995.668130,536.266849
1462.878884,4959.379811,-5699.585753,383.047749
1462.879213,6365.771101,-7402.059420,1532.190996
1462.879542,8734.430116,-7031.956449,1608.800546
1462.879871,8956.491898,-5625.565159,1378.971896
1462.880200,7179.997637,-5625.565159,1378.971896
1462.880530,6661.853478,-5107.421000,0.000000
1462.880859,5921.647536,-4885.359217,-1378.971896
1462.881188,5181.441594,-8364.327145,536.266849
1462.881517,6513.812290,-8956.491898,1685.410096
1462.881846,8068.244768,-6957.935855,1915.238745
1462.882175,8734.430116,-7772.162391,2528.115143
1462.882505,7772.162391,-7254.018232,2987.772442
1462.882834,6513.812290,-6587.832884,1149.143247
1462.883163,4959.379811,-6291.750507,995.924147
1462.883492,5033.400406,-5477.523971,842.705048
1462.883821,7698.141797,-7328.038826,2068.457845
1462.884151,8290.306550,-4737.318029,2374.896044
1462.884480,6587.832884,-4737.318029,919.314598
1462.884809,5625.565159,-5551.544565,0.000000
1462.885138,5625.565159,-4145.153275,-536.266849
1462.885467,5625.565159,-7105.977043,0.000000
1462.885796,6735.874072,-8142.265362,2221.676944
1462.886126,7698.141797,-8660.409521,2834.553343
1462.886455,8734.430116,-8142.265362,1991.848295
1462.886784,7698.141797,-6883.915261,1991.848295
1462.887113,7328.038826,-6587.832884,1455.581446
1462.887442,7031.956449,-6513.812290,536.266849
1462.887772,7105.977043,-6883.915261,1532.190996
1462.888101,7476.080014,-6365.771101,689.485948
1462.888430,7698.141797,-5699.585753,1302.362347
1462.888759,7624.121203,-4885.359217,1532.190996
1462.889088,7550.100608,-6439.791695,1149.143247
1462.889418,7105.977043,-5403.503377,766.095498
1462.889747,5181.441594,-5329.482782,229.828649
1462.890076,5847.626942,-7254.018232,919.314598
1462.890405,7105.977043,-7402.059420,1455.581446
1462.890734,7698.141797,-7920.203579,1685.410096
1462.891063,7624.121203,-7105.977043,1915.238745
1462.891393,7105.977043,-5995.668130,1378.971896
1462.891722,6069.688724,-5921.647536,229.828649
1462.892051,5921.647536,-7772.162391,1225.752797
1462.892380,7772.162391,-7624.121203,1838.629195
1462.892709,8364.327145,-7328.038826,1991.848295
1462.893039,7624.121203,-6883.915261,1762.019645
1462.893368,6957.935855,-6809.894666,1378.971896
1462.893697,6217.729913,-4885.359217,-1149.143247
1462.894026,3923.091493,-4071.132681,-2145.067394
1462.894355,4293.194464,-5625.565159,-153.219100
1462.894684,6957.935855,-7105.977043,536.266849
1462.895014,8438.347739,-6809.894666,1685.410096
1462.895343,9400.615463,-7846.182985,3753.867940
1462.895672,9992.780217,-7105.977043,3447.429741
1462.896001,7994.224174,-5847.626942,1302.362347
1462.896330,5847.626942,-5921.647536,766.095498
1462.896660,6809.894666,-6809.894666,459.657299
1462.896989,8586.388927,-4811.338623,1149.143247
1462.897318,7476.080014,-5033.400406,306.438199
1462.897647,6957.935855,-6513.812290,612.876398
1462.897976,7179.997637,-6661.853478,0.000000
1462.898305,5329.482782,-7550.100608,-229.828649
1462.898635,5477.523971,-8068.244768,1532.190996
1462.898964,6587.832884,-7994.224174,1532.190996
1462.899293,7624.121203,-7105.977043,842.705048
1462.899622,7402.059420,-6587.832884,2221.676944
1462.899951,7624.121203,-5033.400406,1838.629195
1462.900281,7846.182985,-5699.585753,383.047749
1462.900610,6809.894666,-4663.297435,919.314598
1462.900939,7031.956449,-5773.606348,1149.143247
1462.901268,7994.224174,-6217.729913,1072.533697
1462.901597,8290.306550,-5921.647536,1991.848295
1462.901927,7920.203579,-7476.080014,1838.629195
1462.902256,7698.141797,-6957.935855,-229.828649
1462.902585,5181.441594,-7031.956449,-536.266849
1462.902914,4441.235652,-8956.491898,0.000000
1462.903243,5773.606348,-8142.265362,383.047749
1462.903572,6217.729913,-6661.853478,459.657299
1462.903902,7031.956449,-7476.080014,1685.410096
1462.904231,8364.327145,-6439.791695,3064.381992
1462.904560,7550.100608,-4515.256246,1991.848295
1462.904889,6217.729913,-4885.359217,1455.581446
1462.905218,6809.894666,-4737.318029,2145.067394
1462.905548,8512.368333,-4293.194464,1532.190996
1462.905877,8512.368333,-4811.338623,995.924147
1462.906206,7920.203579,-5551.544565,1532.190996
1462.906535,7476.080014,-7105.977043,0.000000
1462.906864,5255.462188,-7772.162391,-1762.019645
1462.907193,3552.988522,-9104.533087,-306.438199
1462.907523,5255.462188,-9918.759623,-459.657299
1462.907852,6587.832884,-9030.512492,536.266849
1462.908181,6661.853478,-8438.347739,1378.971896
1462.908510,8290.306550,-7254.018232,2757.943793
1462.908839,9474.636058,-4589.276840,1915.238745
1462.909169,7624.121203,-4145.153275,1532.190996
1462.909498,6587.832884,-4071.132681,1838.629195
1462.909827,8216.285956,-3108.864956,995.924147
1462.910156,8808.450710,-3330.926739,689.485948
1462.910485,8438.347739,-3923.091493,2068.457845
1462.910815,8512.368333,-5699.585753,306.438199
1462.911144,7846.182985,-7105.977043,0.000000
1462.911473,5847.626942,-9030.512492,153.219100
1462.911802,4811.338623,-11399.171507,842.705048
1462.912131,5699.585753,-9178.553681,536.266849
1462.912460,5773.606348,-8512.368333,-153.219100
1462.912790,6809.894666,-8512.368333,1302.362347
1462.913119,7846.182985,-6069.688724,1455.581446
1462.913448,6439.791695,-5033.400406,766.095498
1462.913777,6661.853478,-4441.235652,1455.581446
1462.914106,8216.285956,-4219.173869,1991.848295
1462.914436,8438.347739,-3256.906145,689.485948
1462.914765,7772.162391,-4071.132681,1762.019645
1462.915094,7402.059420,-5773.606348,1915.238745
1462.915423,7624.121203,-4811.338623,-1225.752797
1462.915752,5477.523971,-7550.100608,-1149.143247
1462.916082,5477.523971,-10510.924376,229.828649
1462.916411,7105.977043,-10658.965565,1455.581446
1462.916740,7328.038826,-11251.130318,1455.581446
1462.917069,6069.688724,-9474.636058,1762.019645
1462.917398,6365.771101,-6217.729913,1072.533697
1462.917728,6291.750507,-6365.771101,766.095498
1462.918057,5403.503377,-2442.679609,995.924147
1462.918386,6883.915261,-4737.318029,2221.676944
1462.918715,9548.656652,-2294.638420,2068.457845
1462.919044,8290.306550,-2072.576638,1225.752797
1462.919373,7772.162391,-6217.729913,1608.800546
1462.919703,7402.059420,-4737.318029,842.705048
1462.920032,4737.318029,-6957.935855,-1532.190996
1462.920361,4811.338623,-9252.574275,229.828649
1462.920690,6069.688724,-10584.944971,1072.533697
1462.921019,7402.059420,-10510.924376,1378.971896
1462.921349,7328.038826,-9030.512492,2145.067394
1462.921678,6957.935855,-8734.430116,2145.067394
1462.922007,6735.874072,-6513.812290,1149.143247
1462.922336,6143.709319,-5625.565159,1302.362347
1462.922665,6587.832884,-3775.050304,1685.410096
1462.922995,8586.388927,-2664.741391,612.876398
1462.923324,8290.306550,-4071.132681,1532.190996
1462.923653,8142.265362,-3923.091493,1685.410096
1462.923982,7624.121203,-5847.626942,0.000000
1462.924311,5551.544565,-5329.482782,-612.876398
1462.924641,5255.462188,-8216.285956,306.438199
1462.924970,6513.812290,-10955.047942,1302.362347
1462.925299,7179.997637,-9030.512492,1608.800546
1462.925628,7328.038826,-10066.800811,2298.286494
1462.925957,7920.203579,-8216.285956,3064.381992
1462.926286,7105.977043,-5847.626942,1378.971896
1462.926616,5699.585753,-6143.709319,1685.410096
1462.926945,6217.729913,-4663.297435,1762.019645
1462.927274,7105.977043,-3256.906145,1455.581446
1462.927603,7994.224174,-3701.029710,1685.410096
1462.927932,7402.059420,-3627.009116,1991.848295
1462.928262,7550.100608,-5255.462188,766.095498
1462.928591,6883.915261,-5995.668130,0.000000
1462.928920,5181.441594,-8068.244768,919.314598
1462.929249,6143.709319,-9770.718434,1072.533697
1462.929578,6513.812290,-10807.006753,1149.143247
1462.929908,6143.709319,-8882.471304,1532.190996
1462.930237,6217.729913,-7476.080014,1762.019645
1462.930566,6291.750507,-6883.915261,1302.362347
1462.930895,5921.647536,-5329.482782,1685.410096
1462.931224,6809.894666,-5329.482782,2757.943793
1462.931553,9030.512492,-3923.091493,2451.505594
1462.931883,9548.656652,-1776.494261,1302.362347
1462.932212,8734.430116,-4663.297435,1838.629195
1462.932541,7920.203579,-4441.235652,459.657299
1462.932870,6439.791695,-4515.256246,-1149.143247
1462.933199,4885.359217,-7698.141797,-842.705048
1462.933529,6365.771101,-9104.533087,0.000000
1462.933858,7105.977043,-11473.192101,229.828649
1462.934187,7328.038826,-12509.480420,1991.848295
1462.934516,7328.038826,-11769.274478,2911.162892
1462.934845,7624.121203,-8068.244768,2221.676944
1462.935175,5403.503377,-5477.523971,0.000000
1462.935504,4663.297435,-4367.215058,766.095498
1462.935833,7624.121203,-3108.864956,2374.896044
1462.936162,9178.553681,-2960.823768,689.485948
1462.936491,7698.141797,-2960.823768,1608.800546
1462.936821,7698.141797,-3478.967927,1072.533697
1462.937150,7624.121203,-5773.606348,-842.705048
1462.937479,5551.544565,-6217.729913,-1072.533697
1462.937808,5181.441594,-10362.883188,459.657299
1462.938137,7105.977043,-10140.821405,76.609550
1462.938466,7254.018232,-9918.759623,0.000000
1462.938796,6217.729913,-11695.253884,1455.581446
1462.939125,6957.935855,-7994.224174,1608.800546
1462.939454,6513.812290,-6661.853478,-153.219100
1462.939783,4663.297435,-5847.626942,612.876398
1462.940112,6735.874072,-4071.132681,3294.210641
1462.940442,10584.944971,-2368.659014,2451.505594
1462.940771,9548.656652,-2294.638420,2834.553343
1462.941100,7105.977043,-1332.370696,1991.848295
1462.941429,7328.038826,-2812.782580,-919.314598
1462.941758,5403.503377,-5181.441594,-2068.457845
1462.942088,4071.132681,-8734.430116,0.000000
1462.942417,7031.956449,-11103.089130,689.485948
1462.942746,8364.327145,-10584.944971,76.609550
1462.943075,7105.977043,-10288.862594,2068.457845
1462.943404,6143.709319,-10732.986159,1608.800546
1462.943734,6291.750507,-8290.306550,0.000000
1462.944063,4589.276840,-6143.709319,306.438199
1462.944392,5181.441594,-4885.359217,1072.533697
1462.944721,8956.491898,-2590.720797,1072.533697
1462.945050,9548.656652,-2442.679609,2451.505594
1462.945379,8586.388927,-4293.194464,2834.553343
1462.945709,8142.265362,-3997.112087,1225.752797
1462.946038,6809.894666,-4071.132681,-536.266849
1462.946367,5033.400406,-7105.977043,-229.828649
1462.946696,6143.709319,-8734.430116,383.047749
1462.947025,7846.182985,-9622.677246,0.000000
1462.947355,7179.997637,-10140.821405,1072.533697
1462.947684,7105.977043,-10214.842000,1915.238745
1462.948013,6735.874072,-8734.430116,1302.362347
1462.948342,4959.379811,-7254.018232,1072.533697
1462.948671,4959.379811,-6883.915261,1072.533697
1462.949001,6883.915261,-5107.421000,919.314598
1462.949330,7550.100608,-3701.029710,1685.410096
1462.949659,7920.203579,-2886.803174,2451.505594
1462.949988,8142.265362,-2368.659014,842.705048
