#time,accel_x,accel_y,accel_z
1456.981085,7031.956449,-5995.668130,1302.362347
1456.981415,7105.977043,-6143.709319,1149.143247
1456.981745,7031.956449,-6291.750507,1072.533697
1456.982076,7031.956449,-5921.647536,1149.143247
1456.982406,6809.894666,-6513.812290,766.095498
1456.982736,6587.832884,-7105.977043,1149.143247
1456.983066,6587.832884,-6883.915261,842.705048
1456.983396,6513.812290,-7105.977043,919.314598
1456.983727,6513.812290,-7105.977043,1455.581446
1456.984057,6513.812290,-6883.915261,1149.143247
1456.984387,6809.894666,-7254.018232,459.657299
1456.984717,6587.832884,-7105.977043,1302.362347
1456.985047,6439.791695,-6735.874072,536.266849
1456.985377,6883.915261,-6661.853478,1149.143247
1456.985708,6883.915261,-6143.709319,1455.581446
1456.986038,7031.956449,-6217.729913,919.314598
1456.986368,7105.977043,-6661.853478,995.924147
1456.986698,7698.141797,-7031.956449,1378.971896
1456.987028,6957.935855,-6661.853478,689.485948
1456.987359,7031.956449,-6513.812290,842.705048
1456.987689,7105.977043,-6513.812290,1149.143247
1456.988019,7254.018232,-6069.688724,1455.581446
1456.988349,7105.977043,-6587.832884,1838.629195
1456.988679,7179.997637,-6439.791695,1225.752797
1456.989009,7254.018232,-6439.791695,1072.533697
1456.989340,6957.935855,-6365.771101,1072.533697
1456.989670,6957.935855,-6587.832884,383.047749
1456.990000,6883.915261,-6513.812290,766.095498
1456.990330,6809.894666,-6957.935855,1225.752797
1456.990660,7105.977043,-6587.832884,995.924147
1456.990991,7105.977043,-6587.832884,766.095498
1456.991321,6809.894666,-6217.729913,1838.629195
1456.991651,6957.935855,-6661.853478,612.876398
1456.991981,6735.874072,-6957.935855,689.485948
1456.992311,6661.853478,-6735.874072,919.314598
1456.992641,7105.977043,-6809.894666,459.657299
1456.992972,7402.059420,-6291.750507,1072.533697
1456.993302,7254.018232,-6661.853478,1455.581446
1456.993632,7476.080014,-6291.750507,995.924147
1456.993962,7179.997637,-6291.750507,995.924147
1456.994292,7179.997637,-6809.894666,1072.533697
1456.994622,6883.915261,-6291.750507,459.657299
1456.994953,7105.977043,-6143.709319,1225.752797
1456.995283,7179.997637,-6439.791695,1225.752797
1456.995613,6587.832884,-5995.668130,1991.848295
1456.995943,7105.977043,-6217.729913,1072.533697
1456.996273,6809.894666,-6439.791695,842.705048
1456.996604,6735.874072,-6291.750507,842.705048
1456.996934,7031.956449,-6439.791695,1149.143247
1456.997264,6587.832884,-6587.832884,1149.143247
1456.997594,6957.935855,-6957.935855,1225.752797
1456.997924,6809.894666,-6735.874072,689.485948
1456.998254,6957.935855,-6735.874072,1072.533697
1456.998585,6587.832884,-6587.832884,1225.752797
1456.998915,6439.791695,-6661.853478,1378.971896
1456.999245,6513.812290,-7105.977043,612.876398
1456.999575,6587.832884,-6957.935855,536.266849
1456.999905,6661.853478,-7105.977043,995.924147
1457.000236,7254.018232,-6883.915261,1685.410096
1457.000566,7179.997637,-6513.812290,1225.752797
1457.000896,7179.997637,-6587.832884,995.924147
1457.001226,7179.997637,-6735.874072,1149.143247
1457.001556,6513.812290,-7031.956449,689.485948
1457.001886,7328.038826,-6291.750507,1149.143247
1457.002217,7328.038826,-5921.647536,919.314598
1457.002547,7179.997637,-6365.771101,919.314598
1457.002877,7105.977043,-6735.874072,995.924147
1457.003207,6957.935855,-6291.750507,1378.971896
1457.003537,6957.935855,-6513.812290,536.266849
1457.003868,6957.935855,-6587.832884,766.095498
1457.004198,6883.915261,-6291.750507,1225.752797
1457.004528,6809.894666,-6587.832884,766.095498
1457.004858,7402.059420,-6513.812290,1149.143247
1457.005188,6883.915261,-6513.812290,1302.362347
1457.005518,6957.935855,-6587.832884,612.876398
1457.005849,6809.894666,-6883.915261,1302.362347
1457.006179,6809.894666,-6661.853478,1225.752797
1457.006509,6735.874072,-7031.956449,766.095498
1457.006839,6513.812290,-6957.935855,919.314598
1457.007169,6809.894666,-6735.874072,1149.143247
1457.007500,7031.956449,-6661.853478,1225.752797
1457.007830,7476.080014,-5921.647536,1149.143247
1457.008160,7105.977043,-6439.791695,842.705048
1457.008490,7105.977043,-6513.812290,1072.533697
1457.008820,7179.997637,-6513.812290,1072.533697
1457.009150,7254.018232,-6365.771101,919.314598
1457.009481,7402.059420,-6439.791695,1225.752797
1457.009811,7402.059420,-5921.647536,919.314598
1457.010141,7254.018232,-6291.750507,1149.143247
1457.010471,7105.977043,-6439.791695,1225.752797
1457.010801,6735.874072,-6513.812290,1225.752797
1457.011132,7031.956449,-6439.791695,766.095498
1457.011462,6735.874072,-6513.812290,919.314598
1457.011792,6291.750507,-6735.874072,919.314598
1457.012122,7105.977043,-6439.791695,842.705048
1457.012452,6587.832884,-5995.668130,995.924147
1457.012782,6735.874072,-6735.874072,1149.143247
1457.013113,6957.935855,-6809.894666,995.924147
1457.013443,6883.915261,-6661.853478,1072.533697
1457.013773,6291.750507,-6809.894666,612.876398
1457.014103,6957.935855,-6809.894666,766.095498
1457.014433,6513.812290,-7105.977043,1225.752797
1457.014763,6957.935855,-6735.874072,995.924147
1457.015094,7031.956449,-6291.750507,1225.752797
1457.015424,7550.100608,-6957.935855,1685.410096
1457.015754,7031.956449,-6735.874072,689.485948
1457.016084,7105.977043,-6439.791695,995.924147
1457.016414,7031.956449,-6809.894666,766.095498
1457.016745,7179.997637,-6069.688724,995.924147
1457.017075,7402.059420,-6217.729913,306.438199
1457.017405,7328.038826,-6513.812290,1072.533697
1457.017735,7476.080014,-6439.791695,1302.362347
1457.018065,6957.935855,-6661.853478,1302.362347
1457.018395,6809.894666,-5995.668130,1685.410096
1457.018726,7105.977043,-6291.750507,1072.533697
1457.019056,6661.853478,-6217.729913,995.924147
1457.019386,6735.874072,-6587.832884,995.924147
1457.019716,7105.977043,-6587.832884,766.095498
1457.020046,7031.956449,-6587.832884,1149.143247
1457.020377,6883.915261,-6513.812290,1225.752797
1457.020707,6661.853478,-6735.874072,1378.971896
1457.021037,6365.771101,-6809.894666,1225.752797
1457.021367,6587.832884,-7031.956449,459.657299
1457.021697,7105.977043,-6439.791695,766.095498
1457.022027,6957.935855,-6957.935855,1072.533697
1457.022358,7105.977043,-6809.894666,1072.533697
1457.022688,7179.997637,-6809.894666,1378.971896
1457.023018,6957.935855,-6069.688724,1762.019645
1457.023348,7179.997637,-6513.812290,1149.143247
1457.023678,6957.935855,-6143.709319,842.705048
1457.024009,7328.038826,-6439.791695,919.314598
1457.024339,7179.997637,-6365.771101,1225.752797
1457.024669,7550.100608,-5329.482782,1455.581446
1457.024999,7105.977043,-6069.688724,995.924147
1457.025329,7031.956449,-5995.668130,995.924147
1457.025659,6809.894666,-6661.853478,1225.752797
1457.025990,7031.956449,-6957.935855,1302.362347
1457.026320,6809.894666,-6735.874072,1378.971896
1457.026650,6809.894666,-6513.812290,842.705048
1457.026980,6809.894666,-7031.956449,1225.752797
1457.027310,6587.832884,-6587.832884,1149.143247
1457.027641,7031.956449,-6883.915261,1455.581446
1457.027971,6809.894666,-6735.874072,1455.581446
1457.028301,6809.894666,-6439.791695,1225.752797
1457.028631,6883.915261,-6735.874072,919.314598
1457.028961,6735.874072,-6809.894666,1149.143247
1457.029291,7105.977043,-6957.935855,1302.362347
1457.029622,6957.935855,-7328.038826,842.705048
1457.029952,7105.977043,-6883.915261,1302.362347
1457.030282,7179.997637,-7031.956449,1072.533697
1457.030612,7254.018232,-6439.791695,1149.143247
1457.030942,7254.018232,-6513.812290,842.705048
1457.031272,6957.935855,-6957.935855,766.095498
1457.031603,6735.874072,-6217.729913,536.266849
1457.031933,7254.018232,-6291.750507,919.314598
1457.032263,7179.997637,-6291.750507,1455.581446
1457.032593,7105.977043,-6291.750507,1302.362347
1457.032923,6883.915261,-6439.791695,919.314598
1457.033254,6735.874072,-6365.771101,766.095498
1457.033584,7105.977043,-6661.853478,306.438199
1457.033914,6291.750507,-6513.812290,766.095498
1457.034244,6735.874072,-6957.935855,1149.143247
1457.034574,7031.956449,-6883.915261,1762.019645
1457.034904,6957.935855,-6587.832884,1225.752797
1457.035235,6809.894666,-6587.832884,842.705048
1457.035565,6809.894666,-6587.832884,1225.752797
1457.035895,6735.874072,-6735.874072,1072.533697
1457.036225,6809.894666,-6809.894666,919.314598
1457.036555,6883.915261,-6439.791695,1378.971896
1457.036886,7031.956449,-6661.853478,842.705048
1457.037216,7476.080014,-6291.750507,1072.533697
1457.037546,7105.977043,-6439.791695,919.314598
1457.037876,7105.977043,-6661.853478,766.095498
1457.038206,7179.997637,-6291.750507,1378.971896
1457.038536,7105.977043,-6883.915261,842.705048
1457.038867,7031.956449,-6365.771101,995.924147
1457.039197,7179.997637,-6217.729913,1302.362347
1457.039527,7402.059420,-6439.791695,919.314598
1457.039857,7105.977043,-5921.647536,1302.362347
1457.040187,6883.915261,-6513.812290,1149.143247
1457.040518,7105.977043,-6365.771101,612.876398
1457.040848,6809.894666,-6365.771101,536.266849
1457.041178,6735.874072,-5995.668130,919.314598
1457.041508,6365.771101,-6439.791695,995.924147
1457.041838,6809.894666,-6957.935855,1378.971896
1457.042168,6809.894666,-6809.894666,1225.752797
1457.042499,6883.915261,-6957.935855,766.095498
1457.042829,7105.977043,-6365.771101,1072.533697
1457.043159,6661.853478,-7105.977043,995.924147
1457.043489,6883.915261,-7402.059420,919.314598
1457.043819,6291.750507,-7031.956449,1378.971896
1457.044150,6587.832884,-7179.997637,1225.752797
1457.044480,6883.915261,-6809.894666,1072.533697
1457.044810,7105.977043,-6291.750507,1149.143247
1457.045140,7254.018232,-6809.894666,842.705048
1457.045470,7105.977043,-6587.832884,1225.752797
1457.045799,7179.997637,-6365.771101,842.705048
1457.046129,6957.935855,-6291.750507,919.314598
1457.046459,7031.956449,-6217.729913,1149.143247
1457.046788,7402.059420,-6217.729913,689.485948
1457.047118,7328.038826,-7031.956449,1685.410096
1457.047448,7624.121203,-6661.853478,919.314598
1457.047777,7179.997637,-6069.688724,766.095498
1457.048107,7105.977043,-6513.812290,995.924147
1457.048437,7105.977043,-6513.812290,1072.533697
1457.048766,6513.812290,-5921.647536,1455.581446
1457.049096,6957.935855,-6957.935855,1072.533697
1457.049426,6809.894666,-6365.771101,995.924147
1457.049756,7105.977043,-6291.750507,1149.143247
1457.050085,6883.915261,-6661.853478,1149.143247
1457.050415,6587.832884,-6365.771101,1838.629195
1457.050745,6883.915261,-6883.915261,919.314598
1457.051074,7031.956449,-6809.894666,612.876398
1457.051404,6883.915261,-6883.915261,766.095498
1457.051734,7105.977043,-6587.832884,459.657299
1457.052063,7179.997637,-6439.791695,1302.362347
1457.052393,7254.018232,-6587.832884,1225.752797
1457.052723,6735.874072,-6513.812290,842.705048
1457.053052,7179.997637,-6439.791695,1225.752797
1457.053382,7105.977043,-6439.791695,536.266849
1457.053712,7179.997637,-7254.018232,1225.752797
1457.054041,7105.977043,-6143.709319,1149.143247
1457.054371,7402.059420,-6143.709319,1225.752797
1457.054701,6883.915261,-6217.729913,1608.800546
1457.055030,7179.997637,-6661.853478,1685.410096
1457.055360,6957.935855,-6365.771101,919.314598
1457.055690,7031.956449,-6143.709319,1072.533697
1457.056019,6439.791695,-6587.832884,995.924147
1457.056349,6883.915261,-6587.832884,1838.629195
1457.056679,6735.874072,-6735.874072,1608.800546
1457.057008,6809.894666,-6883.915261,1302.362347
1457.057338,6809.894666,-6587.832884,919.314598
1457.057668,6069.688724,-6439.791695,1455.581446
1457.057997,6439.791695,-6439.791695,1455.581446
1457.058327,6513.812290,-7031.956449,842.705048
1457.058657,6513.812290,-6883.915261,995.924147
1457.058986,6587.832884,-7105.977043,1072.533697
1457.059316,7328.038826,-6513.812290,1225.752797
1457.059646,7402.059420,-6217.729913,1149.143247
1457.059975,7179.997637,-6735.874072,995.924147
1457.060305,7254.018232,-6661.853478,1072.533697
1457.060635,7105.977043,-6957.935855,766.095498
1457.060964,7179.997637,-6513.812290,919.314598
1457.061294,7402.059420,-5847.626942,842.705048
1457.061624,7254.018232,-6439.791695,995.924147
1457.061953,7179.997637,-6439.791695,1225.752797
1457.062283,7105.977043,-6143.709319,1072.533697
1457.062613,7031.956449,-5699.585753,1378.971896
1457.062943,7031.956449,-6217.729913,1072.533697
1457.063272,6883.915261,-6365.771101,919.314598
1457.063602,6365.771101,-7031.956449,919.314598
1457.063932,7031.956449,-6661.853478,1378.971896
1457.064261,7179.997637,-6587.832884,1072.533697
1457.064591,7105.977043,-7031.956449,842.705048
1457.064921,6883.915261,-6957.935855,1302.362347
1457.065250,6957.935855,-6957.935855,1149.143247
1457.065580,6513.812290,-7031.956449,1378.971896
1457.065910,6735.874072,-6661.853478,919.314598
1457.066239,6735.874072,-6735.874072,919.314598
1457.066569,7105.977043,-6587.832884,1225.752797
1457.066899,7994.224174,-6513.812290,1455.581446
1457.067228,7254.018232,-6365.771101,1302.362347
1457.067558,7105.977043,-6217.729913,1225.752797
1457.067888,7105.977043,-6439.791695,995.924147
1457.068217,6957.935855,-6217.729913,919.314598
1457.068547,7328.038826,-6143.709319,842.705048
1457.068877,7179.997637,-6143.709319,995.924147
1457.069206,7328.038826,-6513.812290,1302.362347
1457.069536,7105.977043,-6661.853478,1149.143247
1457.069866,6809.894666,-6439.791695,1225.752797
1457.070195,7105.977043,-6587.832884,689.485948
1457.070525,6735.874072,-6291.750507,1302.362347
1457.070855,6587.832884,-6587.832884,919.314598
1457.071184,6661.853478,-6735.874072,1225.752797
1457.071514,6735.874072,-6439.791695,1149.143247
1457.071844,6661.853478,-6735.874072,1149.143247
1457.072173,6883.915261,-6661.853478,995.924147
1457.072503,6883.915261,-6957.935855,1072.533697
1457.072833,6809.894666,-7105.977043,766.095498
1457.073162,6439.791695,-6883.915261,766.095498
1457.073492,6513.812290,-7031.956449,995.924147
1457.073822,6957.935855,-7031.956449,536.266849
1457.074151,7105.977043,-6661.853478,1302.362347
1457.074481,7105.977043,-6735.874072,1762.019645
1457.074811,7328.038826,-6883.915261,919.314598
1457.075140,7031.956449,-6513.812290,919.314598
1457.075470,7105.977043,-6661.853478,1072.533697
1457.075800,7105.977043,-5921.647536,842.705048
1457.076130,7105.977043,-5773.606348,919.314598
1457.076459,7105.977043,-6291.750507,1072.533697
1457.076789,7105.977043,-6217.729913,919.314598
1457.077119,7105.977043,-6883.915261,995.924147
1457.077448,7402.059420,-6217.729913,766.095498
1457.077778,7105.977043,-6439.791695,1225.752797
1457.078108,6809.894666,-6587.832884,842.705048
1457.078437,6735.874072,-6661.853478,919.314598
1457.078767,7105.977043,-6661.853478,1149.143247
1457.079097,7328.038826,-6587.832884,842.705048
1457.079426,7105.977043,-6365.771101,995.924147
1457.079756,6513.812290,-6365.771101,1455.581446
1457.080086,6661.853478,-6809.894666,1149.143247
1457.080415,6735.874072,-6661.853478,766.095498
1457.080745,6883.915261,-6735.874072,459.657299
1457.081075,6957.935855,-7031.956449,766.095498
1457.081404,7328.038826,-6661.853478,995.924147
1457.081734,7328.038826,-6291.750507,1149.143247
1457.082064,6957.935855,-6143.709319,842.705048
1457.082393,7402.059420,-6291.750507,1225.752797
1457.082723,7328.038826,-6661.853478,1072.533697
1457.083053,7105.977043,-6365.771101,842.705048
1457.083382,7105.977043,-6365.771101,1302.362347
1457.083712,7402.059420,-6587.832884,612.876398
1457.084042,7105.977043,-6143.709319,1302.362347
1457.084371,6809.894666,-6069.688724,1225.752797
1457.084701,6957.935855,-6513.812290,919.314598
1457.085031,6513.812290,-6513.812290,995.924147
1457.085360,6513.812290,-6217.729913,1378.971896
1457.085690,6587.832884,-6809.894666,1302.362347
1457.086020,6883.915261,-6809.894666,1378.971896
1457.086349,7105.977043,-6661.853478,1302.362347
1457.086679,7031.956449,-7031.956449,689.485948
1457.087009,6513.812290,-6735.874072,995.924147
1457.087338,6809.894666,-6661.853478,1455.581446
1457.087668,6735.874072,-7105.977043,995.924147
1457.087998,6217.729913,-6809.894666,919.314598
1457.088328,6291.750507,-6735.874072,919.314598
1457.088657,6809.894666,-6809.894666,766.095498
1457.088987,6957.935855,-6439.791695,1072.533697
1457.089317,6957.935855,-6735.874072,995.924147
1457.089646,7105.977043,-6735.874072,1455.581446
1457.089976,6735.874072,-6587.832884,1072.533697
1457.090306,7179.997637,-6513.812290,766.095498
1457.090635,7105.977043,-6069.688724,1455.581446
1457.090965,7550.100608,-5847.626942,1072.533697
1457.091295,7179.997637,-5921.647536,1455.581446
1457.091624,7476.080014,-6513.812290,995.924147
1457.091954,7105.977043,-6587.832884,995.924147
1457.092284,7105.977043,-6365.771101,766.095498
1457.092613,6513.812290,-6291.750507,536.266849
1457.092943,6513.812290,-6661.853478,919.314598
1457.093273,6809.894666,-7105.977043,766.095498
1457.093602,6883.915261,-6809.894666,1302.362347
1457.093932,7105.977043,-6587.832884,995.924147
1457.094262,7328.038826,-6365.771101,995.924147
1457.094591,6957.935855,-6513.812290,1149.143247
1457.094921,7105.977043,-6439.791695,919.314598
1457.095251,7031.956449,-6661.853478,842.705048
1457.095580,7031.956449,-6661.853478,919.314598
1457.095910,7105.977043,-6439.791695,919.314598
1457.096240,7328.038826,-6291.750507,1532.190996
1457.096569,7476.080014,-5477.523971,842.705048
1457.096899,7846.182985,-5181.441594,766.095498
1457.097229,7624.121203,-5107.421000,919.314598
1457.097558,7994.224174,-6069.688724,1302.362347
1457.097888,7920.203579,-6217.729913,1072.533697
1457.098218,7179.997637,-6439.791695,612.876398
1457.098547,6513.812290,-7105.977043,383.047749
1457.098877,6809.894666,-6291.750507,766.095498
1457.099207,7179.997637,-6587.832884,1072.533697
1457.099536,8216.285956,-6143.709319,1608.800546
1457.099866,7920.203579,-5551.544565,1608.800546
1457.100196,8142.265362,-4293.194464,1302.362347
1457.100525,7402.059420,-4145.153275,995.924147
1457.100855,7476.080014,-5107.421000,1149.143247
1457.101185,8142.265362,-4441.235652,1378.971896
1457.101515,8512.368333,-5033.400406,1149.143247
1457.101844,8512.368333,-4885.359217,919.314598
1457.102174,7624.121203,-5551.544565,689.485948
1457.102504,7698.141797,-6143.709319,536.266849
1457.102833,7994.224174,-5403.503377,306.438199
1457.103163,8216.285956,-7254.018232,1072.533697
1457.103493,7994.224174,-5847.626942,1302.362347
1457.103822,7846.182985,-5181.441594,0.000000
1457.104152,7476.080014,-5847.626942,306.438199
1457.104482,7920.203579,-5107.421000,842.705048
1457.104811,8438.347739,-4811.338623,766.095498
1457.105141,8808.450710,-3849.070898,1378.971896
1457.105471,9030.512492,-3849.070898,1149.143247
1457.105800,9474.636058,-2960.823768,1838.629195
1457.106130,10066.800811,-2886.803174,1762.019645
1457.106460,10214.842000,-3256.906145,1915.238745
1457.106789,10140.821405,-2516.700203,1302.362347
1457.107119,9844.739029,-3478.967927,1532.190996
1457.107449,9918.759623,-3404.947333,1532.190996
1457.107778,9918.759623,-3701.029710,1378.971896
1457.108108,9400.615463,-4885.359217,1838.629195
1457.108438,9326.594869,-4811.338623,1302.362347
1457.108767,8808.450710,-5699.585753,1302.362347
1457.109097,8068.244768,-4885.359217,842.705048
1457.109427,7179.997637,-5921.647536,1762.019645
1457.109756,7402.059420,-5107.421000,995.924147
1457.110086,7550.100608,-4737.318029,536.266849
1457.110416,7772.162391,-4663.297435,689.485948
1457.110745,8956.491898,-4589.276840,689.485948
1457.111075,8956.491898,-5329.482782,842.705048
1457.111405,8734.430116,-4589.276840,306.438199
1457.111734,8660.409521,-4737.318029,229.828649
1457.112064,9252.574275,-4441.235652,229.828649
1457.112394,9548.656652,-4663.297435,1225.752797
1457.112723,10436.903782,-5181.441594,536.266849
1457.113053,9992.780217,-3701.029710,919.314598
1457.113383,9770.718434,-3849.070898,1225.752797
1457.113712,9474.636058,-3701.029710,1225.752797
1457.114042,9104.533087,-4145.153275,1762.019645
1457.114372,8808.450710,-4589.276840,1455.581446
1457.114702,7994.224174,-3701.029710,766.095498
1457.115031,7994.224174,-4071.132681,1302.362347
1457.115361,8808.450710,-4811.338623,2298.286494
1457.115691,9548.656652,-4219.173869,2374.896044
1457.116020,9474.636058,-3552.988522,2145.067394
1457.116350,9326.594869,-3330.926739,1149.143247
1457.116680,9400.615463,-4367.215058,1455.581446
1457.117009,9770.718434,-4367.215058,995.924147
1457.117339,8734.430116,-4589.276840,76.609550
1457.117669,7846.182985,-4515.256246,0.000000
1457.117998,8142.265362,-5403.503377,-612.876398
1457.118328,8734.430116,-6291.750507,153.219100
1457.118658,9104.533087,-5995.668130,689.485948
1457.118987,9104.533087,-6365.771101,536.266849
1457.119317,8290.306550,-5699.585753,689.485948
1457.119647,7920.203579,-6291.750507,1608.800546
1457.119976,7550.100608,-6513.812290,1302.362347
1457.120306,8438.347739,-4515.256246,2221.676944
1457.120636,9178.553681,-4071.132681,2068.457845
1457.120965,9548.656652,-2516.700203,2298.286494
1457.121295,10140.821405,-2294.638420,2068.457845
1457.121625,10584.944971,-1406.391290,766.095498
1457.121954,10510.924376,-1184.329507,0.000000
1457.122284,10066.800811,-1628.453072,0.000000
1457.122614,10066.800811,-1998.556043,0.000000
1457.122943,10066.800811,-3552.988522,536.266849
1457.123273,9696.697840,-5181.441594,689.485948
1457.123603,8734.430116,-7105.977043,536.266849
1457.123932,8216.285956,-7846.182985,919.314598
1457.124262,7031.956449,-8660.409521,919.314598
1457.124592,6513.812290,-9474.636058,1225.752797
1457.124921,6143.709319,-7328.038826,153.219100
1457.125251,6069.688724,-6661.853478,0.000000
1457.125581,7179.997637,-5181.441594,1072.533697
1457.125910,9252.574275,-3552.988522,1838.629195
1457.126240,9844.739029,-2146.597232,1991.848295
1457.126570,10584.944971,-1110.308913,1991.848295
1457.126899,10362.883188,-962.267725,1225.752797
1457.127229,10881.027347,-1332.370696,1072.533697
1457.127559,11843.295072,-444.123565,-229.828649
1457.127889,12213.398043,-1776.494261,1455.581446
1457.128218,12731.542202,-1628.453072,1378.971896
1457.128548,11769.274478,-3701.029710,1225.752797
1457.128878,10066.800811,-5477.523971,1838.629195
1457.129207,8216.285956,-6735.874072,919.314598
1457.129537,6661.853478,-8216.285956,383.047749
1457.129867,4737.318029,-9104.533087,153.219100
1457.130196,4145.153275,-8512.368333,-689.485948
1457.130526,4959.379811,-7698.141797,0.000000
1457.130856,6587.832884,-7254.018232,229.828649
1457.131185,8290.306550,-5847.626942,1302.362347
1457.131515,9992.780217,-3627.009116,2145.067394
1457.131845,10362.883188,-2146.597232,842.705048
1457.132174,10732.986159,-962.267725,1149.143247
1457.132504,10584.944971,-592.164754,1149.143247
1457.132834,11695.253884,-740.205942,459.657299
1457.133163,12509.480420,-592.164754,1455.581446
1457.133493,13397.727550,-2442.679609,2374.896044
1457.133823,13027.624579,-3108.864956,2451.505594
1457.134152,11843.295072,-3775.050304,2145.067394
1457.134482,9326.594869,-5773.606348,1838.629195
1457.134812,7105.977043,-5773.606348,612.876398
1457.135141,4737.318029,-6439.791695,306.438199
1457.135471,3404.947333,-8068.244768,-1072.533697
1457.135801,3256.906145,-7698.141797,-1302.362347
1457.136130,5329.482782,-6069.688724,-689.485948
1457.136460,8512.368333,-4737.318029,153.219100
1457.136790,10510.924376,-4293.194464,1302.362347
1457.137119,11547.212695,-2072.576638,1455.581446
1457.137449,11695.253884,-1924.535449,1302.362347
1457.137779,10955.047942,-2960.823768,1532.190996
1457.138108,10066.800811,-2960.823768,1608.800546
1457.138438,9696.697840,-5699.585753,1455.581446
1457.138768,9696.697840,-3997.112087,1532.190996
1457.139097,9030.512492,-6291.750507,1838.629195
1457.139427,8142.265362,-7402.059420,1838.629195
1457.139757,8068.244768,-5773.606348,2374.896044
1457.140087,7402.059420,-5847.626942,919.314598
1457.140416,6809.894666,-3478.967927,0.000000
1457.140746,6513.812290,-3034.844362,-612.876398
1457.141076,7920.203579,-3182.885551,-612.876398
1457.141405,9326.594869,-3182.885551,919.314598
1457.141735,10732.986159,-3404.947333,1455.581446
1457.142065,11621.233289,-2072.576638,1378.971896
1457.142394,11547.212695,-2368.659014,842.705048
1457.142724,10955.047942,-5403.503377,2068.457845
1457.143054,9696.697840,-6069.688724,1762.019645
1457.143383,7994.224174,-5403.503377,1455.581446
1457.143713,7550.100608,-4441.235652,-612.876398
1457.144043,7550.100608,-4737.318029,0.000000
1457.144372,8438.347739,-5773.606348,612.876398
1457.144702,8660.409521,-7105.977043,1991.848295
1457.145032,8512.368333,-6809.894666,2068.457845
1457.145361,7994.224174,-4885.359217,1455.581446
1457.145691,7105.977043,-3775.050304,229.828649
1457.146021,7179.997637,-4663.297435,766.095498
1457.146350,7179.997637,-5107.421000,1072.533697
1457.146680,8586.388927,-3923.091493,306.438199
1457.147010,9844.739029,-1628.453072,842.705048
1457.147339,11843.295072,-518.144159,2068.457845
1457.147669,12583.501014,-2220.617826,1762.019645
1457.147998,11177.109724,-3330.926739,2068.457845
1457.148328,8882.471304,-4219.173869,842.705048
1457.148657,8364.327145,-4663.297435,689.485948
1457.148986,9252.574275,-4441.235652,536.266849
1457.149316,10510.924376,-5995.668130,1685.410096
1457.149645,10214.842000,-6513.812290,1762.019645
1457.149975,9474.636058,-5329.482782,842.705048
1457.150304,8512.368333,-4515.256246,995.924147
1457.150634,8512.368333,-3923.091493,383.047749
1457.150963,8882.471304,-5107.421000,1532.190996
1457.151292,7772.162391,-4219.173869,-153.219100
1457.151622,5847.626942,-4219.173869,-842.705048
1457.151951,6735.874072,-4737.318029,612.876398
1457.152281,9770.718434,-5403.503377,1685.410096
1457.152610,11325.150913,-4737.318029,2145.067394
1457.152939,10436.903782,-2516.700203,1378.971896
1457.153269,9400.615463,-4885.359217,153.219100
1457.153598,8586.388927,-6439.791695,2068.457845
1457.153928,8290.306550,-7105.977043,1608.800546
1457.154257,7994.224174,-4441.235652,76.609550
1457.154587,8216.285956,-2664.741391,0.000000
1457.154916,9326.594869,-4589.276840,919.314598
1457.155245,10584.944971,-4367.215058,2451.505594
1457.155575,10807.006753,-3478.967927,2757.943793
1457.155904,10807.006753,-666.185348,1991.848295
1457.156234,10066.800811,-1332.370696,153.219100
1457.156563,7846.182985,-5033.400406,1378.971896
1457.156892,7550.100608,-5033.400406,536.266849
1457.157222,7994.224174,-5033.400406,229.828649
1457.157551,8882.471304,-4811.338623,229.828649
1457.157881,9252.574275,-6587.832884,1302.362347
1457.158210,8882.471304,-7031.956449,1225.752797
1457.158540,7179.997637,-8512.368333,459.657299
1457.158869,5033.400406,-9252.574275,-306.438199
1457.159198,4515.256246,-7698.141797,-536.266849
1457.159528,5921.647536,-6513.812290,-229.828649
1457.159857,7031.956449,-6587.832884,536.266849
1457.160187,8216.285956,-5403.503377,1225.752797
1457.160516,8512.368333,-5033.400406,1378.971896
1457.160846,9104.533087,-4885.359217,2451.505594
1457.161175,8882.471304,-4145.153275,1838.629195
1457.161504,9548.656652,-4293.194464,1762.019645
1457.161834,8956.491898,-3775.050304,842.705048
1457.162163,8290.306550,-4737.318029,995.924147
1457.162493,8734.430116,-5699.585753,2911.162892
1457.162822,9326.594869,-4515.256246,1685.410096
1457.163151,9474.636058,-4737.318029,1455.581446
1457.163481,8068.244768,-3997.112087,536.266849
1457.163810,6439.791695,-6217.729913,0.000000
1457.164140,6439.791695,-6365.771101,306.438199
1457.164469,7179.997637,-5107.421000,229.828649
1457.164799,8142.265362,-4737.318029,383.047749
1457.165128,8216.285956,-4959.379811,612.876398
1457.165457,7698.141797,-7105.977043,1762.019645
1457.165787,7179.997637,-8512.368333,1302.362347
1457.166116,7105.977043,-7550.100608,1149.143247
1457.166446,6365.771101,-6957.935855,383.047749
1457.166775,6143.709319,-7031.956449,459.657299
1457.167104,7105.977043,-7994.224174,1149.143247
1457.167434,7846.182985,-7476.080014,1532.190996
1457.167763,7105.977043,-8512.368333,1225.752797
1457.168093,5329.482782,-8586.388927,1149.143247
1457.168422,4885.359217,-6809.894666,842.705048
1457.168752,5699.585753,-7105.977043,-383.047749
1457.169081,5921.647536,-6957.935855,1225.752797
1457.169410,6587.832884,-5403.503377,1838.629195
1457.169740,8216.285956,-4959.379811,1685.410096
1457.170069,8882.471304,-2664.741391,2298.286494
1457.170399,7476.080014,-3849.070898,1378.971896
1457.170728,7031.956449,-4737.318029,1225.752797
1457.171057,6661.853478,-6439.791695,1838.629195
1457.171387,7624.121203,-6365.771101,842.705048
1457.171716,8290.306550,-4885.359217,1762.019645
1457.172046,8290.306550,-6069.688724,2298.286494
1457.172375,7994.224174,-7031.956449,2528.115143
1457.172705,6809.894666,-6217.729913,306.438199
1457.173034,5995.668130,-6661.853478,0.000000
1457.173363,6291.750507,-6365.771101,919.314598
1457.173693,7624.121203,-6957.935855,306.438199
1457.174022,6439.791695,-7846.182985,1072.533697
1457.174352,5551.544565,-8734.430116,1072.533697
1457.174681,6365.771101,-7402.059420,536.266849
1457.175010,5551.544565,-7105.977043,0.000000
1457.175340,5033.400406,-8586.388927,766.095498
1457.175669,6661.853478,-8216.285956,1685.410096
1457.175999,8068.244768,-7476.080014,383.047749
1457.176328,6513.812290,-7476.080014,1149.143247
1457.176658,5625.565159,-6809.894666,1455.581446
1457.176987,7031.956449,-7254.018232,766.095498
1457.177316,6513.812290,-5847.626942,919.314598
1457.177646,7179.997637,-5995.668130,2145.067394
1457.177975,8808.450710,-5033.400406,1302.362347
1457.178305,8808.450710,-4959.379811,689.485948
1457.178634,7105.977043,-5625.565159,689.485948
1457.178963,6513.812290,-6439.791695,919.314598
1457.179293,6883.915261,-6365.771101,-612.876398
1457.179622,5551.544565,-7254.018232,0.000000
1457.179952,6365.771101,-7179.997637,995.924147
1457.180281,8142.265362,-7402.059420,1532.190996
1457.180611,9252.574275,-6513.812290,1762.019645
1457.180940,7772.162391,-6957.935855,2604.724693
1457.181269,6513.812290,-6587.832884,1608.800546
1457.181599,6291.750507,-6587.832884,383.047749
1457.181928,5403.503377,-5255.462188,842.705048
1457.182258,6883.915261,-3775.050304,1149.143247
1457.182587,8216.285956,-5181.441594,766.095498
1457.182917,7254.018232,-6291.750507,1072.533697
1457.183246,6883.915261,-6587.832884,919.314598
1457.183575,6735.874072,-6661.853478,689.485948
1457.183905,5773.606348,-6957.935855,0.000000
1457.184234,5551.544565,-9252.574275,1302.362347
1457.184564,7179.997637,-8216.285956,1149.143247
1457.184893,7772.162391,-7698.141797,1302.362347
1457.185222,7179.997637,-6439.791695,1302.362347
1457.185552,6661.853478,-6513.812290,1608.800546
1457.185881,5921.647536,-7105.977043,153.219100
1457.186211,5625.565159,-6661.853478,0.000000
1457.186540,5921.647536,-4737.318029,1302.362347
1457.186870,7772.162391,-4885.359217,1455.581446
1457.187199,8882.471304,-5995.668130,689.485948
1457.187528,7550.100608,-6217.729913,1915.238745
1457.187858,7476.080014,-5403.503377,919.314598
1457.188187,7105.977043,-6513.812290,229.828649
1457.188517,6069.688724,-6957.935855,306.438199
1457.188846,6143.709319,-7994.224174,995.924147
1457.189175,7994.224174,-7179.997637,1378.971896
1457.189505,8808.450710,-7105.977043,1455.581446
1457.189834,8290.306550,-7179.997637,2221.676944
1457.190164,7105.977043,-6735.874072,1378.971896
1457.190493,6513.812290,-6513.812290,842.705048
1457.190823,5625.565159,-5847.626942,536.266849
1457.191152,5773.606348,-5107.421000,919.314598
1457.191481,7105.977043,-5329.482782,306.438199
1457.191811,6809.894666,-7105.977043,306.438199
1457.192140,6513.812290,-6513.812290,1685.410096
1457.192470,7105.977043,-6513.812290,229.828649
1457.192799,6809.894666,-6957.935855,-459.657299
1457.193128,5921.647536,-8068.244768,766.095498
1457.193458,7328.038826,-7994.224174,1225.752797
1457.193787,8882.471304,-6809.894666,1378.971896
1457.194117,8290.306550,-6883.915261,1532.190996
1457.194446,7031.956449,-6217.729913,1378.971896
1457.194776,7105.977043,-6883.915261,689.485948
1457.195105,6217.729913,-5995.668130,766.095498
1457.195434,6143.709319,-5403.503377,1225.752797
1457.195764,6587.832884,-4737.318029,1455.581446
1457.196093,7105.977043,-5181.441594,919.314598
1457.196423,6365.771101,-6291.750507,1455.581446
1457.196752,6587.832884,-6069.688724,1838.629195
1457.197081,7179.997637,-7105.977043,766.095498
1457.197411,6883.915261,-7179.997637,842.705048
1457.197740,7105.977043,-7105.977043,2145.067394
1457.198070,8512.368333,-6957.935855,1149.143247
1457.198399,8364.327145,-6513.812290,842.705048
1457.198729,6587.832884,-6957.935855,1532.190996
1457.199058,6809.894666,-7624.121203,919.314598
1457.199387,6439.791695,-7402.059420,383.047749
1457.199717,5699.585753,-5699.585753,995.924147
1457.200046,5921.647536,-4885.359217,689.485948
1457.200376,7846.182985,-4885.359217,1149.143247
1457.200705,8290.306550,-6143.709319,1838.629195
1457.201035,7476.080014,-6661.853478,1762.019645
1457.201364,7105.977043,-5403.503377,1225.752797
1457.201693,6069.688724,-7179.997637,306.438199
1457.202023,5551.544565,-8068.244768,536.266849
1457.202352,6661.853478,-8216.285956,1455.581446
1457.202682,8290.306550,-7846.182985,842.705048
1457.203011,7920.203579,-7105.977043,1838.629195
1457.203340,6809.894666,-8142.265362,2374.896044
1457.203670,6217.729913,-7031.956449,766.095498
1457.203999,5181.441594,-6809.894666,0.000000
1457.204329,5033.400406,-5551.544565,459.657299
1457.204658,7031.956449,-4737.318029,1608.800546
1457.204988,9104.533087,-5255.462188,1762.019645
1457.205317,8734.430116,-5033.400406,2374.896044
1457.205646,7254.018232,-5625.565159,1915.238745
1457.205976,6809.894666,-5773.606348,-229.828649
1457.206305,5255.462188,-8216.285956,-229.828649
1457.206635,6291.750507,-8438.347739,1455.581446
1457.206964,8660.409521,-6883.915261,2145.067394
1457.207293,8512.368333,-6883.915261,1149.143247
1457.207623,6735.874072,-6513.812290,1455.581446
1457.207952,5995.668130,-6513.812290,0.000000
1457.208282,6069.688724,-7179.997637,0.000000
1457.208611,5699.585753,-6291.750507,383.047749
1457.208941,6957.935855,-5847.626942,1225.752797
1457.209270,8512.368333,-3701.029710,689.485948
1457.209599,7698.141797,-5403.503377,1225.752797
1457.209929,7328.038826,-5477.523971,1762.019645
1457.210258,7550.100608,-5847.626942,1072.533697
1457.210588,6439.791695,-6809.894666,306.438199
1457.210917,6143.709319,-6809.894666,689.485948
1457.211246,7105.977043,-7772.162391,1685.410096
1457.211576,7772.162391,-7624.121203,1302.362347
1457.211905,7031.956449,-7994.224174,1455.581446
1457.212235,6883.915261,-8438.347739,2681.334243
1457.212564,7031.956449,-7402.059420,689.485948
1457.212894,5699.585753,-7105.977043,229.828649
1457.213223,4737.318029,-6291.750507,383.047749
1457.213552,5921.647536,-5403.503377,-229.828649
1457.213882,7254.018232,-5995.668130,842.705048
1457.214211,7698.141797,-5921.647536,2221.676944
1457.214541,8512.368333,-5699.585753,1762.019645
1457.214870,7698.141797,-5773.606348,842.705048
1457.215199,5699.585753,-7994.224174,1072.533697
1457.215529,6217.729913,-7179.997637,229.828649
1457.215858,7105.977043,-6291.750507,1149.143247
1457.216188,8068.244768,-7402.059420,1149.143247
1457.216517,8068.244768,-7254.018232,2145.067394
1457.216847,6217.729913,-6439.791695,1225.752797
1457.217176,5329.482782,-6883.915261,229.828649
1457.217505,5699.585753,-6661.853478,153.219100
1457.217835,6957.935855,-4737.318029,383.047749
1457.218164,8142.265362,-5477.523971,1149.143247
1457.218494,9178.553681,-5551.544565,2681.334243
1457.218823,8438.347739,-4811.338623,2451.505594
1457.219152,7550.100608,-5773.606348,995.924147
1457.219482,6217.729913,-7179.997637,689.485948
1457.219811,6513.812290,-6735.874072,1302.362347
1457.220141,6735.874072,-7179.997637,995.924147
1457.220470,6439.791695,-8216.285956,1532.190996
1457.220800,6439.791695,-7105.977043,1302.362347
1457.221129,6365.771101,-7254.018232,536.266849
1457.221458,5699.585753,-7031.956449,995.924147
1457.221788,5773.606348,-6957.935855,766.095498
1457.222117,6809.894666,-5699.585753,153.219100
1457.222447,7624.121203,-5329.482782,766.095498
1457.222776,8512.368333,-6217.729913,1532.190996
1457.223106,8512.368333,-5921.647536,919.314598
1457.223435,7994.224174,-5773.606348,1302.362347
1457.223764,6661.853478,-6957.935855,536.266849
1457.224094,5921.647536,-7698.141797,459.657299
1457.224423,6439.791695,-7846.182985,2451.505594
1457.224753,7920.203579,-7846.182985,1072.533697
1457.225082,7624.121203,-7254.018232,1302.362347
1457.225411,6661.853478,-7031.956449,1149.143247
1457.225741,5551.544565,-7105.977043,153.219100
1457.226070,4663.297435,-7179.997637,0.000000
1457.226400,5107.421000,-5995.668130,306.438199
1457.226729,6809.894666,-5107.421000,229.828649
1457.227059,8216.285956,-6069.688724,1455.581446
1457.227388,8882.471304,-5033.400406,1685.410096
1457.227717,7846.182985,-5995.668130,1455.581446
1457.228047,7031.956449,-5625.565159,766.095498
1457.228376,6143.709319,-6513.812290,689.485948
1457.228706,6735.874072,-7476.080014,1302.362347
1457.229035,8734.430116,-6143.709319,2068.457845
1457.229364,9030.512492,-6957.935855,2068.457845
1457.229694,8438.347739,-5995.668130,1762.019645
1457.230023,7179.997637,-5477.523971,1302.362347
1457.230353,6291.750507,-6587.832884,229.828649
1457.230682,5181.441594,-5551.544565,-1455.581446
1457.231012,5551.544565,-5847.626942,0.000000
1457.231341,7476.080014,-5699.585753,689.485948
1457.231670,9104.533087,-4959.379811,1685.410096
1457.232000,9992.780217,-5551.544565,2604.724693
1457.232329,8290.306550,-5551.544565,1685.410096
1457.232659,7105.977043,-6513.812290,689.485948
1457.232988,6143.709319,-6883.915261,689.485948
1457.233317,6217.729913,-7698.141797,842.705048
1457.233647,7772.162391,-8142.265362,1302.362347
1457.233976,7846.182985,-7550.100608,1149.143247
1457.234306,6735.874072,-8512.368333,1532.190996
1457.234635,5921.647536,-7846.182985,612.876398
1457.234965,4959.379811,-7105.977043,-383.047749
1457.235294,4737.318029,-7031.956449,-459.657299
1457.235623,5847.626942,-5995.668130,842.705048
1457.235953,7105.977043,-5699.585753,612.876398
1457.236282,7624.121203,-5995.668130,1225.752797
1457.236612,7772.162391,-5329.482782,1225.752797
1457.236941,8068.244768,-6291.750507,1072.533697
1457.237270,6809.894666,-7254.018232,612.876398
1457.237600,6217.729913,-8068.244768,1225.752797
1457.237929,7624.121203,-7254.018232,1685.410096
1457.238259,8364.327145,-6365.771101,919.314598
1457.238588,7846.182985,-7031.956449,1762.019645
1457.238918,7105.977043,-7328.038826,1455.581446
1457.239247,6069.688724,-6365.771101,306.438199
1457.239576,5477.523971,-5921.647536,919.314598
1457.239906,5847.626942,-5625.565159,1302.362347
1457.240235,7698.141797,-4219.173869,842.705048
1457.240565,7994.224174,-3997.112087,459.657299
1457.240894,7254.018232,-4589.276840,1608.800546
1457.241224,8290.306550,-5255.462188,2221.676944
1457.241553,8438.347739,-5551.544565,1225.752797
1457.241882,7105.977043,-5847.626942,1685.410096
1457.242212,7402.059420,-6957.935855,1762.019645
1457.242541,8512.368333,-7846.182985,1685.410096
1457.242871,7179.997637,-6587.832884,1608.800546
1457.243200,6957.935855,-7105.977043,1685.410096
1457.243529,6513.812290,-6957.935855,689.485948
1457.243859,5477.523971,-6587.832884,0.000000
1457.244188,4737.318029,-7772.162391,229.828649
1457.244518,5477.523971,-6883.915261,842.705048
1457.244847,6809.894666,-6513.812290,459.657299
1457.245177,6291.750507,-6587.832884,612.876398
1457.245506,6291.750507,-5403.503377,1225.752797
1457.245835,7402.059420,-6513.812290,612.876398
1457.246165,6143.709319,-7994.224174,689.485948
1457.246494,5625.565159,-7846.182985,1149.143247
1457.246823,7550.100608,-8586.388927,1685.410096
1457.247153,9400.615463,-7254.018232,1685.410096
1457.247482,7994.224174,-7179.997637,2068.457845
1457.247811,6735.874072,-7550.100608,1302.362347
1457.248140,5551.544565,-8438.347739,689.485948
1457.248470,4367.215058,-7179.997637,-842.705048
1457.248799,4663.297435,-6217.729913,536.266849
1457.249128,6957.935855,-5329.482782,919.314598
1457.249458,8142.265362,-5107.421000,1685.410096
1457.249787,7402.059420,-4811.338623,1685.410096
1457.250116,6883.915261,-4367.215058,1149.143247
1457.250445,7624.121203,-5551.544565,459.657299
1457.250775,7624.121203,-6291.750507,1225.752797
1457.251104,7328.038826,-7624.121203,2221.676944
1457.251433,8290.306550,-6809.894666,1455.581446
1457.251762,8882.471304,-6143.709319,1072.533697
1457.252092,7624.121203,-7105.977043,1915.238745
1457.252421,7772.162391,-7402.059420,1915.238745
1457.252750,6957.935855,-5921.647536,0.000000
1457.253080,5033.400406,-6439.791695,153.219100
1457.253409,6143.709319,-5699.585753,459.657299
1457.253738,7920.203579,-4959.379811,1225.752797
1457.254067,7698.141797,-5847.626942,1149.143247
1457.254397,6661.853478,-6439.791695,1302.362347
1457.254726,6365.771101,-5403.503377,229.828649
1457.255055,5625.565159,-7550.100608,459.657299
1457.255384,5329.482782,-7698.141797,842.705048
1457.255714,7550.100608,-8734.430116,1532.190996
1457.256043,8142.265362,-7550.100608,1762.019645
1457.256372,7328.038826,-7254.018232,383.047749
1457.256702,6661.853478,-7920.203579,2451.505594
1457.257031,7031.956449,-6883.915261,612.876398
1457.257360,4811.338623,-8364.327145,-995.924147
1457.257689,4737.318029,-5551.544565,306.438199
1457.258019,6957.935855,-7031.956449,612.876398
1457.258348,8882.471304,-5403.503377,1378.971896
1457.258677,7550.100608,-4441.235652,1762.019645
1457.259006,6883.915261,-6069.688724,229.828649
1457.259336,7920.203579,-3627.009116,536.266849
1457.259665,6587.832884,-7698.141797,766.095498
1457.259994,7476.080014,-7698.141797,2068.457845
1457.260324,8512.368333,-7179.997637,1915.238745
1457.260653,9030.512492,-8290.306550,1915.238745
1457.260982,6809.894666,-5995.668130,1149.143247
1457.261311,6365.771101,-8512.368333,1378.971896
1457.261641,6439.791695,-7402.059420,536.266849
1457.261970,5551.544565,-7105.977043,-612.876398
1457.262299,5403.503377,-6365.771101,1991.848295
1457.262628,7402.059420,-4589.276840,306.438199
1457.262958,7698.141797,-6735.874072,1072.533697
1457.263287,7105.977043,-5033.400406,1608.800546
1457.263616,7550.100608,-6217.729913,1149.143247
1457.263946,8364.327145,-5329.482782,1455.581446
1457.264275,7105.977043,-5329.482782,1608.800546
1457.264604,6587.832884,-8290.306550,1991.848295
1457.264933,7254.018232,-6291.750507,1225.752797
1457.265263,7105.977043,-8068.244768,1455.581446
1457.265592,6365.771101,-7031.956449,1608.800546
1457.265921,6439.791695,-6439.791695,919.314598
1457.266250,5403.503377,-7846.182985,536.266849
1457.266580,6217.729913,-6143.709319,459.657299
1457.266909,7476.080014,-5773.606348,612.876398
1457.267238,7920.203579,-5921.647536,919.314598
1457.267568,7105.977043,-5477.523971,1149.143247
1457.267897,7031.956449,-5995.668130,766.095498
1457.268226,7328.038826,-5921.647536,1762.019645
1457.268555,6661.853478,-6513.812290,1072.533697
1457.268885,7254.018232,-7031.956449,1378.971896
1457.269214,7476.080014,-7772.162391,1762.019645
1457.269543,7105.977043,-6291.750507,1608.800546
1457.269872,6217.729913,-5921.647536,1378.971896
1457.270202,5551.544565,-9030.512492,2068.457845
1457.270531,4885.359217,-8068.244768,766.095498
1457.270860,4737.318029,-7402.059420,459.657299
1457.271190,5699.585753,-6069.688724,459.657299
1457.271519,7994.224174,-5403.503377,1225.752797
1457.271848,8068.244768,-6069.688724,1455.581446
1457.272177,7476.080014,-6291.750507,1455.581446
1457.272507,7105.977043,-5921.647536,1072.533697
1457.272836,6587.832884,-6069.688724,0.000000
1457.273165,6587.832884,-6587.832884,1149.143247
1457.273494,7402.059420,-6957.935855,1608.800546
1457.273824,8660.409521,-7105.977043,1532.190996
1457.274153,7698.141797,-5699.585753,995.924147
1457.274482,6365.771101,-7402.059420,1762.019645
1457.274812,6809.894666,-7105.977043,766.095498
1457.275141,6439.791695,-7031.956449,306.438199
1457.275470,6143.709319,-6365.771101,842.705048
1457.275799,7994.224174,-5847.626942,1072.533697
1457.276129,8882.471304,-6291.750507,1455.581446
1457.276458,7698.141797,-5329.482782,1072.533697
1457.276787,6809.894666,-5773.606348,306.438199
1457.277116,6735.874072,-6439.791695,229.828649
1457.277446,6217.729913,-6661.853478,383.047749
1457.277775,6513.812290,-8068.244768,1225.752797
1457.278104,7550.100608,-6883.915261,1685.410096
1457.278434,8882.471304,-6439.791695,1302.362347
1457.278763,7402.059420,-6365.771101,2068.457845
1457.279092,5995.668130,-5329.482782,1072.533697
1457.279421,6069.688724,-7476.080014,459.657299
1457.279751,6291.750507,-6217.729913,229.828649
1457.280080,6957.935855,-6365.771101,536.266849
1457.280409,7328.038826,-5995.668130,1225.752797
1457.280738,7550.100608,-6735.874072,1302.362347
1457.281068,6513.812290,-7031.956449,0.000000
1457.281397,6143.709319,-5921.647536,0.000000
1457.281726,5255.462188,-7846.182985,-229.828649
1457.282056,6587.832884,-8364.327145,306.438199
1457.282385,6439.791695,-8364.327145,1072.533697
1457.282714,7624.121203,-6069.688724,1072.533697
1457.283043,8142.265362,-6809.894666,1225.752797
1457.283373,7772.162391,-5921.647536,1838.629195
1457.283702,7179.997637,-6069.688724,1225.752797
1457.284031,6735.874072,-6587.832884,1149.143247
1457.284360,6587.832884,-4293.194464,842.705048
1457.284690,6661.853478,-4737.318029,536.266849
1457.285019,7550.100608,-6883.915261,1838.629195
1457.285348,7550.100608,-5699.585753,1378.971896
1457.285678,7105.977043,-6587.832884,1149.143247
1457.286007,5477.523971,-7254.018232,689.485948
1457.286336,5847.626942,-7179.997637,306.438199
1457.286665,6735.874072,-7476.080014,995.924147
1457.286995,7105.977043,-8142.265362,1455.581446
1457.287324,7624.121203,-7254.018232,1455.581446
1457.287653,7476.080014,-5551.544565,1225.752797
1457.287982,6957.935855,-6291.750507,1455.581446
1457.288312,7476.080014,-6735.874072,766.095498
1457.288641,7031.956449,-5403.503377,1455.581446
1457.288970,7105.977043,-5033.400406,1302.362347
1457.289300,7254.018232,-5477.523971,766.095498
1457.289629,7179.997637,-5699.585753,1302.362347
1457.289958,7105.977043,-6069.688724,536.266849
1457.290287,6883.915261,-6735.874072,919.314598
1457.290617,5551.544565,-7402.059420,612.876398
1457.290946,6143.709319,-8364.327145,919.314598
1457.291275,7328.038826,-7994.224174,1838.629195
1457.291604,8142.265362,-6217.729913,1455.581446
1457.291934,8438.347739,-6513.812290,995.924147
1457.292263,7994.224174,-5699.585753,2374.896044
1457.292592,8586.388927,-6883.915261,1838.629195
1457.292922,7031.956449,-5699.585753,1225.752797
1457.293251,6809.894666,-5107.421000,1685.410096
1457.293580,7179.997637,-4811.338623,1072.533697
1457.293909,5921.647536,-4811.338623,995.924147
1457.294239,4959.379811,-7031.956449,459.657299
1457.294568,4959.379811,-6217.729913,383.047749
1457.294897,5773.606348,-7254.018232,229.828649
1457.295226,5699.585753,-8808.450710,1149.143247
1457.295556,6291.750507,-7105.977043,1838.629195
1457.295885,7698.141797,-7920.203579,1149.143247
1457.296214,7994.224174,-7254.018232,995.924147
1457.296544,7105.977043,-6735.874072,1608.800546
1457.296873,7550.100608,-7624.121203,1302.362347
1457.297202,7476.080014,-6069.688724,1072.533697
1457.297531,6957.935855,-6587.832884,1302.362347
1457.297861,7920.203579,-4959.379811,1455.581446
1457.298190,7772.162391,-5255.462188,1685.410096
1457.298519,7402.059420,-5033.400406,1455.581446
1457.298848,6735.874072,-5551.544565,766.095498
1457.299178,5699.585753,-6291.750507,766.095498
1457.299507,4663.297435,-8290.306550,153.219100
1457.299836,4589.276840,-9104.533087,536.266849
1457.300166,6735.874072,-8512.368333,383.047749
1457.300495,7846.182985,-8512.368333,1072.533697
1457.300824,8586.388927,-6587.832884,2374.896044
1457.301153,8290.306550,-6661.853478,1762.019645
1457.301483,6883.915261,-7254.018232,229.828649
1457.301812,6069.688724,-6069.688724,0.000000
1457.302141,6365.771101,-5995.668130,689.485948
1457.302470,7846.182985,-5181.441594,1225.752797
1457.302800,7920.203579,-5773.606348,1762.019645
1457.303129,7698.141797,-5477.523971,1455.581446
1457.303458,6957.935855,-5329.482782,306.438199
1457.303788,5995.668130,-6883.915261,689.485948
1457.304117,5995.668130,-6957.935855,229.828649
1457.304446,5995.668130,-7772.162391,0.000000
1457.304775,6809.894666,-7772.162391,1455.581446
1457.305105,7105.977043,-7476.080014,1072.533697
1457.305434,7624.121203,-7179.997637,1378.971896
1457.305763,7402.059420,-6439.791695,1149.143247
1457.306092,7402.059420,-6883.915261,842.705048
1457.306422,7105.977043,-4589.276840,842.705048
1457.306751,6809.894666,-5107.421000,766.095498
1457.307080,8068.244768,-5329.482782,1225.752797
1457.307410,8660.409521,-5033.400406,1608.800546
1457.307739,8068.244768,-5255.462188,459.657299
1457.308068,7031.956449,-5107.421000,766.095498
1457.308397,6809.894666,-8216.285956,2145.067394
1457.308727,7105.977043,-6809.894666,612.876398
1457.309056,5995.668130,-7698.141797,1149.143247
1457.309385,6439.791695,-8142.265362,612.876398
1457.309714,7031.956449,-6957.935855,689.485948
1457.310044,7105.977043,-6661.853478,1455.581446
1457.310373,6587.832884,-6809.894666,995.924147
1457.310702,6513.812290,-7105.977043,1302.362347
1457.311032,7328.038826,-4219.173869,383.047749
1457.311361,6735.874072,-5995.668130,1149.143247
1457.311690,7031.956449,-6883.915261,919.314598
1457.312019,7402.059420,-4737.318029,306.438199
1457.312349,8512.368333,-6291.750507,1302.362347
1457.312678,7624.121203,-6957.935855,1608.800546
1457.313007,7328.038826,-6883.915261,1302.362347
1457.313336,6957.935855,-9030.512492,1149.143247
1457.313666,6217.729913,-7550.100608,612.876398
1457.313995,5625.565159,-8364.327145,842.705048
1457.314324,5847.626942,-7624.121203,995.924147
1457.314654,6069.688724,-8068.244768,1225.752797
1457.314983,6365.771101,-7031.956449,689.485948
1457.315312,5773.606348,-6069.688724,536.266849
1457.315641,7476.080014,-4811.338623,1685.410096
1457.315971,8586.388927,-3552.988522,306.438199
1457.316300,8142.265362,-4737.318029,1302.362347
1457.316629,7550.100608,-5181.441594,1378.971896
1457.316958,7105.977043,-5625.565159,0.000000
1457.317288,6957.935855,-6587.832884,306.438199
1457.317617,7105.977043,-7402.059420,1225.752797
1457.317946,8290.306550,-7402.059420,1762.019645
1457.318276,8512.368333,-7254.018232,2451.505594
1457.318605,7624.121203,-7402.059420,2068.457845
1457.318934,7105.977043,-6883.915261,1608.800546
1457.319263,5995.668130,-6809.894666,229.828649
1457.319593,4663.297435,-7105.977043,612.876398
1457.319922,5255.462188,-5477.523971,1608.800546
1457.320251,7550.100608,-4811.338623,1072.533697
1457.320580,7550.100608,-4885.359217,612.876398
1457.320910,6661.853478,-5033.400406,1532.190996
1457.321239,7105.977043,-5847.626942,1685.410096
1457.321568,7698.141797,-6365.771101,919.314598
1457.321898,6587.832884,-8290.306550,1225.752797
1457.322227,6439.791695,-8290.306550,1302.362347
1457.322556,6735.874072,-8956.491898,1302.362347
1457.322885,6735.874072,-6883.915261,1225.752797
1457.323215,6365.771101,-7254.018232,1149.143247
1457.323544,7328.038826,-7179.997637,1378.971896
1457.323873,6587.832884,-6069.688724,306.438199
1457.324202,5625.565159,-5847.626942,76.609550
1457.324532,7254.018232,-5107.421000,1302.362347
1457.324861,8808.450710,-4737.318029,1302.362347
1457.325190,7994.224174,-4515.256246,1072.533697
1457.325520,7031.956449,-4811.338623,919.314598
1457.325849,7105.977043,-6217.729913,0.000000
1457.326178,6143.709319,-7402.059420,229.828649
1457.326507,5403.503377,-8882.471304,842.705048
1457.326837,6883.915261,-8586.388927,766.095498
1457.327166,7328.038826,-7624.121203,383.047749
1457.327495,6217.729913,-8512.368333,1455.581446
1457.327824,7031.956449,-7105.977043,1991.848295
1457.328154,7402.059420,-6957.935855,766.095498
1457.328483,6365.771101,-5477.523971,536.266849
1457.328812,6587.832884,-2960.823768,766.095498
1457.329142,8068.244768,-4441.235652,689.485948
1457.329471,9548.656652,-3627.009116,1838.629195
1457.329800,8808.450710,-4885.359217,2145.067394
1457.330129,8512.368333,-4441.235652,1608.800546
1457.330459,7476.080014,-5773.606348,536.266849
1457.330788,5921.647536,-8586.388927,612.876398
1457.331117,5773.606348,-8290.306550,306.438199
1457.331446,6513.812290,-9622.677246,1072.533697
1457.331776,7105.977043,-9030.512492,1072.533697
1457.332105,7254.018232,-7328.038826,1149.143247
1457.332434,5995.668130,-8142.265362,766.095498
1457.332764,5625.565159,-6957.935855,-612.876398
1457.333093,5995.668130,-6291.750507,306.438199
1457.333422,7105.977043,-5255.462188,383.047749
1457.333751,8512.368333,-4589.276840,1072.533697
1457.334081,8808.450710,-3923.091493,1072.533697
1457.334410,8290.306550,-4293.194464,919.314598
1457.334739,7624.121203,-5551.544565,1149.143247
1457.335068,6957.935855,-6735.874072,612.876398
1457.335398,6735.874072,-7254.018232,612.876398
1457.335727,6365.771101,-8734.430116,1149.143247
1457.336056,7254.018232,-7846.182985,995.924147
1457.336386,7031.956449,-9030.512492,1072.533697
1457.336715,6217.729913,-7772.162391,1072.533697
1457.337044,5477.523971,-7402.059420,306.438199
1457.337373,5773.606348,-7031.956449,306.438199
1457.337703,7031.956449,-4663.297435,995.924147
1457.338032,7476.080014,-4959.379811,1455.581446
1457.338361,7476.080014,-4811.338623,766.095498
1457.338690,7105.977043,-3923.091493,1072.533697
1457.339020,7476.080014,-5329.482782,1225.752797
1457.339349,7476.080014,-5255.462188,1225.752797
1457.339678,7105.977043,-7402.059420,1991.848295
1457.340008,7550.100608,-7328.038826,1532.190996
1457.340337,8438.347739,-7254.018232,995.924147
1457.340666,7476.080014,-7328.038826,1378.971896
1457.340995,7254.018232,-7402.059420,1685.410096
1457.341325,6439.791695,-7476.080014,766.095498
1457.341654,5033.400406,-6809.894666,0.000000
1457.341983,5847.626942,-6143.709319,0.000000
1457.342312,7920.203579,-5477.523971,1685.410096
1457.342642,9474.636058,-4589.276840,1225.752797
1457.342971,8512.368333,-5181.441594,1915.238745
1457.343300,7105.977043,-3478.967927,689.485948
1457.343630,5921.647536,-5329.482782,-459.657299
1457.343959,5625.565159,-7476.080014,1378.971896
1457.344288,6587.832884,-8364.327145,1915.238745
1457.344617,7624.121203,-8882.471304,1455.581446
1457.344947,7179.997637,-8660.409521,1838.629195
1457.345276,6291.750507,-9030.512492,1302.362347
1457.345605,6957.935855,-7402.059420,842.705048
1457.345934,5477.523971,-8586.388927,536.266849
1457.346264,4293.194464,-7772.162391,-459.657299
1457.346593,5107.421000,-6069.688724,306.438199
1457.346922,6587.832884,-6439.791695,766.095498
1457.347252,7994.224174,-5625.565159,2221.676944
1457.347581,8882.471304,-3552.988522,2221.676944
1457.347910,8512.368333,-3923.091493,153.219100
1457.348239,7105.977043,-5033.400406,306.438199
1457.348566,6513.812290,-7550.100608,2068.457845
1457.348895,7624.121203,-7254.018232,1225.752797
1457.349224,7698.141797,-7328.038826,1149.143247
1457.349553,6365.771101,-9178.553681,1915.238745
1457.349883,6217.729913,-8216.285956,1991.848295
1457.350212,5625.565159,-8882.471304,76.609550
1457.350541,4737.318029,-7476.080014,612.876398
1457.350870,5551.544565,-6291.750507,229.828649
1457.351199,7031.956449,-5107.421000,842.705048
1457.351529,7402.059420,-3701.029710,2068.457845
1457.351858,7179.997637,-4219.173869,1302.362347
1457.352187,8808.450710,-4071.132681,1072.533697
1457.352516,7846.182985,-4885.359217,1608.800546
1457.352845,6587.832884,-6661.853478,1838.629195
1457.353175,6809.894666,-5551.544565,919.314598
1457.353504,7105.977043,-7105.977043,1302.362347
1457.353833,7920.203579,-7994.224174,1532.190996
1457.354162,7550.100608,-8364.327145,1838.629195
1457.354491,6513.812290,-8216.285956,1532.190996
1457.354820,4663.297435,-7772.162391,0.000000
1457.355150,4367.215058,-8438.347739,-459.657299
1457.355479,5625.565159,-7031.956449,459.657299
1457.355808,7402.059420,-6439.791695,995.924147
1457.356137,8882.471304,-6217.729913,1608.800546
1457.356466,7920.203579,-4219.173869,919.314598
1457.356796,7624.121203,-5033.400406,1149.143247
1457.357125,7179.997637,-5699.585753,153.219100
1457.357454,6661.853478,-6513.812290,766.095498
1457.357783,6365.771101,-7846.182985,1455.581446
1457.358112,7550.100608,-6291.750507,1225.752797
1457.358442,7846.182985,-8660.409521,2221.676944
1457.358771,7624.121203,-7994.224174,2298.286494
1457.359100,6735.874072,-7698.141797,1455.581446
1457.359429,4811.338623,-7179.997637,-995.924147
1457.359758,4737.318029,-7550.100608,689.485948
1457.360088,7624.121203,-6661.853478,1302.362347
1457.360417,9178.553681,-6143.709319,1532.190996
1457.360746,7476.080014,-4293.194464,1149.143247
1457.361075,6291.750507,-5329.482782,459.657299
1457.361404,6735.874072,-5625.565159,76.609550
1457.361734,6587.832884,-4737.318029,689.485948
1457.362063,7846.182985,-6439.791695,1455.581446
1457.362392,9474.636058,-6661.853478,2528.115143
1457.362721,8586.388927,-7402.059420,1915.238745
1457.363050,7105.977043,-7179.997637,1532.190996
1457.363380,7031.956449,-7550.100608,1608.800546
1457.363709,6661.853478,-7105.977043,0.000000
1457.364038,5551.544565,-7105.977043,0.000000
1457.364367,6513.812290,-6809.894666,1455.581446
1457.364696,9030.512492,-5403.503377,1455.581446
1457.365026,8290.306550,-5033.400406,995.924147
1457.365355,6587.832884,-4663.297435,1225.752797
1457.365684,6735.874072,-4737.318029,306.438199
1457.366013,6587.832884,-5625.565159,76.609550
1457.366342,5773.606348,-6957.935855,1302.362347
1457.366672,6735.874072,-7476.080014,2451.505594
1457.367001,8142.265362,-7846.182985,1685.410096
1457.367330,7031.956449,-7624.121203,1608.800546
1457.367659,5255.462188,-7402.059420,1608.800546
1457.367988,5699.585753,-7772.162391,459.657299
1457.368317,4367.215058,-9030.512492,-536.266849
1457.368647,3627.009116,-8734.430116,-229.828649
1457.368976,6513.812290,-6217.729913,919.314598
1457.369305,9622.677246,-5921.647536,612.876398
1457.369634,8882.471304,-4367.215058,2068.457845
1457.369963,8438.347739,-5551.544565,2145.067394
1457.370293,8364.327145,-5033.400406,689.485948
1457.370622,6587.832884,-4737.318029,0.000000
1457.370951,5625.565159,-6291.750507,842.705048
1457.371280,7105.977043,-7105.977043,1608.800546
1457.371609,7698.141797,-8068.244768,1225.752797
1457.371939,6883.915261,-8956.491898,1991.848295
1457.372268,7476.080014,-7476.080014,2298.286494
1457.372597,7402.059420,-6217.729913,1225.752797
1457.372926,5477.523971,-6587.832884,612.876398
1457.373255,4959.379811,-6587.832884,306.438199
1457.373585,7328.038826,-5551.544565,536.266849
1457.373914,7772.162391,-5403.503377,0.000000
1457.374243,7698.141797,-6069.688724,2221.676944
1457.374572,8734.430116,-5329.482782,1991.848295
1457.374901,8660.409521,-5625.565159,0.000000
1457.375231,6735.874072,-6069.688724,1378.971896
1457.375560,6735.874072,-6957.935855,1685.410096
1457.375889,7846.182985,-7328.038826,459.657299
1457.376218,6735.874072,-6439.791695,1608.800546
1457.376547,5625.565159,-7254.018232,689.485948
1457.376877,6143.709319,-8364.327145,612.876398
1457.377206,5107.421000,-7994.224174,0.000000
1457.377535,5107.421000,-8290.306550,306.438199
1457.377864,7402.059420,-6513.812290,2068.457845
1457.378193,9252.574275,-4441.235652,1149.143247
1457.378523,8068.244768,-3849.070898,919.314598
1457.378852,7105.977043,-4737.318029,2298.286494
1457.379181,7624.121203,-5403.503377,229.828649
1457.379510,6957.935855,-5625.565159,153.219100
1457.379839,6217.729913,-5625.565159,1378.971896
1457.380168,7328.038826,-7550.100608,1378.971896
1457.380498,8512.368333,-7846.182985,1302.362347
1457.380827,6809.894666,-6661.853478,1915.238745
1457.381156,7105.977043,-7772.162391,2298.286494
1457.381485,6883.915261,-5995.668130,612.876398
1457.381814,5255.462188,-6587.832884,1455.581446
1457.382144,5551.544565,-7179.997637,229.828649
1457.382473,6661.853478,-6217.729913,229.828649
1457.382802,7031.956449,-7179.997637,842.705048
1457.383131,7328.038826,-5995.668130,1378.971896
1457.383460,7920.203579,-5255.462188,919.314598
1457.383790,7105.977043,-6883.915261,919.314598
1457.384119,5477.523971,-7031.956449,153.219100
1457.384448,6143.709319,-6439.791695,306.438199
1457.384777,6809.894666,-6883.915261,0.000000
1457.385106,7550.100608,-7105.977043,1302.362347
1457.385436,8142.265362,-6513.812290,2221.676944
1457.385765,7772.162391,-6069.688724,1685.410096
1457.386094,6217.729913,-7994.224174,689.485948
1457.386423,7105.977043,-6365.771101,995.924147
1457.386752,8142.265362,-5033.400406,1685.410096
1457.387082,8660.409521,-4737.318029,1072.533697
1457.387411,7994.224174,-5403.503377,1838.629195
1457.387740,7402.059420,-5033.400406,1149.143247
1457.388069,7550.100608,-5995.668130,-153.219100
1457.388398,6143.709319,-6439.791695,459.657299
1457.388728,5699.585753,-7105.977043,919.314598
1457.389057,7105.977043,-7994.224174,1378.971896
1457.389386,7328.038826,-6661.853478,1608.800546
1457.389715,7031.956449,-7476.080014,1225.752797
1457.390044,6957.935855,-6883.915261,1685.410096
1457.390374,6291.750507,-6365.771101,0.000000
1457.390703,5921.647536,-7772.162391,-153.219100
1457.391032,6661.853478,-6217.729913,2068.457845
1457.391361,7920.203579,-5773.606348,1302.362347
1457.391690,8068.244768,-6291.750507,1685.410096
1457.392020,7105.977043,-5699.585753,2068.457845
1457.392349,6883.915261,-5551.544565,229.828649
1457.392678,6587.832884,-5699.585753,0.000000
1457.393007,5773.606348,-7402.059420,766.095498
1457.393336,6143.709319,-8142.265362,383.047749
1457.393665,7254.018232,-7402.059420,612.876398
1457.393995,6957.935855,-7624.121203,536.266849
1457.394324,6439.791695,-7179.997637,1149.143247
1457.394653,6365.771101,-7550.100608,842.705048
1457.394982,5551.544565,-8660.409521,459.657299
1457.395311,5995.668130,-7179.997637,1762.019645
1457.395641,7846.182985,-5107.421000,2221.676944
1457.395970,9252.574275,-4071.132681,1532.190996
1457.396299,8364.327145,-4515.256246,1915.238745
1457.396628,7994.224174,-4441.235652,2221.676944
1457.396957,8142.265362,-4515.256246,536.266849
1457.397287,6513.812290,-5403.503377,0.000000
1457.397616,5699.585753,-6291.750507,612.876398
1457.397945,7179.997637,-8660.409521,842.705048
1457.398274,8142.265362,-8216.285956,2221.676944
1457.398603,7105.977043,-7179.997637,2528.115143
1457.398933,6513.812290,-7031.956449,1762.019645
1457.399262,6439.791695,-6513.812290,229.828649
1457.399591,5403.503377,-6809.894666,383.047749
1457.399920,6217.729913,-4293.194464,536.266849
1457.400249,8882.471304,-5477.523971,1608.800546
1457.400579,9030.512492,-5403.503377,2374.896044
1457.400908,7920.203579,-5477.523971,2145.067394
1457.401237,6513.812290,-6661.853478,1532.190996
1457.401566,5181.441594,-4959.379811,-306.438199
1457.401895,3330.926739,-7698.141797,-842.705048
1457.402225,4441.235652,-8142.265362,306.438199
1457.402554,7402.059420,-7994.224174,1455.581446
1457.402883,9030.512492,-7994.224174,2298.286494
1457.403212,8956.491898,-6957.935855,2911.162892
1457.403541,7254.018232,-8068.244768,1838.629195
1457.403871,4811.338623,-8512.368333,229.828649
1457.404200,3478.967927,-6957.935855,0.000000
1457.404529,4737.318029,-6661.853478,-383.047749
1457.404858,6735.874072,-6143.709319,842.705048
1457.405187,6957.935855,-7031.956449,1378.971896
1457.405516,7031.956449,-7179.997637,1608.800546
1457.405846,7105.977043,-6587.832884,842.705048
1457.406175,6809.894666,-7105.977043,766.095498
1457.406504,6439.791695,-7179.997637,1455.581446
1457.406833,7105.977043,-7254.018232,1149.143247
1457.407162,7476.080014,-7105.977043,306.438199
1457.407492,7328.038826,-6143.709319,1302.362347
1457.407821,8290.306550,-5551.544565,1072.533697
1457.408150,8586.388927,-5625.565159,1378.971896
1457.408479,7846.182985,-5921.647536,1991.848295
1457.408808,8290.306550,-5181.441594,1608.800546
1457.409138,8216.285956,-3404.947333,1302.362347
1457.409467,7624.121203,-4367.215058,842.705048
1457.409796,7624.121203,-4589.276840,153.219100
1457.410125,7328.038826,-5107.421000,919.314598
1457.410454,6587.832884,-6661.853478,536.266849
1457.410784,5995.668130,-7105.977043,1072.533697
1457.411113,6217.729913,-7476.080014,919.314598
1457.411442,7179.997637,-7624.121203,842.705048
1457.411771,7846.182985,-7179.997637,1225.752797
1457.412100,7402.059420,-6513.812290,2145.067394
1457.412430,7105.977043,-6365.771101,842.705048
1457.412759,6587.832884,-7624.121203,76.609550
1457.413088,6587.832884,-6365.771101,919.314598
1457.413417,7846.182985,-6069.688724,1378.971896
1457.413746,8142.265362,-6365.771101,1072.533697
1457.414076,7476.080014,-6365.771101,842.705048
1457.414405,7105.977043,-6661.853478,306.438199
1457.414734,6291.750507,-6957.935855,153.219100
1457.415063,5403.503377,-6809.894666,-995.924147
1457.415392,4959.379811,-8808.450710,842.705048
1457.415722,6069.688724,-8808.450710,689.485948
1457.416051,7031.956449,-8068.244768,689.485948
1457.416380,6809.894666,-6513.812290,1532.190996
1457.416709,7550.100608,-7105.977043,1762.019645
1457.417038,6809.894666,-6069.688724,229.828649
1457.417368,6069.688724,-5847.626942,459.657299
1457.417697,6809.894666,-5403.503377,1838.629195
1457.418026,8660.409521,-3923.091493,1532.190996
1457.418355,9104.533087,-4885.359217,1915.238745
1457.418684,7994.224174,-4737.318029,1378.971896
1457.419013,7994.224174,-4293.194464,842.705048
1457.419343,7105.977043,-6217.729913,459.657299
1457.419672,6291.750507,-7105.977043,1072.533697
1457.420001,7105.977043,-7031.956449,1455.581446
1457.420330,8290.306550,-7920.203579,1455.581446
1457.420659,7550.100608,-7476.080014,2374.896044
1457.420989,6809.894666,-7031.956449,1302.362347
1457.421318,6143.709319,-7698.141797,919.314598
1457.421647,4589.276840,-7328.038826,-229.828649
1457.421976,4959.379811,-6143.709319,383.047749
1457.422305,6957.935855,-5773.606348,1302.362347
1457.422635,8438.347739,-6217.729913,2221.676944
1457.422964,8512.368333,-6217.729913,1838.629195
1457.423293,7846.182985,-5699.585753,1302.362347
1457.423622,7698.141797,-4293.194464,536.266849
1457.423951,6217.729913,-6291.750507,-76.609550
1457.424281,6957.935855,-6809.894666,689.485948
1457.424610,7698.141797,-8586.388927,1378.971896
1457.424939,7772.162391,-7846.182985,1838.629195
1457.425268,6587.832884,-7328.038826,1838.629195
1457.425597,5625.565159,-7624.121203,842.705048
1457.425927,5255.462188,-8586.388927,1762.019645
1457.426256,3627.009116,-8512.368333,459.657299
1457.426585,3997.112087,-7698.141797,229.828649
1457.426914,5403.503377,-5403.503377,1302.362347
1457.427243,7031.956449,-5773.606348,1455.581446
1457.427573,8660.409521,-4811.338623,1915.238745
1457.427902,8660.409521,-4441.235652,2374.896044
1457.428231,8512.368333,-5181.441594,1149.143247
1457.428560,7550.100608,-5921.647536,1149.143247
1457.428889,7402.059420,-7179.997637,2298.286494
1457.429219,8438.347739,-5847.626942,689.485948
1457.429548,7920.203579,-7105.977043,1455.581446
1457.429877,6809.894666,-6661.853478,1378.971896
1457.430206,6735.874072,-7179.997637,1225.752797
1457.430535,6143.709319,-7772.162391,459.657299
1457.430864,5033.400406,-7105.977043,306.438199
1457.431194,5107.421000,-7772.162391,306.438199
1457.431523,5403.503377,-7994.224174,0.000000
1457.431852,4367.215058,-9104.533087,76.609550
1457.432181,4885.359217,-8586.388927,153.219100
1457.432510,6291.750507,-8142.265362,536.266849
1457.432840,5995.668130,-9400.615463,459.657299
1457.433169,5477.523971,-8586.388927,612.876398
1457.433498,6217.729913,-8956.491898,1225.752797
1457.433827,7550.100608,-8512.368333,1225.752797
1457.434156,7105.977043,-7624.121203,1378.971896
1457.434486,6217.729913,-7328.038826,1302.362347
1457.434815,5921.647536,-5921.647536,459.657299
1457.435144,5625.565159,-5995.668130,229.828649
1457.435473,6883.915261,-6069.688724,1378.971896
1457.435802,8808.450710,-6587.832884,2145.067394
1457.436132,8882.471304,-5181.441594,1915.238745
1457.436461,6883.915261,-5699.585753,1149.143247
1457.436790,4959.379811,-7402.059420,995.924147
1457.437119,5255.462188,-8068.244768,306.438199
1457.437448,4219.173869,-9400.615463,306.438199
1457.437778,3552.988522,-9918.759623,1532.190996
1457.438107,5403.503377,-9548.656652,995.924147
1457.438436,5773.606348,-9252.574275,1608.800546
1457.438765,5773.606348,-8808.450710,2681.334243
1457.439094,6143.709319,-7698.141797,2757.943793
1457.439424,4737.318029,-6957.935855,1915.238745
1457.439753,2812.782580,-5847.626942,536.266849
1457.440082,3034.844362,-5699.585753,842.705048
1457.440411,5625.565159,-6291.750507,919.314598
1457.440740,6069.688724,-8364.327145,2451.505594
1457.441070,4737.318029,-8068.244768,1838.629195
1457.441399,4441.235652,-8364.327145,0.000000
1457.441728,3256.906145,-10214.842000,76.609550
1457.442057,2738.761985,-12287.418637,-612.876398
1457.442386,2664.741391,-11621.233289,0.000000
1457.442716,2812.782580,-12287.418637,229.828649
1457.443045,3552.988522,-13027.624579,306.438199
1457.443374,4589.276840,-11473.192101,2221.676944
1457.443703,5255.462188,-8808.450710,1838.629195
1457.444032,6513.812290,-7179.997637,1762.019645
1457.444361,5699.585753,-5847.626942,1378.971896
1457.444691,5921.647536,-5921.647536,1455.581446
1457.445020,7476.080014,-4737.318029,2068.457845
1457.445349,7179.997637,-5699.585753,2298.286494
1457.445678,5403.503377,-7920.203579,1149.143247
1457.446007,4441.235652,-8364.327145,919.314598
1457.446337,3775.050304,-10214.842000,0.000000
1457.446666,3552.988522,-11473.192101,612.876398
1457.446995,3330.926739,-13027.624579,2298.286494
1457.447324,3997.112087,-13027.624579,919.314598
1457.447653,2886.803174,-10510.924376,76.609550
1457.447983,2812.782580,-11177.109724,1149.143247
1457.448312,4737.318029,-9474.636058,2145.067394
1457.448641,5551.544565,-7698.141797,1685.410096
1457.448970,5403.503377,-5773.606348,1608.800546
1457.449299,6513.812290,-3552.988522,1149.143247
1457.449628,7698.141797,-4515.256246,1532.190996
1457.449958,7105.977043,-5477.523971,1838.629195
1457.450287,4959.379811,-5847.626942,0.000000
1457.450616,4737.318029,-6883.915261,-536.266849
1457.450945,5107.421000,-8660.409521,459.657299
1457.451274,5625.565159,-10214.842000,2221.676944
1457.451603,5847.626942,-10288.862594,1991.848295
1457.451932,5181.441594,-10214.842000,842.705048
1457.452262,5329.482782,-9326.594869,229.828649
1457.452591,4959.379811,-9844.739029,1149.143247
1457.452920,4515.256246,-9548.656652,2528.115143
1457.453249,3404.947333,-9696.697840,76.609550
1457.453578,2072.576638,-8068.244768,-306.438199
1457.453907,2960.823768,-9400.615463,1532.190996
1457.454237,4959.379811,-9030.512492,2528.115143
1457.454566,5477.523971,-5477.523971,2374.896044
1457.454895,5477.523971,-4219.173869,459.657299
1457.455224,6587.832884,-3404.947333,-459.657299
1457.455553,7476.080014,-6217.729913,612.876398
1457.455882,7105.977043,-10214.842000,3217.601092
1457.456212,5921.647536,-10510.924376,919.314598
1457.456541,4737.318029,-10066.800811,-383.047749
1457.456870,3552.988522,-11547.212695,-459.657299
1457.457199,3256.906145,-12879.583391,1149.143247
1457.457528,4663.297435,-11843.295072,2604.724693
1457.457857,5107.421000,-9252.574275,306.438199
1457.458187,4885.359217,-6587.832884,0.000000
1457.458516,5921.647536,-5847.626942,1072.533697
1457.458845,6365.771101,-7698.141797,2374.896044
1457.459174,5551.544565,-7550.100608,1915.238745
1457.459503,4145.153275,-7179.997637,76.609550
1457.459832,3775.050304,-6957.935855,0.000000
1457.460162,4811.338623,-8882.471304,919.314598
1457.460491,5477.523971,-10436.903782,2834.553343
1457.460820,5551.544565,-10881.027347,1991.848295
1457.461149,4071.132681,-10436.903782,306.438199
1457.461478,2886.803174,-9918.759623,919.314598
1457.461807,3701.029710,-9030.512492,1455.581446
1457.462137,5699.585753,-7476.080014,1072.533697
1457.462466,5699.585753,-7550.100608,2221.676944
1457.462795,5255.462188,-7698.141797,2604.724693
1457.463124,5181.441594,-8068.244768,2528.115143
1457.463453,4515.256246,-7772.162391,1915.238745
1457.463782,3552.988522,-7624.121203,229.828649
1457.464111,2812.782580,-9104.533087,-995.924147
1457.464441,2590.720797,-11251.130318,153.219100
1457.464770,3404.947333,-11621.233289,1149.143247
1457.465099,5329.482782,-10436.903782,1455.581446
1457.465428,5551.544565,-8586.388927,459.657299
1457.465757,4885.359217,-8216.285956,0.000000
1457.466086,4367.215058,-9400.615463,689.485948
1457.466416,5995.668130,-9326.594869,1302.362347
1457.466745,6883.915261,-7402.059420,1762.019645
1457.467074,6735.874072,-5551.544565,2068.457845
1457.467403,6661.853478,-5773.606348,2681.334243
1457.467732,6217.729913,-7254.018232,2221.676944
1457.468061,5033.400406,-9252.574275,1838.629195
1457.468391,2960.823768,-9400.615463,612.876398
1457.468720,2516.700203,-9178.553681,-766.095498
1457.469049,3182.885551,-10288.862594,0.000000
1457.469378,4071.132681,-11547.212695,1225.752797
1457.469707,5181.441594,-11917.315666,2068.457845
1457.470036,5551.544565,-10288.862594,2298.286494
1457.470366,5033.400406,-7994.224174,1838.629195
1457.470695,5033.400406,-6883.915261,919.314598
1457.471024,5699.585753,-5995.668130,842.705048
1457.471353,5847.626942,-6291.750507,689.485948
1457.471682,6365.771101,-6883.915261,1149.143247
1457.472011,6661.853478,-7550.100608,1608.800546
1457.472341,6735.874072,-8660.409521,1455.581446
1457.472670,5699.585753,-9104.533087,1225.752797
1457.472999,3701.029710,-9696.697840,536.266849
1457.473328,2886.803174,-9844.739029,-383.047749
1457.473657,2960.823768,-11473.192101,-536.266849
1457.473986,4145.153275,-11103.089130,0.000000
1457.474316,4737.318029,-10510.924376,383.047749
1457.474645,4441.235652,-10807.006753,1149.143247
1457.474974,4071.132681,-9696.697840,1072.533697
1457.475303,3923.091493,-8586.388927,1225.752797
1457.475632,5625.565159,-6365.771101,2451.505594
1457.475961,7105.977043,-4293.194464,3140.991542
1457.476291,8364.327145,-2664.741391,2834.553343
1457.476620,7550.100608,-2812.782580,1915.238745
1457.476949,6957.935855,-3849.070898,919.314598
1457.477278,6217.729913,-6069.688724,76.609550
1457.477607,5255.462188,-8512.368333,689.485948
1457.477936,4811.338623,-11399.171507,612.876398
1457.478265,4663.297435,-12139.377449,536.266849
1457.478595,4589.276840,-12361.439231,995.924147
1457.478924,4885.359217,-12879.583391,1225.752797
1457.479253,3997.112087,-10955.047942,842.705048
1457.479582,2664.741391,-10732.986159,-306.438199
1457.479911,1628.453072,-10955.047942,-1302.362347
1457.480240,1554.432478,-10955.047942,-536.266849
1457.480570,2072.576638,-11917.315666,1149.143247
1457.480899,3182.885551,-9844.739029,919.314598
1457.481228,4885.359217,-5625.565159,1685.410096
1457.481557,7105.977043,-3478.967927,2068.457845
1457.481886,9400.615463,-3182.885551,2681.334243
1457.482215,9696.697840,-2886.803174,4213.525239
1457.482545,8586.388927,-4885.359217,2834.553343
1457.482874,6809.894666,-6809.894666,2221.676944
1457.483203,5107.421000,-9252.574275,1225.752797
1457.483532,4219.173869,-12879.583391,1915.238745
1457.483861,3478.967927,-13841.851115,1225.752797
1457.484190,2664.741391,-13545.768739,1072.533697
1457.484520,2516.700203,-11769.274478,229.828649
1457.484849,2738.761985,-9770.718434,0.000000
1457.485178,2442.679609,-9104.533087,0.000000
1457.485507,2368.659014,-8660.409521,-689.485948
1457.485836,2368.659014,-7772.162391,-1302.362347
1457.486165,3108.864956,-6661.853478,-689.485948
1457.486495,5255.462188,-7698.141797,919.314598
1457.486824,8142.265362,-7994.224174,2987.772442
1457.487153,9178.553681,-8142.265362,3447.429741
1457.487482,8142.265362,-6957.935855,2757.943793
1457.487811,6883.915261,-7624.121203,1915.238745
1457.488140,5699.585753,-7994.224174,1608.800546
1457.488470,4811.338623,-8808.450710,1762.019645
1457.488799,5181.441594,-9104.533087,1838.629195
1457.489128,5107.421000,-9252.574275,2298.286494
1457.489457,5847.626942,-8882.471304,2911.162892
1457.489786,5995.668130,-7846.182985,2681.334243
1457.490115,5625.565159,-7105.977043,1838.629195
1457.490445,4737.318029,-6439.791695,1149.143247
1457.490774,3849.070898,-6883.915261,842.705048
1457.491103,4071.132681,-8290.306550,842.705048
1457.491432,4737.318029,-8142.265362,2068.457845
1457.491761,5699.585753,-8882.471304,2374.896044
1457.492090,6069.688724,-9474.636058,3294.210641
1457.492419,6143.709319,-8142.265362,2911.162892
1457.492749,6291.750507,-9474.636058,3447.429741
1457.493078,6735.874072,-7698.141797,4290.134789
1457.493407,6809.894666,-7624.121203,3677.258390
1457.493736,6439.791695,-6439.791695,2987.772442
1457.494065,6365.771101,-5699.585753,2987.772442
1457.494394,6587.832884,-5699.585753,2451.505594
1457.494724,6661.853478,-6143.709319,2221.676944
1457.495053,6365.771101,-7550.100608,2298.286494
1457.495382,5773.606348,-7920.203579,1838.629195
1457.495711,5107.421000,-9104.533087,2068.457845
1457.496040,5255.462188,-9400.615463,3064.381992
1457.496369,5625.565159,-8290.306550,3064.381992
1457.496699,5699.585753,-7550.100608,3907.087040
1457.497028,6587.832884,-6661.853478,3907.087040
1457.497357,7105.977043,-6587.832884,4443.353888
1457.497686,7476.080014,-5699.585753,5286.058936
1457.498015,7846.182985,-4959.379811,4826.401637
1457.498344,8142.265362,-4367.215058,5515.887586
1457.498674,8512.368333,-3701.029710,5132.839837
1457.499003,8142.265362,-4071.132681,5439.278036
1457.499332,7920.203579,-4145.153275,4826.401637
1457.499661,7254.018232,-4589.276840,4519.963438
1457.499990,6735.874072,-6661.853478,3830.477490
1457.500319,5995.668130,-7772.162391,3753.867940
1457.500649,5403.503377,-9622.677246,3753.867940
1457.500978,4885.359217,-10214.842000,3370.820191
1457.501307,3923.091493,-10140.821405,4060.306139
1457.501636,4145.153275,-10066.800811,3830.477490
1457.501965,4515.256246,-10214.842000,3830.477490
1457.502294,4293.194464,-9474.636058,3983.696590
1457.502624,4885.359217,-7698.141797,3447.429741
1457.502953,6809.894666,-6587.832884,3830.477490
1457.503282,7994.224174,-5477.523971,5592.497135
1457.503611,9326.594869,-4515.256246,6128.763984
1457.503940,9696.697840,-3627.009116,6435.202183
1457.504269,9992.780217,-2368.659014,6205.373534
1457.504599,9548.656652,-2368.659014,5439.278036
1457.504928,8586.388927,-2738.761985,5056.230287
1457.505257,7920.203579,-4367.215058,4673.182538
1457.505586,7698.141797,-5847.626942,4290.134789
1457.505915,7698.141797,-5551.544565,5362.668486
1457.506244,6957.935855,-7846.182985,4519.963438
1457.506573,6217.729913,-8734.430116,4366.744339
1457.506903,5403.503377,-9474.636058,4519.963438
1457.507232,3997.112087,-10881.027347,3294.210641
1457.507561,2590.720797,-10140.821405,3217.601092
1457.507890,2368.659014,-10066.800811,3217.601092
1457.508219,3923.091493,-8808.450710,2757.943793
1457.508548,5477.523971,-6735.874072,3983.696590
1457.508878,7624.121203,-4811.338623,4903.011187
1457.509207,9696.697840,-3478.967927,5592.497135
1457.509536,10732.986159,-2368.659014,6052.154434
1457.509865,10510.924376,-1628.453072,5286.058936
1457.510194,9622.677246,-2442.679609,4366.744339
1457.510523,8734.430116,-4219.173869,4826.401637
1457.510853,7698.141797,-6513.812290,3907.087040
1457.511182,7105.977043,-8216.285956,3217.601092
1457.511511,6513.812290,-9252.574275,3140.991542
1457.511840,5847.626942,-10288.862594,2757.943793
1457.512169,5403.503377,-10066.800811,2834.553343
1457.512498,4737.318029,-9474.636058,3064.381992
1457.512828,4441.235652,-8216.285956,2757.943793
1457.513157,5329.482782,-5847.626942,3064.381992
1457.513486,7031.956449,-4293.194464,3753.867940
1457.513815,9178.553681,-4293.194464,4749.792088
1457.514144,9992.780217,-4737.318029,5132.839837
1457.514473,9474.636058,-4293.194464,3907.087040
1457.514803,7328.038826,-5329.482782,2528.115143
1457.515132,6587.832884,-5699.585753,1838.629195
1457.515461,5847.626942,-8068.244768,2145.067394
1457.515790,5847.626942,-8734.430116,2834.553343
1457.516119,5921.647536,-8290.306550,3370.820191
1457.516448,7031.956449,-8068.244768,3753.867940
1457.516778,7698.141797,-7624.121203,4060.306139
1457.517107,7328.038826,-6957.935855,4443.353888
1457.517436,7328.038826,-6365.771101,3983.696590
1457.517765,7550.100608,-4959.379811,3907.087040
1457.518094,7550.100608,-3552.988522,3600.648841
1457.518423,7846.182985,-2812.782580,3677.258390
1457.518752,8734.430116,-3182.885551,3983.696590
1457.519082,9326.594869,-3552.988522,4443.353888
1457.519411,8808.450710,-4071.132681,3830.477490
1457.519740,7624.121203,-5773.606348,3907.087040
1457.520069,6661.853478,-8882.471304,3677.258390
1457.520398,5329.482782,-11325.150913,3600.648841
1457.520727,4515.256246,-11769.274478,3907.087040
1457.521057,4145.153275,-10362.883188,3294.210641
1457.521386,3923.091493,-8734.430116,2987.772442
1457.521715,4441.235652,-6809.894666,3447.429741
1457.522044,5477.523971,-5699.585753,3753.867940
1457.522373,7031.956449,-4663.297435,4443.353888
1457.522702,7846.182985,-4145.153275,4749.792088
1457.523032,8438.347739,-3775.050304,4903.011187
1457.523361,9326.594869,-2516.700203,5745.716235
1457.523690,10436.903782,-2886.803174,5515.887586
1457.524019,10510.924376,-4071.132681,5209.449386
1457.524348,8882.471304,-5477.523971,3907.087040
1457.524677,7550.100608,-7920.203579,3447.429741
1457.525007,5847.626942,-9696.697840,3140.991542
1457.525336,4145.153275,-11029.068536,3217.601092
1457.525665,2886.803174,-11621.233289,3447.429741
1457.525994,2442.679609,-11325.150913,2681.334243
1457.526323,3552.988522,-9622.677246,3677.258390
1457.526652,5329.482782,-7031.956449,3907.087040
1457.526982,7179.997637,-4959.379811,5132.839837
1457.527311,8290.306550,-3256.906145,5745.716235
1457.527640,9474.636058,-3182.885551,6052.154434
1457.527969,9548.656652,-1998.556043,6205.373534
1457.528298,10140.821405,-1332.370696,5439.278036
1457.528627,9252.574275,-3404.947333,4749.792088
1457.528957,7994.224174,-5329.482782,5362.668486
1457.529286,8142.265362,-8142.265362,4903.011187
1457.529615,7846.182985,-9326.594869,4290.134789
1457.529944,6365.771101,-9474.636058,4136.915689
1457.530273,5181.441594,-10732.986159,2834.553343
1457.530602,4145.153275,-8660.409521,2298.286494
1457.530932,3701.029710,-7698.141797,2604.724693
1457.531261,5255.462188,-7105.977043,3370.820191
1457.531590,7624.121203,-4959.379811,4290.134789
1457.531919,7254.018232,-4737.318029,4903.011187
1457.532248,7476.080014,-4515.256246,4749.792088
1457.532577,7772.162391,-4145.153275,4673.182538
1457.532906,8660.409521,-4811.338623,5056.230287
1457.533236,9030.512492,-5181.441594,4979.620737
1457.533565,9104.533087,-4885.359217,5286.058936
1457.533894,8808.450710,-5329.482782,4519.963438
1457.534223,7550.100608,-6883.915261,4366.744339
1457.534552,6365.771101,-8216.285956,4136.915689
1457.534881,5625.565159,-9548.656652,4213.525239
1457.535211,5773.606348,-8734.430116,3907.087040
1457.535540,5403.503377,-7994.224174,3524.039291
1457.535869,4663.297435,-7624.121203,3140.991542
1457.536198,5033.400406,-8660.409521,4290.134789
1457.536527,6587.832884,-6217.729913,4673.182538
1457.536856,6809.894666,-4071.132681,3447.429741
1457.537186,6809.894666,-2738.761985,3677.258390
1457.537515,7328.038826,-4071.132681,3294.210641
1457.537844,8734.430116,-5921.647536,4903.011187
1457.538173,9030.512492,-5403.503377,4979.620737
1457.538502,8734.430116,-6217.729913,4673.182538
1457.538831,7920.203579,-8290.306550,3600.648841
1457.539161,6439.791695,-9622.677246,2987.772442
1457.539490,5107.421000,-10584.944971,3370.820191
1457.539819,5847.626942,-8438.347739,3294.210641
1457.540148,6957.935855,-7105.977043,3830.477490
1457.540477,7550.100608,-6957.935855,3983.696590
1457.540806,7105.977043,-5921.647536,3447.429741
1457.541136,5995.668130,-4959.379811,3294.210641
1457.541465,5403.503377,-4589.276840,2911.162892
1457.541794,5921.647536,-5033.400406,2451.505594
1457.542123,7179.997637,-5033.400406,3370.820191
1457.542452,9326.594869,-5329.482782,4903.011187
1457.542781,9622.677246,-4811.338623,4979.620737
1457.543111,7920.203579,-5921.647536,3753.867940
1457.543440,6365.771101,-8068.244768,3600.648841
1457.543769,6365.771101,-7772.162391,3753.867940
1457.544098,6661.853478,-9400.615463,3677.258390
1457.544427,5107.421000,-9770.718434,4136.915689
1457.544756,5107.421000,-8660.409521,3600.648841
1457.545086,6513.812290,-6809.894666,3600.648841
1457.545415,8512.368333,-3552.988522,4903.011187
1457.545744,9474.636058,-3330.926739,4596.572988
1457.546073,8586.388927,-3182.885551,3830.477490
1457.546402,6291.750507,-4441.235652,2604.724693
1457.546731,5329.482782,-4515.256246,2451.505594
1457.547060,6291.750507,-5329.482782,2068.457845
1457.547390,8216.285956,-5847.626942,2834.553343
1457.547719,8142.265362,-6439.791695,3524.039291
1457.548048,7994.224174,-8290.306550,3524.039291
1457.548377,8438.347739,-7994.224174,3677.258390
1457.548706,7328.038826,-7772.162391,2834.553343
1457.549035,6069.688724,-8808.450710,2911.162892
1457.549365,4367.215058,-9400.615463,2681.334243
1457.549694,4515.256246,-9030.512492,2604.724693
1457.550023,5329.482782,-5477.523971,2451.505594
1457.550352,6883.915261,-4737.318029,3524.039291
1457.550681,8808.450710,-5699.585753,4749.792088
1457.551010,8512.368333,-4959.379811,4826.401637
1457.551339,6883.915261,-3256.906145,2221.676944
1457.551668,6439.791695,-3330.926739,919.314598
1457.551997,7031.956449,-5921.647536,2068.457845
1457.552327,8068.244768,-6587.832884,2528.115143
1457.552656,8290.306550,-6439.791695,2451.505594
1457.552985,6661.853478,-6143.709319,1302.362347
1457.553314,5699.585753,-7698.141797,383.047749
1457.553643,5477.523971,-9474.636058,612.876398
1457.553972,5255.462188,-10140.821405,1302.362347
1457.554301,6069.688724,-10066.800811,2451.505594
1457.554630,6217.729913,-8216.285956,2681.334243
1457.554959,7105.977043,-6143.709319,2681.334243
1457.555289,7772.162391,-5847.626942,4136.915689
1457.555618,9400.615463,-4071.132681,4136.915689
1457.555947,9030.512492,-2664.741391,3447.429741
1457.556276,7328.038826,-3108.864956,1838.629195
1457.556605,6513.812290,-2368.659014,536.266849
1457.556934,7105.977043,-5255.462188,459.657299
1457.557263,8216.285956,-6661.853478,689.485948
1457.557592,7402.059420,-7254.018232,1685.410096
1457.557921,6735.874072,-8660.409521,0.000000
1457.558251,5255.462188,-9326.594869,383.047749
1457.558580,4737.318029,-11695.253884,919.314598
1457.558909,4811.338623,-11399.171507,919.314598
1457.559238,4737.318029,-8882.471304,536.266849
1457.559567,6143.709319,-7994.224174,1455.581446
1457.559896,7994.224174,-5995.668130,2298.286494
1457.560225,8808.450710,-4737.318029,3140.991542
1457.560554,8660.409521,-3552.988522,2834.553343
1457.560883,8216.285956,-1480.411884,1455.581446
1457.561213,7698.141797,-3478.967927,306.438199
1457.561542,7846.182985,-4293.194464,612.876398
1457.561871,7772.162391,-5551.544565,1225.752797
1457.562200,8142.265362,-7105.977043,536.266849
1457.562529,7031.956449,-6957.935855,-1149.143247
1457.562858,5329.482782,-7920.203579,-1378.971896
1457.563187,5255.462188,-11473.192101,229.828649
1457.563516,5033.400406,-11621.233289,612.876398
1457.563845,4737.318029,-9844.739029,536.266849
1457.564175,5847.626942,-8068.244768,1225.752797
1457.564504,7772.162391,-6735.874072,2298.286494
1457.564833,8216.285956,-5033.400406,3830.477490
1457.565162,8364.327145,-3182.885551,3677.258390
1457.565491,8808.450710,-2368.659014,2451.505594
1457.565820,8512.368333,-1554.432478,1762.019645
1457.566149,8216.285956,-3034.844362,842.705048
1457.566478,7105.977043,-4959.379811,0.000000
1457.566807,5995.668130,-6513.812290,-1302.362347
1457.567137,4737.318029,-7994.224174,-2834.553343
1457.567466,4663.297435,-8734.430116,-919.314598
1457.567795,5847.626942,-11547.212695,153.219100
1457.568124,6809.894666,-11843.295072,766.095498
1457.568453,6069.688724,-10214.842000,842.705048
1457.568782,6661.853478,-9844.739029,842.705048
1457.569111,7772.162391,-7698.141797,1762.019645
1457.569440,7772.162391,-5107.421000,3217.601092
1457.569769,8364.327145,-2442.679609,2068.457845
1457.570099,9030.512492,-1184.329507,1915.238745
1457.570428,10140.821405,-1554.432478,2528.115143
1457.570757,10584.944971,-2146.597232,2528.115143
1457.571086,9030.512492,-3849.070898,2221.676944
1457.571415,6587.832884,-4515.256246,-612.876398
1457.571744,4441.235652,-7179.997637,-1838.629195
1457.572073,4737.318029,-9696.697840,-842.705048
1457.572402,4737.318029,-11843.295072,-766.095498
1457.572731,4885.359217,-11843.295072,229.828649
1457.573061,5329.482782,-11029.068536,919.314598
1457.573390,6069.688724,-9770.718434,1072.533697
1457.573719,5773.606348,-8438.347739,1455.581446
1457.574048,5699.585753,-5921.647536,2757.943793
1457.574377,7254.018232,-4441.235652,1838.629195
1457.574706,8956.491898,-3330.926739,2987.772442
1457.575035,9844.739029,-1406.391290,3370.820191
1457.575364,10510.924376,-1628.453072,2987.772442
1457.575694,9548.656652,-2442.679609,1915.238745
1457.576023,7105.977043,-4663.297435,0.000000
1457.576352,5551.544565,-7105.977043,-536.266849
1457.576681,5773.606348,-8734.430116,-383.047749
1457.577010,5625.565159,-10436.903782,-383.047749
1457.577339,4737.318029,-11399.171507,383.047749
1457.577668,5107.421000,-12657.521608,1455.581446
1457.577997,4811.338623,-10658.965565,153.219100
1457.578326,4589.276840,-8660.409521,612.876398
1457.578656,5551.544565,-7105.977043,1915.238745
1457.578985,7698.141797,-4071.132681,1455.581446
1457.579314,9400.615463,-2072.576638,2681.334243
1457.579643,9696.697840,-1702.473667,3753.867940
1457.579972,10881.027347,-814.226536,2451.505594
1457.580301,9030.512492,-2368.659014,842.705048
1457.580630,7698.141797,-4293.194464,1149.143247
1457.580959,7550.100608,-7328.038826,1455.581446
1457.581288,6513.812290,-9696.697840,919.314598
1457.581618,4589.276840,-9474.636058,0.000000
1457.581947,5033.400406,-10881.027347,-229.828649
1457.582276,5921.647536,-11769.274478,1225.752797
1457.582605,4959.379811,-10288.862594,229.828649
1457.582934,3701.029710,-7254.018232,-306.438199
1457.583263,4811.338623,-6365.771101,766.095498
1457.583592,7328.038826,-4885.359217,1532.190996
1457.583921,9104.533087,-2368.659014,3064.381992
1457.584250,10362.883188,-1924.535449,3983.696590
1457.584580,11103.089130,-1332.370696,1991.848295
1457.584909,9252.574275,-2072.576638,1225.752797
1457.585238,7328.038826,-5699.585753,1149.143247
1457.585567,7920.203579,-7031.956449,842.705048
1457.585896,7328.038826,-8290.306550,0.000000
1457.586225,5847.626942,-10140.821405,-766.095498
1457.586554,4885.359217,-11325.150913,612.876398
1457.586883,5107.421000,-11843.295072,842.705048
1457.587212,4441.235652,-10066.800811,229.828649
1457.587542,4589.276840,-8956.491898,383.047749
1457.587871,6809.894666,-6809.894666,1225.752797
1457.588200,7179.997637,-4515.256246,842.705048
1457.588529,7550.100608,-2960.823768,2221.676944
1457.588858,8290.306550,-1554.432478,995.924147
1457.589187,8586.388927,-2516.700203,0.000000
1457.589516,7105.977043,-2812.782580,766.095498
1457.589845,7328.038826,-5921.647536,1608.800546
1457.590174,8364.327145,-8660.409521,1532.190996
1457.590504,8068.244768,-8216.285956,1532.190996
1457.590833,8068.244768,-9918.759623,1378.971896
1457.591162,7328.038826,-10807.006753,1072.533697
1457.591491,5551.544565,-9474.636058,0.000000
1457.591820,4145.153275,-8734.430116,-842.705048
1457.592149,5477.523971,-7105.977043,229.828649
1457.592478,6439.791695,-5773.606348,919.314598
1457.592807,7772.162391,-4071.132681,1838.629195
1457.593136,7994.224174,-3404.947333,1762.019645
1457.593466,7698.141797,-2368.659014,459.657299
1457.593795,6957.935855,-3923.091493,1072.533697
1457.594124,7105.977043,-5477.523971,1685.410096
1457.594453,7550.100608,-6143.709319,1225.752797
1457.594782,7105.977043,-5995.668130,229.828649
1457.595111,7031.956449,-7550.100608,1149.143247
1457.595440,7402.059420,-9400.615463,2068.457845
1457.595769,7402.059420,-10362.883188,2145.067394
1457.596098,5477.523971,-8734.430116,766.095498
1457.596428,4589.276840,-7994.224174,0.000000
1457.596757,5847.626942,-7402.059420,306.438199
1457.597086,6883.915261,-6143.709319,1762.019645
1457.597415,8290.306550,-4737.318029,1838.629195
1457.597744,8956.491898,-4293.194464,1302.362347
1457.598073,7476.080014,-3552.988522,0.000000
1457.598402,6735.874072,-4145.153275,0.000000
1457.598731,5921.647536,-6217.729913,459.657299
1457.599060,7105.977043,-7550.100608,306.438199
1457.599390,7698.141797,-7476.080014,1072.533697
1457.599719,8512.368333,-7698.141797,2068.457845
1457.600048,8956.491898,-9992.780217,3370.820191
1457.600377,7772.162391,-9104.533087,2911.162892
1457.600706,5181.441594,-8660.409521,1378.971896
1457.601035,4367.215058,-6883.915261,612.876398
1457.601364,5773.606348,-5847.626942,842.705048
1457.601693,7624.121203,-3997.112087,1532.190996
1457.602022,7994.224174,-3701.029710,842.705048
1457.602352,7179.997637,-4219.173869,459.657299
1457.602681,6291.750507,-3627.009116,0.000000
1457.603010,4885.359217,-6883.915261,-229.828649
1457.603339,5921.647536,-7772.162391,1378.971896
1457.603668,6587.832884,-8808.450710,1072.533697
1457.603997,7402.059420,-8364.327145,1762.019645
1457.604326,7328.038826,-7920.203579,2451.505594
1457.604655,7476.080014,-8956.491898,2451.505594
1457.604984,7254.018232,-7624.121203,1762.019645
1457.605314,6809.894666,-7994.224174,2451.505594
1457.605643,6439.791695,-7105.977043,2145.067394
1457.605972,6513.812290,-3923.091493,1455.581446
1457.606301,6587.832884,-2664.741391,842.705048
1457.606630,6883.915261,-3256.906145,76.609550
1457.606959,7031.956449,-3182.885551,0.000000
1457.607288,7105.977043,-4515.256246,383.047749
1457.607617,8364.327145,-6809.894666,1915.238745
1457.607946,8512.368333,-8142.265362,2145.067394
1457.608276,7476.080014,-7772.162391,919.314598
1457.608605,6587.832884,-8364.327145,383.047749
1457.608934,7105.977043,-7846.182985,1072.533697
1457.609263,7328.038826,-7994.224174,1149.143247
1457.609592,6735.874072,-8068.244768,1378.971896
1457.609921,6883.915261,-6735.874072,2145.067394
1457.610250,7920.203579,-7105.977043,1685.410096
1457.610579,8142.265362,-5551.544565,1378.971896
1457.610908,7846.182985,-5033.400406,766.095498
1457.611238,7550.100608,-5699.585753,536.266849
1457.611567,6513.812290,-3775.050304,-995.924147
1457.611896,5921.647536,-4811.338623,-1532.190996
1457.612225,6513.812290,-6439.791695,-306.438199
1457.612554,7402.059420,-7698.141797,0.000000
1457.612883,7328.038826,-8586.388927,842.705048
1457.613212,7772.162391,-8956.491898,2451.505594
1457.613541,8216.285956,-7550.100608,1991.848295
1457.613870,7105.977043,-7105.977043,842.705048
1457.614200,6143.709319,-7772.162391,1455.581446
1457.614529,7105.977043,-6735.874072,1838.629195
1457.614858,8142.265362,-4885.359217,919.314598
1457.615187,7254.018232,-4293.194464,1149.143247
1457.615516,6809.894666,-4367.215058,459.657299
1457.615845,5699.585753,-4441.235652,-1302.362347
1457.616174,4589.276840,-5625.565159,-1302.362347
1457.616503,5699.585753,-6957.935855,766.095498
1457.616832,7624.121203,-7550.100608,842.705048
1457.617162,7698.141797,-7698.141797,1991.848295
1457.617491,7179.997637,-7698.141797,2374.896044
1457.617820,7105.977043,-9104.533087,1762.019645
1457.618149,6143.709319,-6587.832884,229.828649
1457.618478,4367.215058,-6439.791695,0.000000
1457.618807,6513.812290,-7254.018232,1149.143247
1457.619136,8216.285956,-4145.153275,1532.190996
1457.619465,8438.347739,-4219.173869,1532.190996
1457.619794,8216.285956,-5477.523971,1608.800546
1457.620124,7920.203579,-5995.668130,76.609550
1457.620453,6217.729913,-6513.812290,-919.314598
1457.620782,5847.626942,-6883.915261,0.000000
1457.621111,7254.018232,-7920.203579,1149.143247
1457.621440,8586.388927,-6439.791695,459.657299
1457.621769,7624.121203,-7402.059420,1225.752797
1457.622098,7994.224174,-7920.203579,2298.286494
1457.622427,8586.388927,-7254.018232,2068.457845
1457.622756,5921.647536,-7698.141797,1455.581446
1457.623086,5255.462188,-7328.038826,1762.019645
1457.623415,6365.771101,-6587.832884,1149.143247
1457.623744,7105.977043,-6587.832884,1685.410096
1457.624073,6883.915261,-4959.379811,1455.581446
1457.624402,7328.038826,-5477.523971,842.705048
1457.624731,7105.977043,-5255.462188,383.047749
1457.625060,6365.771101,-6587.832884,459.657299
1457.625389,6291.750507,-8290.306550,1225.752797
1457.625718,7179.997637,-7105.977043,689.485948
1457.626048,6957.935855,-7624.121203,459.657299
1457.626377,7550.100608,-6883.915261,2221.676944
1457.626706,7254.018232,-6883.915261,1608.800546
1457.627035,7476.080014,-6883.915261,1149.143247
1457.627364,6069.688724,-6217.729913,842.705048
1457.627693,6365.771101,-6883.915261,1302.362347
1457.628022,7328.038826,-7550.100608,1915.238745
1457.628351,7772.162391,-5995.668130,2221.676944
1457.628680,7772.162391,-6291.750507,1685.410096
1457.629010,6735.874072,-4885.359217,383.047749
1457.629339,5551.544565,-5477.523971,-459.657299
1457.629668,5847.626942,-7550.100608,689.485948
1457.629997,7254.018232,-7254.018232,2681.334243
1457.630326,8512.368333,-6291.750507,1762.019645
1457.630655,7846.182985,-4959.379811,1302.362347
1457.630984,7179.997637,-6291.750507,2451.505594
1457.631313,7179.997637,-6069.688724,1532.190996
1457.631642,6069.688724,-5773.606348,766.095498
1457.631972,5477.523971,-6365.771101,1532.190996
1457.632301,6735.874072,-6365.771101,306.438199
1457.632630,7031.956449,-6883.915261,766.095498
1457.632959,6809.894666,-7402.059420,2374.896044
1457.633288,7698.141797,-8068.244768,1072.533697
1457.633617,7105.977043,-6587.832884,0.000000
1457.633946,5699.585753,-6661.853478,306.438199
1457.634275,6735.874072,-8290.306550,1838.629195
1457.634604,8660.409521,-6809.894666,1455.581446
1457.634934,7624.121203,-6217.729913,1455.581446
1457.635263,6957.935855,-5477.523971,1838.629195
1457.635592,7920.203579,-5773.606348,2528.115143
1457.635921,6957.935855,-5847.626942,1762.019645
1457.636250,4811.338623,-4441.235652,0.000000
1457.636579,6069.688724,-5847.626942,1225.752797
1457.636908,7994.224174,-6069.688724,612.876398
1457.637237,7105.977043,-7105.977043,842.705048
1457.637566,6217.729913,-7328.038826,1915.238745
1457.637896,7179.997637,-7846.182985,383.047749
1457.638225,5921.647536,-8364.327145,-1225.752797
1457.638554,4737.318029,-8586.388927,919.314598
1457.638883,6439.791695,-9030.512492,1838.629195
1457.639212,8882.471304,-6587.832884,1838.629195
1457.639541,7624.121203,-5181.441594,1991.848295
1457.639870,6809.894666,-6069.688724,2221.676944
1457.640199,7698.141797,-5773.606348,1072.533697
1457.640528,6735.874072,-5477.523971,459.657299
1457.640858,5699.585753,-5255.462188,766.095498
1457.641187,7476.080014,-5551.544565,689.485948
1457.641516,8586.388927,-6291.750507,995.924147
1457.641845,7624.121203,-5921.647536,536.266849
1457.642174,6809.894666,-7994.224174,612.876398
1457.642503,5995.668130,-7624.121203,-1762.019645
1457.642832,5255.462188,-8068.244768,-1302.362347
1457.643161,6143.709319,-10658.965565,1225.752797
1457.643490,7402.059420,-8586.388927,2451.505594
1457.643820,7772.162391,-6217.729913,1455.581446
1457.644149,7179.997637,-6513.812290,2374.896044
1457.644478,7476.080014,-4367.215058,2757.943793
1457.644807,7476.080014,-4219.173869,1149.143247
1457.645136,6735.874072,-4737.318029,1762.019645
1457.645465,5847.626942,-4441.235652,766.095498
1457.645794,7476.080014,-4811.338623,1378.971896
1457.646123,8512.368333,-5773.606348,1302.362347
1457.646452,7402.059420,-7254.018232,1225.752797
1457.646782,6513.812290,-7920.203579,-842.705048
1457.647111,5033.400406,-8956.491898,-1378.971896
1457.647440,4293.194464,-9548.656652,-383.047749
1457.647769,5403.503377,-10140.821405,612.876398
1457.648098,7031.956449,-9770.718434,1149.143247
1457.648427,6513.812290,-6439.791695,1608.800546
1457.648756,7402.059420,-6513.812290,2451.505594
1457.649085,7846.182985,-5255.462188,2221.676944
1457.649414,7105.977043,-4071.132681,1991.848295
1457.649743,7328.038826,-3404.947333,1991.848295
1457.650072,8586.388927,-3256.906145,1302.362347
1457.650401,8882.471304,-3627.009116,1838.629195
1457.650730,8882.471304,-4589.276840,1685.410096
1457.651059,7550.100608,-6513.812290,383.047749
1457.651388,6069.688724,-7105.977043,-1302.362347
1457.651717,4589.276840,-8512.368333,-1378.971896
1457.652046,5625.565159,-11843.295072,1149.143247
1457.652375,7846.182985,-11325.150913,2068.457845
1457.652704,7031.956449,-7476.080014,1302.362347
1457.653033,6143.709319,-6957.935855,995.924147
1457.653362,7254.018232,-6365.771101,2451.505594
1457.653691,7624.121203,-4589.276840,1915.238745
1457.654020,6069.688724,-3701.029710,1608.800546
1457.654349,7328.038826,-2960.823768,1838.629195
1457.654678,9030.512492,-3256.906145,1455.581446
1457.655007,8882.471304,-4515.256246,2298.286494
1457.655336,8512.368333,-6291.750507,2374.896044
1457.655665,8068.244768,-7550.100608,306.438199
1457.655994,5033.400406,-8586.388927,-1685.410096
1457.656323,3775.050304,-8956.491898,-1072.533697
1457.656652,5329.482782,-11103.089130,0.000000
1457.656981,6513.812290,-9474.636058,306.438199
1457.657310,6809.894666,-6957.935855,1378.971896
1457.657639,6957.935855,-8216.285956,1991.848295
1457.657968,8068.244768,-6291.750507,2451.505594
1457.658297,6809.894666,-4737.318029,2681.334243
1457.658626,5477.523971,-4145.153275,2298.286494
1457.658955,7624.121203,-2368.659014,1149.143247
1457.659284,9400.615463,-2368.659014,842.705048
1457.659613,9252.574275,-4663.297435,2145.067394
1457.659942,7179.997637,-5403.503377,1685.410096
1457.660271,6735.874072,-6217.729913,-1225.752797
1457.660600,3627.009116,-8512.368333,-1762.019645
1457.660928,3849.070898,-11177.109724,0.000000
1457.661257,5847.626942,-12213.398043,1455.581446
1457.661586,6883.915261,-9844.739029,1149.143247
1457.661915,6143.709319,-8142.265362,1149.143247
1457.662244,7031.956449,-6217.729913,1991.848295
1457.662573,7328.038826,-4885.359217,995.924147
1457.662902,6291.750507,-4515.256246,919.314598
1457.663231,6439.791695,-3108.864956,1455.581446
1457.663560,9030.512492,-2368.659014,995.924147
1457.663889,10362.883188,-2294.638420,1225.752797
1457.664218,10288.862594,-4885.359217,2374.896044
1457.664547,9030.512492,-6217.729913,0.000000
1457.664876,6661.853478,-7698.141797,-1225.752797
1457.665205,5107.421000,-9474.636058,-842.705048
1457.665534,6143.709319,-10658.965565,-306.438199
1457.665863,6217.729913,-11325.150913,229.828649
1457.666192,6439.791695,-9178.553681,459.657299
1457.666521,6291.750507,-9030.512492,1532.190996
1457.666850,5403.503377,-6735.874072,459.657299
1457.667179,5255.462188,-4441.235652,1455.581446
1457.667508,6217.729913,-4959.379811,1838.629195
1457.667837,9104.533087,-2664.741391,2145.067394
1457.668166,9326.594869,-1480.411884,1915.238745
1457.668495,9548.656652,-3034.844362,2298.286494
1457.668824,9474.636058,-4367.215058,1685.410096
1457.669153,7698.141797,-5329.482782,0.000000
1457.669482,5329.482782,-7698.141797,-1072.533697
1457.669811,5921.647536,-10584.944971,842.705048
1457.670140,6217.729913,-12139.377449,306.438199
1457.670469,4811.338623,-9178.553681,-689.485948
1457.670798,4959.379811,-9992.780217,536.266849
1457.671127,6365.771101,-8956.491898,1762.019645
1457.671456,6587.832884,-5921.647536,1608.800546
1457.671785,5255.462188,-6291.750507,1302.362347
1457.672114,6809.894666,-3552.988522,2374.896044
1457.672443,9030.512492,-1924.535449,2451.505594
1457.672772,9844.739029,-2072.576638,2374.896044
1457.673101,9622.677246,-1110.308913,2528.115143
1457.673430,9400.615463,-3182.885551,766.095498
1457.673759,7920.203579,-5847.626942,0.000000
1457.674088,5403.503377,-7402.059420,0.000000
1457.674417,5625.565159,-10436.903782,153.219100
1457.674746,5995.668130,-11029.068536,153.219100
1457.675075,5107.421000,-11177.109724,1149.143247
1457.675404,5329.482782,-10732.986159,2298.286494
1457.675733,6365.771101,-9696.697840,2298.286494
1457.676062,5847.626942,-6735.874072,1532.190996
1457.676391,5551.544565,-6069.688724,1455.581446
1457.676720,6735.874072,-3108.864956,1455.581446
1457.677049,8364.327145,-740.205942,919.314598
1457.677378,8808.450710,-2812.782580,1302.362347
1457.677707,9326.594869,-3182.885551,2145.067394
1457.678036,8734.430116,-4663.297435,536.266849
1457.678365,7624.121203,-7105.977043,0.000000
1457.678694,6513.812290,-10140.821405,1149.143247
1457.679023,6143.709319,-11251.130318,536.266849
1457.679352,5995.668130,-10214.842000,0.000000
1457.679681,5773.606348,-10362.883188,842.705048
1457.680010,5921.647536,-8586.388927,1302.362347
1457.680339,5403.503377,-7402.059420,536.266849
1457.680668,4959.379811,-6587.832884,919.314598
1457.680997,6957.935855,-4663.297435,2068.457845
1457.681326,8882.471304,-3182.885551,1685.410096
1457.681655,8956.491898,-1258.350101,2298.286494
1457.681984,9326.594869,-2812.782580,2528.115143
1457.682313,8882.471304,-3627.009116,842.705048
1457.682642,7105.977043,-3849.070898,-919.314598
1457.682971,5255.462188,-7328.038826,0.000000
1457.683300,5921.647536,-9696.697840,536.266849
1457.683629,6661.853478,-10436.903782,-153.219100
1457.683958,5551.544565,-11695.253884,1225.752797
1457.684287,5625.565159,-10288.862594,2451.505594
1457.684616,5551.544565,-8956.491898,766.095498
1457.684945,4885.359217,-7476.080014,919.314598
1457.685274,4959.379811,-5033.400406,1378.971896
1457.685603,7550.100608,-3701.029710,1685.410096
1457.685932,9252.574275,-1406.391290,1915.238745
1457.686261,8808.450710,-1554.432478,2145.067394
1457.686590,9326.594869,-3478.967927,1072.533697
1457.686919,8956.491898,-3552.988522,536.266849
1457.687248,7328.038826,-6513.812290,1072.533697
1457.687577,7328.038826,-9622.677246,995.924147
1457.687906,6365.771101,-8808.450710,-689.485948
1457.688235,5403.503377,-10140.821405,-612.876398
1457.688564,6291.750507,-11029.068536,1762.019645
1457.688893,7624.121203,-8956.491898,1915.238745
1457.689222,5625.565159,-8290.306550,842.705048
1457.689551,4293.194464,-7624.121203,1991.848295
1457.689880,5995.668130,-6291.750507,2528.115143
1457.690209,7846.182985,-2960.823768,1302.362347
1457.690537,6735.874072,-1776.494261,1915.238745
1457.690866,8734.430116,-3034.844362,2374.896044
1457.691195,9770.718434,-3182.885551,1532.190996
1457.691524,6661.853478,-4071.132681,-536.266849
1457.691853,5255.462188,-7105.977043,842.705048
1457.692182,7179.997637,-9918.759623,842.705048
1457.692511,6957.935855,-9474.636058,-229.828649
1457.692840,5699.585753,-10807.006753,1378.971896
1457.693169,6957.935855,-11325.150913,1991.848295
1457.693498,7254.018232,-7994.224174,1378.971896
1457.693827,4959.379811,-8512.368333,919.314598
1457.694156,4515.256246,-7031.956449,1302.362347
1457.694485,7328.038826,-4293.194464,1302.362347
1457.694814,7994.224174,-3404.947333,1991.848295
1457.695143,7624.121203,-1850.514855,1838.629195
1457.695472,8512.368333,-2590.720797,2068.457845
1457.695801,9030.512492,-2072.576638,-229.828649
1457.696130,6661.853478,-4959.379811,536.266849
1457.696459,7624.121203,-7179.997637,2374.896044
1457.696788,8882.471304,-8364.327145,1072.533697
1457.697117,7105.977043,-9474.636058,842.705048
1457.697446,5403.503377,-9474.636058,1225.752797
1457.697775,6069.688724,-9622.677246,306.438199
1457.698104,6365.771101,-8142.265362,612.876398
1457.698433,4885.359217,-7254.018232,766.095498
1457.698762,6069.688724,-6957.935855,1072.533697
1457.699091,8808.450710,-3997.112087,1302.362347
1457.699420,9030.512492,-4737.318029,2451.505594
1457.699749,7994.224174,-4219.173869,2451.505594
1457.700078,7550.100608,-2886.803174,229.828649
1457.700407,5847.626942,-3182.885551,-1991.848295
1457.700736,5625.565159,-5551.544565,-229.828649
1457.701065,7624.121203,-9178.553681,995.924147
1457.701394,8956.491898,-9030.512492,1302.362347
1457.701723,7476.080014,-9474.636058,1685.410096
1457.702052,6587.832884,-8956.491898,1608.800546
1457.702381,6809.894666,-9030.512492,1532.190996
1457.702710,5847.626942,-8290.306550,1149.143247
1457.703039,5329.482782,-6291.750507,1378.971896
1457.703368,6809.894666,-5625.565159,1149.143247
1457.703697,7624.121203,-2738.761985,306.438199
1457.704026,7105.977043,-4515.256246,1532.190996
1457.704355,7105.977043,-5625.565159,1608.800546
1457.704684,7031.956449,-5329.482782,0.000000
1457.705013,6217.729913,-6661.853478,689.485948
1457.705342,5847.626942,-7179.997637,1302.362347
1457.705671,6587.832884,-6513.812290,459.657299
1457.706000,7328.038826,-9104.533087,689.485948
1457.706329,7179.997637,-8734.430116,1915.238745
1457.706658,7105.977043,-8660.409521,1225.752797
1457.706987,6069.688724,-7920.203579,612.876398
1457.707316,5107.421000,-7846.182985,1685.410096
1457.707645,6439.791695,-7402.059420,1685.410096
1457.707974,8216.285956,-3849.070898,1455.581446
1457.708303,7698.141797,-3552.988522,1532.190996
1457.708632,8290.306550,-4959.379811,2068.457845
1457.708961,7920.203579,-3923.091493,612.876398
1457.709290,5921.647536,-4145.153275,-1532.190996
1457.709619,5329.482782,-6883.915261,153.219100
1457.709948,7105.977043,-7920.203579,1225.752797
1457.710277,7846.182985,-8956.491898,842.705048
1457.710606,7179.997637,-7772.162391,2145.067394
1457.710935,7254.018232,-8956.491898,2911.162892
1457.711264,7402.059420,-7846.182985,1685.410096
1457.711593,5107.421000,-7698.141797,919.314598
1457.711922,4589.276840,-7994.224174,2298.286494
1457.712251,7105.977043,-4811.338623,1225.752797
1457.712580,7994.224174,-3330.926739,1149.143247
1457.712909,7550.100608,-4589.276840,1991.848295
1457.713238,7624.121203,-3627.009116,1225.752797
1457.713567,7179.997637,-5255.462188,-536.266849
1457.713896,5255.462188,-6957.935855,0.000000
1457.714225,6143.709319,-8660.409521,306.438199
1457.714554,7772.162391,-8660.409521,766.095498
1457.714883,7624.121203,-7698.141797,536.266849
1457.715212,7402.059420,-8216.285956,1762.019645
1457.715541,7624.121203,-7846.182985,1149.143247
1457.715870,6735.874072,-7476.080014,536.266849
1457.716199,6069.688724,-7105.977043,459.657299
1457.716528,7031.956449,-5847.626942,1762.019645
1457.716857,8216.285956,-5107.421000,1455.581446
1457.717186,8068.244768,-4367.215058,1991.848295
1457.717515,7328.038826,-4737.318029,2068.457845
1457.717844,7698.141797,-4441.235652,0.000000
1457.718173,6291.750507,-4515.256246,-612.876398
1457.718502,5403.503377,-7031.956449,-229.828649
1457.718831,7105.977043,-8956.491898,919.314598
1457.719160,8216.285956,-8512.368333,1532.190996
1457.719489,6957.935855,-7772.162391,1302.362347
1457.719817,6809.894666,-7402.059420,1149.143247
1457.720146,7105.977043,-7550.100608,1608.800546
1457.720475,6291.750507,-8216.285956,1608.800546
1457.720804,6365.771101,-7402.059420,1685.410096
1457.721133,6661.853478,-5847.626942,1225.752797
1457.721462,7105.977043,-4959.379811,766.095498
1457.721791,7328.038826,-5255.462188,1915.238745
1457.722120,8142.265362,-4885.359217,1149.143247
1457.722449,7031.956449,-5033.400406,-153.219100
1457.722778,5625.565159,-5329.482782,-306.438199
1457.723107,5921.647536,-7254.018232,1455.581446
1457.723436,7920.203579,-7772.162391,1072.533697
1457.723765,7550.100608,-7105.977043,1915.238745
1457.724094,6809.894666,-7254.018232,2068.457845
1457.724423,7328.038826,-7402.059420,2145.067394
1457.724752,6809.894666,-7920.203579,1838.629195
1457.725081,6217.729913,-8512.368333,1991.848295
1457.725410,6439.791695,-6661.853478,1685.410096
1457.725739,6513.812290,-4811.338623,0.000000
1457.726068,5699.585753,-4737.318029,536.266849
1457.726397,7031.956449,-5033.400406,1302.362347
1457.726726,7920.203579,-4811.338623,919.314598
1457.727055,6439.791695,-6217.729913,459.657299
1457.727384,5847.626942,-7624.121203,1838.629195
1457.727713,7328.038826,-8068.244768,2374.896044
1457.728042,7846.182985,-7624.121203,1455.581446
1457.728371,7328.038826,-6143.709319,1302.362347
1457.728700,7031.956449,-7772.162391,1072.533697
1457.729029,7328.038826,-6957.935855,306.438199
1457.729358,5107.421000,-6439.791695,229.828649
1457.729687,5625.565159,-7920.203579,612.876398
1457.730016,8142.265362,-6587.832884,919.314598
1457.730345,8438.347739,-6661.853478,1685.410096
1457.730674,8364.327145,-6809.894666,1915.238745
1457.731003,9104.533087,-6143.709319,1225.752797
1457.731332,8586.388927,-5921.647536,-383.047749
1457.731661,6809.894666,-6291.750507,0.000000
1457.731990,6365.771101,-7920.203579,766.095498
1457.732319,7031.956449,-7031.956449,612.876398
1457.732648,6439.791695,-5995.668130,306.438199
1457.732977,6513.812290,-6143.709319,1532.190996
1457.733306,8216.285956,-6291.750507,2298.286494
1457.733635,7328.038826,-6587.832884,1302.362347
1457.733964,5699.585753,-7179.997637,1455.581446
1457.734293,6439.791695,-6883.915261,1608.800546
1457.734622,7772.162391,-4811.338623,612.876398
1457.734951,7031.956449,-5551.544565,919.314598
1457.735280,6513.812290,-5995.668130,536.266849
1457.735609,6735.874072,-6365.771101,-306.438199
1457.735938,5033.400406,-7105.977043,-459.657299
1457.736267,4367.215058,-8068.244768,153.219100
1457.736596,6735.874072,-8290.306550,2221.676944
1457.736925,8142.265362,-7846.182985,1762.019645
1457.737254,7328.038826,-6661.853478,2221.676944
1457.737583,6957.935855,-6069.688724,2681.334243
1457.737912,7698.141797,-5625.565159,1838.629195
1457.738241,6143.709319,-4959.379811,1302.362347
1457.738570,5255.462188,-5181.441594,1685.410096
1457.738899,7179.997637,-4441.235652,1302.362347
1457.739228,7254.018232,-5107.421000,995.924147
1457.739557,7328.038826,-6291.750507,2068.457845
1457.739886,8068.244768,-7179.997637,1685.410096
1457.740215,8290.306550,-7105.977043,0.000000
1457.740544,6217.729913,-8216.285956,1149.143247
1457.740873,5921.647536,-9400.615463,1225.752797
1457.741202,7031.956449,-8068.244768,536.266849
1457.741531,6439.791695,-6883.915261,919.314598
1457.741860,6439.791695,-6513.812290,1532.190996
1457.742189,7550.100608,-6735.874072,2757.943793
1457.742518,7698.141797,-6439.791695,2987.772442
1457.742847,6365.771101,-6883.915261,1915.238745
1457.743176,6069.688724,-5107.421000,919.314598
1457.743505,7031.956449,-4367.215058,0.000000
1457.743834,7920.203579,-4515.256246,383.047749
1457.744163,8290.306550,-5773.606348,995.924147
1457.744492,7772.162391,-6809.894666,-536.266849
1457.744821,6735.874072,-7031.956449,76.609550
1457.745150,6513.812290,-9622.677246,536.266849
1457.745479,7328.038826,-9918.759623,1072.533697
1457.745808,7105.977043,-8216.285956,1455.581446
1457.746137,6809.894666,-7402.059420,1455.581446
1457.746466,7328.038826,-5551.544565,2451.505594
1457.746795,6809.894666,-4367.215058,536.266849
1457.747124,5625.565159,-4885.359217,1072.533697
1457.747453,6217.729913,-4293.194464,1762.019645
1457.747782,7105.977043,-3849.070898,766.095498
1457.748111,7328.038826,-4441.235652,1072.533697
1457.748440,7402.059420,-5699.585753,2298.286494
1457.748769,8438.347739,-7031.956449,1455.581446
1457.749097,7402.059420,-7476.080014,-459.657299
1457.749426,5255.462188,-7920.203579,0.000000
1457.749755,6143.709319,-9474.636058,76.609550
1457.750084,6513.812290,-9252.574275,229.828649
1457.750413,5773.606348,-7105.977043,0.000000
1457.750742,6365.771101,-7031.956449,1378.971896
1457.751072,7920.203579,-6291.750507,2298.286494
1457.751401,7328.038826,-5921.647536,2068.457845
1457.751730,6291.750507,-5255.462188,2068.457845
1457.752059,7624.121203,-4663.297435,1608.800546
1457.752388,9104.533087,-4885.359217,1608.800546
1457.752717,8068.244768,-3478.967927,919.314598
1457.753046,7254.018232,-6217.729913,612.876398
1457.753375,7476.080014,-5921.647536,-995.924147
1457.753704,5551.544565,-7179.997637,-1762.019645
1457.754033,5995.668130,-9474.636058,536.266849
1457.754362,7550.100608,-9548.656652,1608.800546
1457.754691,8068.244768,-10140.821405,1685.410096
1457.755020,6957.935855,-6735.874072,1838.629195
1457.755349,7254.018232,-6143.709319,2068.457845
1457.755678,8438.347739,-5921.647536,2681.334243
1457.756007,6291.750507,-4663.297435,1838.629195
1457.756336,5403.503377,-4663.297435,1685.410096
1457.756665,7031.956449,-3478.967927,995.924147
1457.756994,7402.059420,-3627.009116,842.705048
1457.757323,6883.915261,-5995.668130,1838.629195
1457.757652,7698.141797,-7772.162391,1685.410096
1457.757981,7105.977043,-7624.121203,153.219100
1457.758310,5033.400406,-8438.347739,-612.876398
1457.758639,5107.421000,-10140.821405,995.924147
1457.758968,6513.812290,-8808.450710,1072.533697
1457.759297,7179.997637,-8068.244768,919.314598
1457.759626,6735.874072,-5773.606348,1302.362347
1457.759955,6957.935855,-5551.544565,1455.581446
1457.760284,7179.997637,-5033.400406,1378.971896
1457.760613,6661.853478,-4589.276840,1685.410096
1457.760942,7846.182985,-4663.297435,1762.019645
1457.761271,9178.553681,-3552.988522,1762.019645
1457.761600,8586.388927,-4737.318029,2451.505594
1457.761929,7846.182985,-6365.771101,919.314598
1457.762258,7031.956449,-7031.956449,76.609550
1457.762587,5477.523971,-7328.038826,-2145.067394
1457.762916,5033.400406,-9178.553681,0.000000
1457.763245,5995.668130,-9770.718434,766.095498
1457.763574,7031.956449,-9548.656652,995.924147
1457.763903,5921.647536,-6513.812290,1149.143247
1457.764232,6143.709319,-5329.482782,1225.752797
1457.764561,6809.894666,-5107.421000,1915.238745
1457.764890,6735.874072,-5107.421000,1302.362347
1457.765219,7179.997637,-4737.318029,2068.457845
1457.765548,8216.285956,-4219.173869,1072.533697
1457.765877,9030.512492,-4441.235652,689.485948
1457.766206,9104.533087,-5921.647536,459.657299
1457.766535,7994.224174,-7105.977043,153.219100
1457.766864,6513.812290,-7254.018232,-1532.190996
1457.767193,5477.523971,-8512.368333,-1072.533697
1457.767522,6069.688724,-10807.006753,689.485948
1457.767851,6439.791695,-10140.821405,612.876398
1457.768180,7031.956449,-9030.512492,842.705048
1457.768509,6883.915261,-6735.874072,1149.143247
1457.768838,7254.018232,-5107.421000,1225.752797
1457.769167,6957.935855,-4737.318029,1915.238745
1457.769496,7105.977043,-2738.761985,1302.362347
1457.769825,7550.100608,-2664.741391,1455.581446
1457.770154,8364.327145,-2738.761985,1072.533697
1457.770483,8660.409521,-3701.029710,1532.190996
1457.770812,8660.409521,-6735.874072,1762.019645
1457.771141,8290.306550,-7328.038826,536.266849
1457.771470,6217.729913,-8956.491898,-995.924147
1457.771799,6069.688724,-10214.842000,229.828649
1457.772128,6513.812290,-11251.130318,153.219100
1457.772457,5329.482782,-9474.636058,-612.876398
1457.772786,4293.194464,-7994.224174,-153.219100
1457.773115,5329.482782,-6883.915261,689.485948
1457.773444,6661.853478,-5477.523971,1991.848295
1457.773773,7105.977043,-5699.585753,3370.820191
1457.774102,8142.265362,-4441.235652,3294.210641
1457.774431,9252.574275,-1702.473667,2298.286494
1457.774760,8956.491898,-1924.535449,536.266849
1457.775089,8586.388927,-2664.741391,1225.752797
1457.775418,8882.471304,-4959.379811,1072.533697
1457.775747,8290.306550,-7402.059420,-229.828649
1457.776076,5921.647536,-8586.388927,0.000000
1457.776405,5107.421000,-10584.944971,306.438199
1457.776734,6217.729913,-13323.706956,1149.143247
1457.777063,4885.359217,-10955.047942,1149.143247
1457.777392,4515.256246,-9326.594869,1762.019645
1457.777721,5551.544565,-7031.956449,842.705048
1457.778050,5329.482782,-5625.565159,1532.190996
1457.778379,6069.688724,-5403.503377,1532.190996
1457.778708,7105.977043,-2516.700203,1762.019645
1457.779037,7994.224174,-1184.329507,2068.457845
1457.779366,8660.409521,-1036.288319,1762.019645
1457.779695,9178.553681,-4293.194464,2987.772442
1457.780024,8290.306550,-5625.565159,995.924147
1457.780353,7031.956449,-8438.347739,76.609550
1457.780682,6513.812290,-10732.986159,766.095498
1457.781011,6809.894666,-11399.171507,1149.143247
1457.781340,6069.688724,-11399.171507,-536.266849
1457.781669,4737.318029,-9252.574275,612.876398
1457.781998,5403.503377,-8216.285956,76.609550
1457.782327,5921.647536,-8068.244768,1072.533697
1457.782656,5847.626942,-5403.503377,2374.896044
1457.782985,6735.874072,-4515.256246,2604.724693
1457.783314,9326.594869,-3182.885551,3064.381992
1457.783643,9548.656652,-1184.329507,3140.991542
1457.783972,9178.553681,-2294.638420,2757.943793
1457.784301,8364.327145,-2442.679609,766.095498
1457.784630,6143.709319,-3849.070898,-842.705048
1457.784959,4737.318029,-6439.791695,-995.924147
1457.785288,6439.791695,-9992.780217,766.095498
1457.785617,7402.059420,-12657.521608,2068.457845
1457.785946,7105.977043,-11769.274478,2298.286494
1457.786275,6809.894666,-10881.027347,2757.943793
1457.786604,6661.853478,-8438.347739,1455.581446
1457.786933,5403.503377,-6439.791695,229.828649
1457.787262,4959.379811,-5699.585753,1149.143247
1457.787591,7179.997637,-3775.050304,1302.362347
1457.787920,8290.306550,-2294.638420,766.095498
1457.788249,9104.533087,-962.267725,1762.019645
1457.788578,9622.677246,-3404.947333,1455.581446
1457.788907,9400.615463,-4293.194464,1225.752797
1457.789236,6809.894666,-5477.523971,0.000000
1457.789565,5551.544565,-8586.388927,0.000000
1457.789894,6735.874072,-10066.800811,306.438199
1457.790223,6439.791695,-8734.430116,-153.219100
1457.790552,6291.750507,-10436.903782,689.485948
1457.790881,7328.038826,-10214.842000,2298.286494
1457.791210,6957.935855,-8808.450710,1072.533697
1457.791540,5033.400406,-6809.894666,1302.362347
1457.791869,5699.585753,-4737.318029,1685.410096
1457.792198,7698.141797,-2590.720797,1149.143247
1457.792527,8068.244768,-2738.761985,1685.410096
1457.792856,8290.306550,-3849.070898,2834.553343
1457.793185,9252.574275,-3849.070898,1225.752797
