#time,accel_x,accel_y,accel_z
1224.095641,7105.977043,-6439.791695,919.314598
1224.095971,6661.853478,-6809.894666,842.705048
1224.096301,7105.977043,-6365.771101,766.095498
1224.096632,7105.977043,-7031.956449,1225.752797
1224.096962,6809.894666,-6661.853478,1072.533697
1224.097292,6069.688724,-6291.750507,1072.533697
1224.097622,6587.832884,-6809.894666,842.705048
1224.097952,6883.915261,-6587.832884,766.095498
1224.098283,7105.977043,-6439.791695,1225.752797
1224.098613,7254.018232,-6587.832884,995.924147
1224.098943,7624.121203,-6069.688724,1532.190996
1224.099273,7105.977043,-6439.791695,919.314598
1224.099603,6661.853478,-6587.832884,995.924147
1224.099933,6735.874072,-6735.874072,1149.143247
1224.100264,7402.059420,-6143.709319,1225.752797
1224.100594,7105.977043,-6439.791695,1378.971896
1224.100924,7031.956449,-6365.771101,1225.752797
1224.101254,7254.018232,-6069.688724,1072.533697
1224.101584,7105.977043,-6291.750507,995.924147
1224.101914,6661.853478,-6809.894666,1532.190996
1224.102245,6069.688724,-6735.874072,1225.752797
1224.102575,6735.874072,-7031.956449,995.924147
1224.102905,6513.812290,-6883.915261,1225.752797
1224.103235,6809.894666,-6217.729913,766.095498
1224.103565,7105.977043,-6291.750507,1072.533697
1224.103895,6735.874072,-6883.915261,1149.143247
1224.104226,6661.853478,-6957.935855,612.876398
1224.104556,6513.812290,-7105.977043,842.705048
1224.104886,6661.853478,-7105.977043,1072.533697
1224.105216,7105.977043,-7105.977043,1149.143247
1224.105546,7105.977043,-6439.791695,1149.143247
1224.105877,7328.038826,-6587.832884,1149.143247
1224.106207,7476.080014,-6217.729913,1455.581446
1224.106537,7179.997637,-6217.729913,1072.533697
1224.106867,6957.935855,-6661.853478,919.314598
1224.107197,6883.915261,-6291.750507,1149.143247
1224.107527,7179.997637,-5625.565159,689.485948
1224.107858,7105.977043,-5921.647536,1149.143247
1224.108188,7328.038826,-5847.626942,1685.410096
1224.108518,7402.059420,-6291.750507,1225.752797
1224.108848,7179.997637,-6365.771101,1149.143247
1224.109178,6587.832884,-6291.750507,689.485948
1224.109508,6735.874072,-7031.956449,1302.362347
1224.109839,6957.935855,-7031.956449,1149.143247
1224.110169,6957.935855,-6291.750507,919.314598
1224.110499,6809.894666,-6661.853478,1149.143247
1224.110829,7254.018232,-6661.853478,995.924147
1224.111159,7105.977043,-6513.812290,612.876398
1224.111489,6587.832884,-6957.935855,766.095498
1224.111820,6661.853478,-7105.977043,919.314598
1224.112150,6439.791695,-6661.853478,612.876398
1224.112480,7105.977043,-6513.812290,1378.971896
1224.112810,7179.997637,-6809.894666,1608.800546
1224.113140,7550.100608,-6291.750507,1149.143247
1224.113471,7179.997637,-6587.832884,995.924147
1224.113801,7031.956449,-6809.894666,919.314598
1224.114131,7105.977043,-7031.956449,995.924147
1224.114461,7105.977043,-6513.812290,919.314598
1224.114791,7031.956449,-6513.812290,842.705048
1224.115121,6735.874072,-6291.750507,995.924147
1224.115452,6883.915261,-6217.729913,1149.143247
1224.115782,7328.038826,-6291.750507,1455.581446
1224.116112,6365.771101,-6143.709319,383.047749
1224.116442,6439.791695,-6587.832884,919.314598
1224.116772,5921.647536,-6957.935855,995.924147
1224.117102,7105.977043,-6957.935855,536.266849
1224.117433,6883.915261,-6735.874072,995.924147
1224.117763,6587.832884,-6439.791695,995.924147
1224.118093,6957.935855,-7402.059420,1302.362347
1224.118423,6809.894666,-6883.915261,1225.752797
1224.118753,6365.771101,-6809.894666,612.876398
1224.119083,6587.832884,-6735.874072,1225.752797
1224.119414,6957.935855,-6957.935855,842.705048
1224.119744,7179.997637,-6809.894666,1225.752797
1224.120074,7179.997637,-5773.606348,2068.457845
1224.120404,7402.059420,-6143.709319,1225.752797
1224.120734,7328.038826,-6143.709319,1072.533697
1224.121065,7031.956449,-6513.812290,919.314598
1224.121395,6957.935855,-6735.874072,995.924147
1224.121725,7105.977043,-6217.729913,766.095498
1224.122055,6957.935855,-6069.688724,1149.143247
1224.122385,6883.915261,-6661.853478,1532.190996
1224.122715,7402.059420,-6217.729913,1149.143247
1224.123046,7328.038826,-6069.688724,2145.067394
1224.123376,6735.874072,-5921.647536,919.314598
1224.123706,6735.874072,-6439.791695,842.705048
1224.124036,6883.915261,-7031.956449,919.314598
1224.124366,7031.956449,-6661.853478,919.314598
1224.124696,6809.894666,-6513.812290,1072.533697
1224.125027,7105.977043,-6439.791695,1072.533697
1224.125357,7031.956449,-6883.915261,1072.533697
1224.125687,6735.874072,-7179.997637,612.876398
1224.126017,6587.832884,-7179.997637,919.314598
1224.126347,6735.874072,-7105.977043,995.924147
1224.126677,7031.956449,-6957.935855,766.095498
1224.127008,7254.018232,-6143.709319,1378.971896
1224.127338,7254.018232,-6439.791695,842.705048
1224.127668,7402.059420,-5847.626942,1455.581446
1224.127998,7254.018232,-6365.771101,1378.971896
1224.128328,6809.894666,-6883.915261,995.924147
1224.128659,7031.956449,-6217.729913,1149.143247
1224.128989,7105.977043,-6143.709319,842.705048
1224.129319,6587.832884,-5773.606348,995.924147
1224.129649,6809.894666,-6513.812290,1149.143247
1224.129979,7105.977043,-6439.791695,1302.362347
1224.130309,7105.977043,-6957.935855,1302.362347
1224.130640,7105.977043,-5995.668130,842.705048
1224.130970,6513.812290,-6661.853478,612.876398
1224.131300,6513.812290,-7105.977043,919.314598
1224.131630,6735.874072,-6883.915261,1225.752797
1224.131960,6661.853478,-7031.956449,1072.533697
1224.132290,6661.853478,-5921.647536,919.314598
1224.132621,6661.853478,-6957.935855,1149.143247
1224.132951,6291.750507,-7254.018232,612.876398
1224.133281,6365.771101,-7105.977043,1072.533697
1224.133611,6291.750507,-6365.771101,306.438199
1224.133941,6957.935855,-7179.997637,919.314598
1224.134271,7179.997637,-6217.729913,995.924147
1224.134602,7254.018232,-6735.874072,1302.362347
1224.134932,7476.080014,-6217.729913,1149.143247
1224.135262,7402.059420,-6143.709319,1302.362347
1224.135592,7031.956449,-6661.853478,842.705048
1224.135922,6883.915261,-6513.812290,919.314598
1224.136253,7402.059420,-5995.668130,536.266849
1224.136583,6809.894666,-6439.791695,1149.143247
1224.136913,7031.956449,-6069.688724,1455.581446
1224.137243,7476.080014,-6513.812290,1225.752797
1224.137573,7328.038826,-6513.812290,1072.533697
1224.137903,6883.915261,-6439.791695,919.314598
1224.138234,6587.832884,-6809.894666,1302.362347
1224.138564,7105.977043,-7031.956449,612.876398
1224.138894,7254.018232,-6587.832884,1378.971896
1224.139224,6809.894666,-6513.812290,919.314598
1224.139554,7105.977043,-5847.626942,1225.752797
1224.139884,6957.935855,-6291.750507,995.924147
1224.140215,6809.894666,-6735.874072,1072.533697
1224.140545,6439.791695,-6735.874072,842.705048
1224.140875,6809.894666,-7031.956449,383.047749
1224.141205,7179.997637,-6587.832884,229.828649
1224.141535,7105.977043,-6587.832884,842.705048
1224.141865,7476.080014,-6661.853478,1302.362347
1224.142196,7698.141797,-6365.771101,1149.143247
1224.142526,7328.038826,-6661.853478,689.485948
1224.142856,6809.894666,-5995.668130,1149.143247
1224.143186,7105.977043,-6365.771101,1149.143247
1224.143516,7105.977043,-5847.626942,919.314598
1224.143847,6883.915261,-6291.750507,1072.533697
1224.144177,6957.935855,-5773.606348,1532.190996
1224.144507,7105.977043,-6587.832884,1072.533697
1224.144837,7105.977043,-6587.832884,1225.752797
1224.145167,6365.771101,-6439.791695,919.314598
1224.145497,6143.709319,-7328.038826,995.924147
1224.145828,6957.935855,-6883.915261,1149.143247
1224.146158,6883.915261,-6587.832884,1762.019645
1224.146488,6735.874072,-6587.832884,995.924147
1224.146818,6957.935855,-6513.812290,1302.362347
1224.147148,6809.894666,-6587.832884,919.314598
1224.147478,6365.771101,-7105.977043,995.924147
1224.147809,5995.668130,-7105.977043,995.924147
1224.148139,6809.894666,-7105.977043,612.876398
1224.148469,7105.977043,-6661.853478,1302.362347
1224.148799,6883.915261,-6069.688724,1762.019645
1224.149129,7254.018232,-6439.791695,459.657299
1224.149459,7105.977043,-6587.832884,1302.362347
1224.149790,6957.935855,-6513.812290,919.314598
1224.150120,6809.894666,-6957.935855,1072.533697
1224.150450,7105.977043,-5699.585753,919.314598
1224.150780,7328.038826,-5773.606348,1149.143247
1224.151110,7254.018232,-6217.729913,1378.971896
1224.151441,7328.038826,-6217.729913,1455.581446
1224.151771,6883.915261,-5699.585753,995.924147
1224.152101,6661.853478,-6735.874072,919.314598
1224.152431,6365.771101,-7031.956449,766.095498
1224.152761,6365.771101,-6735.874072,842.705048
1224.153091,6735.874072,-7105.977043,1149.143247
1224.153422,6957.935855,-6143.709319,1302.362347
1224.153752,7179.997637,-6513.812290,1149.143247
1224.154082,7105.977043,-6291.750507,1072.533697
1224.154412,7031.956449,-7105.977043,919.314598
1224.154742,6809.894666,-6883.915261,612.876398
1224.155072,6735.874072,-6957.935855,1455.581446
1224.155403,6957.935855,-7031.956449,842.705048
1224.155733,7105.977043,-6365.771101,1149.143247
1224.156063,7179.997637,-6143.709319,995.924147
1224.156393,7476.080014,-6217.729913,1072.533697
1224.156723,7328.038826,-6439.791695,766.095498
1224.157053,6957.935855,-6661.853478,766.095498
1224.157384,6735.874072,-6513.812290,1072.533697
1224.157714,7105.977043,-6143.709319,919.314598
1224.158044,7550.100608,-5699.585753,919.314598
1224.158374,6735.874072,-5921.647536,1302.362347
1224.158704,7402.059420,-6217.729913,1455.581446
1224.159035,7105.977043,-6513.812290,1685.410096
1224.159365,6735.874072,-6661.853478,1302.362347
1224.159695,6439.791695,-6587.832884,536.266849
1224.160025,6217.729913,-7179.997637,1149.143247
1224.160355,6217.729913,-6809.894666,1149.143247
1224.160685,6735.874072,-7031.956449,1225.752797
1224.161014,7105.977043,-6291.750507,995.924147
1224.161344,6883.915261,-6809.894666,1455.581446
1224.161673,6513.812290,-7031.956449,766.095498
1224.162002,6513.812290,-7179.997637,995.924147
1224.162332,6513.812290,-7105.977043,919.314598
1224.162661,7105.977043,-6883.915261,766.095498
1224.162991,7402.059420,-6217.729913,1302.362347
1224.163320,7476.080014,-6439.791695,1532.190996
1224.163650,7550.100608,-6513.812290,995.924147
1224.163979,7105.977043,-6291.750507,1072.533697
1224.164309,6735.874072,-6587.832884,459.657299
1224.164638,6735.874072,-7031.956449,1302.362347
1224.164968,7105.977043,-6439.791695,1149.143247
1224.165297,7254.018232,-6217.729913,1072.533697
1224.165626,7105.977043,-5995.668130,1455.581446
1224.165956,7476.080014,-6217.729913,1149.143247
1224.166285,7550.100608,-6661.853478,1455.581446
1224.166615,6883.915261,-6069.688724,1072.533697
1224.166944,6513.812290,-6513.812290,766.095498
1224.167274,6661.853478,-6735.874072,536.266849
1224.167603,6883.915261,-6735.874072,1072.533697
1224.167933,6957.935855,-6883.915261,1302.362347
1224.168262,7105.977043,-6217.729913,1225.752797
1224.168592,7179.997637,-6587.832884,919.314598
1224.168921,6809.894666,-6883.915261,766.095498
1224.169250,6809.894666,-6957.935855,689.485948
1224.169580,6661.853478,-7105.977043,919.314598
1224.169909,7105.977043,-6735.874072,536.266849
1224.170239,7254.018232,-6217.729913,1532.190996
1224.170568,7328.038826,-6291.750507,919.314598
1224.170898,7624.121203,-6439.791695,919.314598
1224.171227,7105.977043,-6661.853478,1072.533697
1224.171557,7254.018232,-7105.977043,689.485948
1224.171886,6513.812290,-6365.771101,995.924147
1224.172216,6809.894666,-6069.688724,1072.533697
1224.172545,7179.997637,-6291.750507,1149.143247
1224.172874,7328.038826,-5995.668130,1225.752797
1224.173204,7846.182985,-6217.729913,1378.971896
1224.173533,7179.997637,-6439.791695,1072.533697
1224.173863,6587.832884,-6069.688724,842.705048
1224.174192,6513.812290,-6957.935855,919.314598
1224.174522,6513.812290,-7105.977043,1072.533697
1224.174851,7105.977043,-6365.771101,1149.143247
1224.175181,6809.894666,-7105.977043,1225.752797
1224.175510,6883.915261,-6809.894666,1149.143247
1224.175840,6735.874072,-6883.915261,1149.143247
1224.176169,6513.812290,-7105.977043,1225.752797
1224.176498,6365.771101,-7105.977043,1225.752797
1224.176828,6809.894666,-6735.874072,689.485948
1224.177157,7105.977043,-6735.874072,1072.533697
1224.177487,7105.977043,-6365.771101,1302.362347
1224.177816,7624.121203,-6439.791695,766.095498
1224.178146,7402.059420,-6513.812290,995.924147
1224.178475,7031.956449,-6439.791695,766.095498
1224.178805,6587.832884,-6883.915261,1225.752797
1224.179134,6809.894666,-6291.750507,1532.190996
1224.179464,7254.018232,-6143.709319,995.924147
1224.179793,7328.038826,-6291.750507,1225.752797
1224.180122,7179.997637,-6217.729913,1455.581446
1224.180452,7328.038826,-6291.750507,1225.752797
1224.180781,7328.038826,-6143.709319,229.828649
1224.181111,6587.832884,-6587.832884,766.095498
1224.181440,6439.791695,-6957.935855,919.314598
1224.181770,6809.894666,-6809.894666,919.314598
1224.182099,7031.956449,-6217.729913,1455.581446
1224.182429,7624.121203,-6735.874072,1532.190996
1224.182758,7328.038826,-6513.812290,1225.752797
1224.183088,6957.935855,-6735.874072,1072.533697
1224.183417,6439.791695,-6957.935855,919.314598
1224.183746,6513.812290,-6883.915261,536.266849
1224.184076,6809.894666,-7105.977043,919.314598
1224.184405,7179.997637,-6513.812290,1072.533697
1224.184735,7179.997637,-6513.812290,1378.971896
1224.185064,7698.141797,-6365.771101,1225.752797
1224.185394,7328.038826,-5995.668130,1532.190996
1224.185723,7105.977043,-6143.709319,1378.971896
1224.186053,7031.956449,-6587.832884,1072.533697
1224.186382,7328.038826,-6143.709319,842.705048
1224.186712,7328.038826,-5773.606348,842.705048
1224.187041,6883.915261,-6661.853478,1302.362347
1224.187370,7179.997637,-6143.709319,1532.190996
1224.187700,7328.038826,-6291.750507,1072.533697
1224.188029,6957.935855,-6069.688724,1072.533697
1224.188359,6587.832884,-6513.812290,689.485948
1224.188688,6661.853478,-6957.935855,842.705048
1224.189018,6513.812290,-6735.874072,1225.752797
1224.189347,6661.853478,-6661.853478,1378.971896
1224.189677,6957.935855,-6291.750507,995.924147
1224.190006,7328.038826,-6291.750507,995.924147
1224.190336,6439.791695,-7105.977043,842.705048
1224.190665,6365.771101,-7031.956449,612.876398
1224.190994,6661.853478,-7105.977043,766.095498
1224.191324,6809.894666,-6735.874072,1072.533697
1224.191653,7105.977043,-6661.853478,1225.752797
1224.191983,7402.059420,-6291.750507,995.924147
1224.192312,7920.203579,-6365.771101,689.485948
1224.192642,7031.956449,-6587.832884,689.485948
1224.192971,7105.977043,-6439.791695,919.314598
1224.193301,6957.935855,-6809.894666,1072.533697
1224.193630,6883.915261,-6439.791695,919.314598
1224.193960,7031.956449,-6291.750507,842.705048
1224.194289,7105.977043,-6217.729913,1532.190996
1224.194618,7476.080014,-6143.709319,1225.752797
1224.194948,7476.080014,-6439.791695,1455.581446
1224.195277,6957.935855,-6291.750507,1302.362347
1224.195607,6217.729913,-6735.874072,919.314598
1224.195936,6143.709319,-6439.791695,995.924147
1224.196266,7254.018232,-6661.853478,1149.143247
1224.196595,6735.874072,-6661.853478,995.924147
1224.196925,7105.977043,-6291.750507,995.924147
1224.197254,7031.956449,-6735.874072,1302.362347
1224.197584,6291.750507,-6587.832884,1072.533697
1224.197913,6439.791695,-7031.956449,842.705048
1224.198242,6513.812290,-6291.750507,766.095498
1224.198572,6661.853478,-7031.956449,766.095498
1224.198901,7105.977043,-5699.585753,1225.752797
1224.199231,7624.121203,-6069.688724,919.314598
1224.199560,7624.121203,-6069.688724,842.705048
1224.199890,7179.997637,-6291.750507,1149.143247
1224.200219,6883.915261,-6661.853478,1149.143247
1224.200549,7031.956449,-6143.709319,1225.752797
1224.200878,7105.977043,-6217.729913,612.876398
1224.201208,7031.956449,-6069.688724,1072.533697
1224.201537,7105.977043,-6217.729913,1532.190996
1224.201866,7402.059420,-6069.688724,1532.190996
1224.202196,7105.977043,-6587.832884,1149.143247
1224.202525,6809.894666,-6069.688724,995.924147
1224.202855,6069.688724,-6587.832884,766.095498
1224.203184,6809.894666,-7105.977043,689.485948
1224.203514,6809.894666,-6513.812290,766.095498
1224.203843,6957.935855,-7105.977043,1225.752797
1224.204173,6957.935855,-6587.832884,1072.533697
1224.204502,6957.935855,-6809.894666,1072.533697
1224.204832,6217.729913,-6661.853478,1072.533697
1224.205161,6735.874072,-7105.977043,1532.190996
1224.205490,6365.771101,-6883.915261,536.266849
1224.205820,6883.915261,-6513.812290,612.876398
1224.206149,7105.977043,-6439.791695,1149.143247
1224.206479,7698.141797,-5921.647536,1378.971896
1224.206808,7328.038826,-6069.688724,1225.752797
1224.207138,7105.977043,-6587.832884,1225.752797
1224.207467,6735.874072,-6883.915261,612.876398
1224.207797,6883.915261,-6587.832884,1072.533697
1224.208126,7031.956449,-6291.750507,1072.533697
1224.208456,6957.935855,-6661.853478,1225.752797
1224.208785,7254.018232,-5995.668130,1455.581446
1224.209114,7179.997637,-6439.791695,1455.581446
1224.209444,7105.977043,-5995.668130,1685.410096
1224.209773,6957.935855,-6439.791695,536.266849
1224.210103,6217.729913,-6587.832884,995.924147
1224.210432,6957.935855,-5847.626942,919.314598
1224.210762,7550.100608,-5477.523971,919.314598
1224.211091,7772.162391,-5255.462188,1762.019645
1224.211421,8438.347739,-5329.482782,1685.410096
1224.211750,8068.244768,-6217.729913,1378.971896
1224.212080,7031.956449,-6809.894666,0.000000
1224.212409,5477.523971,-7698.141797,0.000000
1224.212738,5625.565159,-7476.080014,76.609550
1224.213068,6883.915261,-7476.080014,229.828649
1224.213397,7624.121203,-7031.956449,1608.800546
1224.213727,8734.430116,-6217.729913,1838.629195
1224.214056,9400.615463,-5033.400406,1072.533697
1224.214386,8216.285956,-4071.132681,1455.581446
1224.214715,7994.224174,-5403.503377,1149.143247
1224.215045,8438.347739,-4293.194464,1072.533697
1224.215374,9400.615463,-3552.988522,1608.800546
1224.215704,9548.656652,-3775.050304,1455.581446
1224.216033,9030.512492,-3849.070898,1378.971896
1224.216362,8734.430116,-4885.359217,1455.581446
1224.216692,8734.430116,-4071.132681,919.314598
1224.217021,8142.265362,-5477.523971,1378.971896
1224.217351,8142.265362,-5699.585753,1532.190996
1224.217680,8142.265362,-5403.503377,995.924147
1224.218010,7402.059420,-6439.791695,842.705048
1224.218339,7402.059420,-5403.503377,1532.190996
1224.218669,8216.285956,-4663.297435,306.438199
1224.218998,7994.224174,-4737.318029,1378.971896
1224.219328,7846.182985,-5033.400406,842.705048
1224.219657,8290.306550,-4441.235652,1149.143247
1224.219986,8808.450710,-3552.988522,1302.362347
1224.220316,9326.594869,-3478.967927,1149.143247
1224.220645,9622.677246,-2960.823768,1455.581446
1224.220975,10066.800811,-2886.803174,1762.019645
1224.221304,10140.821405,-3552.988522,1455.581446
1224.221634,9622.677246,-3997.112087,1762.019645
1224.221963,9400.615463,-5329.482782,1455.581446
1224.222293,8290.306550,-4959.379811,842.705048
1224.222622,8438.347739,-5403.503377,536.266849
1224.222952,7920.203579,-6291.750507,766.095498
1224.223281,7254.018232,-6069.688724,842.705048
1224.223610,7624.121203,-6217.729913,1225.752797
1224.223940,7698.141797,-5403.503377,1149.143247
1224.224269,7920.203579,-5329.482782,689.485948
1224.224599,7550.100608,-4885.359217,1378.971896
1224.224928,8216.285956,-5033.400406,612.876398
1224.225258,7994.224174,-5329.482782,229.828649
1224.225587,8586.388927,-4219.173869,536.266849
1224.225917,9918.759623,-3775.050304,306.438199
1224.226246,10436.903782,-4737.318029,919.314598
1224.226576,9918.759623,-5329.482782,842.705048
1224.226905,9104.533087,-4737.318029,689.485948
1224.227234,9178.553681,-4219.173869,153.219100
1224.227564,9548.656652,-4663.297435,766.095498
1224.227893,9918.759623,-4515.256246,1455.581446
1224.228223,9696.697840,-4589.276840,1532.190996
1224.228552,9178.553681,-4071.132681,1762.019645
1224.228882,9030.512492,-4071.132681,1455.581446
1224.229211,7994.224174,-3923.091493,2298.286494
1224.229541,8438.347739,-4071.132681,1378.971896
1224.229870,8512.368333,-3849.070898,1302.362347
1224.230200,8290.306550,-3849.070898,1149.143247
1224.230529,8734.430116,-4145.153275,1225.752797
1224.230858,8808.450710,-5181.441594,1455.581446
1224.231188,8586.388927,-5329.482782,612.876398
1224.231517,8142.265362,-6069.688724,-229.828649
1224.231847,7402.059420,-6513.812290,0.000000
1224.232176,6957.935855,-6957.935855,229.828649
1224.232506,6661.853478,-6957.935855,0.000000
1224.232835,6957.935855,-7328.038826,153.219100
1224.233165,6957.935855,-7402.059420,842.705048
1224.233494,6883.915261,-7698.141797,612.876398
1224.233824,6513.812290,-7698.141797,1302.362347
1224.234153,5921.647536,-7772.162391,1532.190996
1224.234482,6883.915261,-7550.100608,1302.362347
1224.234812,7550.100608,-6291.750507,2068.457845
1224.235141,7994.224174,-5847.626942,1685.410096
1224.235471,8808.450710,-4885.359217,2221.676944
1224.235800,8512.368333,-4737.318029,1302.362347
1224.236130,7920.203579,-4367.215058,383.047749
1224.236459,7328.038826,-4589.276840,229.828649
1224.236789,8142.265362,-4515.256246,383.047749
1224.237118,7994.224174,-4589.276840,-229.828649
1224.237448,7550.100608,-5699.585753,383.047749
1224.237777,7772.162391,-6217.729913,536.266849
1224.238106,7624.121203,-7624.121203,919.314598
1224.238436,7179.997637,-7772.162391,2221.676944
1224.238765,6291.750507,-8660.409521,1762.019645
1224.239095,6439.791695,-9030.512492,2451.505594
1224.239424,6291.750507,-8734.430116,2451.505594
1224.239754,5847.626942,-8364.327145,2221.676944
1224.240083,5403.503377,-7254.018232,1302.362347
1224.240413,5033.400406,-6883.915261,536.266849
1224.240742,4885.359217,-6217.729913,-229.828649
1224.241072,5329.482782,-5551.544565,-383.047749
1224.241401,6291.750507,-5477.523971,153.219100
1224.241730,7402.059420,-4885.359217,306.438199
1224.242060,7994.224174,-4885.359217,995.924147
1224.242389,8808.450710,-3552.988522,1532.190996
1224.242719,9178.553681,-4737.318029,2221.676944
1224.243048,9474.636058,-5329.482782,2681.334243
1224.243378,8586.388927,-6513.812290,2681.334243
1224.243707,8142.265362,-6291.750507,2987.772442
1224.244037,7550.100608,-5995.668130,2145.067394
1224.244366,7105.977043,-7105.977043,1532.190996
1224.244696,6143.709319,-6661.853478,1685.410096
1224.245025,6217.729913,-6291.750507,1072.533697
1224.245354,6883.915261,-6143.709319,612.876398
1224.245684,7105.977043,-5625.565159,153.219100
1224.246013,7179.997637,-6587.832884,76.609550
1224.246343,6439.791695,-6735.874072,306.438199
1224.246672,6217.729913,-7105.977043,383.047749
1224.247002,6513.812290,-8290.306550,842.705048
1224.247331,6661.853478,-8364.327145,1915.238745
1224.247661,7179.997637,-8882.471304,2145.067394
1224.247990,6439.791695,-8512.368333,1455.581446
1224.248320,5921.647536,-7994.224174,1225.752797
1224.248649,5255.462188,-7698.141797,689.485948
1224.248978,6069.688724,-7031.956449,919.314598
1224.249308,5625.565159,-5921.647536,153.219100
1224.249637,5921.647536,-6291.750507,76.609550
1224.249967,6217.729913,-5995.668130,76.609550
1224.250296,6957.935855,-6587.832884,383.047749
1224.250626,7105.977043,-6513.812290,1378.971896
1224.250955,7920.203579,-5995.668130,1762.019645
1224.251285,7772.162391,-5625.565159,1455.581446
1224.251614,7846.182985,-5403.503377,2145.067394
1224.251944,8586.388927,-5403.503377,1762.019645
1224.252273,8586.388927,-5403.503377,2374.896044
1224.252602,8586.388927,-4663.297435,1762.019645
1224.252932,7994.224174,-4663.297435,919.314598
1224.253261,7328.038826,-4367.215058,919.314598
1224.253591,7254.018232,-5847.626942,612.876398
1224.253920,7031.956449,-5847.626942,612.876398
1224.254250,6957.935855,-6735.874072,766.095498
1224.254579,7254.018232,-6439.791695,995.924147
1224.254909,7179.997637,-7772.162391,1608.800546
1224.255238,6661.853478,-8364.327145,1608.800546
1224.255568,6513.812290,-8290.306550,612.876398
1224.255897,5847.626942,-8438.347739,76.609550
1224.256226,5477.523971,-8290.306550,76.609550
1224.256556,5847.626942,-8216.285956,306.438199
1224.256885,5921.647536,-7698.141797,-229.828649
1224.257215,6143.709319,-6587.832884,-306.438199
1224.257544,6365.771101,-5921.647536,-229.828649
1224.257874,7920.203579,-6217.729913,612.876398
1224.258203,8438.347739,-5255.462188,1149.143247
1224.258533,8216.285956,-4959.379811,1149.143247
1224.258862,7772.162391,-5329.482782,1225.752797
1224.259192,7846.182985,-5329.482782,2298.286494
1224.259521,8734.430116,-6291.750507,2681.334243
1224.259850,8660.409521,-6069.688724,2374.896044
1224.260180,7698.141797,-5995.668130,1762.019645
1224.260509,7031.956449,-6513.812290,995.924147
1224.260839,6513.812290,-6439.791695,612.876398
1224.261168,6069.688724,-6143.709319,0.000000
1224.261498,5551.544565,-6069.688724,0.000000
1224.261827,6143.709319,-7031.956449,383.047749
1224.262157,6587.832884,-6883.915261,229.828649
1224.262486,6439.791695,-6439.791695,229.828649
1224.262816,6957.935855,-7105.977043,1455.581446
1224.263145,8438.347739,-7105.977043,2374.896044
1224.263474,8882.471304,-6809.894666,2911.162892
1224.263804,8290.306550,-6291.750507,2221.676944
1224.264133,7550.100608,-6439.791695,1915.238745
1224.264463,6957.935855,-6439.791695,995.924147
1224.264792,5995.668130,-6587.832884,0.000000
1224.265122,5847.626942,-6883.915261,383.047749
1224.265451,5921.647536,-7254.018232,459.657299
1224.265780,5847.626942,-7254.018232,0.000000
1224.266110,4737.318029,-7772.162391,536.266849
1224.266439,4885.359217,-7698.141797,766.095498
1224.266769,5921.647536,-7476.080014,1225.752797
1224.267098,6957.935855,-6217.729913,2451.505594
1224.267428,7624.121203,-5699.585753,2298.286494
1224.267757,8216.285956,-5033.400406,2911.162892
1224.268087,8956.491898,-4589.276840,2451.505594
1224.268416,8734.430116,-4589.276840,1915.238745
1224.268745,8216.285956,-4219.173869,1685.410096
1224.269075,7624.121203,-5033.400406,1149.143247
1224.269404,7179.997637,-6143.709319,459.657299
1224.269734,6957.935855,-6661.853478,383.047749
1224.270063,6661.853478,-7105.977043,229.828649
1224.270393,6439.791695,-7550.100608,76.609550
1224.270722,6291.750507,-8512.368333,689.485948
1224.271051,6217.729913,-9252.574275,1072.533697
1224.271381,5995.668130,-9030.512492,1378.971896
1224.271710,5625.565159,-9178.553681,1225.752797
1224.272040,5107.421000,-8808.450710,383.047749
1224.272369,5551.544565,-8142.265362,766.095498
1224.272699,6069.688724,-7328.038826,689.485948
1224.273028,6513.812290,-6735.874072,306.438199
1224.273357,6809.894666,-5699.585753,612.876398
1224.273687,8068.244768,-4663.297435,766.095498
1224.274016,8808.450710,-4293.194464,919.314598
1224.274346,9104.533087,-4515.256246,1455.581446
1224.274675,7994.224174,-4959.379811,2145.067394
1224.275005,8364.327145,-5921.647536,1685.410096
1224.275334,8438.347739,-5699.585753,1991.848295
1224.275664,7920.203579,-6217.729913,1685.410096
1224.275993,7624.121203,-6143.709319,1378.971896
1224.276322,7105.977043,-6735.874072,1378.971896
1224.276652,6143.709319,-7254.018232,689.485948
1224.276981,5551.544565,-6291.750507,76.609550
1224.277311,5625.565159,-6217.729913,0.000000
1224.277640,6069.688724,-7328.038826,-229.828649
1224.277970,6587.832884,-5847.626942,229.828649
1224.278299,7328.038826,-7105.977043,612.876398
1224.278628,8290.306550,-6069.688724,1532.190996
1224.278958,8438.347739,-5477.523971,1685.410096
1224.279287,8512.368333,-6661.853478,1838.629195
1224.279617,8512.368333,-6365.771101,1991.848295
1224.279946,7846.182985,-6809.894666,1302.362347
1224.280276,6735.874072,-6883.915261,1302.362347
1224.280605,6291.750507,-6439.791695,612.876398
1224.280935,6143.709319,-7105.977043,0.000000
1224.281264,5847.626942,-7476.080014,0.000000
1224.281593,4959.379811,-7328.038826,-306.438199
1224.281923,4811.338623,-7920.203579,-306.438199
1224.282252,4885.359217,-7698.141797,229.828649
1224.282582,5625.565159,-7698.141797,689.485948
1224.282911,6291.750507,-7624.121203,2145.067394
1224.283241,7031.956449,-6661.853478,2221.676944
1224.283570,7624.121203,-5329.482782,2528.115143
1224.283899,7994.224174,-4663.297435,2911.162892
1224.284229,8956.491898,-4219.173869,2987.772442
1224.284558,9178.553681,-4145.153275,2068.457845
1224.284888,8660.409521,-4293.194464,1302.362347
1224.285217,7846.182985,-4515.256246,-229.828649
1224.285547,7550.100608,-5329.482782,153.219100
1224.285876,7254.018232,-7031.956449,536.266849
1224.286205,6365.771101,-7624.121203,0.000000
1224.286535,5551.544565,-8660.409521,306.438199
1224.286864,5921.647536,-9030.512492,229.828649
1224.287194,5921.647536,-8956.491898,1072.533697
1224.287523,6069.688724,-9030.512492,1762.019645
1224.287853,6217.729913,-8586.388927,1378.971896
1224.288182,6143.709319,-7179.997637,1532.190996
1224.288512,5551.544565,-7624.121203,842.705048
1224.288841,5329.482782,-7402.059420,612.876398
1224.289170,5995.668130,-6809.894666,383.047749
1224.289500,6809.894666,-5773.606348,383.047749
1224.289829,7624.121203,-4589.276840,766.095498
1224.290159,8734.430116,-4737.318029,1378.971896
1224.290488,9474.636058,-3849.070898,1838.629195
1224.290818,8660.409521,-4885.359217,1532.190996
1224.291147,7402.059420,-5329.482782,1455.581446
1224.291476,7624.121203,-6587.832884,1225.752797
1224.291806,6735.874072,-7402.059420,1302.362347
1224.292135,6439.791695,-7105.977043,1378.971896
1224.292465,6587.832884,-6439.791695,1225.752797
1224.292794,6439.791695,-6291.750507,1072.533697
1224.293124,6513.812290,-6365.771101,919.314598
1224.293453,6587.832884,-6291.750507,153.219100
1224.293783,6883.915261,-5995.668130,842.705048
1224.294112,7179.997637,-6069.688724,306.438199
1224.294441,7031.956449,-5181.441594,689.485948
1224.294771,7328.038826,-6217.729913,1302.362347
1224.295100,8512.368333,-6439.791695,2068.457845
1224.295430,8956.491898,-6513.812290,2374.896044
1224.295759,8586.388927,-6365.771101,2451.505594
1224.296089,7624.121203,-6809.894666,995.924147
1224.296418,6365.771101,-7624.121203,689.485948
1224.296747,5255.462188,-7402.059420,76.609550
1224.297077,4515.256246,-7698.141797,-536.266849
1224.297406,4737.318029,-8068.244768,-766.095498
1224.297736,4293.194464,-8290.306550,-383.047749
1224.298065,4515.256246,-9252.574275,229.828649
1224.298395,5699.585753,-7476.080014,0.000000
1224.298724,5847.626942,-8438.347739,1149.143247
1224.299053,7254.018232,-7698.141797,1378.971896
1224.299383,8068.244768,-5995.668130,2451.505594
1224.299712,8808.450710,-5625.565159,2681.334243
1224.300042,9400.615463,-4367.215058,2221.676944
1224.300371,9178.553681,-3849.070898,1685.410096
1224.300701,8734.430116,-4367.215058,1838.629195
1224.301030,8660.409521,-4367.215058,995.924147
1224.301360,8808.450710,-4293.194464,383.047749
1224.301689,7698.141797,-5107.421000,0.000000
1224.302018,7254.018232,-5551.544565,-76.609550
1224.302348,6957.935855,-7105.977043,459.657299
1224.302677,6143.709319,-7772.162391,1072.533697
1224.303007,6217.729913,-8290.306550,689.485948
1224.303336,5773.606348,-8512.368333,1072.533697
1224.303666,5847.626942,-8586.388927,1838.629195
1224.303995,5699.585753,-8734.430116,1378.971896
1224.304324,5477.523971,-7772.162391,919.314598
1224.304654,5551.544565,-7179.997637,383.047749
1224.304983,6365.771101,-6735.874072,919.314598
1224.305313,6809.894666,-6291.750507,536.266849
1224.305642,6957.935855,-5477.523971,383.047749
1224.305972,7402.059420,-5403.503377,689.485948
1224.306301,8142.265362,-5329.482782,842.705048
1224.306631,8586.388927,-5181.441594,1455.581446
1224.306960,8290.306550,-6143.709319,1762.019645
1224.307289,7550.100608,-6439.791695,1608.800546
1224.307619,7402.059420,-7031.956449,1685.410096
1224.307948,7254.018232,-7105.977043,1915.238745
1224.308278,6957.935855,-6735.874072,1532.190996
1224.308607,6809.894666,-6513.812290,1149.143247
1224.308937,6439.791695,-5181.441594,383.047749
1224.309266,6365.771101,-5847.626942,689.485948
1224.309595,7031.956449,-5551.544565,459.657299
1224.309925,7624.121203,-6143.709319,919.314598
1224.310254,7179.997637,-5921.647536,995.924147
1224.310584,7476.080014,-5255.462188,1149.143247
1224.310913,7994.224174,-6365.771101,2145.067394
1224.311243,8216.285956,-6883.915261,2528.115143
1224.311572,8142.265362,-7402.059420,2451.505594
1224.311901,7476.080014,-7105.977043,2298.286494
1224.312231,6587.832884,-7105.977043,1455.581446
1224.312560,5477.523971,-7550.100608,0.000000
1224.312890,4737.318029,-7846.182985,153.219100
1224.313219,4589.276840,-8068.244768,-766.095498
1224.313549,4737.318029,-8068.244768,-612.876398
1224.313878,5033.400406,-7994.224174,459.657299
1224.314208,6513.812290,-7698.141797,459.657299
1224.314537,6439.791695,-7476.080014,842.705048
1224.314866,6883.915261,-7550.100608,1532.190996
1224.315196,7105.977043,-7105.977043,1532.190996
1224.315525,7772.162391,-4737.318029,1915.238745
1224.315855,8956.491898,-4737.318029,2298.286494
1224.316184,9326.594869,-3849.070898,2298.286494
1224.316514,9400.615463,-3849.070898,2528.115143
1224.316843,9030.512492,-3923.091493,1762.019645
1224.317172,8586.388927,-4145.153275,842.705048
1224.317502,7105.977043,-4737.318029,383.047749
1224.317831,6809.894666,-6217.729913,229.828649
1224.318161,6587.832884,-7550.100608,0.000000
1224.318490,6957.935855,-7105.977043,383.047749
1224.318820,5625.565159,-8216.285956,766.095498
1224.319149,6069.688724,-8586.388927,919.314598
1224.319479,5995.668130,-9178.553681,1302.362347
1224.319808,5773.606348,-9326.594869,1149.143247
1224.320137,5255.462188,-8660.409521,1302.362347
1224.320467,5625.565159,-7920.203579,612.876398
1224.320796,5477.523971,-7254.018232,76.609550
1224.321126,5921.647536,-6291.750507,459.657299
1224.321455,6883.915261,-6069.688724,0.000000
1224.321785,8068.244768,-5329.482782,612.876398
1224.322114,7846.182985,-5477.523971,612.876398
1224.322443,7994.224174,-5255.462188,919.314598
1224.322773,8068.244768,-5477.523971,1072.533697
1224.323102,8216.285956,-5773.606348,1149.143247
1224.323432,7994.224174,-7105.977043,1915.238745
1224.323761,7476.080014,-6587.832884,1838.629195
1224.324091,7328.038826,-6365.771101,842.705048
1224.324420,7105.977043,-6439.791695,1378.971896
1224.324749,6735.874072,-5625.565159,1072.533697
1224.325079,6661.853478,-5477.523971,306.438199
1224.325408,6957.935855,-5551.544565,689.485948
1224.325738,7254.018232,-5477.523971,689.485948
1224.326067,7179.997637,-5995.668130,1762.019645
1224.326397,7105.977043,-5995.668130,1072.533697
1224.326726,7105.977043,-5773.606348,1455.581446
1224.327056,7772.162391,-6661.853478,1762.019645
1224.327385,8290.306550,-7105.977043,2451.505594
1224.327714,8216.285956,-7402.059420,2604.724693
1224.328044,7476.080014,-7328.038826,1762.019645
1224.328373,5551.544565,-7031.956449,689.485948
1224.328703,5625.565159,-7624.121203,153.219100
1224.329032,5477.523971,-8216.285956,-229.828649
1224.329362,5699.585753,-7772.162391,-306.438199
1224.329691,4885.359217,-7994.224174,0.000000
1224.330020,5551.544565,-7031.956449,0.000000
1224.330350,5921.647536,-7105.977043,306.438199
1224.330679,6365.771101,-6957.935855,1532.190996
1224.331009,7328.038826,-6735.874072,2298.286494
1224.331338,7920.203579,-6069.688724,2374.896044
1224.331668,8438.347739,-4515.256246,2757.943793
1224.331997,8660.409521,-4663.297435,2604.724693
1224.332327,8956.491898,-4515.256246,1915.238745
1224.332656,8586.388927,-4515.256246,1685.410096
1224.332985,8068.244768,-4367.215058,919.314598
1224.333315,7105.977043,-5033.400406,459.657299
1224.333644,7105.977043,-5921.647536,995.924147
1224.333974,6883.915261,-6439.791695,536.266849
1224.334303,6217.729913,-7254.018232,0.000000
1224.334633,5625.565159,-8142.265362,766.095498
1224.334962,5773.606348,-9474.636058,766.095498
1224.335291,6365.771101,-8882.471304,1455.581446
1224.335621,5773.606348,-8512.368333,919.314598
1224.335950,5921.647536,-8364.327145,766.095498
1224.336280,5921.647536,-8142.265362,995.924147
1224.336609,6365.771101,-8290.306550,1378.971896
1224.336939,5995.668130,-7920.203579,536.266849
1224.337268,5699.585753,-6069.688724,-306.438199
1224.337597,5995.668130,-5477.523971,0.000000
1224.337927,7105.977043,-5921.647536,842.705048
1224.338256,8512.368333,-5255.462188,1685.410096
1224.338586,9400.615463,-4959.379811,1838.629195
1224.338915,8956.491898,-4515.256246,1685.410096
1224.339245,8216.285956,-5181.441594,1991.848295
1224.339574,7624.121203,-6143.709319,2298.286494
1224.339904,7476.080014,-5477.523971,1608.800546
1224.340233,6735.874072,-5699.585753,1149.143247
1224.340562,6291.750507,-6217.729913,995.924147
1224.340892,6365.771101,-6661.853478,766.095498
1224.341221,6661.853478,-6587.832884,536.266849
1224.341551,6365.771101,-6809.894666,612.876398
1224.341880,6143.709319,-7105.977043,689.485948
1224.342210,6735.874072,-7402.059420,612.876398
1224.342539,7105.977043,-6513.812290,1378.971896
1224.342868,7994.224174,-5921.647536,1455.581446
1224.343198,8808.450710,-5699.585753,1532.190996
1224.343527,8512.368333,-6587.832884,1225.752797
1224.343857,7476.080014,-7105.977043,1225.752797
1224.344186,6957.935855,-6809.894666,459.657299
1224.344516,6513.812290,-7179.997637,0.000000
1224.344845,5699.585753,-7254.018232,153.219100
1224.345175,5477.523971,-7846.182985,0.000000
1224.345504,5625.565159,-7550.100608,0.000000
1224.345833,5551.544565,-7328.038826,0.000000
1224.346163,5477.523971,-7698.141797,153.219100
1224.346492,5773.606348,-7254.018232,0.000000
1224.346822,5921.647536,-7698.141797,919.314598
1224.347151,7105.977043,-7105.977043,2451.505594
1224.347481,7920.203579,-5625.565159,2298.286494
1224.347810,8364.327145,-4959.379811,2987.772442
1224.348139,8660.409521,-3627.009116,2604.724693
1224.348469,9104.533087,-3701.029710,1762.019645
1224.348798,8660.409521,-3034.844362,1302.362347
1224.349128,7698.141797,-4071.132681,919.314598
1224.349457,7846.182985,-5181.441594,0.000000
1224.349787,7105.977043,-5329.482782,0.000000
1224.350116,6661.853478,-7254.018232,459.657299
1224.350445,6513.812290,-7550.100608,612.876398
1224.350775,5847.626942,-9030.512492,1072.533697
1224.351104,5995.668130,-9918.759623,1225.752797
1224.351434,6069.688724,-9252.574275,1762.019645
1224.351763,6143.709319,-8512.368333,1838.629195
1224.352093,5847.626942,-7994.224174,1225.752797
1224.352422,5699.585753,-8216.285956,1685.410096
1224.352752,6143.709319,-7179.997637,919.314598
1224.353081,5995.668130,-6365.771101,689.485948
1224.353410,6291.750507,-5255.462188,306.438199
1224.353740,6883.915261,-5181.441594,306.438199
1224.354069,7994.224174,-4959.379811,766.095498
1224.354399,8808.450710,-4811.338623,1455.581446
1224.354728,8512.368333,-4589.276840,1991.848295
1224.355058,8512.368333,-4811.338623,1991.848295
1224.355387,7846.182985,-6217.729913,1838.629195
1224.355716,7179.997637,-7105.977043,1455.581446
1224.356046,6143.709319,-7698.141797,1685.410096
1224.356375,5699.585753,-7698.141797,612.876398
1224.356705,5699.585753,-7624.121203,536.266849
1224.357034,5699.585753,-6661.853478,536.266849
1224.357364,6735.874072,-6587.832884,689.485948
1224.357693,6661.853478,-6439.791695,0.000000
1224.358023,7105.977043,-6661.853478,536.266849
1224.358352,6957.935855,-6735.874072,842.705048
1224.358681,7698.141797,-5995.668130,766.095498
1224.359011,8142.265362,-6069.688724,1455.581446
1224.359340,8882.471304,-5921.647536,2374.896044
1224.359670,8660.409521,-7402.059420,2681.334243
1224.359999,8216.285956,-6735.874072,1838.629195
1224.360329,6661.853478,-7105.977043,1072.533697
1224.360658,6143.709319,-6809.894666,306.438199
1224.360987,4885.359217,-7254.018232,153.219100
1224.361317,4811.338623,-8290.306550,0.000000
1224.361646,5255.462188,-7254.018232,459.657299
1224.361976,5551.544565,-7105.977043,536.266849
1224.362305,6143.709319,-6439.791695,919.314598
1224.362634,6439.791695,-6143.709319,1302.362347
1224.362963,7476.080014,-6291.750507,1378.971896
1224.363293,7846.182985,-5847.626942,2221.676944
1224.363622,8438.347739,-5033.400406,1915.238745
1224.363951,9030.512492,-5107.421000,2068.457845
1224.364281,8808.450710,-4515.256246,1685.410096
1224.364610,8882.471304,-5329.482782,1455.581446
1224.364939,8142.265362,-5477.523971,1072.533697
1224.365269,7328.038826,-5477.523971,306.438199
1224.365598,7105.977043,-6513.812290,-459.657299
1224.365927,6809.894666,-5921.647536,306.438199
1224.366257,6883.915261,-6513.812290,383.047749
1224.366586,6365.771101,-7550.100608,766.095498
1224.366915,5699.585753,-8364.327145,1532.190996
1224.367245,6069.688724,-8660.409521,1149.143247
1224.367574,5995.668130,-8512.368333,1455.581446
1224.367903,5773.606348,-8808.450710,1455.581446
1224.368233,5699.585753,-8364.327145,1072.533697
1224.368562,5921.647536,-7402.059420,306.438199
1224.368891,5625.565159,-6365.771101,153.219100
1224.369221,6513.812290,-5699.585753,306.438199
1224.369550,7698.141797,-5403.503377,383.047749
1224.369879,8216.285956,-5107.421000,689.485948
1224.370209,7920.203579,-5921.647536,766.095498
1224.370538,7846.182985,-5773.606348,995.924147
1224.370867,8068.244768,-6365.771101,1762.019645
1224.371197,8512.368333,-6957.935855,1915.238745
1224.371526,7550.100608,-6735.874072,2604.724693
1224.371855,7328.038826,-7105.977043,1685.410096
1224.372185,6735.874072,-6217.729913,1608.800546
1224.372514,6365.771101,-6735.874072,1149.143247
1224.372843,6587.832884,-6143.709319,919.314598
1224.373173,7031.956449,-4811.338623,459.657299
1224.373502,7105.977043,-4811.338623,612.876398
1224.373831,7550.100608,-5033.400406,536.266849
1224.374160,7772.162391,-5403.503377,1225.752797
1224.374490,8364.327145,-5329.482782,306.438199
1224.374819,8142.265362,-5403.503377,995.924147
1224.375148,8142.265362,-6883.915261,1991.848295
1224.375478,7846.182985,-7476.080014,2145.067394
1224.375807,7402.059420,-7994.224174,1915.238745
1224.376136,6957.935855,-8142.265362,2221.676944
1224.376466,5847.626942,-7698.141797,1302.362347
1224.376795,5107.421000,-7846.182985,76.609550
1224.377124,4515.256246,-8142.265362,-459.657299
1224.377454,4441.235652,-7920.203579,-766.095498
1224.377783,4737.318029,-7624.121203,-306.438199
1224.378112,5477.523971,-7550.100608,459.657299
1224.378442,6217.729913,-6291.750507,842.705048
1224.378771,6957.935855,-6439.791695,1915.238745
1224.379100,8364.327145,-4885.359217,2451.505594
1224.379430,9252.574275,-4367.215058,2221.676944
1224.379759,9326.594869,-4737.318029,2604.724693
1224.380088,9104.533087,-4737.318029,1915.238745
1224.380418,8882.471304,-4589.276840,2068.457845
1224.380747,7698.141797,-4515.256246,995.924147
1224.381076,7328.038826,-5847.626942,919.314598
1224.381406,7254.018232,-5921.647536,306.438199
1224.381735,7328.038826,-6809.894666,842.705048
1224.382064,7105.977043,-6661.853478,153.219100
1224.382394,5995.668130,-7402.059420,689.485948
1224.382723,5773.606348,-7254.018232,229.828649
1224.383052,5329.482782,-8586.388927,536.266849
1224.383382,5329.482782,-9104.533087,995.924147
1224.383711,6439.791695,-9030.512492,1225.752797
1224.384040,5699.585753,-8882.471304,1455.581446
1224.384370,5773.606348,-7846.182985,1072.533697
1224.384699,6513.812290,-7698.141797,536.266849
1224.385028,6735.874072,-6143.709319,536.266849
1224.385358,7328.038826,-5329.482782,76.609550
1224.385687,8068.244768,-4737.318029,459.657299
1224.386016,7920.203579,-4737.318029,459.657299
1224.386345,8142.265362,-5403.503377,689.485948
1224.386675,8364.327145,-6069.688724,1532.190996
1224.387004,7624.121203,-6809.894666,1455.581446
1224.387333,7994.224174,-7105.977043,1991.848295
1224.387663,7179.997637,-6439.791695,1685.410096
1224.387992,7105.977043,-5921.647536,1378.971896
1224.388321,6587.832884,-6069.688724,1455.581446
1224.388651,7179.997637,-5699.585753,1302.362347
1224.388980,7254.018232,-5255.462188,766.095498
1224.389309,6957.935855,-4737.318029,229.828649
1224.389639,7105.977043,-4959.379811,766.095498
1224.389968,7550.100608,-6217.729913,995.924147
1224.390297,7920.203579,-5847.626942,1762.019645
1224.390627,7328.038826,-5995.668130,1532.190996
1224.390956,8142.265362,-6513.812290,1991.848295
1224.391285,8364.327145,-6587.832884,2145.067394
1224.391615,7550.100608,-7550.100608,1762.019645
1224.391944,6587.832884,-7550.100608,1455.581446
1224.392273,5699.585753,-7698.141797,536.266849
1224.392603,5255.462188,-8068.244768,919.314598
1224.392932,4737.318029,-7698.141797,-536.266849
1224.393261,4663.297435,-8216.285956,-383.047749
1224.393591,4959.379811,-7920.203579,-612.876398
1224.393920,5255.462188,-7920.203579,-229.828649
1224.394249,6143.709319,-8068.244768,383.047749
1224.394579,6661.853478,-6957.935855,612.876398
1224.394908,7328.038826,-6735.874072,1149.143247
1224.395237,7772.162391,-6809.894666,2068.457845
1224.395567,8142.265362,-6587.832884,2757.943793
1224.395896,8808.450710,-5551.544565,3217.601092
1224.396225,8734.430116,-4293.194464,2987.772442
1224.396555,8586.388927,-3701.029710,1762.019645
1224.396884,8216.285956,-3849.070898,1302.362347
1224.397213,7994.224174,-3997.112087,919.314598
1224.397542,7698.141797,-4589.276840,612.876398
1224.397872,6957.935855,-5699.585753,612.876398
1224.398201,6217.729913,-6217.729913,0.000000
1224.398530,5625.565159,-7476.080014,306.438199
1224.398860,5403.503377,-8290.306550,536.266849
1224.399189,5625.565159,-9030.512492,1225.752797
1224.399518,5995.668130,-9474.636058,1225.752797
1224.399848,6439.791695,-8586.388927,1762.019645
1224.400177,5921.647536,-7772.162391,1915.238745
1224.400506,6513.812290,-7846.182985,1455.581446
1224.400836,6217.729913,-7179.997637,766.095498
1224.401165,5847.626942,-6217.729913,-229.828649
1224.401494,5847.626942,-5921.647536,0.000000
1224.401824,7476.080014,-5847.626942,0.000000
1224.402153,7994.224174,-4885.359217,536.266849
1224.402482,7476.080014,-5773.606348,1455.581446
1224.402812,7624.121203,-6143.709319,1915.238745
1224.403141,7994.224174,-5847.626942,1532.190996
1224.403470,7994.224174,-5107.421000,1762.019645
1224.403800,7328.038826,-6439.791695,1455.581446
1224.404129,7031.956449,-6365.771101,1532.190996
1224.404458,7105.977043,-6217.729913,919.314598
1224.404788,7105.977043,-5551.544565,0.000000
1224.405117,6587.832884,-5699.585753,766.095498
1224.405446,7328.038826,-5699.585753,1149.143247
1224.405776,7328.038826,-6143.709319,1149.143247
1224.406105,7254.018232,-6143.709319,766.095498
1224.406434,7254.018232,-5921.647536,536.266849
1224.406764,7772.162391,-6217.729913,766.095498
1224.407093,8142.265362,-7179.997637,2068.457845
1224.407422,8142.265362,-7254.018232,1838.629195
1224.407752,7550.100608,-7550.100608,919.314598
1224.408081,6365.771101,-7550.100608,766.095498
1224.408410,5921.647536,-8438.347739,383.047749
1224.408739,5403.503377,-8512.368333,229.828649
1224.409069,5551.544565,-7772.162391,0.000000
1224.409398,5255.462188,-7402.059420,-995.924147
1224.409727,4959.379811,-7105.977043,-153.219100
1224.410057,5773.606348,-7105.977043,536.266849
1224.410386,6809.894666,-6883.915261,612.876398
1224.410715,6809.894666,-5773.606348,1455.581446
1224.411045,7105.977043,-6587.832884,1838.629195
1224.411374,7920.203579,-5995.668130,2221.676944
1224.411703,8438.347739,-5921.647536,2451.505594
1224.412033,8734.430116,-5255.462188,2451.505594
1224.412362,8808.450710,-4737.318029,1991.848295
1224.412691,8512.368333,-4663.297435,1762.019645
1224.413021,7994.224174,-4293.194464,995.924147
1224.413350,7328.038826,-4737.318029,0.000000
1224.413679,6809.894666,-4737.318029,0.000000
1224.414009,7328.038826,-5921.647536,0.000000
1224.414338,7031.956449,-6439.791695,842.705048
1224.414667,6957.935855,-6957.935855,919.314598
1224.414997,6957.935855,-7772.162391,1072.533697
1224.415326,6957.935855,-7846.182985,1991.848295
1224.415655,6809.894666,-8956.491898,1532.190996
1224.415985,6809.894666,-8660.409521,1915.238745
1224.416314,6735.874072,-7698.141797,1378.971896
1224.416643,5921.647536,-7105.977043,383.047749
1224.416973,5921.647536,-6291.750507,1149.143247
1224.417302,6143.709319,-6439.791695,536.266849
1224.417631,6513.812290,-6217.729913,0.000000
1224.417961,6513.812290,-5181.441594,76.609550
1224.418290,6809.894666,-6143.709319,536.266849
1224.418619,7031.956449,-5773.606348,536.266849
1224.418949,7476.080014,-6143.709319,1455.581446
1224.419278,7105.977043,-6809.894666,1915.238745
1224.419607,7476.080014,-6735.874072,1838.629195
1224.419937,7402.059420,-6957.935855,2068.457845
1224.420266,7031.956449,-7031.956449,919.314598
1224.420595,6513.812290,-7105.977043,1225.752797
1224.420924,6809.894666,-6661.853478,1072.533697
1224.421254,7254.018232,-6513.812290,459.657299
1224.421583,7846.182985,-5773.606348,689.485948
1224.421912,7772.162391,-5921.647536,919.314598
1224.422242,7772.162391,-5921.647536,689.485948
1224.422571,6735.874072,-5921.647536,766.095498
1224.422900,6587.832884,-6143.709319,536.266849
1224.423230,7254.018232,-6513.812290,1378.971896
1224.423559,7994.224174,-6735.874072,1685.410096
1224.423888,7772.162391,-7254.018232,1991.848295
1224.424218,7179.997637,-7402.059420,1532.190996
1224.424547,7105.977043,-7328.038826,919.314598
1224.424876,5551.544565,-7550.100608,76.609550
1224.425206,5033.400406,-7550.100608,0.000000
1224.425535,4885.359217,-7772.162391,0.000000
1224.425864,5551.544565,-7476.080014,229.828649
1224.426194,5847.626942,-6883.915261,689.485948
1224.426523,6365.771101,-6735.874072,1838.629195
1224.426852,7031.956449,-6513.812290,1991.848295
1224.427182,7105.977043,-5995.668130,2221.676944
1224.427511,7476.080014,-4515.256246,2298.286494
1224.427840,7550.100608,-5403.503377,2145.067394
1224.428170,7772.162391,-4811.338623,1455.581446
1224.428499,7698.141797,-4959.379811,1225.752797
1224.428828,7624.121203,-5329.482782,1302.362347
1224.429158,7994.224174,-5255.462188,1302.362347
1224.429487,7179.997637,-6143.709319,229.828649
1224.429816,7105.977043,-6513.812290,306.438199
1224.430146,7328.038826,-7105.977043,229.828649
1224.430475,7550.100608,-7476.080014,536.266849
1224.430804,7105.977043,-7772.162391,1302.362347
1224.431134,6439.791695,-8734.430116,1378.971896
1224.431463,6365.771101,-8290.306550,1455.581446
1224.431792,6217.729913,-8290.306550,1149.143247
1224.432121,5773.606348,-8068.244768,1149.143247
1224.432451,5625.565159,-8142.265362,842.705048
1224.432780,5847.626942,-7476.080014,459.657299
1224.433109,5921.647536,-6439.791695,76.609550
1224.433439,6439.791695,-4885.359217,842.705048
1224.433768,7179.997637,-5181.441594,306.438199
1224.434097,7698.141797,-4959.379811,459.657299
1224.434427,7328.038826,-5329.482782,383.047749
1224.434756,7772.162391,-5699.585753,842.705048
1224.435085,8290.306550,-6365.771101,2374.896044
1224.435415,8364.327145,-7105.977043,2298.286494
1224.435744,7920.203579,-7254.018232,2145.067394
1224.436073,7105.977043,-6513.812290,1915.238745
1224.436403,7031.956449,-7328.038826,1149.143247
1224.436732,6439.791695,-7031.956449,1149.143247
1224.437061,5921.647536,-5995.668130,229.828649
1224.437391,6143.709319,-5921.647536,0.000000
1224.437720,6957.935855,-4959.379811,0.000000
1224.438049,7994.224174,-5107.421000,0.000000
1224.438379,7402.059420,-5255.462188,536.266849
1224.438708,7994.224174,-5477.523971,1532.190996
1224.439037,8734.430116,-5699.585753,1915.238745
1224.439367,8660.409521,-6069.688724,1608.800546
1224.439696,8216.285956,-7105.977043,1762.019645
1224.440025,7254.018232,-8068.244768,1991.848295
1224.440355,6439.791695,-7698.141797,1378.971896
1224.440684,5329.482782,-7624.121203,536.266849
1224.441013,4959.379811,-7550.100608,306.438199
1224.441343,5107.421000,-7772.162391,306.438199
1224.441672,4737.318029,-7920.203579,0.000000
1224.442001,4811.338623,-7254.018232,-536.266849
1224.442331,5107.421000,-6735.874072,-76.609550
1224.442660,6439.791695,-6513.812290,306.438199
1224.442989,7254.018232,-7105.977043,1762.019645
1224.443319,8142.265362,-6291.750507,2145.067394
1224.443648,8586.388927,-5625.565159,2298.286494
1224.443977,8808.450710,-5107.421000,2221.676944
1224.444306,9178.553681,-5403.503377,2145.067394
1224.444636,8808.450710,-5477.523971,1762.019645
1224.444965,8142.265362,-4811.338623,1149.143247
1224.445294,7402.059420,-4737.318029,229.828649
1224.445624,6883.915261,-5847.626942,153.219100
1224.445953,7031.956449,-6587.832884,842.705048
1224.446282,7105.977043,-7994.224174,612.876398
1224.446612,6069.688724,-6809.894666,612.876398
1224.446941,5477.523971,-7698.141797,536.266849
1224.447270,5921.647536,-9030.512492,1455.581446
1224.447600,6143.709319,-8290.306550,1455.581446
1224.447929,5625.565159,-8142.265362,1225.752797
1224.448258,5403.503377,-7846.182985,842.705048
1224.448588,5995.668130,-8068.244768,306.438199
1224.448917,5847.626942,-7328.038826,689.485948
1224.449246,5995.668130,-6661.853478,229.828649
1224.449576,6587.832884,-6143.709319,153.219100
1224.449905,7402.059420,-5551.544565,153.219100
1224.450234,8364.327145,-4737.318029,995.924147
1224.450564,8512.368333,-4811.338623,1915.238745
1224.450893,8734.430116,-4737.318029,1685.410096
1224.451222,7920.203579,-5625.565159,1915.238745
1224.451552,7254.018232,-5551.544565,2374.896044
1224.451881,7402.059420,-6513.812290,1532.190996
1224.452210,6587.832884,-6143.709319,1685.410096
1224.452540,6513.812290,-6439.791695,689.485948
1224.452869,6735.874072,-5847.626942,766.095498
1224.453198,7624.121203,-4885.359217,1455.581446
1224.453528,7698.141797,-6069.688724,689.485948
1224.453857,7624.121203,-5477.523971,995.924147
1224.454186,7179.997637,-5551.544565,229.828649
1224.454516,7105.977043,-6365.771101,383.047749
1224.454845,7031.956449,-6735.874072,1378.971896
1224.455174,7402.059420,-7624.121203,2298.286494
1224.455503,8290.306550,-7328.038826,2374.896044
1224.455833,7698.141797,-7402.059420,2221.676944
1224.456162,6365.771101,-7698.141797,1149.143247
1224.456491,5551.544565,-7550.100608,919.314598
1224.456821,5033.400406,-7476.080014,0.000000
1224.457150,4663.297435,-7846.182985,-306.438199
1224.457479,4737.318029,-7105.977043,-306.438199
1224.457809,5773.606348,-7105.977043,-612.876398
1224.458138,6587.832884,-7105.977043,76.609550
1224.458467,6809.894666,-7179.997637,919.314598
1224.458797,7105.977043,-7105.977043,995.924147
1224.459126,7698.141797,-6365.771101,1991.848295
1224.459455,8290.306550,-5847.626942,1685.410096
1224.459785,8364.327145,-5847.626942,2221.676944
1224.460114,8142.265362,-5181.441594,2451.505594
1224.460443,8808.450710,-5033.400406,2068.457845
1224.460773,8216.285956,-4071.132681,1455.581446
1224.461102,8068.244768,-4145.153275,919.314598
1224.461431,7624.121203,-4737.318029,842.705048
1224.461761,7920.203579,-5625.565159,919.314598
1224.462090,7402.059420,-5847.626942,689.485948
1224.462419,6957.935855,-6069.688724,153.219100
1224.462749,5921.647536,-7105.977043,612.876398
1224.463078,5847.626942,-8364.327145,995.924147
1224.463407,6365.771101,-8734.430116,1532.190996
1224.463736,6587.832884,-8512.368333,1685.410096
1224.464066,6217.729913,-7624.121203,1072.533697
1224.464395,6661.853478,-7698.141797,1685.410096
1224.464724,6957.935855,-7624.121203,1302.362347
1224.465053,6809.894666,-6735.874072,536.266849
1224.465383,6513.812290,-5477.523971,459.657299
1224.465712,5921.647536,-5699.585753,-459.657299
1224.466041,7105.977043,-5847.626942,536.266849
1224.466370,7476.080014,-6439.791695,842.705048
1224.466699,7179.997637,-5403.503377,689.485948
1224.467029,7031.956449,-6069.688724,1378.971896
1224.467358,7402.059420,-6809.894666,1608.800546
1224.467687,7698.141797,-6513.812290,1838.629195
1224.468016,7402.059420,-6883.915261,1608.800546
1224.468346,6809.894666,-6439.791695,1608.800546
1224.468675,6439.791695,-6439.791695,1225.752797
1224.469004,6587.832884,-5773.606348,919.314598
1224.469333,6513.812290,-5329.482782,536.266849
1224.469662,7179.997637,-5625.565159,383.047749
1224.469992,8068.244768,-5995.668130,689.485948
1224.470321,7550.100608,-6439.791695,919.314598
1224.470650,7402.059420,-5995.668130,1072.533697
1224.470979,7328.038826,-6143.709319,1302.362347
1224.471309,7550.100608,-6661.853478,1685.410096
1224.471638,7550.100608,-7476.080014,2068.457845
1224.471967,6957.935855,-8068.244768,1838.629195
1224.472296,6365.771101,-8142.265362,1225.752797
1224.472625,5551.544565,-7920.203579,306.438199
1224.472955,5033.400406,-7698.141797,383.047749
1224.473284,5107.421000,-8512.368333,0.000000
1224.473613,5477.523971,-7624.121203,0.000000
1224.473942,5403.503377,-6809.894666,0.000000
1224.474272,5699.585753,-6809.894666,306.438199
1224.474601,6365.771101,-6809.894666,919.314598
1224.474930,7179.997637,-6365.771101,1302.362347
1224.475259,7846.182985,-6587.832884,2451.505594
1224.475588,7920.203579,-5847.626942,2374.896044
1224.475918,8586.388927,-5477.523971,2757.943793
1224.476247,8808.450710,-4441.235652,2451.505594
1224.476576,8734.430116,-3849.070898,2145.067394
1224.476905,8216.285956,-4219.173869,1302.362347
1224.477234,7698.141797,-4811.338623,842.705048
1224.477564,7179.997637,-5255.462188,153.219100
1224.477893,6809.894666,-5921.647536,76.609550
1224.478222,6513.812290,-6735.874072,383.047749
1224.478551,5847.626942,-7402.059420,229.828649
1224.478881,6587.832884,-8364.327145,689.485948
1224.479210,6291.750507,-8364.327145,1991.848295
1224.479539,7031.956449,-7994.224174,1608.800546
1224.479868,6883.915261,-7179.997637,1149.143247
1224.480197,6143.709319,-7550.100608,689.485948
1224.480527,6291.750507,-8068.244768,1072.533697
1224.480856,6513.812290,-7105.977043,536.266849
1224.481185,6513.812290,-6365.771101,76.609550
1224.481514,6365.771101,-6143.709319,229.828649
1224.481844,7105.977043,-5477.523971,306.438199
1224.482173,7772.162391,-6513.812290,612.876398
1224.482502,7698.141797,-6883.915261,1225.752797
1224.482831,7179.997637,-6587.832884,1302.362347
1224.483160,7402.059420,-6661.853478,919.314598
1224.483490,7328.038826,-6291.750507,2145.067394
1224.483819,7254.018232,-6291.750507,1915.238745
1224.484148,7179.997637,-6439.791695,1302.362347
1224.484477,7105.977043,-5329.482782,842.705048
1224.484807,6957.935855,-5329.482782,1072.533697
1224.485136,7254.018232,-5107.421000,1149.143247
1224.485465,8216.285956,-5329.482782,1225.752797
1224.485794,7550.100608,-6291.750507,459.657299
1224.486123,6809.894666,-6291.750507,842.705048
1224.486453,6957.935855,-6661.853478,612.876398
1224.486782,7772.162391,-6439.791695,919.314598
1224.487111,7846.182985,-7105.977043,1608.800546
1224.487440,7624.121203,-7772.162391,1762.019645
1224.487770,7402.059420,-7772.162391,1762.019645
1224.488099,6957.935855,-7476.080014,1378.971896
1224.488428,6661.853478,-7254.018232,1225.752797
1224.488757,5699.585753,-6957.935855,383.047749
1224.489086,5625.565159,-6587.832884,0.000000
1224.489416,4737.318029,-6365.771101,0.000000
1224.489745,5329.482782,-6513.812290,0.000000
1224.490074,6143.709319,-6365.771101,229.828649
1224.490403,6513.812290,-6587.832884,919.314598
1224.490732,6957.935855,-6735.874072,1378.971896
1224.491062,7920.203579,-7402.059420,1532.190996
1224.491391,7402.059420,-7105.977043,1991.848295
1224.491720,7328.038826,-7031.956449,2298.286494
1224.492049,7920.203579,-6883.915261,1532.190996
1224.492379,7254.018232,-6661.853478,1762.019645
1224.492708,7476.080014,-5699.585753,1072.533697
1224.493037,7476.080014,-5403.503377,536.266849
1224.493366,7550.100608,-4515.256246,995.924147
1224.493695,7402.059420,-4959.379811,689.485948
1224.494025,7624.121203,-5329.482782,766.095498
1224.494354,6957.935855,-5699.585753,229.828649
1224.494683,6069.688724,-7031.956449,153.219100
1224.495012,6735.874072,-7550.100608,1455.581446
1224.495342,7254.018232,-7772.162391,1532.190996
1224.495671,7402.059420,-7624.121203,1225.752797
1224.496000,7105.977043,-7698.141797,1991.848295
1224.496329,7031.956449,-7698.141797,1455.581446
1224.496658,6291.750507,-7402.059420,842.705048
1224.496988,5551.544565,-6957.935855,0.000000
1224.497317,4959.379811,-6661.853478,-306.438199
1224.497646,5921.647536,-6513.812290,0.000000
1224.497975,6809.894666,-6291.750507,459.657299
1224.498305,6809.894666,-6291.750507,1225.752797
1224.498634,7772.162391,-4663.297435,1302.362347
1224.498963,7476.080014,-5329.482782,1532.190996
1224.499292,7328.038826,-5699.585753,1302.362347
1224.499621,7402.059420,-6069.688724,1838.629195
1224.499951,7402.059420,-6587.832884,1762.019645
1224.500280,7476.080014,-6291.750507,1455.581446
1224.500609,7328.038826,-6291.750507,1455.581446
1224.500938,7328.038826,-6365.771101,766.095498
1224.501268,7105.977043,-6735.874072,536.266849
1224.501597,7105.977043,-6365.771101,766.095498
1224.501926,7105.977043,-7254.018232,459.657299
1224.502255,6957.935855,-6587.832884,536.266849
1224.502584,6661.853478,-6069.688724,229.828649
1224.502914,6587.832884,-6809.894666,766.095498
1224.503243,7328.038826,-6809.894666,2145.067394
1224.503572,8290.306550,-6735.874072,2221.676944
1224.503901,8068.244768,-6365.771101,2221.676944
1224.504230,7402.059420,-6069.688724,1685.410096
1224.504560,6735.874072,-6957.935855,995.924147
1224.504889,6735.874072,-7402.059420,842.705048
1224.505218,5625.565159,-7105.977043,383.047749
1224.505547,5551.544565,-7105.977043,229.828649
1224.505877,5773.606348,-7105.977043,-229.828649
1224.506206,5995.668130,-7624.121203,-306.438199
1224.506535,5699.585753,-8068.244768,612.876398
1224.506864,6217.729913,-7920.203579,995.924147
1224.507193,6587.832884,-7624.121203,1302.362347
1224.507523,6365.771101,-6365.771101,2221.676944
1224.507852,7328.038826,-6217.729913,1532.190996
1224.508181,7994.224174,-5921.647536,2298.286494
1224.508510,8364.327145,-4885.359217,1838.629195
1224.508840,8068.244768,-4441.235652,1455.581446
1224.509169,8290.306550,-3256.906145,1378.971896
1224.509498,8216.285956,-4071.132681,383.047749
1224.509827,7920.203579,-5033.400406,536.266849
1224.510156,7624.121203,-6365.771101,842.705048
1224.510486,6957.935855,-7105.977043,1302.362347
1224.510815,6883.915261,-6809.894666,1149.143247
1224.511144,6513.812290,-8068.244768,1685.410096
1224.511473,7105.977043,-8808.450710,2068.457845
1224.511803,6291.750507,-8512.368333,1302.362347
1224.512132,5921.647536,-8142.265362,1608.800546
1224.512461,5847.626942,-6809.894666,766.095498
1224.512790,5847.626942,-7105.977043,459.657299
1224.513119,5773.606348,-6513.812290,229.828649
1224.513449,5551.544565,-6365.771101,0.000000
1224.513778,6661.853478,-6217.729913,0.000000
1224.514107,7624.121203,-5403.503377,383.047749
1224.514436,7179.997637,-5477.523971,919.314598
1224.514766,8364.327145,-5255.462188,1762.019645
1224.515095,8512.368333,-5625.565159,2145.067394
1224.515424,8882.471304,-6217.729913,1838.629195
1224.515753,8364.327145,-6439.791695,1608.800546
1224.516082,7328.038826,-6809.894666,995.924147
1224.516412,6587.832884,-7105.977043,536.266849
1224.516741,6291.750507,-7179.997637,459.657299
1224.517070,5847.626942,-6809.894666,306.438199
1224.517399,6365.771101,-6513.812290,459.657299
1224.517728,6957.935855,-6217.729913,1149.143247
1224.518058,7179.997637,-6513.812290,1149.143247
1224.518387,7179.997637,-5181.441594,0.000000
1224.518716,6439.791695,-6217.729913,1072.533697
1224.519045,7105.977043,-6661.853478,1455.581446
1224.519375,8068.244768,-6883.915261,2068.457845
1224.519704,7698.141797,-6735.874072,2298.286494
1224.520033,7550.100608,-7402.059420,2068.457845
1224.520362,7179.997637,-7402.059420,1685.410096
1224.520691,5995.668130,-7698.141797,612.876398
1224.521021,5033.400406,-7772.162391,0.000000
1224.521350,5033.400406,-7550.100608,0.000000
1224.521679,5033.400406,-8142.265362,-689.485948
1224.522008,5625.565159,-7105.977043,383.047749
1224.522338,5847.626942,-6809.894666,612.876398
1224.522667,6809.894666,-6883.915261,766.095498
1224.522996,7105.977043,-5847.626942,2068.457845
1224.523325,7698.141797,-5403.503377,2145.067394
1224.523654,8512.368333,-5033.400406,2451.505594
1224.523984,9104.533087,-4811.338623,2221.676944
1224.524313,8808.450710,-4663.297435,1991.848295
1224.524642,8364.327145,-4811.338623,1455.581446
1224.524971,7994.224174,-4959.379811,1149.143247
1224.525301,7550.100608,-6217.729913,766.095498
1224.525630,6883.915261,-6365.771101,153.219100
1224.525959,6661.853478,-7031.956449,229.828649
1224.526288,6587.832884,-7105.977043,76.609550
1224.526617,6217.729913,-7179.997637,689.485948
1224.526947,6069.688724,-8142.265362,842.705048
1224.527276,5995.668130,-8068.244768,1991.848295
1224.527605,6217.729913,-8216.285956,842.705048
1224.527934,5551.544565,-8364.327145,612.876398
1224.528264,5255.462188,-8216.285956,1149.143247
1224.528593,5551.544565,-7550.100608,383.047749
1224.528922,6735.874072,-6439.791695,536.266849
1224.529251,7105.977043,-6069.688724,689.485948
1224.529580,7550.100608,-5329.482782,153.219100
1224.529910,7846.182985,-5403.503377,536.266849
1224.530239,7772.162391,-5995.668130,536.266849
1224.530568,8068.244768,-5699.585753,842.705048
1224.530897,7920.203579,-6217.729913,1378.971896
1224.531226,8438.347739,-5921.647536,1762.019645
1224.531556,7698.141797,-6439.791695,1838.629195
1224.531885,7402.059420,-5921.647536,1608.800546
1224.532214,7179.997637,-5699.585753,1455.581446
1224.532543,7105.977043,-6143.709319,766.095498
1224.532873,6587.832884,-5551.544565,766.095498
1224.533202,6365.771101,-6217.729913,306.438199
1224.533531,6809.894666,-5773.606348,306.438199
1224.533860,6661.853478,-6365.771101,766.095498
1224.534189,6809.894666,-6809.894666,842.705048
1224.534519,7698.141797,-6439.791695,919.314598
1224.534848,7846.182985,-6513.812290,1608.800546
1224.535177,8068.244768,-6735.874072,1532.190996
1224.535506,8068.244768,-7550.100608,2451.505594
1224.535836,7624.121203,-7031.956449,1685.410096
1224.536165,6883.915261,-7031.956449,1225.752797
1224.536494,6365.771101,-7105.977043,612.876398
1224.536823,5921.647536,-7254.018232,536.266849
1224.537152,5921.647536,-7624.121203,459.657299
1224.537482,5403.503377,-7179.997637,76.609550
1224.537811,4811.338623,-7105.977043,-459.657299
1224.538140,5403.503377,-7254.018232,0.000000
1224.538469,5995.668130,-7328.038826,306.438199
1224.538799,6587.832884,-7105.977043,842.705048
1224.539128,7254.018232,-6883.915261,1915.238745
1224.539457,7846.182985,-6291.750507,2145.067394
1224.539786,8290.306550,-6143.709319,2068.457845
1224.540115,8364.327145,-5995.668130,2374.896044
1224.540445,8438.347739,-5181.441594,1762.019645
1224.540774,8586.388927,-4293.194464,1378.971896
1224.541103,7920.203579,-3627.009116,1149.143247
1224.541432,7920.203579,-4589.276840,995.924147
1224.541762,7920.203579,-4959.379811,995.924147
1224.542091,7031.956449,-6217.729913,842.705048
1224.542420,6143.709319,-7105.977043,76.609550
1224.542749,5255.462188,-7846.182985,536.266849
1224.543078,5995.668130,-8586.388927,536.266849
1224.543408,6513.812290,-8734.430116,1608.800546
1224.543737,6957.935855,-7846.182985,1762.019645
1224.544066,7179.997637,-7698.141797,2221.676944
1224.544395,6883.915261,-7550.100608,229.828649
1224.544724,6217.729913,-7031.956449,1072.533697
1224.545054,5995.668130,-7105.977043,306.438199
1224.545383,6365.771101,-6143.709319,153.219100
1224.545712,6883.915261,-5551.544565,0.000000
1224.546041,6957.935855,-6587.832884,842.705048
1224.546371,7624.121203,-5403.503377,1072.533697
1224.546700,7476.080014,-5847.626942,1378.971896
1224.547029,7105.977043,-5329.482782,2221.676944
1224.547358,7105.977043,-6291.750507,1915.238745
1224.547687,7402.059420,-6587.832884,2068.457845
1224.548017,7476.080014,-6365.771101,1915.238745
1224.548346,7105.977043,-6217.729913,1608.800546
1224.548675,6883.915261,-5699.585753,1302.362347
1224.549004,7105.977043,-5551.544565,689.485948
1224.549334,6735.874072,-5403.503377,0.000000
1224.549663,6365.771101,-5699.585753,76.609550
1224.549992,7402.059420,-6883.915261,153.219100
1224.550321,7624.121203,-7179.997637,766.095498
1224.550650,7179.997637,-6143.709319,1149.143247
1224.550980,7328.038826,-6735.874072,1225.752797
1224.551309,8068.244768,-7031.956449,2068.457845
1224.551638,8290.306550,-7402.059420,1225.752797
1224.551967,7105.977043,-8438.347739,1378.971896
1224.552297,6513.812290,-7624.121203,1378.971896
1224.552626,5329.482782,-7550.100608,76.609550
1224.552955,5181.441594,-7031.956449,-76.609550
1224.553284,5107.421000,-7772.162391,0.000000
1224.553613,5773.606348,-7476.080014,0.000000
1224.553943,6143.709319,-6883.915261,0.000000
1224.554272,6439.791695,-6291.750507,76.609550
1224.554601,6809.894666,-6883.915261,1149.143247
1224.554930,7105.977043,-7550.100608,1072.533697
1224.555260,6957.935855,-7254.018232,1762.019645
1224.555589,7476.080014,-5995.668130,1991.848295
1224.555918,8290.306550,-5847.626942,2145.067394
1224.556247,8364.327145,-5255.462188,2987.772442
1224.556576,8364.327145,-4737.318029,2298.286494
1224.556906,8290.306550,-3923.091493,1532.190996
1224.557235,7846.182985,-3627.009116,612.876398
1224.557564,7179.997637,-5107.421000,536.266849
1224.557893,6957.935855,-5255.462188,383.047749
1224.558222,6809.894666,-5625.565159,0.000000
1224.558552,7402.059420,-6217.729913,0.000000
1224.558881,7179.997637,-7254.018232,1072.533697
1224.559210,7624.121203,-7846.182985,1608.800546
1224.559539,7179.997637,-7920.203579,1302.362347
1224.559869,6587.832884,-7994.224174,1149.143247
1224.560198,5995.668130,-7772.162391,842.705048
1224.560527,5995.668130,-7994.224174,612.876398
1224.560856,6069.688724,-8364.327145,1302.362347
1224.561185,6217.729913,-7031.956449,459.657299
1224.561515,6069.688724,-5773.606348,306.438199
1224.561844,6143.709319,-5921.647536,842.705048
1224.562173,6883.915261,-6735.874072,919.314598
1224.562502,6957.935855,-6143.709319,1378.971896
1224.562831,6661.853478,-6291.750507,995.924147
1224.563161,7254.018232,-5255.462188,1302.362347
1224.563490,7624.121203,-5847.626942,2145.067394
1224.563819,7994.224174,-7179.997637,1608.800546
1224.564148,7402.059420,-6513.812290,1378.971896
1224.564477,6957.935855,-6217.729913,1149.143247
1224.564806,6957.935855,-6439.791695,995.924147
1224.565136,7402.059420,-5847.626942,1225.752797
1224.565465,7698.141797,-6439.791695,1149.143247
1224.565794,7846.182985,-5773.606348,1072.533697
1224.566123,7105.977043,-5773.606348,842.705048
1224.566452,7031.956449,-6735.874072,842.705048
1224.566781,7105.977043,-6439.791695,1302.362347
1224.567111,7402.059420,-6513.812290,1532.190996
1224.567440,7402.059420,-6809.894666,1915.238745
1224.567769,7550.100608,-6883.915261,1838.629195
1224.568098,7550.100608,-6513.812290,1532.190996
1224.568427,6661.853478,-6883.915261,1149.143247
1224.568756,5847.626942,-6883.915261,383.047749
1224.569085,5255.462188,-6809.894666,-306.438199
1224.569415,5107.421000,-7476.080014,-306.438199
1224.569744,5403.503377,-7179.997637,536.266849
1224.570073,5699.585753,-8216.285956,383.047749
1224.570402,6439.791695,-6883.915261,995.924147
1224.570731,6365.771101,-6957.935855,919.314598
1224.571060,7031.956449,-7698.141797,1532.190996
1224.571390,7328.038826,-6883.915261,2145.067394
1224.571719,7624.121203,-6513.812290,1762.019645
1224.572048,7994.224174,-5921.647536,2298.286494
1224.572377,8364.327145,-5107.421000,2068.457845
1224.572706,8290.306550,-4737.318029,1915.238745
1224.573035,8438.347739,-4219.173869,842.705048
1224.573365,7994.224174,-3997.112087,0.000000
1224.573694,8068.244768,-5255.462188,383.047749
1224.574023,8586.388927,-5181.441594,612.876398
1224.574352,7772.162391,-5625.565159,612.876398
1224.574681,6439.791695,-6883.915261,536.266849
1224.575010,6217.729913,-7698.141797,1225.752797
1224.575340,6661.853478,-8364.327145,1225.752797
1224.575669,6809.894666,-8808.450710,1915.238745
1224.575998,6291.750507,-9104.533087,1762.019645
1224.576327,5699.585753,-8660.409521,1225.752797
1224.576656,5255.462188,-7698.141797,1149.143247
1224.576985,5329.482782,-7328.038826,536.266849
1224.577314,5699.585753,-6735.874072,0.000000
1224.577644,6143.709319,-6069.688724,153.219100
1224.577973,6513.812290,-5921.647536,536.266849
1224.578302,7031.956449,-5699.585753,689.485948
1224.578631,7105.977043,-4663.297435,1532.190996
1224.578960,7846.182985,-5255.462188,1149.143247
1224.579289,8216.285956,-5699.585753,1685.410096
1224.579619,7698.141797,-5625.565159,1838.629195
1224.579948,7772.162391,-6143.709319,1838.629195
1224.580277,7846.182985,-6143.709319,1915.238745
1224.580606,7105.977043,-6217.729913,1225.752797
1224.580935,6809.894666,-5995.668130,1149.143247
1224.581264,6809.894666,-6513.812290,995.924147
1224.581594,7328.038826,-6217.729913,766.095498
1224.581923,7328.038826,-6439.791695,842.705048
1224.582252,7105.977043,-6291.750507,842.705048
1224.582581,6883.915261,-6513.812290,1225.752797
1224.582910,7328.038826,-6587.832884,1455.581446
1224.583239,7846.182985,-6809.894666,2374.896044
1224.583569,7772.162391,-6735.874072,2068.457845
1224.583898,7328.038826,-6735.874072,1608.800546
1224.584227,6661.853478,-6735.874072,919.314598
1224.584556,6439.791695,-7179.997637,1149.143247
1224.584885,6143.709319,-7328.038826,1455.581446
1224.585214,5551.544565,-7328.038826,0.000000
1224.585543,5181.441594,-7476.080014,-383.047749
1224.585873,5625.565159,-7254.018232,0.000000
1224.586202,6439.791695,-8512.368333,459.657299
1224.586531,6809.894666,-7994.224174,1302.362347
1224.586860,6439.791695,-7698.141797,1455.581446
1224.587189,6661.853478,-7772.162391,1149.143247
1224.587518,6735.874072,-7031.956449,1455.581446
1224.587848,7328.038826,-7031.956449,1302.362347
1224.588177,7772.162391,-5847.626942,1838.629195
1224.588506,8290.306550,-4663.297435,1072.533697
1224.588835,8438.347739,-4589.276840,1149.143247
1224.589164,8290.306550,-4071.132681,1149.143247
1224.589493,8364.327145,-3478.967927,536.266849
1224.589823,8364.327145,-4441.235652,229.828649
1224.590152,7920.203579,-4737.318029,459.657299
1224.590481,7179.997637,-6661.853478,689.485948
1224.590810,7254.018232,-7920.203579,842.705048
1224.591139,6587.832884,-7772.162391,1608.800546
1224.591468,6365.771101,-8290.306550,1532.190996
1224.591798,5995.668130,-8290.306550,1455.581446
1224.592127,5477.523971,-9030.512492,1455.581446
1224.592456,5181.441594,-8586.388927,612.876398
1224.592785,4885.359217,-7476.080014,229.828649
1224.593114,5255.462188,-7031.956449,0.000000
1224.593443,5847.626942,-6439.791695,0.000000
1224.593772,6957.935855,-6365.771101,153.219100
1224.594102,7328.038826,-5403.503377,995.924147
1224.594431,8216.285956,-5033.400406,1302.362347
1224.594760,8142.265362,-5033.400406,1149.143247
1224.595089,8290.306550,-5255.462188,1608.800546
1224.595418,8660.409521,-5995.668130,2298.286494
1224.595747,8216.285956,-6217.729913,1838.629195
1224.596077,7550.100608,-6439.791695,1608.800546
1224.596406,7105.977043,-6291.750507,1838.629195
1224.596735,7254.018232,-6217.729913,1608.800546
1224.597064,7105.977043,-6365.771101,842.705048
1224.597393,6365.771101,-6143.709319,536.266849
1224.597722,5995.668130,-7031.956449,383.047749
1224.598052,6291.750507,-7179.997637,919.314598
1224.598381,6365.771101,-6217.729913,459.657299
1224.598710,6217.729913,-6735.874072,1072.533697
1224.599039,7254.018232,-6217.729913,1378.971896
1224.599368,7772.162391,-7179.997637,2068.457845
1224.599697,7846.182985,-6957.935855,2068.457845
1224.600027,7846.182985,-7105.977043,2374.896044
1224.600356,7105.977043,-6809.894666,1225.752797
1224.600685,6809.894666,-7179.997637,383.047749
1224.601014,5847.626942,-7105.977043,229.828649
1224.601343,5773.606348,-7328.038826,-383.047749
1224.601672,6217.729913,-7402.059420,-229.828649
1224.602001,5995.668130,-7624.121203,536.266849
1224.602331,6069.688724,-7920.203579,459.657299
1224.602660,5921.647536,-7402.059420,612.876398
1224.602989,5477.523971,-6957.935855,842.705048
1224.603318,5921.647536,-7476.080014,1149.143247
1224.603647,7179.997637,-6439.791695,1838.629195
1224.603976,7994.224174,-6143.709319,2145.067394
1224.604306,8734.430116,-4737.318029,2068.457845
1224.604635,8438.347739,-4145.153275,1762.019645
1224.604964,8956.491898,-4515.256246,1762.019645
1224.605293,8512.368333,-3627.009116,612.876398
1224.605622,7920.203579,-4071.132681,842.705048
1224.605951,7920.203579,-5181.441594,689.485948
1224.606281,7402.059420,-6217.729913,383.047749
1224.606610,5995.668130,-7772.162391,766.095498
1224.606939,5847.626942,-8586.388927,1149.143247
1224.607268,6143.709319,-8882.471304,1149.143247
1224.607597,5995.668130,-8438.347739,1225.752797
1224.607926,5403.503377,-9252.574275,1378.971896
1224.608256,5181.441594,-8068.244768,766.095498
1224.608585,6069.688724,-7476.080014,689.485948
1224.608914,5921.647536,-7254.018232,766.095498
1224.609243,6069.688724,-6143.709319,612.876398
1224.609572,7031.956449,-5329.482782,229.828649
1224.609901,8216.285956,-4959.379811,689.485948
1224.610230,8364.327145,-4885.359217,1072.533697
1224.610560,8808.450710,-5181.441594,1608.800546
1224.610889,8660.409521,-4959.379811,1685.410096
1224.611218,8364.327145,-5181.441594,1532.190996
1224.611547,7994.224174,-5773.606348,1762.019645
1224.611876,7402.059420,-6957.935855,1838.629195
1224.612205,7031.956449,-7254.018232,1225.752797
1224.612535,6069.688724,-7105.977043,919.314598
1224.612864,5699.585753,-6365.771101,689.485948
1224.613193,6143.709319,-6809.894666,383.047749
1224.613522,6661.853478,-6439.791695,536.266849
1224.613851,6735.874072,-6587.832884,612.876398
1224.614180,6587.832884,-6291.750507,995.924147
1224.614510,6365.771101,-6143.709319,919.314598
1224.614839,7031.956449,-6513.812290,612.876398
1224.615168,7698.141797,-5995.668130,1838.629195
1224.615497,8734.430116,-6809.894666,2451.505594
1224.615826,8734.430116,-7179.997637,1838.629195
1224.616155,7550.100608,-6365.771101,1608.800546
1224.616485,6735.874072,-6661.853478,919.314598
1224.616814,5625.565159,-7105.977043,536.266849
1224.617143,5255.462188,-7328.038826,0.000000
1224.617472,4737.318029,-7402.059420,-919.314598
1224.617801,4885.359217,-7772.162391,0.000000
1224.618130,6143.709319,-7698.141797,1072.533697
1224.618459,6217.729913,-7328.038826,76.609550
1224.618789,6217.729913,-6735.874072,995.924147
1224.619118,6735.874072,-7031.956449,1302.362347
1224.619447,7846.182985,-6587.832884,1762.019645
1224.619776,7846.182985,-5921.647536,2145.067394
1224.620105,8586.388927,-5921.647536,2451.505594
1224.620434,8290.306550,-4959.379811,1838.629195
1224.620764,8512.368333,-4737.318029,1685.410096
1224.621093,7846.182985,-4293.194464,1149.143247
1224.621422,7624.121203,-5033.400406,842.705048
1224.621751,7402.059420,-5551.544565,459.657299
1224.622080,7179.997637,-6513.812290,229.828649
1224.622409,6809.894666,-6809.894666,612.876398
1224.622739,6439.791695,-7476.080014,459.657299
1224.623068,6069.688724,-8216.285956,536.266849
1224.623397,5847.626942,-8512.368333,1378.971896
1224.623726,6217.729913,-8660.409521,1302.362347
1224.624055,6661.853478,-8364.327145,1608.800546
1224.624384,6439.791695,-7476.080014,612.876398
1224.624714,6291.750507,-7476.080014,766.095498
1224.625043,6735.874072,-6883.915261,842.705048
1224.625372,6809.894666,-5477.523971,306.438199
1224.625701,6957.935855,-5551.544565,0.000000
1224.626030,7105.977043,-5329.482782,306.438199
1224.626359,7402.059420,-5773.606348,842.705048
1224.626688,7772.162391,-6069.688724,1302.362347
1224.627018,7550.100608,-5403.503377,2145.067394
1224.627347,7328.038826,-6143.709319,1762.019645
1224.627676,7179.997637,-6217.729913,1608.800546
1224.628005,6587.832884,-6439.791695,1685.410096
1224.628334,6587.832884,-7105.977043,1149.143247
1224.628663,6957.935855,-6513.812290,536.266849
1224.628993,6957.935855,-5847.626942,536.266849
1224.629322,7254.018232,-6069.688724,919.314598
1224.629651,7624.121203,-5255.462188,919.314598
1224.629980,7846.182985,-6217.729913,1149.143247
1224.630309,7476.080014,-5773.606348,1149.143247
1224.630638,6809.894666,-5995.668130,919.314598
1224.630968,7550.100608,-6513.812290,995.924147
1224.631297,8216.285956,-6957.935855,1915.238745
1224.631626,7994.224174,-7105.977043,2681.334243
1224.631955,7402.059420,-7550.100608,1838.629195
1224.632284,6143.709319,-7550.100608,1225.752797
1224.632613,5403.503377,-7328.038826,612.876398
1224.632943,5033.400406,-7698.141797,306.438199
1224.633272,5181.441594,-6809.894666,-153.219100
1224.633601,4959.379811,-7476.080014,0.000000
1224.633930,5255.462188,-7476.080014,229.828649
1224.634259,5699.585753,-6809.894666,459.657299
1224.634588,5847.626942,-7550.100608,612.876398
1224.634917,6587.832884,-6809.894666,1455.581446
1224.635247,7179.997637,-7254.018232,2298.286494
1224.635576,7920.203579,-6957.935855,2298.286494
1224.635905,8364.327145,-5921.647536,2298.286494
1224.636234,8364.327145,-5403.503377,2374.896044
1224.636563,8734.430116,-5181.441594,1455.581446
1224.636892,8290.306550,-4885.359217,1455.581446
1224.637222,8216.285956,-4515.256246,842.705048
1224.637551,7328.038826,-4959.379811,459.657299
1224.637880,6735.874072,-5107.421000,0.000000
1224.638209,7105.977043,-7031.956449,153.219100
1224.638538,6957.935855,-6809.894666,229.828649
1224.638867,6365.771101,-7328.038826,459.657299
1224.639197,5477.523971,-8660.409521,1225.752797
1224.639526,6291.750507,-8216.285956,1302.362347
1224.639855,6809.894666,-8808.450710,1685.410096
1224.640184,6735.874072,-7846.182985,1455.581446
1224.640513,6291.750507,-7476.080014,919.314598
1224.640842,6439.791695,-6957.935855,1302.362347
1224.641172,6143.709319,-6513.812290,459.657299
1224.641501,5995.668130,-5921.647536,229.828649
1224.641830,6957.935855,-5847.626942,306.438199
1224.642159,7402.059420,-5255.462188,766.095498
1224.642488,7550.100608,-5995.668130,1225.752797
1224.642817,7328.038826,-5921.647536,1532.190996
1224.643146,7476.080014,-5773.606348,1149.143247
1224.643476,7402.059420,-6217.729913,1378.971896
1224.643805,7476.080014,-6143.709319,1378.971896
1224.644134,7476.080014,-6217.729913,1455.581446
1224.644463,7328.038826,-6439.791695,1302.362347
1224.644792,7105.977043,-6291.750507,1225.752797
1224.645121,6957.935855,-6069.688724,842.705048
1224.645451,7105.977043,-6217.729913,306.438199
1224.645780,7105.977043,-6069.688724,689.485948
1224.646109,6957.935855,-6291.750507,536.266849
1224.646438,6809.894666,-6661.853478,995.924147
1224.646767,7328.038826,-5551.544565,766.095498
1224.647096,7920.203579,-6735.874072,1685.410096
1224.647426,8586.388927,-5773.606348,2221.676944
1224.647755,7920.203579,-6661.853478,2068.457845
1224.648084,7031.956449,-6809.894666,1608.800546
1224.648413,6439.791695,-6513.812290,919.314598
1224.648742,5699.585753,-6883.915261,306.438199
1224.649071,5773.606348,-7328.038826,153.219100
1224.649400,5551.544565,-7920.203579,76.609550
1224.649730,5625.565159,-7624.121203,229.828649
1224.650059,5403.503377,-7846.182985,459.657299
1224.650388,5551.544565,-7550.100608,995.924147
1224.650717,6143.709319,-7402.059420,612.876398
1224.651046,6809.894666,-7698.141797,1762.019645
1224.651375,7476.080014,-7254.018232,2145.067394
1224.651705,7698.141797,-6217.729913,1608.800546
1224.652034,7772.162391,-5625.565159,1762.019645
1224.652363,7846.182985,-4589.276840,1225.752797
1224.652692,8216.285956,-4811.338623,1149.143247
1224.653021,8882.471304,-3923.091493,1225.752797
1224.653350,8808.450710,-4071.132681,766.095498
1224.653680,8216.285956,-4737.318029,612.876398
1224.654009,8512.368333,-4367.215058,1072.533697
1224.654338,7994.224174,-6513.812290,1225.752797
1224.654667,7105.977043,-6735.874072,1072.533697
1224.654996,6291.750507,-8068.244768,1149.143247
1224.655325,6217.729913,-9400.615463,1685.410096
1224.655655,6513.812290,-8734.430116,1762.019645
1224.655984,5847.626942,-9400.615463,1608.800546
1224.656313,5255.462188,-8438.347739,1149.143247
1224.656642,5181.441594,-8068.244768,536.266849
1224.656971,4737.318029,-7476.080014,0.000000
1224.657300,5625.565159,-6291.750507,153.219100
1224.657629,6661.853478,-5551.544565,0.000000
1224.657959,7624.121203,-5551.544565,689.485948
1224.658288,7994.224174,-5181.441594,1149.143247
1224.658617,8142.265362,-4959.379811,919.314598
1224.658946,8586.388927,-5033.400406,919.314598
1224.659275,8586.388927,-6217.729913,1915.238745
1224.659604,8364.327145,-6513.812290,1991.848295
1224.659934,7920.203579,-6587.832884,1685.410096
1224.660263,7105.977043,-6661.853478,919.314598
1224.660592,6513.812290,-6439.791695,842.705048
1224.660921,6513.812290,-6587.832884,1072.533697
1224.661250,6809.894666,-6291.750507,842.705048
1224.661579,6735.874072,-6143.709319,383.047749
1224.661909,6069.688724,-6143.709319,153.219100
1224.662238,6513.812290,-5995.668130,306.438199
1224.662567,6809.894666,-6513.812290,1455.581446
1224.662896,7550.100608,-5773.606348,1532.190996
1224.663225,7624.121203,-6143.709319,2068.457845
1224.663554,7920.203579,-5403.503377,2681.334243
1224.663884,7402.059420,-7105.977043,1608.800546
1224.664213,7105.977043,-7550.100608,1455.581446
1224.664542,6587.832884,-7994.224174,1302.362347
1224.664871,6439.791695,-7105.977043,536.266849
1224.665200,6365.771101,-7624.121203,0.000000
1224.665530,5477.523971,-7920.203579,76.609550
1224.665859,5551.544565,-8512.368333,0.000000
1224.666188,5921.647536,-7772.162391,153.219100
1224.666517,6143.709319,-6957.935855,306.438199
1224.666847,6291.750507,-7402.059420,842.705048
1224.667176,6661.853478,-6513.812290,1225.752797
1224.667505,7105.977043,-5921.647536,1685.410096
1224.667834,7402.059420,-6069.688724,1838.629195
1224.668164,8142.265362,-5033.400406,2451.505594
1224.668493,8882.471304,-4515.256246,1378.971896
1224.668822,8808.450710,-3997.112087,1532.190996
1224.669151,8586.388927,-4219.173869,1302.362347
1224.669480,8438.347739,-5329.482782,1455.581446
1224.669810,7698.141797,-5921.647536,919.314598
1224.670139,7105.977043,-6069.688724,1072.533697
1224.670468,6587.832884,-7179.997637,842.705048
1224.670797,6365.771101,-7994.224174,919.314598
1224.671127,5773.606348,-8882.471304,1455.581446
1224.671456,5995.668130,-9030.512492,1685.410096
1224.671785,5995.668130,-7846.182985,1455.581446
1224.672114,6291.750507,-7772.162391,1072.533697
1224.672444,5477.523971,-7105.977043,1455.581446
1224.672773,5699.585753,-7328.038826,689.485948
1224.673102,6217.729913,-5995.668130,153.219100
1224.673431,6513.812290,-5403.503377,-229.828649
1224.673761,7105.977043,-5477.523971,229.828649
1224.674090,8068.244768,-5995.668130,1225.752797
1224.674419,8364.327145,-5329.482782,1072.533697
1224.674748,7994.224174,-5403.503377,1149.143247
1224.675078,7476.080014,-6735.874072,1378.971896
1224.675407,7550.100608,-7031.956449,2451.505594
1224.675736,7624.121203,-7402.059420,2068.457845
1224.676065,6883.915261,-6809.894666,1302.362347
1224.676394,5995.668130,-7031.956449,1532.190996
1224.676724,5995.668130,-6883.915261,766.095498
1224.677053,5773.606348,-5921.647536,766.095498
1224.677382,6217.729913,-5921.647536,612.876398
1224.677711,7031.956449,-5773.606348,612.876398
1224.678041,6957.935855,-5551.544565,842.705048
1224.678370,6735.874072,-6069.688724,612.876398
1224.678699,7254.018232,-6513.812290,612.876398
1224.679028,7402.059420,-6069.688724,919.314598
1224.679358,7994.224174,-6439.791695,1762.019645
1224.679687,8438.347739,-6883.915261,2298.286494
1224.680016,7920.203579,-7031.956449,1378.971896
1224.680345,7402.059420,-7698.141797,1378.971896
1224.680675,5995.668130,-7550.100608,689.485948
1224.681004,5551.544565,-7328.038826,229.828649
1224.681333,5625.565159,-7624.121203,536.266849
1224.681662,5625.565159,-7624.121203,536.266849
1224.681991,5921.647536,-6809.894666,0.000000
1224.682321,5773.606348,-6957.935855,153.219100
1224.682650,6143.709319,-7105.977043,766.095498
1224.682979,6735.874072,-7105.977043,1455.581446
1224.683308,7254.018232,-6809.894666,1685.410096
1224.683638,7476.080014,-5773.606348,1608.800546
1224.683967,7920.203579,-6217.729913,1838.629195
1224.684296,8290.306550,-5995.668130,2221.676944
1224.684625,8882.471304,-5181.441594,1915.238745
1224.684955,8660.409521,-4367.215058,1072.533697
1224.685284,8216.285956,-4145.153275,1302.362347
1224.685613,7402.059420,-5551.544565,842.705048
1224.685942,7179.997637,-6809.894666,1149.143247
1224.686272,6957.935855,-5847.626942,919.314598
1224.686601,5921.647536,-7624.121203,306.438199
1224.686930,5995.668130,-7624.121203,459.657299
1224.687259,6069.688724,-8512.368333,1225.752797
1224.687588,7105.977043,-8586.388927,1455.581446
1224.687918,6809.894666,-7698.141797,1532.190996
1224.688247,6069.688724,-7698.141797,1149.143247
1224.688576,5995.668130,-7476.080014,459.657299
1224.688905,6217.729913,-6513.812290,459.657299
1224.689235,6439.791695,-5921.647536,306.438199
1224.689564,7105.977043,-5477.523971,995.924147
1224.689893,8068.244768,-4737.318029,919.314598
1224.690222,8512.368333,-5181.441594,689.485948
1224.690552,7994.224174,-4293.194464,1915.238745
1224.690881,7920.203579,-5773.606348,1149.143247
1224.691210,7698.141797,-6735.874072,1915.238745
1224.691539,7105.977043,-6883.915261,2068.457845
1224.691869,6587.832884,-7402.059420,1838.629195
1224.692198,6217.729913,-6069.688724,1149.143247
1224.692527,6217.729913,-7328.038826,1378.971896
1224.692856,6291.750507,-7031.956449,919.314598
1224.693186,6661.853478,-6661.853478,766.095498
1224.693515,6513.812290,-5255.462188,229.828649
1224.693844,7254.018232,-5033.400406,306.438199
1224.694173,7179.997637,-5551.544565,459.657299
1224.694502,7402.059420,-6365.771101,842.705048
1224.694832,7994.224174,-6217.729913,995.924147
1224.695161,8142.265362,-5847.626942,1838.629195
1224.695490,8290.306550,-6883.915261,1915.238745
1224.695819,7772.162391,-7772.162391,2221.676944
1224.696149,7328.038826,-7550.100608,1762.019645
1224.696478,6439.791695,-7624.121203,459.657299
1224.696807,5403.503377,-7254.018232,612.876398
1224.697136,5403.503377,-7624.121203,153.219100
1224.697466,5255.462188,-7846.182985,0.000000
1224.697795,4959.379811,-7402.059420,229.828649
1224.698124,5107.421000,-7105.977043,153.219100
1224.698453,5773.606348,-7254.018232,536.266849
1224.698783,6809.894666,-7254.018232,1225.752797
1224.699112,7254.018232,-6883.915261,1991.848295
1224.699441,7772.162391,-5921.647536,1532.190996
1224.699770,7772.162391,-5699.585753,919.314598
1224.700099,7994.224174,-5921.647536,1991.848295
1224.700429,8734.430116,-5921.647536,2451.505594
1224.700758,8660.409521,-4737.318029,1608.800546
1224.701087,8142.265362,-4219.173869,766.095498
1224.701416,7402.059420,-4589.276840,1455.581446
1224.701746,7624.121203,-6291.750507,459.657299
1224.702075,7476.080014,-6809.894666,766.095498
1224.702404,6217.729913,-6365.771101,0.000000
1224.702733,5921.647536,-7550.100608,0.000000
1224.703063,5551.544565,-8512.368333,689.485948
1224.703392,5847.626942,-8660.409521,1149.143247
1224.703721,6143.709319,-8364.327145,1608.800546
1224.704050,6439.791695,-7624.121203,1455.581446
1224.704380,7105.977043,-7179.997637,1685.410096
1224.704709,6587.832884,-6735.874072,1225.752797
1224.705038,6735.874072,-6069.688724,919.314598
1224.705367,7105.977043,-5477.523971,153.219100
1224.705697,6957.935855,-5107.421000,0.000000
1224.706026,7402.059420,-5255.462188,306.438199
1224.706355,7550.100608,-5107.421000,612.876398
1224.706684,7846.182985,-5625.565159,1302.362347
1224.707013,7550.100608,-6439.791695,1838.629195
1224.707343,7031.956449,-6883.915261,1991.848295
1224.707672,6883.915261,-7179.997637,1838.629195
1224.708001,6661.853478,-7476.080014,1532.190996
1224.708330,6809.894666,-6587.832884,1455.581446
1224.708660,6513.812290,-6587.832884,1072.533697
1224.708989,6513.812290,-5921.647536,689.485948
1224.709318,6365.771101,-6217.729913,383.047749
1224.709647,7328.038826,-5329.482782,536.266849
1224.709977,7846.182985,-5181.441594,612.876398
1224.710306,8068.244768,-5773.606348,612.876398
1224.710635,7772.162391,-5329.482782,995.924147
1224.710964,7772.162391,-6217.729913,1302.362347
1224.711294,8142.265362,-6217.729913,1838.629195
1224.711623,8216.285956,-7179.997637,1991.848295
1224.711952,7772.162391,-7476.080014,1838.629195
1224.712281,6809.894666,-7550.100608,1608.800546
1224.712610,5329.482782,-7846.182985,536.266849
1224.712940,4737.318029,-7920.203579,0.000000
1224.713269,4367.215058,-7994.224174,0.000000
1224.713598,4959.379811,-7772.162391,-306.438199
1224.713927,5181.441594,-7105.977043,-153.219100
1224.714257,5329.482782,-7105.977043,0.000000
1224.714586,6143.709319,-7476.080014,842.705048
1224.714915,7624.121203,-7328.038826,1762.019645
1224.715244,7920.203579,-7031.956449,1685.410096
1224.715574,7846.182985,-5995.668130,2221.676944
1224.715903,8290.306550,-5477.523971,1991.848295
1224.716232,8808.450710,-5551.544565,2145.067394
1224.716561,9104.533087,-5329.482782,2068.457845
1224.716891,8142.265362,-4515.256246,919.314598
1224.717220,8068.244768,-3775.050304,536.266849
1224.717549,7624.121203,-5033.400406,689.485948
1224.717878,7476.080014,-5403.503377,383.047749
1224.718208,6439.791695,-6809.894666,919.314598
1224.718537,6735.874072,-6735.874072,842.705048
1224.718866,5921.647536,-8068.244768,612.876398
1224.719195,6217.729913,-8586.388927,1455.581446
1224.719524,6439.791695,-8438.347739,1685.410096
1224.719854,6365.771101,-7994.224174,1532.190996
1224.720183,6143.709319,-7772.162391,1378.971896
1224.720512,6439.791695,-7624.121203,1455.581446
1224.720841,7105.977043,-6587.832884,919.314598
1224.721171,6661.853478,-5921.647536,459.657299
1224.721500,6735.874072,-5477.523971,76.609550
1224.721829,7105.977043,-5477.523971,536.266849
1224.722158,7698.141797,-5625.565159,459.657299
1224.722488,7550.100608,-5329.482782,612.876398
1224.722817,7254.018232,-5773.606348,1225.752797
1224.723146,7328.038826,-7105.977043,1532.190996
1224.723475,7476.080014,-7624.121203,2145.067394
1224.723805,7179.997637,-7031.956449,1532.190996
1224.724134,6809.894666,-7254.018232,1455.581446
1224.724463,6735.874072,-7179.997637,1072.533697
1224.724792,6291.750507,-6883.915261,766.095498
1224.725121,6291.750507,-6661.853478,536.266849
1224.725451,6661.853478,-5477.523971,995.924147
1224.725780,7624.121203,-5107.421000,459.657299
1224.726109,7476.080014,-5403.503377,1302.362347
1224.726438,7031.956449,-5551.544565,766.095498
1224.726768,7846.182985,-5699.585753,1378.971896
1224.727097,8512.368333,-6291.750507,1838.629195
1224.727426,7698.141797,-6439.791695,2068.457845
1224.727755,7031.956449,-7550.100608,2068.457845
1224.728085,6809.894666,-7105.977043,1532.190996
1224.728414,5921.647536,-7772.162391,1225.752797
1224.728743,5033.400406,-7402.059420,612.876398
1224.729072,4811.338623,-7254.018232,153.219100
1224.729402,4885.359217,-7550.100608,-306.438199
1224.729731,5329.482782,-7179.997637,-229.828649
1224.730060,5403.503377,-6809.894666,459.657299
1224.730389,6217.729913,-7105.977043,0.000000
1224.730718,6809.894666,-7105.977043,1225.752797
1224.731048,7624.121203,-6957.935855,1532.190996
1224.731377,7994.224174,-6587.832884,2374.896044
1224.731706,8068.244768,-5403.503377,2145.067394
1224.732035,8364.327145,-5773.606348,1762.019645
1224.732365,8290.306550,-5255.462188,1838.629195
1224.732694,8438.347739,-4663.297435,1838.629195
1224.733023,8808.450710,-3849.070898,689.485948
1224.733352,8142.265362,-3849.070898,919.314598
1224.733682,7550.100608,-5033.400406,689.485948
1224.734011,7402.059420,-5773.606348,536.266849
1224.734340,6957.935855,-6291.750507,306.438199
1224.734669,6439.791695,-6957.935855,383.047749
1224.734999,6365.771101,-8364.327145,995.924147
1224.735328,6587.832884,-8956.491898,1455.581446
1224.735657,6809.894666,-8734.430116,1532.190996
1224.735986,5921.647536,-8290.306550,1838.629195
1224.736316,5847.626942,-8216.285956,1149.143247
1224.736645,5921.647536,-7994.224174,612.876398
1224.736974,5921.647536,-7179.997637,383.047749
1224.737303,5921.647536,-5995.668130,0.000000
1224.737632,6809.894666,-5477.523971,459.657299
1224.737962,8068.244768,-5107.421000,842.705048
1224.738291,7402.059420,-4885.359217,919.314598
1224.738620,7846.182985,-5403.503377,842.705048
1224.738949,7624.121203,-5181.441594,1455.581446
1224.739279,7772.162391,-5921.647536,1149.143247
1224.739608,7476.080014,-7105.977043,1685.410096
1224.739937,7105.977043,-7031.956449,1378.971896
1224.740266,6809.894666,-7179.997637,1225.752797
1224.740596,6439.791695,-6069.688724,1455.581446
1224.740925,6217.729913,-6809.894666,1149.143247
1224.741254,6809.894666,-7105.977043,1225.752797
1224.741583,7105.977043,-5773.606348,919.314598
1224.741913,6661.853478,-5847.626942,995.924147
1224.742242,7031.956449,-5107.421000,995.924147
1224.742571,6957.935855,-5773.606348,1072.533697
1224.742900,7402.059420,-6069.688724,1455.581446
1224.743229,7476.080014,-6217.729913,1532.190996
1224.743559,7624.121203,-5847.626942,1532.190996
1224.743888,7402.059420,-7476.080014,1378.971896
1224.744217,6883.915261,-7772.162391,2068.457845
1224.744546,5847.626942,-8438.347739,766.095498
1224.744876,5551.544565,-8068.244768,76.609550
1224.745205,4959.379811,-8290.306550,0.000000
1224.745534,4737.318029,-8068.244768,0.000000
1224.745863,5773.606348,-7846.182985,153.219100
1224.746193,6069.688724,-7105.977043,76.609550
1224.746522,6809.894666,-6661.853478,536.266849
1224.746851,6735.874072,-6883.915261,1072.533697
1224.747180,7179.997637,-6291.750507,1532.190996
1224.747510,7402.059420,-5847.626942,1685.410096
1224.747839,7846.182985,-5107.421000,2145.067394
1224.748168,8586.388927,-4737.318029,2145.067394
1224.748497,9400.615463,-4367.215058,2298.286494
1224.748827,9178.553681,-4145.153275,2145.067394
1224.749156,8512.368333,-3627.009116,1302.362347
1224.749485,7698.141797,-4515.256246,536.266849
1224.749814,7328.038826,-5403.503377,536.266849
1224.750143,7105.977043,-6957.935855,383.047749
1224.750473,6883.915261,-7698.141797,689.485948
1224.750802,5995.668130,-8290.306550,689.485948
1224.751131,5699.585753,-8882.471304,919.314598
1224.751460,5625.565159,-8364.327145,1762.019645
1224.751790,6291.750507,-8660.409521,1072.533697
1224.752119,6291.750507,-8290.306550,995.924147
1224.752448,6291.750507,-7920.203579,1302.362347
1224.752777,6365.771101,-7402.059420,766.095498
1224.753107,6513.812290,-6069.688724,153.219100
1224.753436,6809.894666,-5033.400406,0.000000
1224.753765,7105.977043,-5181.441594,153.219100
1224.754094,8290.306550,-5477.523971,1455.581446
1224.754424,8734.430116,-5181.441594,1302.362347
1224.754753,8290.306550,-5477.523971,1762.019645
1224.755082,7846.182985,-5699.585753,1302.362347
1224.755411,7254.018232,-7031.956449,2068.457845
1224.755740,6735.874072,-7179.997637,2528.115143
1224.756070,6513.812290,-7179.997637,1838.629195
1224.756399,5995.668130,-7105.977043,1149.143247
1224.756728,5847.626942,-6291.750507,919.314598
1224.757057,5995.668130,-6365.771101,995.924147
1224.757387,6735.874072,-6809.894666,842.705048
1224.757716,7105.977043,-5699.585753,1149.143247
1224.758045,7105.977043,-5255.462188,612.876398
1224.758374,7031.956449,-5477.523971,306.438199
1224.758704,6957.935855,-5551.544565,1455.581446
1224.759033,8142.265362,-6661.853478,1455.581446
1224.759362,8956.491898,-6883.915261,2068.457845
1224.759691,8216.285956,-7179.997637,2604.724693
1224.760021,7624.121203,-7698.141797,1915.238745
1224.760350,6809.894666,-7179.997637,2068.457845
1224.760679,5921.647536,-7698.141797,612.876398
1224.761008,4663.297435,-8068.244768,76.609550
1224.761338,4663.297435,-7624.121203,0.000000
1224.761667,5181.441594,-7550.100608,-306.438199
1224.761996,5625.565159,-7105.977043,306.438199
1224.762325,5995.668130,-6513.812290,459.657299
1224.762654,5995.668130,-6957.935855,1149.143247
1224.762984,6735.874072,-6735.874072,1685.410096
1224.763313,7476.080014,-6587.832884,1762.019645
1224.763642,7624.121203,-5847.626942,1608.800546
1224.763971,8364.327145,-5033.400406,1991.848295
1224.764301,9030.512492,-4959.379811,2298.286494
1224.764630,9178.553681,-4515.256246,1838.629195
1224.764959,8734.430116,-4441.235652,1225.752797
1224.765288,8290.306550,-4441.235652,919.314598
1224.765618,8068.244768,-4959.379811,612.876398
1224.765947,7179.997637,-5477.523971,766.095498
1224.766276,6513.812290,-5995.668130,1072.533697
1224.766605,6143.709319,-7179.997637,306.438199
1224.766934,5699.585753,-7920.203579,383.047749
1224.767264,5847.626942,-8734.430116,1072.533697
1224.767593,6291.750507,-8734.430116,1149.143247
1224.767922,5699.585753,-7920.203579,612.876398
1224.768251,5107.421000,-8512.368333,689.485948
1224.768581,5551.544565,-7698.141797,612.876398
1224.768910,6735.874072,-7105.977043,536.266849
1224.769239,6513.812290,-6217.729913,536.266849
1224.769568,7328.038826,-5477.523971,612.876398
1224.769897,7920.203579,-5477.523971,536.266849
1224.770227,8290.306550,-5625.565159,1378.971896
1224.770556,7994.224174,-5551.544565,1915.238745
1224.770885,7772.162391,-5699.585753,1915.238745
1224.771214,7624.121203,-6217.729913,1838.629195
1224.771543,6809.894666,-6587.832884,1532.190996
1224.771873,6735.874072,-7254.018232,1762.019645
1224.772202,6735.874072,-6883.915261,1455.581446
1224.772531,6143.709319,-6513.812290,1149.143247
1224.772860,6365.771101,-6217.729913,919.314598
1224.773189,6809.894666,-6365.771101,612.876398
1224.773519,7254.018232,-6217.729913,612.876398
1224.773848,7105.977043,-5995.668130,919.314598
1224.774177,7031.956449,-5847.626942,153.219100
1224.774506,7328.038826,-5921.647536,612.876398
1224.774835,8660.409521,-5477.523971,1532.190996
1224.775165,8882.471304,-6217.729913,2221.676944
1224.775494,9030.512492,-7772.162391,2221.676944
1224.775823,8364.327145,-6735.874072,2221.676944
1224.776152,7105.977043,-6661.853478,1608.800546
1224.776481,6217.729913,-6513.812290,536.266849
1224.776811,5033.400406,-7476.080014,229.828649
1224.777140,4737.318029,-8290.306550,536.266849
1224.777469,4293.194464,-7994.224174,-459.657299
1224.777798,4367.215058,-7698.141797,0.000000
1224.778128,4811.338623,-7772.162391,0.000000
1224.778457,6365.771101,-7328.038826,1072.533697
1224.778786,6439.791695,-7179.997637,919.314598
1224.779115,6957.935855,-7031.956449,1455.581446
1224.779444,7994.224174,-5995.668130,2145.067394
1224.779774,8364.327145,-5995.668130,2451.505594
1224.780103,9178.553681,-4811.338623,2528.115143
1224.780432,9252.574275,-4737.318029,2221.676944
1224.780761,8956.491898,-3775.050304,1302.362347
1224.781090,8290.306550,-3404.947333,995.924147
1224.781420,8068.244768,-4145.153275,766.095498
1224.781749,9030.512492,-4737.318029,1072.533697
1224.782078,8142.265362,-5625.565159,612.876398
1224.782407,6661.853478,-5995.668130,153.219100
1224.782736,5773.606348,-7698.141797,153.219100
1224.783066,6513.812290,-8586.388927,995.924147
1224.783395,6069.688724,-9844.739029,1149.143247
1224.783724,5995.668130,-8882.471304,1455.581446
1224.784053,5625.565159,-8438.347739,842.705048
1224.784382,5995.668130,-8586.388927,1302.362347
1224.784712,6143.709319,-7772.162391,919.314598
1224.785041,6217.729913,-7328.038826,612.876398
1224.785370,6957.935855,-5699.585753,459.657299
1224.785699,7105.977043,-5255.462188,306.438199
1224.786029,7624.121203,-5033.400406,612.876398
1224.786358,7698.141797,-5699.585753,1225.752797
1224.786687,7772.162391,-5329.482782,1072.533697
1224.787016,7402.059420,-6439.791695,1225.752797
1224.787345,7105.977043,-6439.791695,1149.143247
1224.787675,7179.997637,-7105.977043,1455.581446
1224.788004,7105.977043,-7105.977043,1149.143247
1224.788333,6217.729913,-7476.080014,1378.971896
1224.788662,6143.709319,-6883.915261,689.485948
1224.788991,6735.874072,-5699.585753,842.705048
1224.789321,6809.894666,-5773.606348,689.485948
1224.789650,7105.977043,-5625.565159,459.657299
1224.789979,7402.059420,-5625.565159,1149.143247
1224.790308,7846.182985,-5255.462188,1302.362347
1224.790637,8290.306550,-5329.482782,1149.143247
1224.790967,8290.306550,-6217.729913,1991.848295
1224.791296,8512.368333,-6587.832884,2298.286494
1224.791625,7920.203579,-7179.997637,1762.019645
1224.791954,6735.874072,-6883.915261,1838.629195
1224.792283,6587.832884,-7105.977043,1378.971896
1224.792613,5773.606348,-7402.059420,459.657299
1224.792942,5477.523971,-7698.141797,306.438199
1224.793271,4737.318029,-7846.182985,0.000000
1224.793600,4885.359217,-8068.244768,306.438199
1224.793930,4811.338623,-7624.121203,0.000000
1224.794259,5255.462188,-7254.018232,76.609550
1224.794588,6217.729913,-6957.935855,1072.533697
1224.794917,7328.038826,-6735.874072,2068.457845
1224.795246,8068.244768,-6217.729913,2068.457845
1224.795576,8290.306550,-5477.523971,2068.457845
1224.795905,8512.368333,-5181.441594,2145.067394
1224.796234,8734.430116,-4885.359217,1915.238745
1224.796563,9326.594869,-4885.359217,1838.629195
1224.796892,8290.306550,-4885.359217,919.314598
1224.797222,7920.203579,-4737.318029,1149.143247
1224.797551,7920.203579,-5403.503377,536.266849
1224.797880,7179.997637,-5847.626942,459.657299
1224.798209,6143.709319,-6513.812290,536.266849
1224.798538,6217.729913,-7698.141797,612.876398
1224.798868,5921.647536,-8364.327145,995.924147
1224.799197,5995.668130,-8438.347739,1302.362347
1224.799526,6143.709319,-8660.409521,1302.362347
1224.799855,6439.791695,-8068.244768,1455.581446
1224.800184,6513.812290,-7846.182985,1302.362347
1224.800514,6217.729913,-7402.059420,1225.752797
1224.800843,6439.791695,-7031.956449,842.705048
1224.801172,6735.874072,-6069.688724,76.609550
1224.801501,6883.915261,-6291.750507,153.219100
1224.801830,7179.997637,-5995.668130,536.266849
1224.802160,8142.265362,-6143.709319,842.705048
1224.802489,7328.038826,-6291.750507,1072.533697
1224.802818,7254.018232,-5773.606348,1149.143247
1224.803147,7179.997637,-6513.812290,1378.971896
1224.803477,7179.997637,-6365.771101,1302.362347
1224.803806,7105.977043,-6587.832884,1762.019645
1224.804135,7402.059420,-5773.606348,1762.019645
1224.804464,7105.977043,-6735.874072,1455.581446
1224.804793,6587.832884,-5921.647536,1149.143247
1224.805123,6513.812290,-5699.585753,842.705048
1224.805452,6661.853478,-5773.606348,459.657299
1224.805781,7402.059420,-6365.771101,1072.533697
1224.806110,7476.080014,-6291.750507,1225.752797
1224.806439,6809.894666,-6143.709319,689.485948
1224.806769,7328.038826,-6291.750507,1225.752797
1224.807098,7920.203579,-6735.874072,1838.629195
1224.807427,7402.059420,-6957.935855,1685.410096
1224.807756,6957.935855,-8216.285956,1915.238745
1224.808085,6439.791695,-7402.059420,1225.752797
1224.808415,5995.668130,-7994.224174,1072.533697
1224.808744,5329.482782,-6809.894666,995.924147
1224.809073,5329.482782,-7031.956449,459.657299
1224.809402,5699.585753,-7476.080014,536.266849
1224.809731,5477.523971,-6883.915261,76.609550
1224.810061,6143.709319,-6513.812290,76.609550
1224.810390,7328.038826,-6513.812290,1302.362347
1224.810719,7698.141797,-6809.894666,1378.971896
1224.811048,7328.038826,-6513.812290,995.924147
1224.811378,7624.121203,-6365.771101,1838.629195
1224.811707,8660.409521,-5255.462188,1608.800546
1224.812036,8734.430116,-5847.626942,2145.067394
1224.812365,8438.347739,-4737.318029,2298.286494
1224.812694,8142.265362,-4515.256246,1685.410096
1224.813024,7698.141797,-4367.215058,995.924147
1224.813353,6957.935855,-4441.235652,995.924147
1224.813682,6513.812290,-4885.359217,766.095498
1224.814011,7254.018232,-5921.647536,612.876398
1224.814340,6809.894666,-6957.935855,229.828649
1224.814670,6217.729913,-7772.162391,459.657299
1224.814999,6365.771101,-8882.471304,1302.362347
1224.815328,6809.894666,-8882.471304,1302.362347
1224.815657,6587.832884,-9178.553681,1455.581446
1224.815986,6217.729913,-8364.327145,1378.971896
1224.816316,5773.606348,-8438.347739,1378.971896
1224.816645,5995.668130,-7846.182985,536.266849
1224.816974,5847.626942,-7031.956449,383.047749
1224.817303,6217.729913,-5921.647536,153.219100
1224.817632,7105.977043,-5255.462188,612.876398
1224.817962,7624.121203,-5033.400406,766.095498
1224.818291,7328.038826,-5181.441594,919.314598
1224.818620,7328.038826,-5107.421000,1072.533697
1224.818949,7698.141797,-5551.544565,1302.362347
1224.819279,8068.244768,-5995.668130,1838.629195
1224.819608,7846.182985,-6291.750507,2068.457845
1224.819937,7698.141797,-6513.812290,1991.848295
1224.820266,7105.977043,-6735.874072,1225.752797
1224.820595,6291.750507,-7105.977043,1072.533697
1224.820925,6291.750507,-6809.894666,1149.143247
1224.821254,6291.750507,-6439.791695,306.438199
1224.821583,6513.812290,-6069.688724,383.047749
1224.821912,6883.915261,-6513.812290,842.705048
1224.822241,7105.977043,-6291.750507,995.924147
1224.822571,7254.018232,-5181.441594,612.876398
1224.822900,7179.997637,-5921.647536,766.095498
1224.823229,7846.182985,-6143.709319,1685.410096
1224.823558,8216.285956,-7105.977043,1991.848295
1224.823887,7772.162391,-7402.059420,1991.848295
1224.824217,6957.935855,-7105.977043,995.924147
1224.824546,6143.709319,-7772.162391,536.266849
1224.824875,5921.647536,-7772.162391,536.266849
1224.825204,5181.441594,-8068.244768,76.609550
1224.825533,4959.379811,-7846.182985,76.609550
1224.825863,5181.441594,-7698.141797,153.219100
1224.826192,5847.626942,-7328.038826,76.609550
1224.826521,6439.791695,-6883.915261,383.047749
1224.826850,7031.956449,-6809.894666,1608.800546
1224.827179,7179.997637,-5773.606348,1915.238745
1224.827509,7624.121203,-5773.606348,1915.238745
1224.827838,8068.244768,-5477.523971,2451.505594
1224.828167,9104.533087,-5329.482782,2374.896044
1224.828496,9548.656652,-4811.338623,1455.581446
1224.828826,8512.368333,-4515.256246,1608.800546
1224.829155,7846.182985,-4589.276840,842.705048
1224.829484,7550.100608,-5107.421000,995.924147
1224.829813,7105.977043,-5551.544565,766.095498
1224.830142,6513.812290,-6587.832884,306.438199
1224.830472,6069.688724,-7254.018232,383.047749
1224.830801,5847.626942,-8808.450710,383.047749
1224.831130,5995.668130,-9104.533087,1149.143247
1224.831459,5625.565159,-8216.285956,1838.629195
1224.831788,6069.688724,-8216.285956,1149.143247
1224.832118,6365.771101,-7254.018232,995.924147
1224.832447,6735.874072,-7624.121203,1149.143247
1224.832776,6809.894666,-6883.915261,995.924147
1224.833105,6883.915261,-5551.544565,536.266849
1224.833434,6883.915261,-4737.318029,0.000000
1224.833764,7105.977043,-4737.318029,76.609550
1224.834093,7920.203579,-5699.585753,919.314598
1224.834422,7550.100608,-6957.935855,919.314598
1224.834751,7105.977043,-6587.832884,1378.971896
1224.835080,7105.977043,-6513.812290,1302.362347
1224.835410,6809.894666,-7328.038826,1608.800546
1224.835739,6809.894666,-7402.059420,1608.800546
1224.836068,6587.832884,-7624.121203,1378.971896
1224.836397,6365.771101,-7031.956449,1149.143247
1224.836727,6291.750507,-5995.668130,689.485948
1224.837056,6661.853478,-6069.688724,766.095498
1224.837385,7105.977043,-5329.482782,1072.533697
1224.837714,7994.224174,-4737.318029,612.876398
1224.838043,7772.162391,-5255.462188,689.485948
1224.838373,7772.162391,-5551.544565,689.485948
1224.838702,7624.121203,-5551.544565,1072.533697
1224.839031,8290.306550,-5995.668130,1378.971896
1224.839360,8290.306550,-7105.977043,1838.629195
1224.839689,7624.121203,-7846.182985,1915.238745
1224.840019,7031.956449,-8068.244768,1838.629195
1224.840348,6439.791695,-7550.100608,995.924147
1224.840677,5921.647536,-7254.018232,689.485948
1224.841006,5403.503377,-6883.915261,229.828649
1224.841335,4737.318029,-7994.224174,229.828649
1224.841665,4737.318029,-7328.038826,-76.609550
1224.841994,5551.544565,-6143.709319,-383.047749
1224.842323,5847.626942,-6661.853478,459.657299
1224.842652,6661.853478,-6365.771101,995.924147
1224.842981,7402.059420,-6513.812290,1685.410096
1224.843311,7772.162391,-6439.791695,1455.581446
1224.843640,8290.306550,-5995.668130,1838.629195
1224.843969,8290.306550,-5329.482782,2068.457845
1224.844298,8734.430116,-4959.379811,1685.410096
1224.844628,8808.450710,-4885.359217,2221.676944
1224.844957,8660.409521,-4441.235652,1149.143247
1224.845286,8142.265362,-4737.318029,995.924147
1224.845615,7402.059420,-5255.462188,459.657299
1224.845944,7031.956449,-5773.606348,383.047749
1224.846274,6661.853478,-6809.894666,536.266849
1224.846603,5773.606348,-6883.915261,536.266849
1224.846932,5773.606348,-7698.141797,76.609550
1224.847261,5995.668130,-8364.327145,1455.581446
1224.847590,6957.935855,-8586.388927,1532.190996
1224.847920,6513.812290,-8142.265362,1072.533697
1224.848249,5995.668130,-7476.080014,1608.800546
1224.848578,5699.585753,-8068.244768,766.095498
1224.848907,6291.750507,-7402.059420,383.047749
1224.849236,6365.771101,-6587.832884,459.657299
1224.849566,7105.977043,-6143.709319,0.000000
1224.849895,7402.059420,-5921.647536,919.314598
1224.850224,6957.935855,-6365.771101,766.095498
1224.850553,7179.997637,-5921.647536,842.705048
1224.850882,7254.018232,-6291.750507,1225.752797
1224.851212,7476.080014,-6365.771101,1149.143247
1224.851541,7105.977043,-6587.832884,1302.362347
1224.851870,6957.935855,-6217.729913,1378.971896
1224.852199,7402.059420,-6513.812290,1302.362347
1224.852528,7476.080014,-6439.791695,1762.019645
1224.852858,6957.935855,-5699.585753,689.485948
1224.853187,6661.853478,-5551.544565,0.000000
1224.853516,7105.977043,-5921.647536,612.876398
1224.853845,7846.182985,-6735.874072,842.705048
1224.854175,8216.285956,-7031.956449,1225.752797
1224.854504,7698.141797,-6957.935855,1455.581446
1224.854833,7476.080014,-5847.626942,1149.143247
1224.855162,7402.059420,-6883.915261,1455.581446
1224.855491,7624.121203,-7179.997637,2374.896044
1224.855821,7920.203579,-7476.080014,2298.286494
1224.856150,6735.874072,-6883.915261,1378.971896
1224.856479,5625.565159,-6365.771101,383.047749
1224.856808,5181.441594,-7476.080014,459.657299
1224.857137,5477.523971,-7179.997637,153.219100
1224.857467,5403.503377,-7476.080014,-229.828649
1224.857796,5181.441594,-6957.935855,-229.828649
1224.858125,6217.729913,-7105.977043,306.438199
1224.858454,6587.832884,-7031.956449,919.314598
1224.858783,7179.997637,-6883.915261,1302.362347
1224.859113,7254.018232,-6957.935855,1532.190996
1224.859442,7624.121203,-6809.894666,1685.410096
1224.859771,7994.224174,-5921.647536,1915.238745
1224.860100,8364.327145,-4959.379811,2145.067394
1224.860429,9400.615463,-5181.441594,2298.286494
1224.860759,8808.450710,-4515.256246,1991.848295
1224.861088,8216.285956,-4293.194464,1225.752797
1224.861417,7328.038826,-4367.215058,459.657299
1224.861746,7698.141797,-4737.318029,459.657299
1224.862076,7105.977043,-5329.482782,459.657299
1224.862405,6513.812290,-5995.668130,76.609550
1224.862734,6217.729913,-7476.080014,536.266849
1224.863063,6587.832884,-8734.430116,1225.752797
1224.863392,6809.894666,-8882.471304,1532.190996
1224.863722,6143.709319,-8216.285956,766.095498
1224.864051,5921.647536,-8438.347739,1225.752797
1224.864380,6291.750507,-8216.285956,1149.143247
1224.864709,6143.709319,-7698.141797,1149.143247
1224.865038,6069.688724,-7031.956449,306.438199
1224.865368,6365.771101,-6217.729913,153.219100
1224.865697,7105.977043,-5699.585753,229.828649
1224.866026,7254.018232,-5847.626942,1072.533697
1224.866355,7105.977043,-5255.462188,1072.533697
1224.866684,7772.162391,-5699.585753,919.314598
1224.867014,7402.059420,-6217.729913,1302.362347
1224.867343,7031.956449,-6735.874072,1302.362347
1224.867672,7772.162391,-7402.059420,2068.457845
1224.868001,7550.100608,-6439.791695,1455.581446
1224.868331,6735.874072,-6883.915261,1072.533697
1224.868660,6957.935855,-7105.977043,1072.533697
1224.868989,7031.956449,-5847.626942,842.705048
1224.869318,7402.059420,-5477.523971,0.000000
1224.869647,7402.059420,-5181.441594,459.657299
1224.869977,7698.141797,-5847.626942,1149.143247
1224.870306,7254.018232,-5995.668130,766.095498
1224.870635,7105.977043,-5773.606348,1072.533697
1224.870964,7105.977043,-6439.791695,1608.800546
1224.871293,7624.121203,-7476.080014,1838.629195
1224.871623,7402.059420,-7846.182985,2451.505594
1224.871952,6587.832884,-8068.244768,1302.362347
1224.872281,5847.626942,-8068.244768,536.266849
1224.872610,5699.585753,-7624.121203,229.828649
1224.872940,5255.462188,-7920.203579,0.000000
1224.873269,5107.421000,-7550.100608,0.000000
1224.873598,5625.565159,-7328.038826,-153.219100
1224.873927,6143.709319,-7105.977043,229.828649
1224.874256,6735.874072,-6587.832884,612.876398
1224.874586,6883.915261,-6587.832884,766.095498
1224.874915,7254.018232,-6069.688724,1149.143247
1224.875244,7920.203579,-5847.626942,2374.896044
1224.875573,7920.203579,-5699.585753,2068.457845
1224.875902,8142.265362,-5625.565159,2298.286494
1224.876232,8734.430116,-5033.400406,2834.553343
1224.876561,8438.347739,-5255.462188,1915.238745
1224.876890,7994.224174,-3849.070898,1532.190996
1224.877219,7550.100608,-5181.441594,1225.752797
1224.877549,7550.100608,-5329.482782,612.876398
1224.877878,6809.894666,-5699.585753,306.438199
1224.878207,6069.688724,-7105.977043,459.657299
1224.878536,5995.668130,-5847.626942,-153.219100
1224.878865,5847.626942,-8586.388927,1072.533697
1224.879195,6143.709319,-9104.533087,1302.362347
1224.879524,6513.812290,-8142.265362,1838.629195
1224.879853,6883.915261,-7550.100608,919.314598
1224.880182,6365.771101,-7698.141797,1225.752797
1224.880511,6143.709319,-7772.162391,1302.362347
1224.880841,6217.729913,-6957.935855,1149.143247
1224.881170,6439.791695,-6365.771101,76.609550
1224.881499,7105.977043,-5921.647536,612.876398
1224.881828,7105.977043,-5773.606348,459.657299
1224.882158,7624.121203,-6661.853478,306.438199
1224.882487,7402.059420,-7031.956449,1225.752797
1224.882816,6809.894666,-6217.729913,383.047749
1224.883145,6735.874072,-7031.956449,919.314598
1224.883474,7105.977043,-6365.771101,1302.362347
1224.883804,7476.080014,-7105.977043,1762.019645
1224.884133,7624.121203,-6217.729913,1685.410096
1224.884462,7624.121203,-5699.585753,1762.019645
1224.884791,6809.894666,-5995.668130,1149.143247
1224.885120,6957.935855,-5181.441594,689.485948
1224.885450,7031.956449,-5403.503377,689.485948
1224.885779,7254.018232,-5773.606348,536.266849
1224.886108,7179.997637,-5699.585753,919.314598
1224.886437,6143.709319,-6735.874072,0.000000
1224.886767,6513.812290,-6365.771101,689.485948
1224.887096,7402.059420,-6883.915261,1072.533697
1224.887425,7994.224174,-7550.100608,1455.581446
1224.887754,7105.977043,-7698.141797,1762.019645
1224.888083,6513.812290,-8068.244768,1225.752797
1224.888413,5921.647536,-7698.141797,689.485948
1224.888742,5329.482782,-6809.894666,229.828649
1224.889071,5847.626942,-7402.059420,153.219100
1224.889400,6069.688724,-7402.059420,612.876398
1224.889729,5921.647536,-5921.647536,0.000000
1224.890059,5995.668130,-6513.812290,153.219100
1224.890388,6587.832884,-6143.709319,995.924147
1224.890717,7550.100608,-6365.771101,919.314598
1224.891046,7476.080014,-6957.935855,1302.362347
1224.891375,7402.059420,-5995.668130,1762.019645
1224.891705,7994.224174,-6365.771101,1991.848295
1224.892034,8290.306550,-6291.750507,2834.553343
1224.892363,8068.244768,-5625.565159,2145.067394
1224.892692,8142.265362,-5255.462188,1762.019645
1224.893022,8438.347739,-4219.173869,919.314598
1224.893351,7328.038826,-4737.318029,1225.752797
1224.893680,6513.812290,-5255.462188,306.438199
1224.894009,6883.915261,-5403.503377,229.828649
1224.894338,6735.874072,-5921.647536,0.000000
1224.894668,6143.709319,-7105.977043,612.876398
1224.894997,6883.915261,-8290.306550,689.485948
1224.895326,7179.997637,-8512.368333,1302.362347
1224.895655,6661.853478,-8290.306550,1302.362347
1224.895984,6217.729913,-8290.306550,1072.533697
1224.896314,6291.750507,-8660.409521,1149.143247
1224.896643,6513.812290,-7920.203579,229.828649
1224.896972,6217.729913,-6661.853478,76.609550
1224.897301,6143.709319,-6291.750507,229.828649
1224.897631,7105.977043,-5921.647536,995.924147
1224.897960,7105.977043,-5847.626942,1915.238745
1224.898289,7254.018232,-5477.523971,1149.143247
1224.898618,6957.935855,-5255.462188,1072.533697
1224.898947,7105.977043,-5995.668130,1149.143247
1224.899277,7179.997637,-6513.812290,1838.629195
1224.899606,7550.100608,-5699.585753,2068.457845
1224.899935,7624.121203,-6291.750507,1762.019645
1224.900264,7624.121203,-6291.750507,1762.019645
1224.900593,7105.977043,-6217.729913,1532.190996
1224.900923,6883.915261,-6365.771101,536.266849
1224.901252,6883.915261,-5773.606348,766.095498
1224.901581,6957.935855,-5773.606348,76.609550
1224.901910,6957.935855,-6365.771101,689.485948
1224.902240,7031.956449,-6365.771101,766.095498
1224.902569,7031.956449,-6661.853478,689.485948
1224.902898,6661.853478,-6513.812290,1225.752797
1224.903227,7624.121203,-7254.018232,1838.629195
1224.903556,8068.244768,-7328.038826,2145.067394
1224.903886,7254.018232,-7105.977043,1838.629195
1224.904215,6513.812290,-6883.915261,689.485948
1224.904544,6069.688724,-7254.018232,612.876398
1224.904873,5625.565159,-7105.977043,536.266849
1224.905202,5699.585753,-7105.977043,229.828649
1224.905532,5255.462188,-6735.874072,536.266849
1224.905861,5625.565159,-6735.874072,0.000000
1224.906190,5773.606348,-7031.956449,0.000000
1224.906519,5995.668130,-7254.018232,536.266849
1224.906849,6291.750507,-7179.997637,1225.752797
1224.907178,7328.038826,-6661.853478,1915.238745
1224.907507,7402.059420,-6365.771101,1838.629195
1224.907836,7772.162391,-6069.688724,1991.848295
1224.908165,8364.327145,-6291.750507,2145.067394
1224.908495,8808.450710,-5255.462188,2145.067394
1224.908824,8364.327145,-4885.359217,1608.800546
1224.909153,7920.203579,-4293.194464,1225.752797
1224.909482,7550.100608,-4663.297435,536.266849
1224.909811,7624.121203,-5403.503377,459.657299
1224.910141,7105.977043,-5921.647536,689.485948
1224.910470,6217.729913,-6735.874072,153.219100
1224.910799,6439.791695,-7402.059420,612.876398
1224.911128,6735.874072,-8068.244768,919.314598
