#time,accel_x,accel_y,accel_z
1350.944266,6365.771101,-6291.750507,919.314598
1350.944596,6439.791695,-7105.977043,919.314598
1350.944926,6587.832884,-7105.977043,1149.143247
1350.945257,6957.935855,-6439.791695,1302.362347
1350.945587,6735.874072,-7031.956449,1149.143247
1350.945917,6661.853478,-6587.832884,919.314598
1350.946248,6587.832884,-7105.977043,842.705048
1350.946578,6661.853478,-6883.915261,689.485948
1350.946908,6883.915261,-7105.977043,1072.533697
1350.947239,6957.935855,-6957.935855,1225.752797
1350.947569,7105.977043,-6365.771101,1302.362347
1350.947899,7254.018232,-6809.894666,1225.752797
1350.948230,6735.874072,-6217.729913,1378.971896
1350.948560,7254.018232,-6661.853478,689.485948
1350.948890,6957.935855,-6809.894666,919.314598
1350.949221,7105.977043,-6217.729913,1149.143247
1350.949551,7328.038826,-6291.750507,919.314598
1350.949881,7105.977043,-5921.647536,1225.752797
1350.950212,7179.997637,-6291.750507,1149.143247
1350.950542,7254.018232,-6291.750507,1149.143247
1350.950872,7105.977043,-6587.832884,995.924147
1350.951203,6957.935855,-6365.771101,1225.752797
1350.951533,6735.874072,-6587.832884,919.314598
1350.951863,6809.894666,-7031.956449,1225.752797
1350.952194,6809.894666,-6587.832884,1072.533697
1350.952524,6883.915261,-6439.791695,919.314598
1350.952854,7328.038826,-6513.812290,689.485948
1350.953185,7031.956449,-6291.750507,1455.581446
1350.953515,6513.812290,-6661.853478,689.485948
1350.953845,7105.977043,-6513.812290,995.924147
1350.954176,6883.915261,-7105.977043,689.485948
1350.954506,7105.977043,-7031.956449,842.705048
1350.954836,7179.997637,-6735.874072,995.924147
1350.955167,7328.038826,-6513.812290,919.314598
1350.955497,7254.018232,-6365.771101,995.924147
1350.955827,7031.956449,-6365.771101,1149.143247
1350.956158,7179.997637,-6587.832884,1149.143247
1350.956488,7031.956449,-6143.709319,1149.143247
1350.956818,6883.915261,-6217.729913,689.485948
1350.957149,7105.977043,-6143.709319,1149.143247
1350.957479,7254.018232,-5625.565159,459.657299
1350.957809,6957.935855,-5995.668130,1072.533697
1350.958139,7031.956449,-6513.812290,1072.533697
1350.958470,6809.894666,-6513.812290,1302.362347
1350.958800,6587.832884,-6661.853478,919.314598
1350.959130,6661.853478,-6809.894666,1225.752797
1350.959461,6735.874072,-6883.915261,1072.533697
1350.959791,6809.894666,-7031.956449,1149.143247
1350.960121,6809.894666,-6809.894666,995.924147
1350.960452,6957.935855,-7031.956449,1762.019645
1350.960782,6809.894666,-6587.832884,612.876398
1350.961112,6661.853478,-6957.935855,766.095498
1350.961443,6439.791695,-7105.977043,919.314598
1350.961773,6957.935855,-6883.915261,766.095498
1350.962103,7031.956449,-6809.894666,1455.581446
1350.962434,7105.977043,-6735.874072,1225.752797
1350.962764,7105.977043,-6661.853478,919.314598
1350.963094,7328.038826,-6661.853478,919.314598
1350.963425,6957.935855,-7105.977043,383.047749
1350.963755,7031.956449,-6661.853478,1532.190996
1350.964085,7328.038826,-5847.626942,995.924147
1350.964416,7402.059420,-5773.606348,1455.581446
1350.964746,7550.100608,-5847.626942,995.924147
1350.965076,7328.038826,-6069.688724,612.876398
1350.965407,7105.977043,-6439.791695,919.314598
1350.965737,6809.894666,-6143.709319,842.705048
1350.966067,6513.812290,-6513.812290,842.705048
1350.966398,6735.874072,-6365.771101,1302.362347
1350.966728,6809.894666,-6809.894666,1532.190996
1350.967058,7105.977043,-6365.771101,1378.971896
1350.967389,7031.956449,-6809.894666,1072.533697
1350.967719,6883.915261,-6513.812290,1532.190996
1350.968049,7105.977043,-6439.791695,1532.190996
1350.968380,6883.915261,-6587.832884,919.314598
1350.968710,6883.915261,-6513.812290,1072.533697
1350.969040,7105.977043,-6883.915261,766.095498
1350.969371,7254.018232,-6439.791695,1149.143247
1350.969701,7328.038826,-5847.626942,1149.143247
1350.970031,7105.977043,-6883.915261,689.485948
1350.970362,7179.997637,-6735.874072,612.876398
1350.970692,7105.977043,-6809.894666,689.485948
1350.971022,7105.977043,-6809.894666,1149.143247
1350.971353,7179.997637,-6291.750507,766.095498
1350.971683,7254.018232,-6291.750507,995.924147
1350.972013,7402.059420,-5995.668130,919.314598
1350.972344,7476.080014,-6439.791695,1302.362347
1350.972674,7328.038826,-5773.606348,995.924147
1350.973004,6439.791695,-6587.832884,1149.143247
1350.973335,6587.832884,-6587.832884,842.705048
1350.973665,6735.874072,-6661.853478,1455.581446
1350.973995,6661.853478,-6587.832884,1225.752797
1350.974325,6809.894666,-6883.915261,1302.362347
1350.974656,6735.874072,-6809.894666,919.314598
1350.974986,6587.832884,-7254.018232,1072.533697
1350.975316,6661.853478,-6957.935855,919.314598
1350.975647,6883.915261,-6513.812290,459.657299
1350.975977,6883.915261,-6661.853478,766.095498
1350.976307,6661.853478,-6957.935855,919.314598
1350.976638,7105.977043,-6735.874072,919.314598
1350.976968,7179.997637,-6217.729913,1455.581446
1350.977298,7179.997637,-6883.915261,995.924147
1350.977629,7254.018232,-6439.791695,1072.533697
1350.977959,7105.977043,-6883.915261,1225.752797
1350.978289,7105.977043,-6661.853478,919.314598
1350.978620,7254.018232,-6069.688724,1838.629195
1350.978950,7105.977043,-6365.771101,919.314598
1350.979280,7105.977043,-6365.771101,1072.533697
1350.979611,7105.977043,-6365.771101,1149.143247
1350.979941,7105.977043,-6291.750507,1149.143247
1350.980271,7105.977043,-5773.606348,1302.362347
1350.980602,7105.977043,-6291.750507,1762.019645
1350.980932,6957.935855,-6365.771101,842.705048
1350.981262,6809.894666,-6513.812290,1072.533697
1350.981593,6883.915261,-6735.874072,1685.410096
1350.981923,7105.977043,-6883.915261,842.705048
1350.982253,6883.915261,-6883.915261,919.314598
1350.982584,6809.894666,-6587.832884,1072.533697
1350.982914,6957.935855,-7031.956449,536.266849
1350.983244,6883.915261,-6587.832884,1302.362347
1350.983575,6735.874072,-7105.977043,1149.143247
1350.983905,7105.977043,-6809.894666,1149.143247
1350.984235,7254.018232,-6069.688724,1149.143247
1350.984566,7254.018232,-6735.874072,842.705048
1350.984896,7105.977043,-6069.688724,1378.971896
1350.985226,7105.977043,-6291.750507,1072.533697
1350.985557,6809.894666,-6661.853478,919.314598
1350.985887,7105.977043,-6365.771101,1072.533697
1350.986217,7328.038826,-6513.812290,919.314598
1350.986548,7031.956449,-6513.812290,1072.533697
1350.986878,7031.956449,-6513.812290,1149.143247
1350.987208,7031.956449,-6365.771101,1149.143247
1350.987539,6957.935855,-6661.853478,1302.362347
1350.987869,7105.977043,-6661.853478,1149.143247
1350.988199,6735.874072,-6661.853478,919.314598
1350.988530,6957.935855,-6809.894666,1225.752797
1350.988860,6809.894666,-6883.915261,1072.533697
1350.989190,6513.812290,-6883.915261,1532.190996
1350.989521,6883.915261,-6587.832884,1149.143247
1350.989851,6513.812290,-6735.874072,1149.143247
1350.990181,6883.915261,-7031.956449,689.485948
1350.990512,6587.832884,-6809.894666,1072.533697
1350.990842,6513.812290,-6513.812290,1072.533697
1350.991172,6957.935855,-6883.915261,612.876398
1350.991502,7105.977043,-6587.832884,1225.752797
1350.991833,7328.038826,-6439.791695,1072.533697
1350.992163,7476.080014,-6587.832884,1072.533697
1350.992493,6957.935855,-6587.832884,995.924147
1350.992824,7105.977043,-6513.812290,459.657299
1350.993154,7105.977043,-6883.915261,1225.752797
1350.993484,7031.956449,-6439.791695,995.924147
1350.993815,7328.038826,-5921.647536,842.705048
1350.994145,7105.977043,-6365.771101,1149.143247
1350.994475,7105.977043,-6291.750507,1302.362347
1350.994806,7105.977043,-6143.709319,995.924147
1350.995136,6809.894666,-6661.853478,919.314598
1350.995466,6513.812290,-6661.853478,1302.362347
1350.995797,6883.915261,-6661.853478,766.095498
1350.996127,6513.812290,-6661.853478,1302.362347
1350.996457,6809.894666,-6809.894666,1149.143247
1350.996788,7105.977043,-6661.853478,612.876398
1350.997118,7105.977043,-6439.791695,1149.143247
1350.997448,6957.935855,-6661.853478,689.485948
1350.997779,7031.956449,-6513.812290,919.314598
1350.998109,6883.915261,-7105.977043,842.705048
1350.998439,7179.997637,-6809.894666,306.438199
1350.998770,7105.977043,-6439.791695,842.705048
1350.999100,7105.977043,-6439.791695,1225.752797
1350.999430,7179.997637,-6365.771101,842.705048
1350.999761,7254.018232,-6217.729913,1302.362347
1351.000091,7624.121203,-6883.915261,766.095498
1351.000421,7328.038826,-6439.791695,1072.533697
1351.000752,7402.059420,-6143.709319,995.924147
1351.001082,6957.935855,-6291.750507,842.705048
1351.001412,6957.935855,-6217.729913,1378.971896
1351.001743,6883.915261,-6513.812290,1225.752797
1351.002073,7105.977043,-6513.812290,1378.971896
1351.002403,6809.894666,-6069.688724,1149.143247
1351.002734,6661.853478,-6439.791695,1149.143247
1351.003064,6439.791695,-6217.729913,842.705048
1351.003394,6661.853478,-6661.853478,1072.533697
1351.003725,6513.812290,-6883.915261,1149.143247
1351.004055,6587.832884,-6661.853478,1225.752797
1351.004385,7031.956449,-6513.812290,536.266849
1351.004716,6809.894666,-7328.038826,919.314598
1351.005046,6735.874072,-7179.997637,1149.143247
1351.005376,6809.894666,-6957.935855,995.924147
1351.005707,6883.915261,-7031.956449,842.705048
1351.006037,6883.915261,-6735.874072,1378.971896
1351.006367,6957.935855,-6439.791695,1302.362347
1351.006698,7105.977043,-6661.853478,1149.143247
1351.007028,6809.894666,-6291.750507,1072.533697
1351.007358,6957.935855,-6661.853478,1072.533697
1351.007688,6587.832884,-6513.812290,1149.143247
1351.008019,7031.956449,-6217.729913,1225.752797
1351.008349,7402.059420,-6143.709319,766.095498
1351.008679,6957.935855,-6439.791695,1149.143247
1351.009010,7402.059420,-6513.812290,842.705048
1351.009340,7179.997637,-6439.791695,995.924147
1351.009670,7105.977043,-6365.771101,1072.533697
1351.010001,6735.874072,-6291.750507,995.924147
1351.010331,6735.874072,-6291.750507,766.095498
1351.010661,7179.997637,-7105.977043,1072.533697
1351.010992,7105.977043,-6883.915261,1225.752797
1351.011322,6957.935855,-6365.771101,919.314598
1351.011652,6809.894666,-6809.894666,1225.752797
1351.011982,6587.832884,-6291.750507,1685.410096
1351.012311,6809.894666,-6735.874072,766.095498
1351.012641,6661.853478,-6661.853478,842.705048
1351.012971,6365.771101,-6883.915261,995.924147
1351.013301,7105.977043,-6661.853478,995.924147
1351.013630,7698.141797,-6957.935855,1685.410096
1351.013960,7179.997637,-6587.832884,919.314598
1351.014290,7105.977043,-6291.750507,1149.143247
1351.014620,7254.018232,-6809.894666,1149.143247
1351.014950,7402.059420,-6439.791695,1149.143247
1351.015279,7254.018232,-6513.812290,842.705048
1351.015609,7254.018232,-6291.750507,1072.533697
1351.015939,7105.977043,-6365.771101,1149.143247
1351.016269,6957.935855,-6069.688724,1149.143247
1351.016598,6809.894666,-6439.791695,1378.971896
1351.016928,6883.915261,-6069.688724,1149.143247
1351.017258,7031.956449,-6587.832884,1302.362347
1351.017588,6661.853478,-6439.791695,919.314598
1351.017917,6513.812290,-6809.894666,919.314598
1351.018247,6439.791695,-6513.812290,1378.971896
1351.018577,6883.915261,-6513.812290,1072.533697
1351.018907,6957.935855,-6513.812290,842.705048
1351.019237,7031.956449,-6883.915261,1302.362347
1351.019566,6883.915261,-7328.038826,536.266849
1351.019896,6735.874072,-6809.894666,995.924147
1351.020226,5995.668130,-6809.894666,919.314598
1351.020556,6661.853478,-7179.997637,842.705048
1351.020885,6883.915261,-6661.853478,1225.752797
1351.021215,7179.997637,-6291.750507,459.657299
1351.021545,7254.018232,-6883.915261,1302.362347
1351.021875,7328.038826,-6291.750507,1225.752797
1351.022204,6957.935855,-6513.812290,1072.533697
1351.022534,6883.915261,-5921.647536,1072.533697
1351.022864,7402.059420,-6069.688724,1378.971896
1351.023194,7698.141797,-5995.668130,1149.143247
1351.023524,7328.038826,-6069.688724,1532.190996
1351.023853,7179.997637,-6587.832884,1072.533697
1351.024183,7031.956449,-6439.791695,919.314598
1351.024513,6809.894666,-6735.874072,995.924147
1351.024843,6513.812290,-6661.853478,689.485948
1351.025172,6513.812290,-6661.853478,766.095498
1351.025502,6587.832884,-7105.977043,1302.362347
1351.025832,7031.956449,-6735.874072,842.705048
1351.026162,6883.915261,-6439.791695,612.876398
1351.026491,7105.977043,-6439.791695,1225.752797
1351.026821,7105.977043,-6735.874072,842.705048
1351.027151,7328.038826,-6809.894666,995.924147
1351.027481,6809.894666,-6661.853478,1149.143247
1351.027810,6809.894666,-6957.935855,919.314598
1351.028140,7105.977043,-6809.894666,1455.581446
1351.028470,7105.977043,-6439.791695,919.314598
1351.028800,7179.997637,-6439.791695,1149.143247
1351.029130,6661.853478,-6217.729913,1225.752797
1351.029459,7179.997637,-6513.812290,995.924147
1351.029789,7179.997637,-6513.812290,1532.190996
1351.030119,7105.977043,-5699.585753,2145.067394
1351.030449,7105.977043,-5921.647536,919.314598
1351.030778,7105.977043,-6069.688724,1149.143247
1351.031108,6883.915261,-6587.832884,1302.362347
1351.031438,7179.997637,-6365.771101,919.314598
1351.031768,7698.141797,-6809.894666,1532.190996
1351.032097,6661.853478,-6735.874072,1225.752797
1351.032427,6439.791695,-6883.915261,536.266849
1351.032757,6735.874072,-7105.977043,1149.143247
1351.033087,6735.874072,-6735.874072,766.095498
1351.033417,6809.894666,-6661.853478,919.314598
1351.033746,6661.853478,-6661.853478,1302.362347
1351.034076,6735.874072,-6957.935855,1072.533697
1351.034406,6661.853478,-6809.894666,766.095498
1351.034736,6735.874072,-6513.812290,1608.800546
1351.035065,6809.894666,-7031.956449,766.095498
1351.035395,7105.977043,-6661.853478,1072.533697
1351.035725,7105.977043,-6513.812290,1149.143247
1351.036055,7179.997637,-6957.935855,995.924147
1351.036384,7031.956449,-6217.729913,1149.143247
1351.036714,6957.935855,-6661.853478,383.047749
1351.037044,6883.915261,-6809.894666,919.314598
1351.037374,7031.956449,-6439.791695,1149.143247
1351.037704,6957.935855,-5921.647536,995.924147
1351.038033,7031.956449,-6365.771101,1302.362347
1351.038363,7105.977043,-6069.688724,1149.143247
1351.038693,6809.894666,-6217.729913,919.314598
1351.039023,6809.894666,-6439.791695,995.924147
1351.039352,7031.956449,-6587.832884,1302.362347
1351.039682,6957.935855,-6513.812290,919.314598
1351.040012,7105.977043,-6809.894666,1455.581446
1351.040342,6809.894666,-6587.832884,1072.533697
1351.040671,7105.977043,-6735.874072,1072.533697
1351.041001,7179.997637,-6809.894666,919.314598
1351.041331,6809.894666,-6587.832884,1072.533697
1351.041661,6883.915261,-7031.956449,766.095498
1351.041991,6809.894666,-6735.874072,995.924147
1351.042320,6809.894666,-7031.956449,1532.190996
1351.042650,7105.977043,-7328.038826,766.095498
1351.042980,7328.038826,-6439.791695,1149.143247
1351.043310,7105.977043,-6439.791695,919.314598
1351.043639,7402.059420,-6661.853478,1302.362347
1351.043969,7328.038826,-6217.729913,919.314598
1351.044299,7254.018232,-6661.853478,536.266849
1351.044629,7328.038826,-6513.812290,1072.533697
1351.044958,7254.018232,-6143.709319,766.095498
1351.045288,7624.121203,-6069.688724,995.924147
1351.045618,7105.977043,-6513.812290,1455.581446
1351.045948,7105.977043,-6217.729913,612.876398
1351.046278,6809.894666,-6143.709319,1072.533697
1351.046607,6735.874072,-6513.812290,1072.533697
1351.046937,6809.894666,-6365.771101,919.314598
1351.047267,6587.832884,-6883.915261,842.705048
1351.047597,6513.812290,-6957.935855,1149.143247
1351.047926,6587.832884,-6661.853478,612.876398
1351.048256,6735.874072,-6735.874072,1302.362347
1351.048586,6661.853478,-6587.832884,1378.971896
1351.048916,6587.832884,-6587.832884,842.705048
1351.049245,6735.874072,-6809.894666,842.705048
1351.049575,6513.812290,-6957.935855,995.924147
1351.049905,7105.977043,-6883.915261,1225.752797
1351.050235,7031.956449,-6809.894666,1378.971896
1351.050564,7179.997637,-6883.915261,1302.362347
1351.050894,7105.977043,-6439.791695,766.095498
1351.051224,7031.956449,-6365.771101,1225.752797
1351.051554,7179.997637,-6809.894666,459.657299
1351.051884,6957.935855,-6587.832884,842.705048
1351.052213,7031.956449,-6439.791695,766.095498
1351.052543,7031.956449,-6365.771101,1072.533697
1351.052873,7254.018232,-6365.771101,1072.533697
1351.053203,6957.935855,-6513.812290,1455.581446
1351.053532,7105.977043,-6291.750507,1149.143247
1351.053862,7031.956449,-6291.750507,1149.143247
1351.054192,6143.709319,-5995.668130,383.047749
1351.054522,7105.977043,-6735.874072,1225.752797
1351.054851,6883.915261,-6809.894666,995.924147
1351.055181,6809.894666,-6883.915261,1072.533697
1351.055511,6735.874072,-6661.853478,919.314598
1351.055841,6735.874072,-6513.812290,919.314598
1351.056171,7179.997637,-7624.121203,1149.143247
1351.056500,6883.915261,-6809.894666,1149.143247
1351.056830,6587.832884,-6957.935855,842.705048
1351.057160,7254.018232,-6957.935855,842.705048
1351.057490,7328.038826,-6513.812290,1685.410096
1351.057819,7328.038826,-6069.688724,995.924147
1351.058149,7476.080014,-6513.812290,229.828649
1351.058479,7550.100608,-6439.791695,1378.971896
1351.058809,7254.018232,-6661.853478,842.705048
1351.059138,6883.915261,-6069.688724,612.876398
1351.059468,7105.977043,-6217.729913,995.924147
1351.059798,7105.977043,-6291.750507,995.924147
1351.060128,7179.997637,-6291.750507,1225.752797
1351.060458,7031.956449,-5921.647536,1072.533697
1351.060787,7105.977043,-6069.688724,919.314598
1351.061117,7105.977043,-6365.771101,919.314598
1351.061447,6735.874072,-6439.791695,842.705048
1351.061777,6735.874072,-6587.832884,842.705048
1351.062106,7254.018232,-7179.997637,1149.143247
1351.062436,6957.935855,-6809.894666,1225.752797
1351.062766,7031.956449,-6439.791695,1072.533697
1351.063096,6661.853478,-6143.709319,1149.143247
1351.063425,7476.080014,-5699.585753,1149.143247
1351.063755,7624.121203,-6513.812290,919.314598
1351.064085,7846.182985,-5921.647536,1149.143247
1351.064415,7772.162391,-6661.853478,766.095498
1351.064745,7105.977043,-6735.874072,766.095498
1351.065074,6587.832884,-7105.977043,536.266849
1351.065404,6365.771101,-7031.956449,383.047749
1351.065734,7105.977043,-6439.791695,612.876398
1351.066064,7772.162391,-6883.915261,1072.533697
1351.066393,8068.244768,-5995.668130,1455.581446
1351.066723,8364.327145,-4885.359217,1685.410096
1351.067053,8438.347739,-3775.050304,1149.143247
1351.067383,8290.306550,-4589.276840,1455.581446
1351.067712,8290.306550,-4441.235652,1302.362347
1351.068042,8882.471304,-4219.173869,1378.971896
1351.068372,8586.388927,-4737.318029,1072.533697
1351.068702,7920.203579,-4737.318029,766.095498
1351.069032,7328.038826,-5921.647536,383.047749
1351.069361,7772.162391,-5255.462188,153.219100
1351.069691,8586.388927,-6143.709319,842.705048
1351.070021,8290.306550,-6365.771101,1072.533697
1351.070351,8364.327145,-5847.626942,842.705048
1351.070680,7920.203579,-5995.668130,459.657299
1351.071010,8216.285956,-4885.359217,1455.581446
1351.071340,7772.162391,-5107.421000,459.657299
1351.071670,8290.306550,-4737.318029,919.314598
1351.071999,8734.430116,-4145.153275,1149.143247
1351.072329,9474.636058,-3775.050304,1378.971896
1351.072659,9474.636058,-2664.741391,2068.457845
1351.072989,10214.842000,-3478.967927,1991.848295
1351.073318,10288.862594,-2886.803174,1455.581446
1351.073648,9622.677246,-2960.823768,1149.143247
1351.073978,9474.636058,-3552.988522,1378.971896
1351.074308,9622.677246,-3256.906145,995.924147
1351.074638,9844.739029,-4885.359217,1455.581446
1351.074967,9696.697840,-4737.318029,1378.971896
1351.075297,8808.450710,-5255.462188,1072.533697
1351.075627,8512.368333,-4589.276840,1685.410096
1351.075957,8808.450710,-4737.318029,1378.971896
1351.076286,8216.285956,-5181.441594,1378.971896
1351.076616,8142.265362,-4737.318029,1149.143247
1351.076946,8290.306550,-4589.276840,612.876398
1351.077276,8142.265362,-4441.235652,1302.362347
1351.077605,7920.203579,-5255.462188,689.485948
1351.077935,7624.121203,-5625.565159,459.657299
1351.078265,7920.203579,-5551.544565,153.219100
1351.078595,8808.450710,-5033.400406,153.219100
1351.078925,9326.594869,-4737.318029,689.485948
1351.079254,9622.677246,-4737.318029,919.314598
1351.079584,10288.862594,-4293.194464,1149.143247
1351.079914,10066.800811,-3627.009116,612.876398
1351.080244,9770.718434,-4293.194464,536.266849
1351.080573,9326.594869,-3701.029710,919.314598
1351.080903,8882.471304,-4515.256246,1225.752797
1351.081233,8956.491898,-4071.132681,1762.019645
1351.081563,9252.574275,-3849.070898,1762.019645
1351.081892,9104.533087,-4367.215058,1915.238745
1351.082222,8956.491898,-3627.009116,1685.410096
1351.082552,8512.368333,-4219.173869,1608.800546
1351.082882,8586.388927,-3404.947333,1225.752797
1351.083212,9104.533087,-3849.070898,1302.362347
1351.083541,8734.430116,-3330.926739,689.485948
1351.083871,9474.636058,-3701.029710,383.047749
1351.084201,9474.636058,-4885.359217,689.485948
1351.084531,8882.471304,-5033.400406,153.219100
1351.084860,8586.388927,-5551.544565,-536.266849
1351.085190,8216.285956,-5625.565159,0.000000
1351.085520,8142.265362,-6069.688724,459.657299
1351.085850,8660.409521,-6661.853478,536.266849
1351.086179,8364.327145,-5995.668130,1991.848295
1351.086509,8068.244768,-5773.606348,1455.581446
1351.086839,8216.285956,-4885.359217,1532.190996
1351.087169,8660.409521,-4145.153275,1915.238745
1351.087499,9474.636058,-4589.276840,2374.896044
1351.087828,10362.883188,-2590.720797,2298.286494
1351.088158,10140.821405,-2072.576638,1302.362347
1351.088488,9918.759623,-1480.411884,536.266849
1351.088818,9992.780217,-1036.288319,0.000000
1351.089147,10436.903782,-2442.679609,0.000000
1351.089477,10584.944971,-2960.823768,76.609550
1351.089807,9696.697840,-4737.318029,459.657299
1351.090137,9252.574275,-5995.668130,689.485948
1351.090466,8290.306550,-7402.059420,536.266849
1351.090796,7328.038826,-7994.224174,1378.971896
1351.091126,7179.997637,-8512.368333,766.095498
1351.091456,6735.874072,-8438.347739,689.485948
1351.091786,6217.729913,-7179.997637,689.485948
1351.092115,6957.935855,-5551.544565,842.705048
1351.092445,8734.430116,-4441.235652,1225.752797
1351.092775,9770.718434,-2738.761985,1991.848295
1351.093105,10288.862594,-1702.473667,1991.848295
1351.093434,10436.903782,-518.144159,1455.581446
1351.093764,9918.759623,-296.082377,919.314598
1351.094094,10881.027347,-222.061783,612.876398
1351.094424,11769.274478,-814.226536,1149.143247
1351.094753,12509.480420,-2072.576638,1455.581446
1351.095083,12065.356855,-3330.926739,1532.190996
1351.095413,10881.027347,-5329.482782,1915.238745
1351.095743,9178.553681,-6587.832884,919.314598
1351.096072,7105.977043,-8512.368333,842.705048
1351.096402,5181.441594,-8882.471304,536.266849
1351.096732,4367.215058,-8734.430116,-153.219100
1351.097062,5255.462188,-8438.347739,-383.047749
1351.097392,5773.606348,-7402.059420,0.000000
1351.097721,7031.956449,-6809.894666,919.314598
1351.098051,8586.388927,-4293.194464,1225.752797
1351.098381,9696.697840,-3182.885551,1455.581446
1351.098711,10214.842000,-2072.576638,1685.410096
1351.099040,9918.759623,-1332.370696,1455.581446
1351.099370,10658.965565,-1184.329507,842.705048
1351.099700,11843.295072,-740.205942,919.314598
1351.100030,12879.583391,-1554.432478,2451.505594
1351.100359,13101.645173,-2442.679609,2451.505594
1351.100689,11843.295072,-3404.947333,2451.505594
1351.101019,9918.759623,-5107.421000,2451.505594
1351.101349,8512.368333,-5995.668130,842.705048
1351.101679,6143.709319,-7254.018232,766.095498
1351.102008,4441.235652,-8734.430116,229.828649
1351.102338,3997.112087,-9770.718434,-306.438199
1351.102668,3997.112087,-8956.491898,-536.266849
1351.102998,4737.318029,-7698.141797,-995.924147
1351.103327,6365.771101,-5625.565159,-459.657299
1351.103657,8512.368333,-4367.215058,229.828649
1351.103987,9992.780217,-4145.153275,612.876398
1351.104317,10288.862594,-4441.235652,1762.019645
1351.104646,9918.759623,-3849.070898,1608.800546
1351.104976,9548.656652,-5255.462188,995.924147
1351.105306,8660.409521,-6291.750507,1302.362347
1351.105636,7402.059420,-7698.141797,689.485948
1351.105966,7105.977043,-8660.409521,1149.143247
1351.106295,5995.668130,-9696.697840,1838.629195
1351.106625,5255.462188,-9548.656652,842.705048
1351.106955,5107.421000,-6513.812290,459.657299
1351.107285,5255.462188,-5329.482782,0.000000
1351.107614,6143.709319,-4811.338623,-229.828649
1351.107944,6883.915261,-4663.297435,995.924147
1351.108274,8068.244768,-3923.091493,995.924147
1351.108604,9252.574275,-2738.761985,1455.581446
1351.108933,9548.656652,-2368.659014,1378.971896
1351.109263,9844.739029,-4071.132681,1455.581446
1351.109593,9770.718434,-5181.441594,1302.362347
1351.109923,9918.759623,-6217.729913,1608.800546
1351.110253,8808.450710,-7105.977043,1838.629195
1351.110582,7031.956449,-6883.915261,1532.190996
1351.110912,6069.688724,-6957.935855,536.266849
1351.111242,5181.441594,-7254.018232,-229.828649
1351.111572,4885.359217,-8068.244768,153.219100
1351.111901,5329.482782,-8068.244768,842.705048
1351.112231,7031.956449,-7550.100608,2451.505594
1351.112561,7031.956449,-6365.771101,2068.457845
1351.112891,6143.709319,-5107.421000,995.924147
1351.113220,5181.441594,-5181.441594,919.314598
1351.113550,6661.853478,-6735.874072,1302.362347
1351.113879,6957.935855,-6217.729913,1532.190996
1351.114209,7254.018232,-7105.977043,1991.848295
1351.114538,8438.347739,-4737.318029,1608.800546
1351.114867,8290.306550,-4737.318029,919.314598
1351.115196,7624.121203,-7031.956449,1225.752797
1351.115525,6809.894666,-9030.512492,1685.410096
1351.115854,6513.812290,-8956.491898,1532.190996
1351.116184,5921.647536,-7550.100608,1378.971896
1351.116513,5107.421000,-6069.688724,536.266849
1351.116842,4885.359217,-6217.729913,-229.828649
1351.117171,5329.482782,-7179.997637,383.047749
1351.117500,6439.791695,-7402.059420,1225.752797
1351.117829,7624.121203,-6513.812290,1915.238745
1351.118159,7402.059420,-5329.482782,1608.800546
1351.118488,7254.018232,-3849.070898,383.047749
1351.118817,6809.894666,-4515.256246,-383.047749
1351.119146,7624.121203,-6069.688724,612.876398
1351.119475,8808.450710,-6883.915261,1915.238745
1351.119804,9474.636058,-7105.977043,2681.334243
1351.120134,8734.430116,-6217.729913,2298.286494
1351.120463,6661.853478,-7105.977043,459.657299
1351.120792,5033.400406,-8956.491898,0.000000
1351.121121,4071.132681,-9844.739029,995.924147
1351.121450,5033.400406,-9548.656652,612.876398
1351.121779,5403.503377,-7105.977043,919.314598
1351.122108,5921.647536,-4515.256246,766.095498
1351.122438,6513.812290,-4219.173869,459.657299
1351.122767,7772.162391,-3997.112087,1072.533697
1351.123096,8512.368333,-4885.359217,766.095498
1351.123425,9252.574275,-4959.379811,1225.752797
1351.123754,8734.430116,-4219.173869,1762.019645
1351.124083,8364.327145,-5033.400406,919.314598
1351.124413,7920.203579,-6587.832884,612.876398
1351.124742,7624.121203,-8290.306550,995.924147
1351.125071,7254.018232,-9696.697840,1455.581446
1351.125400,6735.874072,-8660.409521,1762.019645
1351.125729,6809.894666,-6661.853478,0.000000
1351.126058,5773.606348,-5699.585753,-229.828649
1351.126388,5773.606348,-5995.668130,76.609550
1351.126717,7031.956449,-6291.750507,536.266849
1351.127046,7328.038826,-5625.565159,1608.800546
1351.127375,7328.038826,-4959.379811,1532.190996
1351.127704,7031.956449,-4145.153275,612.876398
1351.128033,7031.956449,-6143.709319,612.876398
1351.128363,7105.977043,-7031.956449,76.609550
1351.128692,6513.812290,-9548.656652,1302.362347
1351.129021,6661.853478,-9622.677246,1532.190996
1351.129350,7105.977043,-6439.791695,1149.143247
1351.129679,6957.935855,-7624.121203,995.924147
1351.130008,6735.874072,-7772.162391,612.876398
1351.130338,7105.977043,-7550.100608,383.047749
1351.130667,6365.771101,-8512.368333,612.876398
1351.130996,5995.668130,-6217.729913,1149.143247
1351.131325,6439.791695,-5329.482782,1225.752797
1351.131654,6735.874072,-3997.112087,919.314598
1351.131983,7031.956449,-4663.297435,1302.362347
1351.132313,7105.977043,-6291.750507,1149.143247
1351.132642,7179.997637,-5551.544565,1455.581446
1351.132971,7254.018232,-5107.421000,1149.143247
1351.133300,7920.203579,-3552.988522,612.876398
1351.133629,8068.244768,-5329.482782,842.705048
1351.133958,8290.306550,-8364.327145,1915.238745
1351.134288,8068.244768,-8216.285956,1915.238745
1351.134617,6957.935855,-7920.203579,1455.581446
1351.134946,6217.729913,-7328.038826,842.705048
1351.135275,5699.585753,-6661.853478,383.047749
1351.135604,5847.626942,-8734.430116,1072.533697
1351.135933,5033.400406,-9252.574275,1072.533697
1351.136263,4959.379811,-8438.347739,1608.800546
1351.136592,5329.482782,-5995.668130,1072.533697
1351.136921,6143.709319,-4219.173869,612.876398
1351.137250,7698.141797,-3701.029710,689.485948
1351.137579,8808.450710,-4737.318029,1532.190996
1351.137908,9400.615463,-6587.832884,1072.533697
1351.138238,8808.450710,-5699.585753,1762.019645
1351.138567,8734.430116,-5107.421000,1685.410096
1351.138896,8290.306550,-5033.400406,766.095498
1351.139225,7846.182985,-6587.832884,995.924147
1351.139554,6957.935855,-8290.306550,383.047749
1351.139883,6291.750507,-9326.594869,842.705048
1351.140213,6291.750507,-7994.224174,536.266849
1351.140542,5477.523971,-6513.812290,459.657299
1351.140871,5255.462188,-5107.421000,0.000000
1351.141200,5773.606348,-5995.668130,0.000000
1351.141529,6735.874072,-6587.832884,459.657299
1351.141858,7920.203579,-6439.791695,1685.410096
1351.142188,8586.388927,-5403.503377,1991.848295
1351.142517,8808.450710,-4589.276840,1149.143247
1351.142846,7624.121203,-5625.565159,612.876398
1351.143175,7179.997637,-7698.141797,842.705048
1351.143504,6809.894666,-9252.574275,1072.533697
1351.143833,7031.956449,-8512.368333,1838.629195
1351.144163,6587.832884,-6513.812290,766.095498
1351.144492,6069.688724,-5847.626942,229.828649
1351.144821,6957.935855,-6291.750507,536.266849
1351.145150,7105.977043,-7846.182985,919.314598
1351.145479,7105.977043,-7624.121203,1608.800546
1351.145808,5921.647536,-6513.812290,919.314598
1351.146138,5477.523971,-5329.482782,0.000000
1351.146467,5625.565159,-5477.523971,0.000000
1351.146796,6661.853478,-7402.059420,383.047749
1351.147125,7402.059420,-8438.347739,919.314598
1351.147454,7698.141797,-7920.203579,1762.019645
1351.147783,7624.121203,-6143.709319,919.314598
1351.148113,7846.182985,-4737.318029,919.314598
1351.148442,8216.285956,-5329.482782,1532.190996
1351.148771,8882.471304,-5921.647536,1532.190996
1351.149100,8216.285956,-6957.935855,1608.800546
1351.149429,7105.977043,-6069.688724,1762.019645
1351.149758,6809.894666,-4959.379811,1149.143247
1351.150088,5773.606348,-5181.441594,919.314598
1351.150417,5551.544565,-7105.977043,766.095498
1351.150746,4959.379811,-9104.533087,1608.800546
1351.151075,5699.585753,-8586.388927,1838.629195
1351.151404,6735.874072,-6883.915261,1378.971896
1351.151733,7105.977043,-4663.297435,689.485948
1351.152063,7254.018232,-4145.153275,612.876398
1351.152392,7254.018232,-6217.729913,612.876398
1351.152721,7402.059420,-7179.997637,1685.410096
1351.153050,8364.327145,-5921.647536,1455.581446
1351.153379,7698.141797,-5699.585753,919.314598
1351.153708,6883.915261,-5625.565159,995.924147
1351.154038,6217.729913,-7402.059420,612.876398
1351.154367,5551.544565,-8068.244768,1072.533697
1351.154696,6587.832884,-8882.471304,1302.362347
1351.155025,5921.647536,-7994.224174,1685.410096
1351.155354,6217.729913,-6883.915261,919.314598
1351.155683,5551.544565,-5921.647536,612.876398
1351.156013,6365.771101,-6143.709319,1378.971896
1351.156342,7994.224174,-6809.894666,1225.752797
1351.156671,8216.285956,-6439.791695,2374.896044
1351.157000,8216.285956,-5403.503377,2068.457845
1351.157329,7328.038826,-4367.215058,0.000000
1351.157658,6513.812290,-4441.235652,0.000000
1351.157988,5773.606348,-7476.080014,306.438199
1351.158317,6439.791695,-9326.594869,1149.143247
1351.158646,6809.894666,-7994.224174,1608.800546
1351.158975,7476.080014,-5995.668130,1149.143247
1351.159304,7105.977043,-4811.338623,919.314598
1351.159633,7031.956449,-6217.729913,842.705048
1351.159963,7476.080014,-7624.121203,1225.752797
1351.160292,7550.100608,-6661.853478,1378.971896
1351.160621,7476.080014,-5107.421000,1762.019645
1351.160950,7328.038826,-5033.400406,919.314598
1351.161279,6883.915261,-5921.647536,842.705048
1351.161608,6957.935855,-7031.956449,0.000000
1351.161937,7550.100608,-7179.997637,1532.190996
1351.162267,7624.121203,-6661.853478,919.314598
1351.162596,7105.977043,-6513.812290,1072.533697
1351.162925,6883.915261,-5551.544565,76.609550
1351.163254,6883.915261,-5181.441594,153.219100
1351.163583,7476.080014,-5847.626942,766.095498
1351.163912,7476.080014,-7179.997637,1762.019645
1351.164242,7994.224174,-6809.894666,2374.896044
1351.164571,7698.141797,-6365.771101,1532.190996
1351.164900,6735.874072,-6143.709319,842.705048
1351.165229,5625.565159,-7550.100608,766.095498
1351.165558,5699.585753,-9696.697840,919.314598
1351.165887,5921.647536,-9030.512492,919.314598
1351.166217,5699.585753,-7402.059420,536.266849
1351.166546,6661.853478,-5477.523971,536.266849
1351.166875,7402.059420,-4811.338623,612.876398
1351.167204,8364.327145,-6439.791695,995.924147
1351.167533,8068.244768,-6439.791695,1532.190996
1351.167862,7698.141797,-6291.750507,766.095498
1351.168192,7402.059420,-5181.441594,1149.143247
1351.168521,6957.935855,-5107.421000,842.705048
1351.168850,6735.874072,-6809.894666,536.266849
1351.169179,7031.956449,-8290.306550,1225.752797
1351.169508,6735.874072,-9178.553681,1685.410096
1351.169837,6439.791695,-7698.141797,1072.533697
1351.170167,5477.523971,-6291.750507,383.047749
1351.170496,5329.482782,-6143.709319,0.000000
1351.170825,6069.688724,-6513.812290,766.095498
1351.171154,7624.121203,-6883.915261,1455.581446
1351.171483,8290.306550,-5847.626942,2298.286494
1351.171812,8216.285956,-4811.338623,1762.019645
1351.172142,7476.080014,-4441.235652,995.924147
1351.172471,6439.791695,-5847.626942,1149.143247
1351.172800,7254.018232,-7105.977043,1532.190996
1351.173129,7328.038826,-8068.244768,2068.457845
1351.173458,7328.038826,-7402.059420,2068.457845
1351.173787,7254.018232,-4959.379811,1225.752797
1351.174117,7698.141797,-4145.153275,919.314598
1351.174446,7254.018232,-5699.585753,612.876398
1351.174775,7254.018232,-7254.018232,1532.190996
1351.175104,6809.894666,-7846.182985,1532.190996
1351.175433,6291.750507,-6661.853478,1378.971896
1351.175762,5995.668130,-5181.441594,383.047749
1351.176092,6143.709319,-5995.668130,153.219100
1351.176421,6735.874072,-7994.224174,919.314598
1351.176750,7031.956449,-8438.347739,1532.190996
1351.177079,7624.121203,-7254.018232,536.266849
1351.177408,6661.853478,-6365.771101,842.705048
1351.177737,6217.729913,-5773.606348,459.657299
1351.178067,6957.935855,-5995.668130,76.609550
1351.178396,7920.203579,-6957.935855,1378.971896
1351.178725,8290.306550,-7254.018232,1608.800546
1351.179054,7550.100608,-6587.832884,1685.410096
1351.179383,6957.935855,-5995.668130,995.924147
1351.179712,6143.709319,-5995.668130,766.095498
1351.180042,5699.585753,-8068.244768,383.047749
1351.180371,5847.626942,-8882.471304,1149.143247
1351.180700,5921.647536,-8364.327145,1072.533697
1351.181029,5995.668130,-6587.832884,612.876398
1351.181358,7031.956449,-4515.256246,689.485948
1351.181687,7328.038826,-4293.194464,0.000000
1351.182017,8364.327145,-5625.565159,919.314598
1351.182346,8068.244768,-6069.688724,1455.581446
1351.182675,7994.224174,-5921.647536,689.485948
1351.183004,7846.182985,-4589.276840,995.924147
1351.183333,7846.182985,-5107.421000,689.485948
1351.183662,7772.162391,-7550.100608,1149.143247
1351.183992,7402.059420,-8068.244768,1378.971896
1351.184321,6735.874072,-8216.285956,766.095498
1351.184650,6217.729913,-7698.141797,995.924147
1351.184979,5995.668130,-6661.853478,689.485948
1351.185308,6069.688724,-5921.647536,229.828649
1351.185637,5921.647536,-5995.668130,459.657299
1351.185967,6883.915261,-6439.791695,1072.533697
1351.186296,6735.874072,-5773.606348,1915.238745
1351.186625,7402.059420,-6439.791695,1915.238745
1351.186954,6883.915261,-5625.565159,1072.533697
1351.187283,6291.750507,-6439.791695,0.000000
1351.187612,6069.688724,-8290.306550,842.705048
1351.187942,5477.523971,-9474.636058,1532.190996
1351.188271,6143.709319,-8290.306550,1149.143247
1351.188600,6661.853478,-6513.812290,1149.143247
1351.188929,6957.935855,-5625.565159,306.438199
1351.189258,7846.182985,-6513.812290,1225.752797
1351.189587,8438.347739,-6439.791695,1685.410096
1351.189917,7846.182985,-6365.771101,1378.971896
1351.190246,7254.018232,-4737.318029,1225.752797
1351.190575,7254.018232,-4219.173869,919.314598
1351.190904,7476.080014,-4737.318029,536.266849
1351.191233,7328.038826,-5921.647536,1072.533697
1351.191562,7624.121203,-7328.038826,1302.362347
1351.191892,7105.977043,-7550.100608,1455.581446
1351.192221,6735.874072,-6735.874072,1685.410096
1351.192550,6661.853478,-5921.647536,1302.362347
1351.192879,7105.977043,-5551.544565,766.095498
1351.193208,7550.100608,-6587.832884,1378.971896
1351.193537,7476.080014,-7105.977043,2145.067394
1351.193867,7846.182985,-7031.956449,2221.676944
1351.194196,7031.956449,-5477.523971,1455.581446
1351.194525,6069.688724,-5107.421000,383.047749
1351.194854,5477.523971,-7254.018232,689.485948
1351.195183,5773.606348,-8142.265362,919.314598
1351.195512,6217.729913,-8734.430116,1685.410096
1351.195842,6291.750507,-6883.915261,1302.362347
1351.196171,7105.977043,-4959.379811,536.266849
1351.196500,8142.265362,-5329.482782,1225.752797
1351.196829,8586.388927,-5921.647536,1608.800546
1351.197158,8068.244768,-6735.874072,1455.581446
1351.197487,7846.182985,-6661.853478,1762.019645
1351.197817,7105.977043,-5477.523971,919.314598
1351.198146,6513.812290,-5403.503377,383.047749
1351.198475,5329.482782,-7179.997637,153.219100
1351.198804,5699.585753,-8290.306550,842.705048
1351.199133,6513.812290,-8734.430116,919.314598
1351.199462,6809.894666,-6809.894666,1378.971896
1351.199792,7254.018232,-5477.523971,2068.457845
1351.200121,7328.038826,-4811.338623,536.266849
1351.200450,7105.977043,-5033.400406,153.219100
1351.200779,7402.059420,-5995.668130,995.924147
1351.201108,7772.162391,-7698.141797,1762.019645
1351.201437,8142.265362,-6883.915261,2451.505594
1351.201766,7254.018232,-5847.626942,995.924147
1351.202096,6439.791695,-6883.915261,459.657299
1351.202425,5995.668130,-8512.368333,612.876398
1351.202754,5773.606348,-9844.739029,842.705048
1351.203083,5033.400406,-9252.574275,612.876398
1351.203412,5033.400406,-7179.997637,76.609550
1351.203741,5403.503377,-5773.606348,-459.657299
1351.204071,6661.853478,-5921.647536,383.047749
1351.204400,8216.285956,-6365.771101,1455.581446
1351.204729,9030.512492,-6069.688724,1685.410096
1351.205058,8808.450710,-5033.400406,2145.067394
1351.205387,8438.347739,-4441.235652,1072.533697
1351.205716,7550.100608,-4737.318029,766.095498
1351.206046,7105.977043,-7476.080014,1225.752797
1351.206375,7105.977043,-7846.182985,842.705048
1351.206704,6957.935855,-8364.327145,1378.971896
1351.207033,7105.977043,-7031.956449,1455.581446
1351.207362,7031.956449,-5329.482782,919.314598
1351.207691,6883.915261,-5033.400406,76.609550
1351.208021,6809.894666,-6513.812290,536.266849
1351.208350,7105.977043,-6957.935855,995.924147
1351.208679,7031.956449,-6735.874072,1455.581446
1351.209008,6883.915261,-5255.462188,995.924147
1351.209337,6217.729913,-5033.400406,383.047749
1351.209666,6365.771101,-6661.853478,919.314598
1351.209996,6587.832884,-8364.327145,1532.190996
1351.210325,6513.812290,-8660.409521,1838.629195
1351.210654,6883.915261,-6809.894666,1072.533697
1351.210983,7105.977043,-5847.626942,766.095498
1351.211312,7476.080014,-5329.482782,459.657299
1351.211641,7550.100608,-6143.709319,995.924147
1351.211971,7772.162391,-7105.977043,1532.190996
1351.212300,7476.080014,-6439.791695,1072.533697
1351.212629,6809.894666,-5625.565159,766.095498
1351.212958,6143.709319,-5477.523971,459.657299
1351.213287,6069.688724,-6513.812290,306.438199
1351.213616,6513.812290,-7698.141797,842.705048
1351.213946,6513.812290,-8142.265362,1225.752797
1351.214275,6587.832884,-8512.368333,1762.019645
1351.214604,7402.059420,-5255.462188,689.485948
1351.214933,7624.121203,-4145.153275,536.266849
1351.215262,7624.121203,-5477.523971,536.266849
1351.215591,7624.121203,-7328.038826,1532.190996
1351.215919,7698.141797,-7920.203579,1608.800546
1351.216248,7402.059420,-6735.874072,1455.581446
1351.216577,6661.853478,-5477.523971,689.485948
1351.216906,5625.565159,-6217.729913,153.219100
1351.217235,5255.462188,-8512.368333,612.876398
1351.217564,5625.565159,-10362.883188,919.314598
1351.217892,5995.668130,-8290.306550,919.314598
1351.218221,5921.647536,-6365.771101,459.657299
1351.218550,6143.709319,-4737.318029,0.000000
1351.218879,7105.977043,-5329.482782,536.266849
1351.219208,7698.141797,-7402.059420,1225.752797
1351.219537,8216.285956,-5995.668130,2145.067394
1351.219866,8586.388927,-4885.359217,1915.238745
1351.220195,8660.409521,-4589.276840,1608.800546
1351.220524,8290.306550,-4367.215058,919.314598
1351.220853,7698.141797,-6291.750507,1149.143247
1351.221182,7402.059420,-7550.100608,1455.581446
1351.221511,6957.935855,-8438.347739,1455.581446
1351.221840,6661.853478,-6957.935855,1378.971896
1351.222169,6365.771101,-5255.462188,306.438199
1351.222498,5847.626942,-5181.441594,383.047749
1351.222827,6439.791695,-7328.038826,612.876398
1351.223156,6957.935855,-7846.182985,1838.629195
1351.223485,7105.977043,-7328.038826,1991.848295
1351.223814,6513.812290,-5847.626942,995.924147
1351.224143,6217.729913,-5403.503377,-306.438199
1351.224472,5773.606348,-7550.100608,459.657299
1351.224801,6439.791695,-9400.615463,612.876398
1351.225130,5995.668130,-9474.636058,1225.752797
1351.225459,5699.585753,-7920.203579,1685.410096
1351.225788,6587.832884,-5255.462188,306.438199
1351.226117,6513.812290,-5107.421000,459.657299
1351.226446,7476.080014,-6439.791695,766.095498
1351.226775,8290.306550,-6661.853478,1302.362347
1351.227104,8068.244768,-5773.606348,2068.457845
1351.227433,7698.141797,-4737.318029,1838.629195
1351.227762,7994.224174,-4589.276840,1225.752797
1351.228091,7105.977043,-5477.523971,689.485948
1351.228420,6513.812290,-7179.997637,689.485948
1351.228749,6143.709319,-7476.080014,1225.752797
1351.229078,6957.935855,-7254.018232,1532.190996
1351.229407,7105.977043,-6587.832884,1149.143247
1351.229736,6883.915261,-4737.318029,919.314598
1351.230065,7105.977043,-5477.523971,766.095498
1351.230394,7105.977043,-7105.977043,1302.362347
1351.230723,7105.977043,-7550.100608,1915.238745
1351.231052,7550.100608,-7105.977043,1991.848295
1351.231381,7846.182985,-5921.647536,1608.800546
1351.231710,6809.894666,-5995.668130,842.705048
1351.232039,5773.606348,-8142.265362,536.266849
1351.232367,5921.647536,-9770.718434,919.314598
1351.232696,6143.709319,-9030.512492,1455.581446
1351.233025,6661.853478,-6217.729913,1302.362347
1351.233354,6735.874072,-4589.276840,689.485948
1351.233683,7550.100608,-4293.194464,612.876398
1351.234012,8290.306550,-6439.791695,842.705048
1351.234341,7846.182985,-6883.915261,2298.286494
1351.234670,7846.182985,-4145.153275,2451.505594
1351.234999,7920.203579,-4293.194464,1378.971896
1351.235328,7179.997637,-4737.318029,919.314598
1351.235657,6439.791695,-7031.956449,536.266849
1351.235986,6217.729913,-8216.285956,842.705048
1351.236315,6809.894666,-8512.368333,1072.533697
1351.236644,6957.935855,-7402.059420,1838.629195
1351.236973,7031.956449,-5847.626942,1225.752797
1351.237302,6735.874072,-5181.441594,459.657299
1351.237631,7254.018232,-6513.812290,1838.629195
1351.237960,7179.997637,-7402.059420,1302.362347
1351.238289,7772.162391,-7254.018232,2145.067394
1351.238618,6957.935855,-6069.688724,1532.190996
1351.238947,6661.853478,-4885.359217,229.828649
1351.239276,5403.503377,-7328.038826,0.000000
1351.239605,5181.441594,-9844.739029,153.219100
1351.239934,5403.503377,-9918.759623,919.314598
1351.240263,6069.688724,-8364.327145,383.047749
1351.240592,6661.853478,-6217.729913,459.657299
1351.240921,6365.771101,-5107.421000,536.266849
1351.241250,6957.935855,-7550.100608,459.657299
1351.241579,7624.121203,-7772.162391,1225.752797
1351.241908,7698.141797,-7105.977043,1225.752797
1351.242237,7920.203579,-5255.462188,1225.752797
1351.242566,7328.038826,-4441.235652,919.314598
1351.242895,7179.997637,-5403.503377,689.485948
1351.243224,7179.997637,-6883.915261,1225.752797
1351.243553,7105.977043,-7772.162391,1072.533697
1351.243882,7476.080014,-5921.647536,1378.971896
1351.244211,7624.121203,-4737.318029,1072.533697
1351.244540,7328.038826,-4441.235652,766.095498
1351.244869,7994.224174,-4219.173869,229.828649
1351.245198,8068.244768,-5921.647536,229.828649
1351.245527,7920.203579,-7476.080014,2604.724693
1351.245856,7772.162391,-6883.915261,1762.019645
1351.246185,7179.997637,-5625.565159,919.314598
1351.246514,5403.503377,-5773.606348,0.000000
1351.246842,5181.441594,-8660.409521,0.000000
1351.247171,5329.482782,-10140.821405,1302.362347
1351.247500,5847.626942,-9622.677246,1455.581446
1351.247829,6735.874072,-6883.915261,995.924147
1351.248158,6587.832884,-3256.906145,0.000000
1351.248487,7328.038826,-4589.276840,0.000000
1351.248816,8734.430116,-6513.812290,1455.581446
1351.249145,8882.471304,-6291.750507,1838.629195
1351.249474,8216.285956,-5181.441594,1532.190996
1351.249803,8142.265362,-3552.988522,995.924147
1351.250132,7179.997637,-4737.318029,383.047749
1351.250461,6809.894666,-6883.915261,153.219100
1351.250790,6587.832884,-8882.471304,1149.143247
1351.251119,6735.874072,-9030.512492,1915.238745
1351.251448,7031.956449,-7105.977043,2068.457845
1351.251777,6883.915261,-5329.482782,1072.533697
1351.252106,6513.812290,-4885.359217,383.047749
1351.252435,6513.812290,-6957.935855,306.438199
1351.252764,7624.121203,-8068.244768,2145.067394
1351.253093,7550.100608,-7402.059420,2374.896044
1351.253422,7328.038826,-5255.462188,1608.800546
1351.253751,7402.059420,-3627.009116,536.266849
1351.254080,6735.874072,-6365.771101,383.047749
1351.254409,5995.668130,-9030.512492,1532.190996
1351.254738,5773.606348,-9474.636058,919.314598
1351.255067,5625.565159,-8216.285956,383.047749
1351.255396,5921.647536,-5403.503377,0.000000
1351.255725,6513.812290,-5403.503377,766.095498
1351.256054,7550.100608,-7105.977043,842.705048
1351.256383,7698.141797,-8142.265362,1762.019645
1351.256712,7772.162391,-7105.977043,1532.190996
1351.257041,7476.080014,-5255.462188,1302.362347
1351.257370,7031.956449,-3997.112087,766.095498
1351.257699,7179.997637,-5773.606348,612.876398
1351.258028,7105.977043,-7624.121203,1378.971896
1351.258357,7328.038826,-8290.306550,1532.190996
1351.258686,7402.059420,-6513.812290,2221.676944
1351.259015,7179.997637,-4663.297435,995.924147
1351.259344,6809.894666,-4515.256246,536.266849
1351.259673,6809.894666,-5699.585753,76.609550
1351.260002,7031.956449,-7031.956449,1072.533697
1351.260331,7476.080014,-7328.038826,1762.019645
1351.260660,7105.977043,-7031.956449,1838.629195
1351.260988,7105.977043,-4885.359217,1685.410096
1351.261317,6217.729913,-5995.668130,153.219100
1351.261646,5847.626942,-8734.430116,536.266849
1351.261975,5847.626942,-9918.759623,919.314598
1351.262304,6291.750507,-8808.450710,1532.190996
1351.262633,7031.956449,-5847.626942,1378.971896
1351.262962,7105.977043,-4663.297435,766.095498
1351.263291,7402.059420,-5107.421000,1302.362347
1351.263620,7624.121203,-5995.668130,919.314598
1351.263949,7031.956449,-6883.915261,1302.362347
1351.264278,7550.100608,-5329.482782,1685.410096
1351.264607,7476.080014,-4737.318029,1455.581446
1351.264936,7772.162391,-4811.338623,229.828649
1351.265265,6735.874072,-7179.997637,919.314598
1351.265594,6661.853478,-8586.388927,1225.752797
1351.265923,6513.812290,-7846.182985,842.705048
1351.266252,6587.832884,-6809.894666,1608.800546
1351.266581,6735.874072,-3997.112087,459.657299
1351.266910,7105.977043,-4737.318029,842.705048
1351.267239,7624.121203,-5995.668130,1225.752797
1351.267568,7550.100608,-6587.832884,1915.238745
1351.267897,8068.244768,-5847.626942,1915.238745
1351.268226,7624.121203,-5181.441594,1915.238745
1351.268555,7105.977043,-5181.441594,1072.533697
1351.268884,5773.606348,-7254.018232,0.000000
1351.269213,5255.462188,-9178.553681,306.438199
1351.269542,5921.647536,-10288.862594,842.705048
1351.269871,6513.812290,-8512.368333,1302.362347
1351.270200,6735.874072,-6217.729913,1149.143247
1351.270529,6735.874072,-5329.482782,76.609550
1351.270858,7105.977043,-5921.647536,76.609550
1351.271187,7920.203579,-7105.977043,1455.581446
1351.271516,8290.306550,-6439.791695,1608.800546
1351.271845,7920.203579,-4663.297435,1608.800546
1351.272174,7624.121203,-3849.070898,919.314598
1351.272503,7179.997637,-5181.441594,1149.143247
1351.272832,7031.956449,-7698.141797,1532.190996
1351.273161,7105.977043,-8364.327145,1608.800546
1351.273490,7105.977043,-7476.080014,1455.581446
1351.273819,6809.894666,-5921.647536,1378.971896
1351.274148,6587.832884,-5181.441594,383.047749
1351.274477,7105.977043,-6365.771101,459.657299
1351.274806,7179.997637,-7179.997637,1608.800546
1351.275135,7031.956449,-7550.100608,1685.410096
1351.275463,7698.141797,-6439.791695,1762.019645
1351.275792,7105.977043,-4737.318029,1072.533697
1351.276121,6143.709319,-6439.791695,306.438199
1351.276450,5107.421000,-8438.347739,612.876398
1351.276779,4737.318029,-9992.780217,536.266849
1351.277108,5847.626942,-8364.327145,919.314598
1351.277437,6365.771101,-6143.709319,1378.971896
1351.277766,7105.977043,-5625.565159,919.314598
1351.278095,7772.162391,-5699.585753,689.485948
1351.278424,8142.265362,-7031.956449,919.314598
1351.278753,7105.977043,-7105.977043,1149.143247
1351.279082,7105.977043,-6291.750507,1225.752797
1351.279411,7105.977043,-4811.338623,612.876398
1351.279740,6587.832884,-6661.853478,689.485948
1351.280069,5773.606348,-7624.121203,1149.143247
1351.280398,6365.771101,-8216.285956,1225.752797
1351.280727,6439.791695,-7846.182985,1378.971896
1351.281056,6735.874072,-5477.523971,1378.971896
1351.281385,7105.977043,-4589.276840,842.705048
1351.281714,7846.182985,-4219.173869,306.438199
1351.282043,8142.265362,-5551.544565,1072.533697
1351.282372,8586.388927,-5921.647536,2145.067394
1351.282701,8808.450710,-6069.688724,2528.115143
1351.283030,8512.368333,-5033.400406,1455.581446
1351.283359,7105.977043,-5107.421000,842.705048
1351.283688,5847.626942,-6883.915261,0.000000
1351.284017,6069.688724,-9178.553681,766.095498
1351.284346,5699.585753,-9400.615463,1072.533697
1351.284675,5699.585753,-7994.224174,689.485948
1351.285004,6291.750507,-5255.462188,0.000000
1351.285333,7105.977043,-4959.379811,306.438199
1351.285662,7550.100608,-6513.812290,689.485948
1351.285991,7402.059420,-6883.915261,995.924147
1351.286320,7476.080014,-6143.709319,1149.143247
1351.286649,7550.100608,-4885.359217,689.485948
1351.286978,7698.141797,-5033.400406,536.266849
1351.287307,7476.080014,-6069.688724,1378.971896
1351.287636,6957.935855,-7328.038826,1762.019645
1351.287965,7254.018232,-8660.409521,1532.190996
1351.288294,7254.018232,-6587.832884,1072.533697
1351.288623,6883.915261,-5921.647536,842.705048
1351.288952,6883.915261,-5403.503377,306.438199
1351.289281,7254.018232,-5773.606348,459.657299
1351.289610,7105.977043,-7328.038826,1762.019645
1351.289938,7698.141797,-6661.853478,1608.800546
1351.290267,7179.997637,-5181.441594,1532.190996
1351.290596,6957.935855,-5255.462188,0.000000
1351.290925,6217.729913,-6291.750507,153.219100
1351.291254,5847.626942,-8734.430116,536.266849
1351.291583,5699.585753,-10732.986159,1225.752797
1351.291912,5995.668130,-8512.368333,1149.143247
1351.292241,6587.832884,-6809.894666,153.219100
1351.292570,7105.977043,-5625.565159,0.000000
1351.292899,7328.038826,-6661.853478,766.095498
1351.293228,8068.244768,-7254.018232,1455.581446
1351.293557,7994.224174,-7476.080014,1149.143247
1351.293886,7772.162391,-5107.421000,1302.362347
1351.294215,7179.997637,-4367.215058,1072.533697
1351.294544,6809.894666,-5773.606348,612.876398
1351.294873,6513.812290,-7254.018232,766.095498
1351.295202,6513.812290,-8142.265362,1149.143247
1351.295531,7031.956449,-7624.121203,1532.190996
1351.295860,6513.812290,-6439.791695,842.705048
1351.296189,5773.606348,-5773.606348,842.705048
1351.296518,5847.626942,-6069.688724,383.047749
1351.296847,7254.018232,-7328.038826,1762.019645
1351.297176,7920.203579,-7105.977043,2604.724693
1351.297505,8438.347739,-5255.462188,3064.381992
1351.297834,8216.285956,-4219.173869,2451.505594
1351.298163,7846.182985,-4219.173869,1302.362347
1351.298492,6439.791695,-6069.688724,919.314598
1351.298821,5551.544565,-8290.306550,689.485948
1351.299150,5477.523971,-8438.347739,612.876398
1351.299479,5847.626942,-6883.915261,689.485948
1351.299808,6513.812290,-6365.771101,459.657299
1351.300137,6735.874072,-6439.791695,459.657299
1351.300466,6735.874072,-7846.182985,842.705048
1351.300795,7105.977043,-7772.162391,1225.752797
1351.301124,7105.977043,-6957.935855,1608.800546
1351.301453,6809.894666,-5699.585753,1072.533697
1351.301782,6587.832884,-6069.688724,612.876398
1351.302111,6587.832884,-7105.977043,842.705048
1351.302440,7105.977043,-7772.162391,1149.143247
1351.302769,7698.141797,-7031.956449,2221.676944
1351.303098,7698.141797,-5847.626942,1915.238745
1351.303427,7105.977043,-4145.153275,919.314598
1351.303756,7476.080014,-4071.132681,306.438199
1351.304084,7624.121203,-5551.544565,766.095498
1351.304413,7698.141797,-7031.956449,1149.143247
1351.304742,7550.100608,-7105.977043,2068.457845
1351.305071,7624.121203,-6291.750507,1762.019645
1351.305400,6957.935855,-5773.606348,689.485948
1351.305729,5921.647536,-6883.915261,842.705048
1351.306058,6143.709319,-9178.553681,766.095498
1351.306387,6439.791695,-9474.636058,842.705048
1351.306716,6143.709319,-7402.059420,1302.362347
1351.307045,6217.729913,-5995.668130,995.924147
1351.307374,7179.997637,-4441.235652,612.876398
1351.307703,7179.997637,-5699.585753,229.828649
1351.308032,7179.997637,-6513.812290,919.314598
1351.308361,8142.265362,-6069.688724,1455.581446
1351.308690,8068.244768,-4811.338623,1455.581446
1351.309019,7476.080014,-5033.400406,1455.581446
1351.309348,7254.018232,-5995.668130,919.314598
1351.309677,6957.935855,-7105.977043,536.266849
1351.310006,6957.935855,-8512.368333,995.924147
1351.310335,6957.935855,-7920.203579,1915.238745
1351.310664,6661.853478,-6587.832884,842.705048
1351.310993,6365.771101,-6365.771101,306.438199
1351.311322,6069.688724,-6661.853478,306.438199
1351.311651,6957.935855,-6957.935855,306.438199
1351.311980,7105.977043,-6587.832884,1302.362347
1351.312309,7550.100608,-5921.647536,1991.848295
1351.312638,7698.141797,-4811.338623,1685.410096
1351.312967,7254.018232,-4737.318029,689.485948
1351.313296,7105.977043,-7328.038826,229.828649
1351.313625,6217.729913,-8586.388927,536.266849
1351.313954,5921.647536,-8956.491898,1532.190996
1351.314283,6439.791695,-7994.224174,1149.143247
1351.314612,6735.874072,-6365.771101,306.438199
1351.314941,6809.894666,-5477.523971,153.219100
1351.315270,7254.018232,-7179.997637,229.828649
1351.315599,7772.162391,-7550.100608,1455.581446
1351.315928,7772.162391,-6439.791695,1838.629195
1351.316257,7402.059420,-5329.482782,1991.848295
1351.316586,6883.915261,-5255.462188,612.876398
1351.316915,5847.626942,-7105.977043,689.485948
1351.317244,6143.709319,-7402.059420,612.876398
1351.317573,6957.935855,-7920.203579,1608.800546
1351.317902,7328.038826,-6661.853478,1685.410096
1351.318231,7402.059420,-5329.482782,1455.581446
1351.318560,7105.977043,-5181.441594,536.266849
1351.318889,6587.832884,-5921.647536,153.219100
1351.319218,6513.812290,-6661.853478,1455.581446
1351.319547,8142.265362,-6735.874072,2451.505594
1351.319876,8216.285956,-5699.585753,2145.067394
1351.320205,7105.977043,-5477.523971,1608.800546
1351.320534,6661.853478,-5995.668130,1455.581446
1351.320863,6735.874072,-7698.141797,536.266849
1351.321192,5847.626942,-9252.574275,1455.581446
1351.321521,5773.606348,-8142.265362,1302.362347
1351.321850,6513.812290,-6143.709319,612.876398
1351.322179,6735.874072,-3997.112087,612.876398
1351.322508,6883.915261,-5551.544565,459.657299
1351.322838,7698.141797,-6217.729913,1225.752797
1351.323167,8216.285956,-5921.647536,1838.629195
1351.323496,7994.224174,-5921.647536,1838.629195
1351.323825,8142.265362,-4145.153275,842.705048
1351.324154,6735.874072,-5625.565159,766.095498
1351.324483,6217.729913,-7105.977043,536.266849
1351.324812,5921.647536,-9252.574275,1072.533697
1351.325141,5995.668130,-8364.327145,1149.143247
1351.325470,6217.729913,-6735.874072,1608.800546
1351.325799,6069.688724,-6883.915261,766.095498
1351.326128,6513.812290,-5847.626942,536.266849
1351.326457,6661.853478,-5699.585753,919.314598
1351.326786,7772.162391,-6513.812290,1302.362347
1351.327115,8216.285956,-5551.544565,2068.457845
1351.327444,7698.141797,-5625.565159,1762.019645
1351.327773,6587.832884,-4663.297435,306.438199
1351.328102,5847.626942,-7402.059420,0.000000
1351.328431,5921.647536,-9474.636058,2374.896044
1351.328760,7105.977043,-8808.450710,1838.629195
1351.329089,7550.100608,-7698.141797,1455.581446
1351.329418,7179.997637,-4959.379811,995.924147
1351.329747,7105.977043,-4515.256246,383.047749
1351.330076,7105.977043,-6661.853478,153.219100
1351.330405,6661.853478,-6735.874072,1149.143247
1351.330734,7105.977043,-6957.935855,1455.581446
1351.331063,7550.100608,-5921.647536,1378.971896
1351.331392,6809.894666,-5329.482782,1762.019645
1351.331721,6513.812290,-6957.935855,536.266849
1351.332050,6365.771101,-7994.224174,612.876398
1351.332379,5699.585753,-8512.368333,766.095498
1351.332708,6069.688724,-7328.038826,919.314598
1351.333037,6661.853478,-5403.503377,995.924147
1351.333366,7550.100608,-5477.523971,842.705048
1351.333695,7328.038826,-6291.750507,995.924147
1351.334024,7624.121203,-7254.018232,1685.410096
1351.334354,8364.327145,-6883.915261,1838.629195
1351.334683,8438.347739,-5403.503377,2068.457845
1351.335012,7254.018232,-5033.400406,1455.581446
1351.335341,6883.915261,-5921.647536,689.485948
1351.335670,6143.709319,-7920.203579,383.047749
1351.335999,5551.544565,-8438.347739,1072.533697
1351.336328,6069.688724,-7846.182985,1225.752797
1351.336657,6957.935855,-5995.668130,689.485948
1351.336986,7179.997637,-4663.297435,689.485948
1351.337315,6365.771101,-5699.585753,766.095498
1351.337644,7328.038826,-7105.977043,689.485948
1351.337973,7402.059420,-6809.894666,1072.533697
1351.338302,7624.121203,-5625.565159,1302.362347
1351.338631,7476.080014,-5329.482782,1225.752797
1351.338960,7402.059420,-5551.544565,919.314598
1351.339289,7402.059420,-7105.977043,1072.533697
1351.339618,6883.915261,-8364.327145,1608.800546
1351.339947,6809.894666,-7772.162391,1685.410096
1351.340276,6661.853478,-5847.626942,1149.143247
1351.340605,5847.626942,-4737.318029,689.485948
1351.340934,6143.709319,-5181.441594,0.000000
1351.341263,6439.791695,-6587.832884,536.266849
1351.341592,7105.977043,-6883.915261,1685.410096
1351.341921,7920.203579,-7105.977043,2068.457845
1351.342250,7254.018232,-5107.421000,1455.581446
1351.342579,6735.874072,-5995.668130,689.485948
1351.342908,6143.709319,-7994.224174,229.828649
1351.343237,5847.626942,-9770.718434,1455.581446
1351.343566,6217.729913,-9178.553681,1532.190996
1351.343895,7031.956449,-7105.977043,919.314598
1351.344224,6587.832884,-5255.462188,766.095498
1351.344553,7624.121203,-4441.235652,612.876398
1351.344882,7920.203579,-5477.523971,995.924147
1351.345211,7920.203579,-6439.791695,919.314598
1351.345540,7772.162391,-5625.565159,1225.752797
1351.345870,7698.141797,-4145.153275,1608.800546
1351.346199,7105.977043,-4737.318029,842.705048
1351.346528,6735.874072,-5995.668130,536.266849
1351.346857,6735.874072,-7920.203579,919.314598
1351.347186,6735.874072,-8364.327145,1149.143247
1351.347515,6957.935855,-7994.224174,1608.800546
1351.347844,6513.812290,-6661.853478,1149.143247
1351.348173,6069.688724,-5921.647536,383.047749
1351.348502,6069.688724,-6735.874072,0.000000
1351.348831,6661.853478,-7328.038826,1685.410096
1351.349160,7920.203579,-7105.977043,2221.676944
1351.349489,8142.265362,-5477.523971,1685.410096
1351.349818,7105.977043,-4589.276840,766.095498
1351.350147,5995.668130,-6291.750507,306.438199
1351.350476,5773.606348,-7846.182985,766.095498
1351.350805,6217.729913,-9030.512492,995.924147
1351.351134,7624.121203,-8364.327145,1149.143247
1351.351463,7328.038826,-6365.771101,842.705048
1351.351792,7105.977043,-5403.503377,306.438199
1351.352121,7105.977043,-6143.709319,383.047749
1351.352450,7254.018232,-7179.997637,919.314598
1351.352779,7846.182985,-6661.853478,1149.143247
1351.353108,7179.997637,-6291.750507,1378.971896
1351.353437,7031.956449,-5403.503377,1532.190996
1351.353766,7254.018232,-5403.503377,689.485948
1351.354095,6809.894666,-6809.894666,1455.581446
1351.354424,6291.750507,-7402.059420,919.314598
1351.354753,6587.832884,-7476.080014,1072.533697
1351.355082,7031.956449,-6291.750507,1378.971896
1351.355411,7624.121203,-5181.441594,536.266849
1351.355740,7105.977043,-5255.462188,689.485948
1351.356069,7254.018232,-6291.750507,689.485948
1351.356398,8290.306550,-7179.997637,1685.410096
1351.356727,8216.285956,-6513.812290,2145.067394
1351.357056,7179.997637,-5847.626942,1302.362347
1351.357386,6291.750507,-5773.606348,536.266849
1351.357715,5477.523971,-7772.162391,0.000000
1351.358044,5107.421000,-9474.636058,612.876398
1351.358373,5551.544565,-9252.574275,1455.581446
1351.358702,6809.894666,-7402.059420,1302.362347
1351.359031,7105.977043,-5107.421000,766.095498
1351.359360,6735.874072,-4515.256246,229.828649
1351.359689,7402.059420,-5625.565159,919.314598
1351.360018,8438.347739,-6439.791695,1608.800546
1351.360347,8438.347739,-5329.482782,2068.457845
1351.360676,8364.327145,-3923.091493,1991.848295
1351.361005,8216.285956,-4367.215058,1532.190996
1351.361334,7772.162391,-5995.668130,1302.362347
1351.361663,6809.894666,-7772.162391,995.924147
1351.361992,6217.729913,-8364.327145,1302.362347
1351.362321,6217.729913,-7550.100608,842.705048
1351.362650,5477.523971,-7254.018232,612.876398
1351.362979,4737.318029,-6439.791695,0.000000
1351.363308,5255.462188,-7031.956449,76.609550
1351.363637,6291.750507,-7994.224174,842.705048
1351.363966,7846.182985,-7402.059420,2145.067394
1351.364295,8660.409521,-5255.462188,2451.505594
1351.364624,8364.327145,-4441.235652,1149.143247
1351.364953,7402.059420,-5255.462188,459.657299
1351.365282,6957.935855,-6069.688724,229.828649
1351.365611,6809.894666,-8290.306550,995.924147
1351.365940,7624.121203,-7772.162391,1838.629195
1351.366269,7476.080014,-6069.688724,1302.362347
1351.366598,6291.750507,-5625.565159,229.828649
1351.366927,5699.585753,-6735.874072,-153.219100
1351.367256,5625.565159,-8290.306550,459.657299
1351.367585,5995.668130,-7772.162391,919.314598
1351.367914,6069.688724,-6587.832884,1072.533697
1351.368243,6439.791695,-5995.668130,1455.581446
1351.368572,7179.997637,-6587.832884,1072.533697
1351.368902,7105.977043,-6587.832884,536.266849
1351.369231,7402.059420,-7031.956449,1149.143247
1351.369560,7994.224174,-7698.141797,1991.848295
1351.369889,8216.285956,-6957.935855,2528.115143
1351.370218,7920.203579,-4737.318029,919.314598
1351.370547,7105.977043,-5625.565159,612.876398
1351.370876,6809.894666,-7179.997637,0.000000
1351.371205,6661.853478,-7476.080014,383.047749
1351.371534,6587.832884,-7402.059420,1838.629195
1351.371863,6439.791695,-7772.162391,1149.143247
1351.372192,5329.482782,-6143.709319,153.219100
1351.372521,4367.215058,-8290.306550,0.000000
1351.372850,4441.235652,-10362.883188,153.219100
1351.373179,5847.626942,-9178.553681,995.924147
1351.373508,7031.956449,-7698.141797,1838.629195
1351.373837,8512.368333,-3627.009116,842.705048
1351.374166,8808.450710,-2886.803174,536.266849
1351.374495,9030.512492,-4367.215058,1149.143247
1351.374824,8808.450710,-5329.482782,1685.410096
1351.375153,8734.430116,-4811.338623,2145.067394
1351.375482,8586.388927,-3478.967927,2068.457845
1351.375811,8290.306550,-4293.194464,1685.410096
1351.376140,7550.100608,-5847.626942,1455.581446
1351.376469,6587.832884,-7105.977043,612.876398
1351.376798,6143.709319,-8956.491898,1378.971896
1351.377127,6069.688724,-8216.285956,1455.581446
1351.377456,6217.729913,-6439.791695,689.485948
1351.377785,5773.606348,-5773.606348,76.609550
1351.378114,5921.647536,-7105.977043,76.609550
1351.378443,6439.791695,-7698.141797,536.266849
1351.378772,7105.977043,-8142.265362,1532.190996
1351.379101,7476.080014,-6291.750507,2221.676944
1351.379430,7994.224174,-5625.565159,995.924147
1351.379759,7402.059420,-5921.647536,1072.533697
1351.380088,5995.668130,-7698.141797,612.876398
1351.380418,6217.729913,-9474.636058,995.924147
1351.380747,6735.874072,-8142.265362,1302.362347
1351.381076,7105.977043,-6661.853478,766.095498
1351.381405,7624.121203,-4589.276840,689.485948
1351.381734,7550.100608,-5403.503377,842.705048
1351.382063,7994.224174,-7179.997637,1302.362347
1351.382392,7698.141797,-6513.812290,1685.410096
1351.382721,7328.038826,-5625.565159,1838.629195
1351.383050,7328.038826,-4293.194464,919.314598
1351.383379,7105.977043,-5033.400406,995.924147
1351.383708,6883.915261,-7476.080014,1225.752797
1351.384037,6809.894666,-7698.141797,1302.362347
1351.384366,7031.956449,-7254.018232,1838.629195
1351.384695,7105.977043,-6069.688724,1685.410096
1351.385024,7328.038826,-5625.565159,1302.362347
1351.385353,7105.977043,-5995.668130,766.095498
1351.385682,6513.812290,-7031.956449,-612.876398
1351.386011,6513.812290,-7698.141797,1072.533697
1351.386340,6809.894666,-8068.244768,1532.190996
1351.386669,6957.935855,-6883.915261,1149.143247
1351.386998,6439.791695,-5847.626942,842.705048
1351.387327,5995.668130,-6735.874072,0.000000
1351.387656,5477.523971,-9474.636058,383.047749
1351.387985,5403.503377,-8660.409521,995.924147
1351.388314,6365.771101,-7179.997637,842.705048
1351.388643,7105.977043,-4811.338623,689.485948
1351.388972,7179.997637,-4293.194464,612.876398
1351.389301,7624.121203,-6069.688724,995.924147
1351.389630,7698.141797,-6883.915261,1685.410096
1351.389959,8216.285956,-6587.832884,1915.238745
1351.390288,8438.347739,-4737.318029,919.314598
1351.390617,7772.162391,-5107.421000,1225.752797
1351.390946,7105.977043,-6365.771101,1072.533697
1351.391275,6735.874072,-7179.997637,766.095498
1351.391604,5995.668130,-8512.368333,995.924147
1351.391934,7105.977043,-7179.997637,1915.238745
1351.392263,7402.059420,-5107.421000,1455.581446
1351.392592,7254.018232,-5107.421000,1225.752797
1351.392921,6587.832884,-5329.482782,612.876398
1351.393250,6439.791695,-6809.894666,229.828649
1351.393579,7105.977043,-6291.750507,1149.143247
1351.393908,7328.038826,-6661.853478,1378.971896
1351.394237,7550.100608,-6069.688724,1762.019645
1351.394566,6661.853478,-6661.853478,306.438199
1351.394895,5699.585753,-9400.615463,536.266849
1351.395224,5699.585753,-10066.800811,919.314598
1351.395553,5995.668130,-9252.574275,919.314598
1351.395882,5921.647536,-7031.956449,229.828649
1351.396211,6439.791695,-5033.400406,459.657299
1351.396540,7031.956449,-5625.565159,229.828649
1351.396869,7550.100608,-6365.771101,919.314598
1351.397198,7698.141797,-5921.647536,1838.629195
1351.397527,8586.388927,-4515.256246,1685.410096
1351.397856,8438.347739,-3849.070898,1532.190996
1351.398185,7476.080014,-3701.029710,1149.143247
1351.398514,6587.832884,-6735.874072,995.924147
1351.398843,6217.729913,-8438.347739,1072.533697
1351.399172,6513.812290,-8290.306550,1838.629195
1351.399501,7105.977043,-6513.812290,842.705048
1351.399830,7031.956449,-5847.626942,1072.533697
1351.400159,6957.935855,-5625.565159,383.047749
1351.400488,7031.956449,-7179.997637,383.047749
1351.400817,7254.018232,-6883.915261,1149.143247
1351.401146,7624.121203,-6587.832884,1838.629195
1351.401475,7624.121203,-5699.585753,1149.143247
1351.401804,6957.935855,-5107.421000,919.314598
1351.402133,6291.750507,-7179.997637,536.266849
1351.402462,6809.894666,-9252.574275,1149.143247
1351.402791,6143.709319,-8586.388927,1302.362347
1351.403120,6365.771101,-6957.935855,995.924147
1351.403450,6809.894666,-5033.400406,536.266849
1351.403779,7179.997637,-4737.318029,0.000000
1351.404108,7328.038826,-6291.750507,383.047749
1351.404437,7476.080014,-6587.832884,1149.143247
1351.404766,8216.285956,-6217.729913,1915.238745
1351.405095,8734.430116,-4811.338623,1915.238745
1351.405424,8068.244768,-4589.276840,1915.238745
1351.405753,7105.977043,-6513.812290,1072.533697
1351.406082,6439.791695,-7698.141797,995.924147
1351.406411,6291.750507,-7994.224174,1149.143247
1351.406740,6883.915261,-6513.812290,1149.143247
1351.407069,6883.915261,-5847.626942,1225.752797
1351.407398,6809.894666,-5773.606348,1072.533697
1351.407727,5995.668130,-6957.935855,0.000000
1351.408056,5773.606348,-7254.018232,459.657299
1351.408385,6661.853478,-7328.038826,1532.190996
1351.408714,7698.141797,-7772.162391,1762.019645
1351.409043,7105.977043,-5699.585753,1532.190996
1351.409372,6439.791695,-6661.853478,612.876398
1351.409701,5847.626942,-7772.162391,76.609550
1351.410030,5773.606348,-8364.327145,689.485948
1351.410359,5995.668130,-8734.430116,1149.143247
1351.410688,6957.935855,-6587.832884,842.705048
1351.411017,7179.997637,-4811.338623,536.266849
1351.411346,6809.894666,-4811.338623,229.828649
1351.411675,8216.285956,-5995.668130,1149.143247
1351.412004,8808.450710,-6217.729913,2068.457845
1351.412333,8956.491898,-5329.482782,1915.238745
1351.412662,7994.224174,-4885.359217,1762.019645
1351.412991,7328.038826,-4737.318029,1302.362347
1351.413320,6143.709319,-6513.812290,229.828649
1351.413649,5551.544565,-8290.306550,689.485948
1351.413978,6587.832884,-7698.141797,1762.019645
1351.414307,7550.100608,-5773.606348,1608.800546
1351.414636,7920.203579,-4663.297435,2221.676944
1351.414966,7698.141797,-5255.462188,919.314598
1351.415295,7328.038826,-6143.709319,536.266849
1351.415624,7105.977043,-7031.956449,1302.362347
1351.415953,6957.935855,-7328.038826,1608.800546
1351.416282,6513.812290,-7105.977043,1915.238745
1351.416611,5847.626942,-7105.977043,919.314598
1351.416940,5033.400406,-7328.038826,-383.047749
1351.417269,5181.441594,-9844.739029,306.438199
1351.417598,5255.462188,-9844.739029,995.924147
1351.417927,6587.832884,-7772.162391,1455.581446
1351.418256,7328.038826,-5255.462188,766.095498
1351.418585,7698.141797,-3997.112087,383.047749
1351.418914,7402.059420,-5107.421000,459.657299
1351.419243,7328.038826,-5847.626942,1608.800546
1351.419572,8586.388927,-5921.647536,1838.629195
1351.419901,9178.553681,-4737.318029,2298.286494
1351.420231,8956.491898,-3627.009116,2145.067394
1351.420560,7994.224174,-6069.688724,1302.362347
1351.420889,6809.894666,-7105.977043,1072.533697
1351.421218,7031.956449,-7624.121203,1072.533697
1351.421547,6291.750507,-8216.285956,1455.581446
1351.421876,6291.750507,-6069.688724,1072.533697
1351.422205,6439.791695,-5921.647536,229.828649
1351.422534,5625.565159,-7328.038826,-306.438199
1351.422863,5921.647536,-7254.018232,229.828649
1351.423192,6883.915261,-7698.141797,1762.019645
1351.423521,8216.285956,-7994.224174,2374.896044
1351.423850,7550.100608,-5107.421000,1149.143247
1351.424180,7105.977043,-4885.359217,383.047749
1351.424509,7105.977043,-7550.100608,229.828649
1351.424838,6513.812290,-9104.533087,612.876398
1351.425167,6513.812290,-9844.739029,1762.019645
1351.425496,6735.874072,-7402.059420,1149.143247
1351.425825,7105.977043,-5403.503377,459.657299
1351.426154,6587.832884,-5995.668130,229.828649
1351.426483,6735.874072,-6883.915261,612.876398
1351.426812,7550.100608,-6735.874072,919.314598
1351.427141,7476.080014,-5181.441594,919.314598
1351.427470,7402.059420,-4219.173869,1685.410096
1351.427799,7179.997637,-5107.421000,919.314598
1351.428128,7031.956449,-6365.771101,612.876398
1351.428458,6661.853478,-8216.285956,842.705048
1351.428787,6957.935855,-7698.141797,1991.848295
1351.429116,7772.162391,-6957.935855,1991.848295
1351.429445,7624.121203,-5107.421000,1455.581446
1351.429774,7254.018232,-3701.029710,766.095498
1351.430103,7105.977043,-5699.585753,229.828649
1351.430432,7254.018232,-7179.997637,1378.971896
1351.430761,7624.121203,-7920.203579,1762.019645
1351.431090,7698.141797,-5921.647536,1685.410096
1351.431419,6439.791695,-5477.523971,689.485948
1351.431748,5773.606348,-6735.874072,76.609550
1351.432077,5033.400406,-8808.450710,0.000000
1351.432406,5329.482782,-9844.739029,995.924147
1351.432736,6217.729913,-7476.080014,1532.190996
1351.433065,7328.038826,-5181.441594,612.876398
1351.433394,7179.997637,-4737.318029,612.876398
1351.433723,7328.038826,-5699.585753,995.924147
1351.434052,7772.162391,-7179.997637,1838.629195
1351.434381,8438.347739,-6513.812290,2221.676944
1351.434710,8142.265362,-5551.544565,2451.505594
1351.435039,7846.182985,-4367.215058,995.924147
1351.435368,7031.956449,-6069.688724,459.657299
1351.435697,6291.750507,-7698.141797,1532.190996
1351.436026,5847.626942,-8364.327145,995.924147
1351.436355,6587.832884,-7328.038826,1225.752797
1351.436685,7179.997637,-5847.626942,1455.581446
1351.437014,7402.059420,-4811.338623,689.485948
1351.437343,7031.956449,-4959.379811,306.438199
1351.437672,6809.894666,-7402.059420,689.485948
1351.438001,7105.977043,-7624.121203,1225.752797
1351.438330,7698.141797,-6069.688724,1991.848295
1351.438659,7624.121203,-5181.441594,1608.800546
1351.438988,6883.915261,-6069.688724,459.657299
1351.439317,5329.482782,-8882.471304,383.047749
1351.439646,4737.318029,-10510.924376,153.219100
1351.439975,5773.606348,-9400.615463,1072.533697
1351.440304,6735.874072,-6661.853478,459.657299
1351.440633,6809.894666,-4737.318029,76.609550
1351.440963,6661.853478,-5255.462188,229.828649
1351.441292,7402.059420,-6957.935855,919.314598
1351.441621,8142.265362,-6365.771101,2221.676944
1351.441950,8142.265362,-5329.482782,2451.505594
1351.442279,7772.162391,-4219.173869,1378.971896
1351.442608,7476.080014,-4885.359217,919.314598
1351.442937,6661.853478,-7031.956449,995.924147
1351.443266,6661.853478,-7624.121203,1302.362347
1351.443595,7105.977043,-7698.141797,1455.581446
1351.443924,7698.141797,-6513.812290,1991.848295
1351.444253,7179.997637,-5625.565159,1149.143247
1351.444582,6513.812290,-5477.523971,306.438199
1351.444911,6809.894666,-6883.915261,153.219100
1351.445241,6735.874072,-8068.244768,842.705048
1351.445570,7698.141797,-6883.915261,1762.019645
1351.445899,7698.141797,-5699.585753,1685.410096
1351.446228,7105.977043,-4737.318029,612.876398
1351.446557,5773.606348,-6661.853478,0.000000
1351.446886,4737.318029,-9252.574275,0.000000
1351.447215,5551.544565,-9622.677246,1149.143247
1351.447544,7179.997637,-8068.244768,1762.019645
1351.447873,7328.038826,-5329.482782,1149.143247
1351.448202,7402.059420,-4589.276840,229.828649
1351.448531,7550.100608,-6365.771101,842.705048
1351.448860,8068.244768,-7031.956449,1455.581446
1351.449190,7698.141797,-6587.832884,2068.457845
1351.449519,7624.121203,-4367.215058,1302.362347
1351.449848,7105.977043,-4811.338623,842.705048
1351.450177,6735.874072,-5847.626942,612.876398
1351.450506,5625.565159,-7402.059420,766.095498
1351.450835,5921.647536,-7920.203579,1149.143247
1351.451164,7105.977043,-6291.750507,1991.848295
1351.451493,7254.018232,-5699.585753,1302.362347
1351.451822,7179.997637,-4737.318029,842.705048
1351.452151,6957.935855,-5329.482782,919.314598
1351.452480,7920.203579,-7328.038826,612.876398
1351.452809,7624.121203,-7698.141797,1762.019645
1351.453138,7994.224174,-6143.709319,2068.457845
1351.453468,8364.327145,-5699.585753,1378.971896
1351.453797,7179.997637,-6143.709319,995.924147
1351.454126,5699.585753,-8068.244768,689.485948
1351.454455,5551.544565,-9474.636058,766.095498
1351.454784,5995.668130,-8438.347739,1455.581446
1351.455113,6439.791695,-6291.750507,1149.143247
1351.455442,6069.688724,-5033.400406,-383.047749
1351.455771,5625.565159,-6069.688724,-229.828649
1351.456100,6735.874072,-7402.059420,766.095498
1351.456429,7328.038826,-7698.141797,1302.362347
1351.456758,8290.306550,-5625.565159,1991.848295
1351.457087,7920.203579,-4145.153275,1608.800546
1351.457416,7698.141797,-5033.400406,1225.752797
1351.457746,7105.977043,-6809.894666,919.314598
1351.458075,6513.812290,-7994.224174,1072.533697
1351.458404,6735.874072,-7624.121203,2145.067394
1351.458733,7550.100608,-6217.729913,1455.581446
1351.459062,7476.080014,-4737.318029,1149.143247
1351.459391,6883.915261,-4737.318029,612.876398
1351.459720,6661.853478,-6735.874072,459.657299
1351.460049,6883.915261,-6809.894666,1225.752797
1351.460378,7105.977043,-6513.812290,1685.410096
1351.460707,7624.121203,-6365.771101,1915.238745
1351.461036,7254.018232,-5403.503377,842.705048
1351.461365,5625.565159,-7402.059420,459.657299
1351.461695,5255.462188,-9696.697840,76.609550
1351.462024,5773.606348,-9992.780217,919.314598
1351.462353,6513.812290,-8586.388927,1302.362347
1351.462682,6735.874072,-6291.750507,919.314598
1351.463011,6957.935855,-5699.585753,995.924147
1351.463340,7105.977043,-6217.729913,459.657299
1351.463669,7328.038826,-7179.997637,919.314598
1351.463998,7476.080014,-5921.647536,1608.800546
1351.464327,7772.162391,-4145.153275,1378.971896
1351.464656,7624.121203,-4737.318029,1455.581446
1351.464985,6957.935855,-5329.482782,1149.143247
1351.465314,6513.812290,-6957.935855,612.876398
1351.465643,6587.832884,-8290.306550,1532.190996
1351.465973,7179.997637,-7105.977043,2298.286494
1351.466302,6809.894666,-5847.626942,1302.362347
1351.466631,6513.812290,-5255.462188,919.314598
1351.466960,6365.771101,-6365.771101,842.705048
1351.467289,6957.935855,-7179.997637,766.095498
1351.467618,7402.059420,-5995.668130,2374.896044
1351.467947,8290.306550,-5921.647536,2145.067394
1351.468276,7698.141797,-5033.400406,1608.800546
1351.468605,6809.894666,-5625.565159,919.314598
1351.468934,5995.668130,-8438.347739,229.828649
1351.469263,5847.626942,-9252.574275,995.924147
1351.469592,6217.729913,-8956.491898,1302.362347
1351.469921,6809.894666,-7105.977043,995.924147
1351.470251,7031.956449,-4737.318029,612.876398
1351.470580,7624.121203,-5551.544565,306.438199
1351.470909,8142.265362,-7105.977043,612.876398
1351.471238,7476.080014,-7105.977043,1302.362347
1351.471567,6809.894666,-6365.771101,1225.752797
1351.471896,6217.729913,-5403.503377,919.314598
1351.472225,6291.750507,-6291.750507,536.266849
1351.472554,6143.709319,-8068.244768,995.924147
1351.472883,6143.709319,-8660.409521,1302.362347
1351.473212,6661.853478,-7402.059420,1378.971896
1351.473541,7105.977043,-5403.503377,612.876398
1351.473870,7105.977043,-4293.194464,229.828649
1351.474200,7254.018232,-4885.359217,306.438199
1351.474529,7402.059420,-5773.606348,842.705048
1351.474858,7772.162391,-6735.874072,1532.190996
1351.475187,8808.450710,-6587.832884,2221.676944
1351.475516,8364.327145,-5995.668130,1532.190996
1351.475845,7550.100608,-5847.626942,842.705048
1351.476174,6661.853478,-7105.977043,0.000000
1351.476503,5847.626942,-9992.780217,459.657299
1351.476832,5107.421000,-10436.903782,1302.362347
1351.477161,6143.709319,-7846.182985,919.314598
1351.477490,7031.956449,-5329.482782,689.485948
1351.477819,6809.894666,-4515.256246,1225.752797
1351.478148,7920.203579,-6069.688724,1149.143247
1351.478478,8364.327145,-5921.647536,1915.238745
1351.478807,7772.162391,-5625.565159,1608.800546
1351.479136,7254.018232,-4737.318029,842.705048
1351.479465,7698.141797,-3775.050304,1302.362347
1351.479794,6587.832884,-6957.935855,919.314598
1351.480123,6587.832884,-8216.285956,1608.800546
1351.480452,7031.956449,-8438.347739,1302.362347
1351.480781,7254.018232,-7105.977043,919.314598
1351.481110,7179.997637,-5699.585753,1072.533697
1351.481439,7105.977043,-5847.626942,1072.533697
1351.481768,7624.121203,-6217.729913,536.266849
1351.482097,7105.977043,-7031.956449,1378.971896
1351.482426,7031.956449,-7105.977043,2298.286494
1351.482756,7920.203579,-4737.318029,1455.581446
1351.483085,7105.977043,-5181.441594,1072.533697
1351.483414,6587.832884,-5847.626942,383.047749
1351.483743,5625.565159,-8290.306550,229.828649
1351.484072,5847.626942,-9030.512492,1608.800546
1351.484401,6365.771101,-8586.388927,1302.362347
1351.484730,6661.853478,-6217.729913,1072.533697
1351.485059,6587.832884,-5033.400406,459.657299
1351.485388,6735.874072,-6587.832884,153.219100
1351.485717,7105.977043,-7772.162391,1302.362347
1351.486046,7402.059420,-7328.038826,1762.019645
1351.486375,7476.080014,-6883.915261,1532.190996
1351.486705,7105.977043,-5181.441594,1302.362347
1351.487034,6513.812290,-6957.935855,995.924147
1351.487363,6439.791695,-8216.285956,1302.362347
1351.487692,6439.791695,-7402.059420,1608.800546
1351.488021,6809.894666,-7254.018232,1378.971896
1351.488350,6735.874072,-5329.482782,919.314598
1351.488679,6735.874072,-4737.318029,306.438199
1351.489008,7254.018232,-5181.441594,459.657299
1351.489337,7846.182985,-6143.709319,842.705048
1351.489666,8290.306550,-6291.750507,2145.067394
1351.489995,8734.430116,-5329.482782,2757.943793
1351.490324,8956.491898,-5477.523971,1685.410096
1351.490653,7254.018232,-5107.421000,1149.143247
1351.490983,6069.688724,-6957.935855,459.657299
1351.491312,5255.462188,-10066.800811,766.095498
1351.491641,5255.462188,-9400.615463,1149.143247
1351.491970,5255.462188,-7254.018232,1072.533697
1351.492299,5921.647536,-6735.874072,842.705048
1351.492628,6883.915261,-5181.441594,229.828649
1351.492957,7476.080014,-6735.874072,1455.581446
1351.493286,8512.368333,-5847.626942,1378.971896
1351.493615,7624.121203,-5477.523971,1302.362347
1351.493944,7105.977043,-5477.523971,1149.143247
1351.494273,7105.977043,-4589.276840,689.485948
1351.494602,6513.812290,-5847.626942,76.609550
1351.494931,6957.935855,-8512.368333,1225.752797
1351.495261,7105.977043,-8216.285956,1991.848295
1351.495590,7402.059420,-7105.977043,1532.190996
1351.495919,6735.874072,-5773.606348,1225.752797
1351.496248,6809.894666,-5033.400406,766.095498
1351.496577,7031.956449,-5033.400406,-76.609550
1351.496906,6957.935855,-6143.709319,842.705048
1351.497235,7476.080014,-6735.874072,2145.067394
1351.497564,8586.388927,-5625.565159,2451.505594
1351.497893,8290.306550,-4663.297435,1455.581446
1351.498222,6809.894666,-5995.668130,689.485948
1351.498551,6587.832884,-7550.100608,612.876398
1351.498880,6069.688724,-9252.574275,612.876398
1351.499210,5847.626942,-8438.347739,1838.629195
1351.499539,6809.894666,-7031.956449,1225.752797
1351.499868,7105.977043,-5921.647536,842.705048
1351.500197,7179.997637,-6291.750507,459.657299
1351.500526,6809.894666,-7179.997637,766.095498
1351.500855,6883.915261,-7328.038826,536.266849
1351.501184,6735.874072,-6217.729913,1225.752797
1351.501513,6809.894666,-5329.482782,1532.190996
1351.501842,6661.853478,-6439.791695,1072.533697
1351.502171,6069.688724,-7105.977043,1302.362347
1351.502500,5995.668130,-8216.285956,1455.581446
1351.502829,6143.709319,-8068.244768,842.705048
1351.503158,6365.771101,-6587.832884,919.314598
1351.503488,6513.812290,-5403.503377,383.047749
1351.503817,7254.018232,-5329.482782,-306.438199
1351.504146,7179.997637,-6513.812290,459.657299
1351.504475,7772.162391,-7476.080014,1378.971896
1351.504804,8290.306550,-6661.853478,1838.629195
1351.505133,7920.203579,-5699.585753,1915.238745
1351.505462,7328.038826,-5625.565159,1302.362347
1351.505791,6291.750507,-6883.915261,536.266849
1351.506120,5625.565159,-8586.388927,306.438199
1351.506449,5995.668130,-7476.080014,1149.143247
1351.506778,6809.894666,-6587.832884,1762.019645
1351.507107,7402.059420,-4737.318029,1302.362347
1351.507436,7846.182985,-4071.132681,995.924147
1351.507766,7476.080014,-5625.565159,766.095498
1351.508095,7550.100608,-6365.771101,1302.362347
1351.508424,7402.059420,-6217.729913,1455.581446
1351.508753,7846.182985,-4811.338623,1532.190996
1351.509082,7254.018232,-5329.482782,1302.362347
1351.509411,6809.894666,-7031.956449,842.705048
1351.509740,6365.771101,-8216.285956,1455.581446
1351.510069,6217.729913,-9104.533087,536.266849
1351.510398,6143.709319,-8290.306550,842.705048
1351.510727,5847.626942,-7105.977043,1149.143247
1351.511056,6661.853478,-6365.771101,612.876398
1351.511385,6587.832884,-5847.626942,-306.438199
1351.511715,7105.977043,-6365.771101,766.095498
1351.512044,8290.306550,-6439.791695,1838.629195
1351.512373,9030.512492,-5551.544565,2298.286494
1351.512702,7994.224174,-4737.318029,1455.581446
1351.513031,6513.812290,-5403.503377,229.828649
1351.513360,5773.606348,-7624.121203,229.828649
1351.513689,6143.709319,-9548.656652,1072.533697
1351.514018,6365.771101,-8734.430116,1302.362347
1351.514347,7624.121203,-6365.771101,1762.019645
1351.514676,7772.162391,-5107.421000,1149.143247
1351.515005,7772.162391,-5699.585753,1225.752797
1351.515334,7402.059420,-6365.771101,1072.533697
1351.515664,7105.977043,-6365.771101,1225.752797
1351.515993,7328.038826,-5181.441594,766.095498
1351.516322,7105.977043,-4737.318029,766.095498
1351.516651,6809.894666,-5921.647536,995.924147
1351.516980,6513.812290,-7254.018232,1072.533697
1351.517309,7179.997637,-8068.244768,919.314598
1351.517639,6735.874072,-7772.162391,1378.971896
1351.517968,6365.771101,-6809.894666,1225.752797
1351.518297,6661.853478,-6365.771101,229.828649
1351.518626,5847.626942,-6587.832884,-306.438199
1351.518955,5847.626942,-6513.812290,536.266849
1351.519284,6883.915261,-7624.121203,766.095498
1351.519613,8364.327145,-7476.080014,2145.067394
1351.519943,8068.244768,-5995.668130,1915.238745
1351.520272,7624.121203,-5847.626942,689.485948
1351.520601,6809.894666,-5551.544565,689.485948
1351.520930,5847.626942,-8068.244768,536.266849
1351.521259,5477.523971,-9326.594869,1072.533697
1351.521588,6513.812290,-6809.894666,919.314598
1351.521918,7105.977043,-5403.503377,689.485948
1351.522247,7254.018232,-4959.379811,1225.752797
1351.522576,7698.141797,-5995.668130,1302.362347
1351.522905,8290.306550,-6957.935855,1685.410096
1351.523234,8068.244768,-6439.791695,2451.505594
1351.523563,7920.203579,-4737.318029,1838.629195
1351.523892,7105.977043,-4589.276840,919.314598
1351.524222,6661.853478,-6587.832884,1072.533697
1351.524551,6439.791695,-7920.203579,842.705048
1351.524880,6957.935855,-8142.265362,919.314598
1351.525209,7179.997637,-7846.182985,1762.019645
1351.525538,7402.059420,-6217.729913,1532.190996
1351.525867,7624.121203,-5921.647536,689.485948
1351.526197,6957.935855,-5255.462188,689.485948
1351.526526,6809.894666,-6439.791695,383.047749
1351.526855,6809.894666,-6587.832884,1149.143247
1351.527184,7105.977043,-5699.585753,1915.238745
1351.527513,7624.121203,-5551.544565,1302.362347
1351.527842,7031.956449,-4811.338623,766.095498
1351.528172,5699.585753,-8364.327145,76.609550
1351.528501,5551.544565,-9474.636058,919.314598
1351.528830,5847.626942,-8734.430116,1302.362347
1351.529159,6217.729913,-5995.668130,766.095498
1351.529488,6587.832884,-4441.235652,153.219100
1351.529817,7328.038826,-5921.647536,306.438199
1351.530146,7920.203579,-7179.997637,1302.362347
1351.530476,7105.977043,-7402.059420,1532.190996
1351.530805,7105.977043,-5551.544565,1378.971896
1351.531134,6957.935855,-4441.235652,766.095498
1351.531463,6513.812290,-6513.812290,306.438199
1351.531792,6439.791695,-7624.121203,766.095498
1351.532121,5995.668130,-9104.533087,536.266849
1351.532451,6217.729913,-8142.265362,612.876398
1351.532780,6809.894666,-6587.832884,1149.143247
1351.533109,8216.285956,-5403.503377,1378.971896
1351.533438,8512.368333,-4589.276840,1225.752797
1351.533767,8290.306550,-5773.606348,1149.143247
1351.534096,8586.388927,-6143.709319,1608.800546
1351.534425,8438.347739,-5033.400406,1991.848295
1351.534755,8290.306550,-5181.441594,1302.362347
1351.535084,7105.977043,-5033.400406,1455.581446
1351.535413,5847.626942,-7328.038826,995.924147
1351.535742,4515.256246,-9474.636058,0.000000
1351.536071,4441.235652,-9474.636058,1072.533697
1351.536400,5699.585753,-8512.368333,1225.752797
1351.536730,7254.018232,-5921.647536,995.924147
1351.537059,8068.244768,-5921.647536,1072.533697
1351.537388,7105.977043,-6217.729913,842.705048
1351.537717,7328.038826,-7105.977043,1072.533697
1351.538046,8068.244768,-5995.668130,1838.629195
1351.538375,8142.265362,-4811.338623,1072.533697
1351.538704,7698.141797,-5255.462188,1072.533697
1351.539034,7105.977043,-5995.668130,689.485948
1351.539363,6291.750507,-8142.265362,459.657299
1351.539692,6217.729913,-8660.409521,1149.143247
1351.540021,6439.791695,-7105.977043,1225.752797
1351.540350,6439.791695,-7031.956449,306.438199
1351.540679,5995.668130,-5699.585753,536.266849
1351.541009,5477.523971,-6957.935855,0.000000
1351.541338,6513.812290,-7624.121203,842.705048
1351.541667,7698.141797,-6735.874072,2451.505594
1351.541996,8290.306550,-6143.709319,1838.629195
1351.542325,7179.997637,-4959.379811,1072.533697
1351.542654,6661.853478,-5699.585753,612.876398
1351.542983,6587.832884,-7772.162391,459.657299
1351.543313,6439.791695,-7698.141797,842.705048
1351.543642,6661.853478,-7105.977043,1072.533697
1351.543971,7179.997637,-5699.585753,383.047749
1351.544300,7105.977043,-4737.318029,612.876398
1351.544629,7402.059420,-6069.688724,1225.752797
1351.544958,7772.162391,-6291.750507,1378.971896
1351.545288,8142.265362,-6883.915261,1685.410096
1351.545617,7624.121203,-5699.585753,1762.019645
1351.545946,6809.894666,-4515.256246,1378.971896
1351.546275,6513.812290,-5773.606348,842.705048
1351.546604,6365.771101,-7031.956449,153.219100
1351.546933,6143.709319,-7994.224174,995.924147
1351.547262,7105.977043,-7328.038826,1532.190996
1351.547592,7402.059420,-6143.709319,1991.848295
1351.547921,7402.059420,-5625.565159,1072.533697
1351.548250,7328.038826,-5255.462188,0.000000
1351.548579,7031.956449,-6513.812290,76.609550
1351.548908,7031.956449,-7328.038826,1225.752797
1351.549237,7105.977043,-6809.894666,1225.752797
1351.549567,6661.853478,-6439.791695,995.924147
1351.549896,6365.771101,-6069.688724,0.000000
1351.550225,6291.750507,-7328.038826,153.219100
1351.550554,6365.771101,-9178.553681,1072.533697
1351.550883,6735.874072,-8586.388927,1838.629195
1351.551212,7179.997637,-7254.018232,1225.752797
1351.551542,6957.935855,-4959.379811,1149.143247
1351.551871,6957.935855,-4589.276840,536.266849
1351.552200,7550.100608,-5181.441594,383.047749
1351.552529,7772.162391,-6365.771101,1225.752797
1351.552858,7698.141797,-5921.647536,1762.019645
1351.553187,7402.059420,-5107.421000,1455.581446
1351.553516,6883.915261,-5551.544565,1225.752797
1351.553846,6513.812290,-6439.791695,689.485948
1351.554175,6291.750507,-8290.306550,1072.533697
1351.554504,6143.709319,-8142.265362,995.924147
1351.554833,6513.812290,-7624.121203,1149.143247
1351.555162,6809.894666,-6587.832884,612.876398
1351.555491,6883.915261,-5773.606348,536.266849
1351.555821,7031.956449,-6365.771101,76.609550
1351.556150,6735.874072,-7179.997637,689.485948
1351.556479,6587.832884,-7179.997637,1225.752797
1351.556808,7476.080014,-5995.668130,1838.629195
1351.557137,7624.121203,-5329.482782,842.705048
1351.557466,6365.771101,-5921.647536,153.219100
1351.557795,5403.503377,-7920.203579,306.438199
1351.558125,5847.626942,-8734.430116,919.314598
1351.558454,6513.812290,-8142.265362,1302.362347
1351.558783,7105.977043,-5921.647536,1455.581446
1351.559112,7254.018232,-4071.132681,612.876398
1351.559441,7254.018232,-5477.523971,536.266849
1351.559770,7254.018232,-6217.729913,1455.581446
1351.560100,7772.162391,-6661.853478,1608.800546
1351.560429,8216.285956,-4737.318029,1685.410096
1351.560758,7772.162391,-4811.338623,1838.629195
1351.561087,7105.977043,-5847.626942,2374.896044
1351.561416,7105.977043,-6513.812290,459.657299
1351.561745,6143.709319,-8068.244768,689.485948
1351.562074,6291.750507,-8290.306550,1149.143247
1351.562404,6883.915261,-7179.997637,1302.362347
1351.562733,7254.018232,-6143.709319,1532.190996
1351.563062,7179.997637,-5551.544565,383.047749
1351.563391,7328.038826,-6365.771101,842.705048
1351.563720,7328.038826,-7031.956449,1149.143247
1351.564049,7476.080014,-6513.812290,1225.752797
1351.564379,7105.977043,-5551.544565,1532.190996
1351.564708,6735.874072,-4959.379811,306.438199
1351.565037,5847.626942,-7254.018232,76.609550
1351.565366,5477.523971,-9992.780217,842.705048
1351.565695,6365.771101,-9030.512492,995.924147
1351.566024,6735.874072,-7031.956449,1149.143247
1351.566353,7031.956449,-5033.400406,919.314598
1351.566683,6883.915261,-5403.503377,766.095498
1351.567012,7328.038826,-6291.750507,766.095498
1351.567341,7846.182985,-6883.915261,766.095498
1351.567670,7624.121203,-5625.565159,1302.362347
1351.567999,7994.224174,-5033.400406,1762.019645
1351.568328,8216.285956,-5255.462188,1685.410096
1351.568658,7920.203579,-6217.729913,1685.410096
1351.568987,6809.894666,-6661.853478,1149.143247
1351.569316,6513.812290,-7846.182985,1532.190996
1351.569645,6513.812290,-7254.018232,995.924147
1351.569974,6143.709319,-5477.523971,842.705048
1351.570303,6587.832884,-5403.503377,995.924147
1351.570632,6957.935855,-5329.482782,76.609550
1351.570962,7105.977043,-7550.100608,1149.143247
1351.571291,7105.977043,-7772.162391,1685.410096
1351.571620,7550.100608,-6809.894666,1762.019645
1351.571949,7105.977043,-4885.359217,459.657299
1351.572278,5847.626942,-6291.750507,229.828649
1351.572607,5921.647536,-8734.430116,536.266849
1351.572937,6439.791695,-9696.697840,1225.752797
1351.573266,6513.812290,-9326.594869,1532.190996
1351.573595,7031.956449,-6365.771101,1532.190996
1351.573924,7105.977043,-4145.153275,306.438199
1351.574253,6439.791695,-5625.565159,536.266849
1351.574582,7328.038826,-6217.729913,1302.362347
1351.574912,8438.347739,-5551.544565,1608.800546
1351.575241,8586.388927,-4367.215058,2145.067394
1351.575570,8438.347739,-3478.967927,2068.457845
1351.575899,7994.224174,-4959.379811,1225.752797
1351.576228,6587.832884,-6439.791695,229.828649
1351.576557,5477.523971,-8290.306550,995.924147
1351.576886,5625.565159,-9030.512492,919.314598
1351.577216,6439.791695,-7476.080014,1302.362347
1351.577545,6883.915261,-6587.832884,766.095498
1351.577874,7031.956449,-5625.565159,842.705048
1351.578203,6661.853478,-7105.977043,612.876398
1351.578532,6513.812290,-7846.182985,919.314598
1351.578861,6957.935855,-7031.956449,1225.752797
1351.579191,7624.121203,-5551.544565,1225.752797
1351.579520,7402.059420,-5403.503377,1225.752797
1351.579849,7402.059420,-7105.977043,842.705048
1351.580178,6809.894666,-8808.450710,1838.629195
1351.580507,6883.915261,-8512.368333,1532.190996
1351.580836,6883.915261,-6365.771101,1072.533697
1351.581165,6365.771101,-4885.359217,229.828649
1351.581495,6143.709319,-5995.668130,0.000000
1351.581824,6291.750507,-7179.997637,459.657299
1351.582153,7105.977043,-7846.182985,1532.190996
1351.582482,7772.162391,-6587.832884,2298.286494
1351.582811,7624.121203,-5181.441594,1991.848295
1351.583140,7624.121203,-4737.318029,995.924147
1351.583470,6957.935855,-5477.523971,229.828649
1351.583799,6735.874072,-7772.162391,1149.143247
1351.584128,7328.038826,-7402.059420,1302.362347
1351.584457,7624.121203,-6291.750507,1685.410096
1351.584786,7920.203579,-4885.359217,1455.581446
1351.585115,7994.224174,-4885.359217,459.657299
1351.585444,8068.244768,-5107.421000,766.095498
1351.585774,7179.997637,-6883.915261,919.314598
1351.586103,7328.038826,-7846.182985,1608.800546
1351.586432,7328.038826,-5847.626942,766.095498
1351.586761,6291.750507,-5995.668130,306.438199
1351.587090,5181.441594,-7328.038826,76.609550
1351.587419,5255.462188,-9474.636058,689.485948
1351.587749,5551.544565,-10807.006753,1149.143247
1351.588078,5773.606348,-7698.141797,1225.752797
1351.588407,6513.812290,-6143.709319,1072.533697
1351.588736,6957.935855,-5107.421000,612.876398
1351.589065,7550.100608,-5921.647536,1072.533697
1351.589394,7550.100608,-6291.750507,1302.362347
1351.589723,7846.182985,-5625.565159,1225.752797
1351.590053,8512.368333,-4219.173869,2068.457845
1351.590382,8438.347739,-4071.132681,1378.971896
1351.590711,8142.265362,-5329.482782,1378.971896
1351.591040,7624.121203,-6957.935855,1149.143247
1351.591369,7105.977043,-8734.430116,1225.752797
1351.591698,6735.874072,-7772.162391,1225.752797
1351.592028,6661.853478,-6587.832884,1225.752797
1351.592357,6365.771101,-6143.709319,536.266849
1351.592686,6735.874072,-6439.791695,536.266849
1351.593015,6217.729913,-7328.038826,919.314598
1351.593344,6957.935855,-7476.080014,1225.752797
1351.593673,7476.080014,-6365.771101,1915.238745
1351.594002,7179.997637,-5773.606348,1072.533697
1351.594332,6513.812290,-5403.503377,536.266849
1351.594661,6291.750507,-7105.977043,766.095498
1351.594990,6513.812290,-8660.409521,1225.752797
1351.595319,6661.853478,-8660.409521,1455.581446
1351.595648,6439.791695,-7328.038826,1685.410096
1351.595977,6143.709319,-5995.668130,76.609550
1351.596307,5847.626942,-6365.771101,76.609550
1351.596636,6439.791695,-7476.080014,1072.533697
1351.596965,7328.038826,-7105.977043,1455.581446
1351.597294,7920.203579,-6069.688724,2221.676944
1351.597623,7550.100608,-4441.235652,1532.190996
1351.597952,7254.018232,-5107.421000,1225.752797
1351.598282,6365.771101,-5773.606348,689.485948
1351.598611,5699.585753,-7698.141797,612.876398
1351.598940,6143.709319,-7920.203579,1225.752797
1351.599269,6809.894666,-6809.894666,1225.752797
1351.599598,7328.038826,-5699.585753,1149.143247
1351.599927,7772.162391,-5107.421000,689.485948
1351.600256,7994.224174,-5625.565159,766.095498
1351.600586,8068.244768,-6957.935855,1149.143247
1351.600915,7698.141797,-6587.832884,1991.848295
1351.601244,7698.141797,-5773.606348,1378.971896
1351.601573,7402.059420,-5403.503377,995.924147
1351.601902,6587.832884,-5625.565159,536.266849
1351.602231,6513.812290,-8734.430116,1302.362347
1351.602561,6513.812290,-8808.450710,1149.143247
1351.602890,5329.482782,-8216.285956,919.314598
1351.603219,5255.462188,-6143.709319,229.828649
1351.603548,5995.668130,-5847.626942,0.000000
1351.603877,6513.812290,-6587.832884,306.438199
1351.604206,6883.915261,-6883.915261,689.485948
1351.604535,7920.203579,-6291.750507,1225.752797
1351.604865,8660.409521,-4737.318029,1685.410096
1351.605194,7994.224174,-5403.503377,842.705048
1351.605523,7402.059420,-6217.729913,766.095498
1351.605852,6809.894666,-7105.977043,919.314598
1351.606181,6217.729913,-9252.574275,766.095498
1351.606510,6513.812290,-7328.038826,1608.800546
1351.606840,7179.997637,-6365.771101,1072.533697
1351.607169,7402.059420,-5625.565159,766.095498
1351.607498,7031.956449,-5181.441594,383.047749
1351.607827,7105.977043,-6587.832884,689.485948
1351.608156,7328.038826,-5625.565159,1991.848295
1351.608485,7772.162391,-6217.729913,2145.067394
1351.608814,7402.059420,-5403.503377,1532.190996
1351.609144,6587.832884,-5625.565159,536.266849
1351.609473,5477.523971,-8068.244768,536.266849
1351.609802,5847.626942,-9104.533087,766.095498
1351.610131,5625.565159,-9104.533087,1225.752797
1351.610460,5699.585753,-7698.141797,612.876398
1351.610789,6365.771101,-5847.626942,919.314598
1351.611119,6957.935855,-6069.688724,919.314598
1351.611448,7105.977043,-6513.812290,612.876398
1351.611777,6957.935855,-6735.874072,1149.143247
1351.612106,7772.162391,-5255.462188,2068.457845
1351.612435,8142.265362,-4515.256246,1302.362347
1351.612764,8068.244768,-4737.318029,1455.581446
1351.613093,7179.997637,-5625.565159,1149.143247
1351.613423,7105.977043,-7328.038826,766.095498
1351.613752,6883.915261,-7698.141797,1455.581446
1351.614081,7031.956449,-6809.894666,1149.143247
1351.614410,6661.853478,-6439.791695,0.000000
1351.614739,6513.812290,-6217.729913,229.828649
1351.615068,6587.832884,-7402.059420,306.438199
1351.615398,7105.977043,-7772.162391,995.924147
1351.615727,7920.203579,-6513.812290,1225.752797
1351.616056,7402.059420,-7105.977043,1455.581446
1351.616385,6957.935855,-5625.565159,1072.533697
1351.616714,6291.750507,-5477.523971,536.266849
1351.617043,5773.606348,-7031.956449,766.095498
1351.617373,6291.750507,-7994.224174,1685.410096
1351.617702,6365.771101,-7105.977043,1455.581446
1351.618031,6587.832884,-5921.647536,1302.362347
1351.618360,6957.935855,-5181.441594,919.314598
1351.618689,7179.997637,-6735.874072,919.314598
1351.619019,6661.853478,-7624.121203,766.095498
1351.619348,6883.915261,-7402.059420,1455.581446
1351.619677,7105.977043,-7179.997637,995.924147
1351.620006,6439.791695,-6809.894666,689.485948
1351.620335,5995.668130,-7179.997637,842.705048
1351.620665,5477.523971,-9622.677246,306.438199
1351.620994,4811.338623,-9918.759623,689.485948
1351.621323,4811.338623,-9252.574275,995.924147
1351.621652,5773.606348,-8216.285956,229.828649
1351.621981,5773.606348,-6883.915261,842.705048
1351.622311,5921.647536,-6883.915261,383.047749
1351.622640,6069.688724,-6883.915261,459.657299
1351.622969,6883.915261,-6809.894666,1455.581446
1351.623298,7698.141797,-6439.791695,1149.143247
1351.623627,7550.100608,-5551.544565,1762.019645
1351.623957,7402.059420,-6143.709319,1608.800546
1351.624286,6809.894666,-7328.038826,766.095498
1351.624615,5477.523971,-9030.512492,459.657299
1351.624944,4737.318029,-9178.553681,1149.143247
1351.625273,4589.276840,-9178.553681,1532.190996
1351.625603,4811.338623,-8438.347739,1915.238745
1351.625932,4959.379811,-6957.935855,1685.410096
1351.626261,5255.462188,-7179.997637,1991.848295
1351.626590,5773.606348,-6735.874072,1838.629195
1351.626920,5773.606348,-5921.647536,1532.190996
1351.627249,5773.606348,-6069.688724,1149.143247
1351.627578,5403.503377,-6513.812290,1149.143247
1351.627907,4663.297435,-8364.327145,1149.143247
1351.628236,4293.194464,-10214.842000,1302.362347
1351.628566,4441.235652,-10881.027347,766.095498
1351.628895,4441.235652,-11029.068536,766.095498
1351.629224,4737.318029,-10140.821405,1302.362347
1351.629553,4515.256246,-10066.800811,1149.143247
1351.629882,4071.132681,-10436.903782,1149.143247
1351.630212,4071.132681,-9252.574275,536.266849
1351.630541,4367.215058,-7846.182985,536.266849
1351.630870,5107.421000,-6735.874072,1455.581446
1351.631199,6217.729913,-5773.606348,1838.629195
1351.631528,7179.997637,-6513.812290,2298.286494
1351.631858,6883.915261,-7254.018232,2068.457845
1351.632187,5847.626942,-7920.203579,1608.800546
1351.632516,4811.338623,-8364.327145,1072.533697
1351.632845,3849.070898,-9770.718434,153.219100
1351.633174,3478.967927,-10807.006753,-76.609550
1351.633504,2886.803174,-12435.459826,-306.438199
1351.633833,2738.761985,-13323.706956,0.000000
1351.634162,2960.823768,-13027.624579,1302.362347
1351.634491,3701.029710,-11325.150913,1455.581446
1351.634820,3997.112087,-8734.430116,1302.362347
1351.635150,4219.173869,-6809.894666,2298.286494
1351.635479,5773.606348,-6365.771101,1455.581446
1351.635808,5921.647536,-4663.297435,919.314598
1351.636137,6513.812290,-4441.235652,766.095498
1351.636466,7402.059420,-5625.565159,1455.581446
1351.636796,7179.997637,-6513.812290,2068.457845
1351.637125,5625.565159,-8956.491898,1838.629195
1351.637454,4515.256246,-10807.006753,1225.752797
1351.637783,3478.967927,-10955.047942,229.828649
1351.638113,3404.947333,-10881.027347,-306.438199
1351.638442,3404.947333,-10955.047942,689.485948
1351.638771,5107.421000,-10510.924376,229.828649
1351.639100,5181.441594,-10510.924376,612.876398
1351.639429,4811.338623,-9474.636058,1455.581446
1351.639759,4367.215058,-9030.512492,919.314598
1351.640088,3775.050304,-7920.203579,1302.362347
1351.640417,4663.297435,-6513.812290,2068.457845
1351.640746,5847.626942,-5995.668130,1838.629195
1351.641075,7105.977043,-4367.215058,2298.286494
1351.641405,7402.059420,-3701.029710,1915.238745
1351.641734,7550.100608,-5033.400406,1302.362347
1351.642063,6439.791695,-5773.606348,0.000000
1351.642392,5255.462188,-9252.574275,612.876398
1351.642721,4589.276840,-11843.295072,689.485948
1351.643051,5033.400406,-11769.274478,1302.362347
1351.643380,4959.379811,-11473.192101,1532.190996
1351.643709,5995.668130,-9770.718434,1072.533697
1351.644038,6143.709319,-8882.471304,1302.362347
1351.644367,5403.503377,-8438.347739,1072.533697
1351.644697,4071.132681,-8882.471304,76.609550
1351.645026,2886.803174,-8808.450710,-766.095498
1351.645355,2294.638420,-9474.636058,-459.657299
1351.645684,2368.659014,-9918.759623,229.828649
1351.646013,3923.091493,-8808.450710,689.485948
1351.646343,5181.441594,-7031.956449,1378.971896
1351.646672,6365.771101,-6661.853478,2298.286494
1351.647001,7328.038826,-5921.647536,2681.334243
1351.647330,7105.977043,-6883.915261,2987.772442
1351.647659,5995.668130,-8068.244768,1991.848295
1351.647989,5329.482782,-9326.594869,1762.019645
1351.648318,4885.359217,-10140.821405,2681.334243
1351.648647,4737.318029,-9770.718434,2451.505594
1351.648976,5033.400406,-9622.677246,2374.896044
1351.649306,4145.153275,-8660.409521,1072.533697
1351.649635,3034.844362,-8660.409521,-153.219100
1351.649964,2368.659014,-9400.615463,-612.876398
1351.650293,2368.659014,-8512.368333,-1149.143247
1351.650622,2738.761985,-9474.636058,-1378.971896
1351.650952,3478.967927,-10214.842000,-612.876398
1351.651281,4441.235652,-11103.089130,995.924147
1351.651610,5181.441594,-11547.212695,1608.800546
1351.651939,6217.729913,-10510.924376,2068.457845
1351.652268,6439.791695,-9030.512492,2681.334243
1351.652598,6291.750507,-8216.285956,2911.162892
1351.652927,6143.709319,-7402.059420,3140.991542
1351.653256,5773.606348,-6661.853478,2604.724693
1351.653585,5847.626942,-5255.462188,2757.943793
1351.653914,6587.832884,-5329.482782,2911.162892
1351.654244,6513.812290,-5995.668130,3524.039291
1351.654573,6143.709319,-7031.956449,2604.724693
1351.654902,5773.606348,-7328.038826,1762.019645
1351.655231,3997.112087,-7624.121203,1149.143247
1351.655560,3997.112087,-9474.636058,0.000000
1351.655890,3552.988522,-10066.800811,229.828649
1351.656219,3552.988522,-10807.006753,383.047749
1351.656548,4071.132681,-11473.192101,1378.971896
1351.656877,3701.029710,-11251.130318,2068.457845
1351.657206,4441.235652,-10807.006753,2528.115143
1351.657536,6217.729913,-8512.368333,3677.258390
1351.657865,7624.121203,-6143.709319,4519.963438
1351.658194,8364.327145,-4737.318029,4290.134789
1351.658523,8586.388927,-3404.947333,4443.353888
1351.658852,8216.285956,-2960.823768,3830.477490
1351.659182,8216.285956,-3404.947333,3217.601092
1351.659511,7920.203579,-4441.235652,2528.115143
1351.659840,6439.791695,-6439.791695,2451.505594
1351.660169,5255.462188,-7920.203579,1762.019645
1351.660499,5921.647536,-9104.533087,2987.772442
1351.660828,6439.791695,-9474.636058,2911.162892
1351.661157,5773.606348,-8882.471304,3447.429741
1351.661486,4959.379811,-7994.224174,2757.943793
1351.661815,4885.359217,-7624.121203,2987.772442
1351.662145,5033.400406,-7846.182985,3600.648841
1351.662474,6365.771101,-6883.915261,4826.401637
1351.662803,7550.100608,-5403.503377,4903.011187
1351.663132,8808.450710,-4293.194464,5592.497135
1351.663461,9474.636058,-3923.091493,5286.058936
1351.663791,9696.697840,-3330.926739,4979.620737
1351.664120,8882.471304,-3627.009116,4903.011187
1351.664449,8142.265362,-5403.503377,3983.696590
1351.664778,7105.977043,-7105.977043,3140.991542
1351.665107,6217.729913,-8586.388927,3524.039291
1351.665437,5107.421000,-10214.842000,2604.724693
1351.665766,4219.173869,-11399.171507,3524.039291
1351.666095,3330.926739,-11621.233289,3447.429741
1351.666424,2886.803174,-10584.944971,2834.553343
1351.666753,3108.864956,-9400.615463,3294.210641
1351.667083,4367.215058,-7476.080014,3524.039291
1351.667412,5255.462188,-6587.832884,4213.525239
1351.667741,7179.997637,-5921.647536,5439.278036
1351.668070,8882.471304,-4885.359217,6205.373534
1351.668399,9696.697840,-4367.215058,6971.469032
1351.668729,10658.965565,-3256.906145,6741.640382
1351.669058,10214.842000,-2664.741391,5898.935335
1351.669387,9696.697840,-3182.885551,5745.716235
1351.669716,9030.512492,-3849.070898,5209.449386
1351.670045,8142.265362,-4737.318029,5362.668486
1351.670375,7105.977043,-5921.647536,4519.963438
1351.670704,6513.812290,-7402.059420,4213.525239
1351.671033,5181.441594,-9400.615463,3677.258390
1351.671362,4071.132681,-9400.615463,3830.477490
1351.671692,3478.967927,-10140.821405,3600.648841
1351.672021,3330.926739,-9844.739029,2757.943793
1351.672350,3108.864956,-8956.491898,3524.039291
1351.672679,4071.132681,-8364.327145,3524.039291
1351.673008,5995.668130,-6661.853478,3753.867940
1351.673338,7550.100608,-6587.832884,4903.011187
1351.673667,9252.574275,-5477.523971,5822.325785
1351.673996,10288.862594,-3627.009116,6435.202183
1351.674325,10288.862594,-2516.700203,6052.154434
1351.674654,9696.697840,-1628.453072,5592.497135
1351.674984,8882.471304,-2738.761985,4290.134789
1351.675313,8142.265362,-4589.276840,3830.477490
1351.675642,6513.812290,-6957.935855,3907.087040
1351.675971,6365.771101,-8290.306550,3294.210641
1351.676300,5551.544565,-8364.327145,2374.896044
1351.676630,4441.235652,-10362.883188,2604.724693
1351.676959,4885.359217,-10214.842000,3524.039291
1351.677288,5551.544565,-9252.574275,3217.601092
1351.677617,6661.853478,-7105.977043,4519.963438
1351.677946,7402.059420,-4885.359217,4673.182538
1351.678276,9474.636058,-4145.153275,4060.306139
1351.678605,9696.697840,-3923.091493,4903.011187
1351.678934,9030.512492,-4737.318029,4290.134789
1351.679263,8512.368333,-5255.462188,3217.601092
1351.679592,6661.853478,-5773.606348,2298.286494
1351.679922,5477.523971,-7105.977043,2298.286494
1351.680251,5699.585753,-7994.224174,2681.334243
1351.680580,5699.585753,-8364.327145,3370.820191
1351.680909,5403.503377,-8216.285956,2834.553343
1351.681238,6365.771101,-7402.059420,4213.525239
1351.681568,7920.203579,-6439.791695,4290.134789
1351.681897,8364.327145,-6587.832884,4596.572988
1351.682226,7698.141797,-5181.441594,4903.011187
1351.682555,7624.121203,-5033.400406,4290.134789
1351.682885,7846.182985,-4219.173869,3677.258390
1351.683214,8216.285956,-2812.782580,3677.258390
1351.683543,8290.306550,-3330.926739,3677.258390
1351.683872,8364.327145,-4663.297435,3753.867940
1351.684201,7476.080014,-6291.750507,4136.915689
1351.684531,6143.709319,-8438.347739,3294.210641
1351.684860,5329.482782,-10584.944971,2604.724693
1351.685189,4071.132681,-11621.233289,3983.696590
1351.685518,3849.070898,-11621.233289,3064.381992
1351.685847,3552.988522,-10436.903782,2757.943793
1351.686177,4959.379811,-7846.182985,2911.162892
1351.686506,6291.750507,-5847.626942,3064.381992
1351.686835,7328.038826,-3923.091493,4060.306139
1351.687164,7698.141797,-3478.967927,4136.915689
1351.687493,8586.388927,-2960.823768,4366.744339
1351.687823,9326.594869,-2812.782580,4826.401637
1351.688152,10362.883188,-3627.009116,5362.668486
1351.688481,10584.944971,-3404.947333,5286.058936
1351.688810,9696.697840,-4293.194464,3677.258390
1351.689139,7920.203579,-6883.915261,2451.505594
1351.689469,5329.482782,-8586.388927,1532.190996
1351.689798,4071.132681,-9918.759623,306.438199
1351.690127,3034.844362,-12065.356855,1455.581446
1351.690456,3256.906145,-11621.233289,2451.505594
1351.690785,4589.276840,-10584.944971,2528.115143
1351.691115,5699.585753,-8438.347739,3370.820191
1351.691444,7105.977043,-5921.647536,3753.867940
1351.691773,8290.306550,-3923.091493,3983.696590
1351.692102,9622.677246,-2442.679609,4290.134789
1351.692431,10288.862594,-592.164754,4213.525239
1351.692761,10584.944971,148.041188,3677.258390
1351.693090,10658.965565,-962.267725,3064.381992
1351.693419,9326.594869,-4367.215058,3524.039291
1351.693748,7920.203579,-7105.977043,2834.553343
1351.694078,6957.935855,-9104.533087,1608.800546
1351.694407,6143.709319,-9844.739029,1532.190996
1351.694736,5921.647536,-12879.583391,1685.410096
1351.695065,4959.379811,-12509.480420,1685.410096
1351.695394,3775.050304,-10288.862594,1072.533697
1351.695724,3182.885551,-8586.388927,306.438199
1351.696053,3997.112087,-5625.565159,1225.752797
1351.696382,6587.832884,-4515.256246,2451.505594
1351.696711,8586.388927,-3256.906145,2987.772442
1351.697040,9474.636058,-2664.741391,3370.820191
1351.697370,10140.821405,-1554.432478,2528.115143
1351.697699,9252.574275,-2368.659014,2374.896044
1351.698028,8512.368333,-4367.215058,1991.848295
1351.698357,8068.244768,-6217.729913,1532.190996
1351.698686,7105.977043,-8660.409521,766.095498
1351.699016,6365.771101,-9622.677246,842.705048
1351.699345,4589.276840,-10881.027347,459.657299
1351.699674,4441.235652,-10807.006753,766.095498
1351.700003,4811.338623,-9326.594869,383.047749
1351.700332,5773.606348,-7846.182985,689.485948
1351.700662,6513.812290,-6365.771101,1149.143247
1351.700991,7550.100608,-5255.462188,1455.581446
1351.701320,6735.874072,-4737.318029,1225.752797
1351.701649,6291.750507,-3404.947333,1225.752797
1351.701978,6735.874072,-3330.926739,0.000000
1351.702308,7846.182985,-3923.091493,919.314598
1351.702637,9400.615463,-4811.338623,919.314598
1351.702966,9178.553681,-6439.791695,919.314598
1351.703295,8216.285956,-6809.894666,1072.533697
1351.703624,7328.038826,-7920.203579,306.438199
1351.703954,6587.832884,-9474.636058,383.047749
1351.704283,6735.874072,-9696.697840,1072.533697
1351.704612,6069.688724,-9474.636058,612.876398
1351.704941,5699.585753,-9474.636058,842.705048
1351.705271,4737.318029,-7994.224174,383.047749
1351.705600,5255.462188,-7179.997637,842.705048
1351.705929,6217.729913,-6587.832884,1225.752797
1351.706258,6809.894666,-4663.297435,1149.143247
1351.706587,7254.018232,-3627.009116,1149.143247
1351.706917,7476.080014,-3404.947333,1149.143247
1351.707246,8586.388927,-3849.070898,1532.190996
1351.707575,9918.759623,-4145.153275,2451.505594
1351.707904,10510.924376,-5625.565159,2451.505594
1351.708233,9400.615463,-7031.956449,1608.800546
1351.708563,6217.729913,-8142.265362,229.828649
1351.708892,3997.112087,-9918.759623,-536.266849
1351.709221,3849.070898,-9992.780217,-689.485948
1351.709550,4515.256246,-9030.512492,459.657299
1351.709879,5921.647536,-7920.203579,306.438199
1351.710209,6735.874072,-6439.791695,306.438199
1351.710538,6883.915261,-5847.626942,1072.533697
1351.710867,7402.059420,-4071.132681,1149.143247
1351.711196,8364.327145,-3552.988522,2374.896044
1351.711525,9400.615463,-2960.823768,2451.505594
1351.711855,9696.697840,-3034.844362,2145.067394
1351.712184,8512.368333,-5107.421000,1915.238745
1351.712513,7624.121203,-5847.626942,766.095498
1351.712842,6069.688724,-7846.182985,766.095498
1351.713171,5847.626942,-9400.615463,1072.533697
1351.713501,5921.647536,-10214.842000,1378.971896
1351.713830,5699.585753,-10214.842000,1072.533697
1351.714159,5847.626942,-8364.327145,1455.581446
1351.714488,5699.585753,-7105.977043,766.095498
1351.714817,6291.750507,-5921.647536,842.705048
1351.715147,7550.100608,-3849.070898,1302.362347
1351.715476,8734.430116,-3034.844362,1608.800546
1351.715805,8068.244768,-4145.153275,919.314598
1351.716134,7105.977043,-4959.379811,1608.800546
1351.716464,6957.935855,-7328.038826,1302.362347
1351.716793,7846.182985,-7476.080014,1532.190996
1351.717122,8216.285956,-7846.182985,2451.505594
1351.717451,8068.244768,-8956.491898,1915.238745
1351.717780,6439.791695,-7994.224174,459.657299
1351.718110,4811.338623,-7402.059420,-459.657299
1351.718439,5107.421000,-5995.668130,-153.219100
1351.718768,7105.977043,-5699.585753,689.485948
1351.719097,7920.203579,-6513.812290,2451.505594
1351.719426,8216.285956,-5921.647536,2451.505594
1351.719755,6735.874072,-6291.750507,1838.629195
1351.720085,5847.626942,-6439.791695,1455.581446
1351.720414,5181.441594,-6809.894666,1225.752797
1351.720743,6513.812290,-6439.791695,1532.190996
1351.721072,7550.100608,-5995.668130,1302.362347
1351.721401,7254.018232,-6069.688724,1685.410096
1351.721730,6513.812290,-5107.421000,766.095498
1351.722059,6291.750507,-6217.729913,612.876398
1351.722389,7328.038826,-7179.997637,1608.800546
1351.722718,8364.327145,-7550.100608,2528.115143
1351.723047,8512.368333,-7920.203579,2757.943793
1351.723376,6365.771101,-7846.182985,1608.800546
1351.723705,4811.338623,-8068.244768,536.266849
1351.724034,5329.482782,-7846.182985,-306.438199
1351.724363,6735.874072,-6069.688724,306.438199
1351.724693,7105.977043,-5329.482782,1149.143247
1351.725022,6809.894666,-5403.503377,995.924147
1351.725351,7031.956449,-4367.215058,536.266849
1351.725680,6809.894666,-4737.318029,536.266849
1351.726009,8216.285956,-5551.544565,2145.067394
1351.726338,9178.553681,-5477.523971,2834.553343
1351.726667,9474.636058,-6069.688724,2451.505594
1351.726997,7920.203579,-6957.935855,1455.581446
1351.727326,5625.565159,-7179.997637,76.609550
1351.727655,5033.400406,-7698.141797,-459.657299
1351.727984,4959.379811,-8734.430116,0.000000
1351.728313,5773.606348,-8808.450710,612.876398
1351.728642,6661.853478,-8068.244768,689.485948
1351.728971,7105.977043,-6439.791695,1302.362347
1351.729301,7105.977043,-5625.565159,1532.190996
1351.729630,8142.265362,-4959.379811,1072.533697
1351.729959,8808.450710,-4811.338623,1532.190996
1351.730288,8364.327145,-4959.379811,1149.143247
1351.730617,7402.059420,-5033.400406,0.000000
1351.730946,5995.668130,-5625.565159,-153.219100
1351.731275,5625.565159,-7105.977043,-459.657299
1351.731605,6143.709319,-7698.141797,459.657299
1351.731934,7328.038826,-8512.368333,1302.362347
1351.732263,8364.327145,-8364.327145,2221.676944
1351.732592,7476.080014,-7105.977043,919.314598
1351.732921,6365.771101,-7031.956449,229.828649
1351.733250,6069.688724,-6661.853478,153.219100
1351.733579,7328.038826,-5847.626942,1072.533697
1351.733909,8660.409521,-5921.647536,1762.019645
1351.734238,8660.409521,-4663.297435,1915.238745
1351.734567,6735.874072,-4959.379811,689.485948
1351.734896,5033.400406,-6143.709319,459.657299
1351.735225,5181.441594,-7105.977043,689.485948
1351.735554,6661.853478,-7476.080014,1225.752797
1351.735883,7624.121203,-7846.182985,1685.410096
1351.736213,7328.038826,-7698.141797,2374.896044
1351.736542,6513.812290,-6735.874072,1149.143247
1351.736871,5181.441594,-6069.688724,-536.266849
1351.737200,5107.421000,-5107.421000,306.438199
1351.737529,6217.729913,-5551.544565,1378.971896
1351.737858,7550.100608,-6587.832884,919.314598
1351.738187,7402.059420,-6661.853478,1838.629195
1351.738517,6883.915261,-7920.203579,1302.362347
1351.738846,7328.038826,-7994.224174,1685.410096
1351.739175,7328.038826,-7402.059420,1532.190996
1351.739504,7550.100608,-7105.977043,1225.752797
1351.739833,7920.203579,-4589.276840,612.876398
1351.740162,7698.141797,-5477.523971,76.609550
1351.740491,6883.915261,-4885.359217,153.219100
1351.740821,7105.977043,-6069.688724,689.485948
1351.741150,8364.327145,-6513.812290,2374.896044
1351.741479,8660.409521,-6513.812290,2221.676944
1351.741808,7105.977043,-7698.141797,1838.629195
1351.742137,5773.606348,-8216.285956,766.095498
1351.742466,5181.441594,-9178.553681,766.095498
1351.742795,5847.626942,-7846.182985,995.924147
1351.743125,6439.791695,-7254.018232,689.485948
1351.743454,6513.812290,-6365.771101,842.705048
1351.743783,6883.915261,-6069.688724,383.047749
1351.744112,6587.832884,-7031.956449,1149.143247
1351.744441,7328.038826,-5551.544565,2221.676944
1351.744770,8808.450710,-5403.503377,1991.848295
1351.745099,9030.512492,-6069.688724,2374.896044
1351.745429,7550.100608,-4959.379811,2068.457845
1351.745758,6143.709319,-6291.750507,1455.581446
1351.746087,5329.482782,-6883.915261,0.000000
1351.746416,4811.338623,-6217.729913,0.000000
1351.746745,6217.729913,-7402.059420,0.000000
1351.747074,7698.141797,-7624.121203,1072.533697
1351.747403,7624.121203,-7254.018232,1149.143247
1351.747733,6217.729913,-6661.853478,153.219100
1351.748062,6143.709319,-5995.668130,919.314598
1351.748391,7698.141797,-5995.668130,1532.190996
1351.748720,9400.615463,-4441.235652,2451.505594
1351.749049,9252.574275,-4515.256246,2374.896044
1351.749378,7550.100608,-5255.462188,1915.238745
1351.749707,5551.544565,-6069.688724,842.705048
1351.750037,4885.359217,-6587.832884,766.095498
1351.750366,5847.626942,-7550.100608,1302.362347
1351.750695,6661.853478,-6809.894666,919.314598
1351.751024,6439.791695,-6883.915261,919.314598
1351.751353,6069.688724,-6809.894666,306.438199
1351.751682,6513.812290,-7031.956449,536.266849
1351.752011,7402.059420,-6513.812290,1378.971896
1351.752341,8364.327145,-6439.791695,1225.752797
1351.752670,8216.285956,-6217.729913,1685.410096
1351.752999,7624.121203,-7254.018232,1149.143247
1351.753328,7105.977043,-7254.018232,536.266849
1351.753657,6439.791695,-7105.977043,536.266849
1351.753986,7624.121203,-6217.729913,612.876398
1351.754315,7994.224174,-6587.832884,919.314598
1351.754645,7328.038826,-6069.688724,766.095498
1351.754974,5995.668130,-6439.791695,0.000000
1351.755303,5847.626942,-6439.791695,306.438199
1351.755632,7105.977043,-6069.688724,1378.971896
1351.755961,8290.306550,-6439.791695,1838.629195
1351.756290,8512.368333,-5921.647536,2221.676944
1351.756619,7402.059420,-6439.791695,1225.752797
1351.756949,5847.626942,-6661.853478,153.219100
1351.757278,4737.318029,-7698.141797,0.000000
1351.757607,5773.606348,-8438.347739,766.095498
1351.757936,6957.935855,-7550.100608,1455.581446
