#time,accel_x,accel_y,accel_z
1383.447768,6661.853478,-6661.853478,1072.533697
1383.448098,6809.894666,-6661.853478,1072.533697
1383.448428,6957.935855,-6217.729913,919.314598
1383.448758,7105.977043,-6587.832884,1149.143247
1383.449089,7105.977043,-6735.874072,612.876398
1383.449419,7031.956449,-6735.874072,1149.143247
1383.449749,6587.832884,-6365.771101,842.705048
1383.450079,7031.956449,-6661.853478,995.924147
1383.450409,6735.874072,-6735.874072,919.314598
1383.450740,7105.977043,-6513.812290,1149.143247
1383.451070,7105.977043,-6291.750507,1072.533697
1383.451400,7402.059420,-6735.874072,1455.581446
1383.451730,7105.977043,-6217.729913,766.095498
1383.452060,6883.915261,-6513.812290,995.924147
1383.452391,6735.874072,-6513.812290,689.485948
1383.452721,6883.915261,-6957.935855,995.924147
1383.453051,6883.915261,-6439.791695,1072.533697
1383.453381,6957.935855,-6883.915261,1225.752797
1383.453712,6809.894666,-6365.771101,995.924147
1383.454042,6735.874072,-7179.997637,1455.581446
1383.454372,6957.935855,-7105.977043,1225.752797
1383.454702,6883.915261,-7031.956449,842.705048
1383.455032,6883.915261,-6735.874072,1072.533697
1383.455363,6883.915261,-6883.915261,612.876398
1383.455693,7105.977043,-6661.853478,1149.143247
1383.456023,7254.018232,-5995.668130,1302.362347
1383.456353,7105.977043,-5995.668130,919.314598
1383.456684,7550.100608,-6069.688724,919.314598
1383.457014,7179.997637,-6587.832884,612.876398
1383.457344,7402.059420,-6513.812290,995.924147
1383.457674,7402.059420,-6217.729913,995.924147
1383.458004,7550.100608,-6217.729913,1072.533697
1383.458335,7254.018232,-5995.668130,1225.752797
1383.458665,7254.018232,-6069.688724,1149.143247
1383.458995,7402.059420,-6439.791695,689.485948
1383.459325,7031.956449,-6143.709319,919.314598
1383.459656,6809.894666,-6069.688724,995.924147
1383.459986,6735.874072,-6587.832884,1225.752797
1383.460316,6735.874072,-6883.915261,1378.971896
1383.460646,7105.977043,-6143.709319,1685.410096
1383.460976,6883.915261,-6661.853478,1149.143247
1383.461307,6883.915261,-6957.935855,995.924147
1383.461637,7031.956449,-6957.935855,1532.190996
1383.461967,7031.956449,-6661.853478,612.876398
1383.462297,6883.915261,-6661.853478,919.314598
1383.462628,6883.915261,-7105.977043,1149.143247
1383.462958,6883.915261,-7031.956449,995.924147
1383.463288,7031.956449,-6587.832884,1302.362347
1383.463618,7550.100608,-6587.832884,1149.143247
1383.463948,7105.977043,-6809.894666,383.047749
1383.464279,7031.956449,-6439.791695,766.095498
1383.464609,6957.935855,-6513.812290,842.705048
1383.464939,7105.977043,-6735.874072,766.095498
1383.465269,7105.977043,-6069.688724,919.314598
1383.465600,7179.997637,-6661.853478,1072.533697
1383.465930,7105.977043,-6883.915261,1455.581446
1383.466260,7031.956449,-6513.812290,1225.752797
1383.466590,7105.977043,-6735.874072,536.266849
1383.466920,6587.832884,-6587.832884,1149.143247
1383.467251,6513.812290,-6809.894666,1149.143247
1383.467581,6735.874072,-6883.915261,842.705048
1383.467911,7031.956449,-6735.874072,919.314598
1383.468241,7179.997637,-6439.791695,383.047749
1383.468571,6735.874072,-6809.894666,842.705048
1383.468902,6735.874072,-6883.915261,1302.362347
1383.469232,6809.894666,-6587.832884,842.705048
1383.469562,7105.977043,-5921.647536,919.314598
1383.469892,6809.894666,-6735.874072,842.705048
1383.470223,7179.997637,-6661.853478,766.095498
1383.470553,7402.059420,-6513.812290,1302.362347
1383.470883,7772.162391,-6661.853478,1302.362347
1383.471213,7105.977043,-6069.688724,1762.019645
1383.471543,7179.997637,-6513.812290,1072.533697
1383.471874,7031.956449,-6513.812290,919.314598
1383.472204,6957.935855,-6291.750507,919.314598
1383.472534,7105.977043,-5921.647536,1149.143247
1383.472864,7105.977043,-5921.647536,1072.533697
1383.473195,7179.997637,-6143.709319,1302.362347
1383.473525,7105.977043,-6587.832884,1378.971896
1383.473855,7105.977043,-6217.729913,842.705048
1383.474185,7624.121203,-6587.832884,383.047749
1383.474515,7105.977043,-6439.791695,1072.533697
1383.474846,6957.935855,-6587.832884,1149.143247
1383.475176,7105.977043,-6513.812290,1072.533697
1383.475506,6883.915261,-6809.894666,1302.362347
1383.475836,6957.935855,-6883.915261,1455.581446
1383.476167,6587.832884,-6735.874072,1149.143247
1383.476497,6365.771101,-6809.894666,1149.143247
1383.476827,6587.832884,-6365.771101,612.876398
1383.477157,6735.874072,-6587.832884,919.314598
1383.477487,6809.894666,-6957.935855,1072.533697
1383.477818,7031.956449,-6661.853478,1378.971896
1383.478148,7179.997637,-6439.791695,1149.143247
1383.478478,6809.894666,-7105.977043,995.924147
1383.478808,7698.141797,-6883.915261,766.095498
1383.479139,7031.956449,-6809.894666,995.924147
1383.479469,7031.956449,-6735.874072,919.314598
1383.479799,7105.977043,-6513.812290,1225.752797
1383.480129,7328.038826,-6439.791695,842.705048
1383.480459,7031.956449,-6809.894666,536.266849
1383.480790,6883.915261,-6513.812290,1225.752797
1383.481120,7105.977043,-6735.874072,1072.533697
1383.481450,6661.853478,-6069.688724,1225.752797
1383.481780,6291.750507,-6069.688724,1378.971896
1383.482111,6735.874072,-6957.935855,1149.143247
1383.482441,6291.750507,-6883.915261,536.266849
1383.482771,6957.935855,-6587.832884,1149.143247
1383.483101,6513.812290,-6513.812290,1378.971896
1383.483431,7031.956449,-6735.874072,995.924147
1383.483762,6809.894666,-6957.935855,1072.533697
1383.484092,6957.935855,-7105.977043,1149.143247
1383.484422,6735.874072,-7105.977043,919.314598
1383.484752,7031.956449,-6365.771101,536.266849
1383.485082,7105.977043,-6661.853478,842.705048
1383.485413,6957.935855,-6365.771101,1225.752797
1383.485743,7105.977043,-6291.750507,995.924147
1383.486073,7105.977043,-6365.771101,1072.533697
1383.486403,7179.997637,-6069.688724,1532.190996
1383.486734,7328.038826,-6291.750507,919.314598
1383.487064,7402.059420,-6291.750507,1072.533697
1383.487394,7254.018232,-6143.709319,919.314598
1383.487724,7772.162391,-6587.832884,1072.533697
1383.488054,7476.080014,-6217.729913,1302.362347
1383.488385,7328.038826,-6365.771101,1225.752797
1383.488715,7179.997637,-6365.771101,995.924147
1383.489045,6809.894666,-6513.812290,1149.143247
1383.489375,6957.935855,-6809.894666,919.314598
1383.489706,6809.894666,-6513.812290,995.924147
1383.490036,6661.853478,-6661.853478,1225.752797
1383.490366,6513.812290,-6439.791695,1149.143247
1383.490696,6809.894666,-6735.874072,1072.533697
1383.491026,6883.915261,-6291.750507,1149.143247
1383.491357,6957.935855,-6661.853478,995.924147
1383.491687,6661.853478,-6587.832884,689.485948
1383.492017,6661.853478,-7031.956449,1149.143247
1383.492347,7105.977043,-6809.894666,995.924147
1383.492678,6957.935855,-6661.853478,1302.362347
1383.493008,7105.977043,-6513.812290,919.314598
1383.493338,7031.956449,-6809.894666,842.705048
1383.493668,7031.956449,-6809.894666,1072.533697
1383.493998,7105.977043,-6809.894666,1149.143247
1383.494329,6957.935855,-6439.791695,1072.533697
1383.494659,7179.997637,-5995.668130,1225.752797
1383.494989,7105.977043,-6513.812290,842.705048
1383.495319,6957.935855,-6587.832884,2068.457845
1383.495650,6809.894666,-6513.812290,1455.581446
1383.495980,7105.977043,-6439.791695,1378.971896
1383.496310,6513.812290,-6439.791695,1072.533697
1383.496640,6291.750507,-6809.894666,1149.143247
1383.496970,6809.894666,-6661.853478,842.705048
1383.497301,6883.915261,-6661.853478,1225.752797
1383.497631,6809.894666,-6365.771101,919.314598
1383.497961,6587.832884,-6735.874072,1149.143247
1383.498291,6587.832884,-6587.832884,1532.190996
1383.498622,6513.812290,-6957.935855,1072.533697
1383.498952,6513.812290,-6809.894666,995.924147
1383.499282,6735.874072,-6661.853478,1225.752797
1383.499612,6809.894666,-6957.935855,1072.533697
1383.499942,7254.018232,-6291.750507,1149.143247
1383.500273,7254.018232,-6291.750507,1455.581446
1383.500603,7328.038826,-6735.874072,536.266849
1383.500933,7328.038826,-6439.791695,1072.533697
1383.501263,7179.997637,-6439.791695,1072.533697
1383.501594,7402.059420,-6513.812290,919.314598
1383.501924,7105.977043,-5995.668130,1149.143247
1383.502254,7624.121203,-6217.729913,995.924147
1383.502584,7476.080014,-6217.729913,1072.533697
1383.502914,7179.997637,-6143.709319,1532.190996
1383.503245,7179.997637,-6291.750507,689.485948
1383.503575,6883.915261,-6513.812290,1149.143247
1383.503905,6883.915261,-6439.791695,459.657299
1383.504235,6587.832884,-6587.832884,1378.971896
1383.504565,7105.977043,-6735.874072,1072.533697
1383.504896,7031.956449,-6587.832884,1225.752797
1383.505226,6809.894666,-6439.791695,995.924147
1383.505556,6735.874072,-6735.874072,919.314598
1383.505886,7031.956449,-6439.791695,1072.533697
1383.506217,6735.874072,-6587.832884,1072.533697
1383.506547,6809.894666,-6587.832884,1225.752797
1383.506877,6809.894666,-6661.853478,689.485948
1383.507207,7179.997637,-6883.915261,766.095498
1383.507537,7254.018232,-6661.853478,1838.629195
1383.507868,6957.935855,-6439.791695,995.924147
1383.508198,7179.997637,-6365.771101,1072.533697
1383.508528,7328.038826,-6957.935855,1225.752797
1383.508858,6957.935855,-6661.853478,1225.752797
1383.509189,6957.935855,-6217.729913,919.314598
1383.509519,7254.018232,-6513.812290,995.924147
1383.509849,6883.915261,-6957.935855,919.314598
1383.510179,6809.894666,-6735.874072,1302.362347
1383.510509,7328.038826,-6365.771101,842.705048
1383.510840,6883.915261,-6217.729913,1225.752797
1383.511170,6809.894666,-6587.832884,1072.533697
1383.511500,6809.894666,-7031.956449,919.314598
1383.511830,6587.832884,-6809.894666,1225.752797
1383.512161,7105.977043,-7105.977043,919.314598
1383.512491,7105.977043,-6143.709319,1149.143247
1383.512821,6809.894666,-6809.894666,1149.143247
1383.513151,6661.853478,-6587.832884,1532.190996
1383.513481,6513.812290,-6513.812290,995.924147
1383.513812,6587.832884,-6809.894666,766.095498
1383.514142,6587.832884,-6883.915261,919.314598
1383.514472,7105.977043,-7179.997637,766.095498
1383.514802,7031.956449,-6587.832884,1455.581446
1383.515131,7254.018232,-6883.915261,1762.019645
1383.515461,7402.059420,-6217.729913,1149.143247
1383.515790,7254.018232,-6217.729913,766.095498
1383.516120,7105.977043,-6439.791695,612.876398
1383.516449,7254.018232,-6365.771101,995.924147
1383.516779,7328.038826,-5403.503377,919.314598
1383.517109,7179.997637,-6069.688724,842.705048
1383.517438,7179.997637,-5847.626942,1149.143247
1383.517768,7105.977043,-6217.729913,1532.190996
1383.518097,7254.018232,-6143.709319,1072.533697
1383.518427,7105.977043,-6291.750507,1225.752797
1383.518756,6957.935855,-6291.750507,842.705048
1383.519086,6883.915261,-6661.853478,842.705048
1383.519416,7105.977043,-6513.812290,842.705048
1383.519745,7179.997637,-6883.915261,1532.190996
1383.520075,6513.812290,-6439.791695,919.314598
1383.520404,6735.874072,-6735.874072,1072.533697
1383.520734,6809.894666,-6661.853478,689.485948
1383.521063,7105.977043,-7105.977043,689.485948
1383.521393,6735.874072,-6513.812290,919.314598
1383.521723,6883.915261,-6883.915261,766.095498
1383.522052,7105.977043,-6883.915261,995.924147
1383.522382,7254.018232,-6513.812290,1302.362347
1383.522711,7254.018232,-6587.832884,995.924147
1383.523041,6957.935855,-6661.853478,1302.362347
1383.523370,7031.956449,-6809.894666,1149.143247
1383.523700,6883.915261,-6735.874072,612.876398
1383.524030,7105.977043,-6217.729913,1072.533697
1383.524359,7031.956449,-6365.771101,919.314598
1383.524689,6883.915261,-6661.853478,1378.971896
1383.525018,7105.977043,-6587.832884,1149.143247
1383.525348,6809.894666,-6291.750507,1072.533697
1383.525677,7179.997637,-6217.729913,689.485948
1383.526007,6513.812290,-6217.729913,995.924147
1383.526336,6513.812290,-6513.812290,842.705048
1383.526666,6661.853478,-7105.977043,1225.752797
1383.526996,7179.997637,-6513.812290,1685.410096
1383.527325,7328.038826,-6883.915261,842.705048
1383.527655,6809.894666,-6809.894666,1149.143247
1383.527984,6735.874072,-6957.935855,995.924147
1383.528314,6587.832884,-6957.935855,995.924147
1383.528643,7105.977043,-6661.853478,1149.143247
1383.528973,6883.915261,-6957.935855,1072.533697
1383.529303,7179.997637,-6439.791695,612.876398
1383.529632,7105.977043,-6291.750507,1225.752797
1383.529962,7105.977043,-6439.791695,689.485948
1383.530291,7105.977043,-5995.668130,1225.752797
1383.530621,7105.977043,-6217.729913,766.095498
1383.530950,7105.977043,-6587.832884,995.924147
1383.531280,7402.059420,-6291.750507,1072.533697
1383.531610,7476.080014,-6365.771101,1225.752797
1383.531939,7772.162391,-6291.750507,1149.143247
1383.532269,7254.018232,-6439.791695,1072.533697
1383.532598,7254.018232,-6439.791695,1225.752797
1383.532928,7476.080014,-6439.791695,995.924147
1383.533257,6809.894666,-6513.812290,1455.581446
1383.533587,6735.874072,-6439.791695,1149.143247
1383.533916,6883.915261,-6513.812290,995.924147
1383.534246,6809.894666,-6291.750507,1378.971896
1383.534576,6883.915261,-6661.853478,1072.533697
1383.534905,6957.935855,-6735.874072,1149.143247
1383.535235,6735.874072,-6809.894666,1302.362347
1383.535564,7105.977043,-6809.894666,689.485948
1383.535894,6735.874072,-6513.812290,995.924147
1383.536223,6809.894666,-6883.915261,1149.143247
1383.536553,7105.977043,-7179.997637,689.485948
1383.536883,7402.059420,-6809.894666,1225.752797
1383.537212,6735.874072,-6957.935855,995.924147
1383.537542,7105.977043,-6587.832884,1072.533697
1383.537871,7105.977043,-6513.812290,1608.800546
1383.538201,6957.935855,-6661.853478,919.314598
1383.538530,7031.956449,-6291.750507,1149.143247
1383.538860,7105.977043,-5699.585753,842.705048
1383.539190,7254.018232,-6291.750507,1072.533697
1383.539519,6735.874072,-5921.647536,1072.533697
1383.539849,6883.915261,-6291.750507,1225.752797
1383.540178,6957.935855,-6587.832884,1149.143247
1383.540508,6809.894666,-6587.832884,766.095498
1383.540837,6883.915261,-7179.997637,1072.533697
1383.541167,6661.853478,-7031.956449,995.924147
1383.541497,6735.874072,-6957.935855,1149.143247
1383.541826,6883.915261,-6735.874072,1072.533697
1383.542156,6735.874072,-6587.832884,995.924147
1383.542485,6957.935855,-6365.771101,1149.143247
1383.542815,6587.832884,-6809.894666,689.485948
1383.543144,6957.935855,-6661.853478,919.314598
1383.543474,6661.853478,-6439.791695,1072.533697
1383.543803,7105.977043,-6143.709319,1149.143247
1383.544133,7179.997637,-6513.812290,1072.533697
1383.544463,7179.997637,-6439.791695,842.705048
1383.544792,7179.997637,-7031.956449,995.924147
1383.545122,7328.038826,-6661.853478,1149.143247
1383.545451,7105.977043,-6957.935855,1149.143247
1383.545781,7254.018232,-6587.832884,1149.143247
1383.546110,7476.080014,-6217.729913,842.705048
1383.546440,7105.977043,-5921.647536,919.314598
1383.546770,7105.977043,-6291.750507,1149.143247
1383.547099,6957.935855,-6143.709319,1072.533697
1383.547429,7105.977043,-5773.606348,919.314598
1383.547758,6809.894666,-6069.688724,919.314598
1383.548088,6513.812290,-6365.771101,919.314598
1383.548417,7179.997637,-6809.894666,306.438199
1383.548747,6735.874072,-6883.915261,1302.362347
1383.549077,6661.853478,-6809.894666,1149.143247
1383.549406,6883.915261,-6735.874072,919.314598
1383.549736,6735.874072,-7402.059420,1378.971896
1383.550065,6883.915261,-6735.874072,1149.143247
1383.550395,6957.935855,-6735.874072,766.095498
1383.550724,6883.915261,-6809.894666,995.924147
1383.551054,6957.935855,-7105.977043,919.314598
1383.551384,6809.894666,-6439.791695,1455.581446
1383.551713,7105.977043,-6439.791695,842.705048
1383.552043,6735.874072,-6513.812290,919.314598
1383.552372,7031.956449,-6217.729913,766.095498
1383.552702,6957.935855,-6661.853478,1149.143247
1383.553031,6587.832884,-6291.750507,1072.533697
1383.553361,7105.977043,-6513.812290,1225.752797
1383.553690,7105.977043,-6365.771101,919.314598
1383.554020,7179.997637,-6439.791695,1072.533697
1383.554350,7105.977043,-6587.832884,766.095498
1383.554679,7179.997637,-6587.832884,995.924147
1383.555009,6883.915261,-6365.771101,995.924147
1383.555338,6513.812290,-6587.832884,1225.752797
1383.555668,6513.812290,-6957.935855,1225.752797
1383.555997,6661.853478,-6809.894666,766.095498
1383.556327,6439.791695,-6439.791695,1378.971896
1383.556657,7031.956449,-6883.915261,536.266849
1383.556986,6661.853478,-6661.853478,1302.362347
1383.557316,7105.977043,-6735.874072,1149.143247
1383.557645,7105.977043,-6957.935855,842.705048
1383.557975,7031.956449,-6809.894666,842.705048
1383.558304,7031.956449,-7105.977043,1149.143247
1383.558634,7179.997637,-6661.853478,995.924147
1383.558964,7105.977043,-6439.791695,1762.019645
1383.559293,7105.977043,-6587.832884,766.095498
1383.559623,7105.977043,-6661.853478,995.924147
1383.559952,7179.997637,-6439.791695,612.876398
1383.560282,7031.956449,-6439.791695,536.266849
1383.560611,7105.977043,-6143.709319,1685.410096
1383.560941,7179.997637,-5773.606348,766.095498
1383.561271,7254.018232,-5995.668130,1225.752797
1383.561600,7328.038826,-6365.771101,1455.581446
1383.561930,7105.977043,-6069.688724,919.314598
1383.562259,6957.935855,-6217.729913,1302.362347
1383.562589,7031.956449,-5921.647536,1378.971896
1383.562918,6883.915261,-6365.771101,766.095498
1383.563248,7031.956449,-7031.956449,1072.533697
1383.563577,7105.977043,-6439.791695,1149.143247
1383.563907,6809.894666,-6735.874072,995.924147
1383.564237,6587.832884,-6587.832884,919.314598
1383.564566,6661.853478,-6735.874072,1532.190996
1383.564896,6735.874072,-6735.874072,689.485948
1383.565225,6809.894666,-5921.647536,1302.362347
1383.565555,7031.956449,-5329.482782,1072.533697
1383.565884,8216.285956,-5699.585753,919.314598
1383.566214,8734.430116,-5551.544565,1608.800546
1383.566544,8512.368333,-5773.606348,1378.971896
1383.566873,7328.038826,-6291.750507,383.047749
1383.567203,5921.647536,-7105.977043,459.657299
1383.567532,5921.647536,-7179.997637,153.219100
1383.567862,7105.977043,-6661.853478,766.095498
1383.568191,8216.285956,-6291.750507,1762.019645
1383.568521,8290.306550,-5921.647536,1378.971896
1383.568851,8290.306550,-4959.379811,1762.019645
1383.569180,8142.265362,-3997.112087,1225.752797
1383.569510,7846.182985,-4737.318029,1532.190996
1383.569839,7772.162391,-4515.256246,1149.143247
1383.570169,8216.285956,-4515.256246,1072.533697
1383.570498,8734.430116,-5255.462188,1072.533697
1383.570828,8216.285956,-5107.421000,1072.533697
1383.571157,7772.162391,-5995.668130,919.314598
1383.571487,8290.306550,-4959.379811,306.438199
1383.571817,8364.327145,-6069.688724,766.095498
1383.572146,8438.347739,-6883.915261,1225.752797
1383.572476,8068.244768,-6069.688724,612.876398
1383.572805,7920.203579,-5995.668130,536.266849
1383.573135,7550.100608,-5255.462188,689.485948
1383.573464,7994.224174,-5181.441594,842.705048
1383.573794,8660.409521,-4367.215058,1225.752797
1383.574124,9030.512492,-4367.215058,1455.581446
1383.574453,9696.697840,-4441.235652,1225.752797
1383.574783,9474.636058,-3182.885551,1072.533697
1383.575112,9548.656652,-3701.029710,1225.752797
1383.575442,9696.697840,-2886.803174,1225.752797
1383.575771,10140.821405,-2664.741391,1455.581446
1383.576101,10288.862594,-3552.988522,1532.190996
1383.576431,10288.862594,-2886.803174,1532.190996
1383.576760,10140.821405,-4071.132681,1532.190996
1383.577090,10214.842000,-4219.173869,842.705048
1383.577419,9104.533087,-4737.318029,1608.800546
1383.577749,7772.162391,-5033.400406,1302.362347
1383.578078,7254.018232,-5181.441594,689.485948
1383.578408,7402.059420,-5477.523971,1149.143247
1383.578738,8068.244768,-4959.379811,1302.362347
1383.579067,8216.285956,-5329.482782,1225.752797
1383.579397,8364.327145,-4145.153275,1149.143247
1383.579726,8364.327145,-4663.297435,689.485948
1383.580056,7994.224174,-4515.256246,536.266849
1383.580385,8364.327145,-4219.173869,459.657299
1383.580715,9400.615463,-4737.318029,689.485948
1383.581044,9770.718434,-4145.153275,1072.533697
1383.581374,9474.636058,-5181.441594,229.828649
1383.581704,9474.636058,-4737.318029,383.047749
1383.582033,9622.677246,-4515.256246,536.266849
1383.582363,9326.594869,-4959.379811,842.705048
1383.582692,9104.533087,-5107.421000,1302.362347
1383.583022,9030.512492,-4959.379811,1378.971896
1383.583351,8882.471304,-4367.215058,689.485948
1383.583681,8512.368333,-4219.173869,1608.800546
1383.584011,8808.450710,-4515.256246,1915.238745
1383.584340,9178.553681,-4071.132681,2298.286494
1383.584670,9474.636058,-3478.967927,1915.238745
1383.584999,8734.430116,-2960.823768,919.314598
1383.585329,8882.471304,-3404.947333,612.876398
1383.585658,9400.615463,-4589.276840,1685.410096
1383.585988,9474.636058,-4219.173869,689.485948
1383.586318,8808.450710,-3775.050304,153.219100
1383.586647,8290.306550,-4219.173869,-229.828649
1383.586977,8290.306550,-5699.585753,-459.657299
1383.587306,8734.430116,-6439.791695,689.485948
1383.587636,8734.430116,-6439.791695,995.924147
1383.587965,8808.450710,-6735.874072,1455.581446
1383.588295,8438.347739,-5403.503377,1455.581446
1383.588625,8586.388927,-6217.729913,2068.457845
1383.588954,8956.491898,-4737.318029,1762.019645
1383.589284,8586.388927,-4219.173869,2145.067394
1383.589613,9178.553681,-2960.823768,1762.019645
1383.589943,9844.739029,-1406.391290,1378.971896
1383.590272,10732.986159,-1258.350101,1225.752797
1383.590602,10807.006753,-740.205942,612.876398
1383.590931,10732.986159,-1850.514855,76.609550
1383.591261,10584.944971,-2294.638420,383.047749
1383.591591,10362.883188,-3182.885551,76.609550
1383.591920,9474.636058,-4885.359217,459.657299
1383.592250,8586.388927,-6143.709319,612.876398
1383.592579,7920.203579,-8216.285956,612.876398
1383.592909,7179.997637,-8808.450710,995.924147
1383.593238,6439.791695,-8734.430116,1072.533697
1383.593568,6143.709319,-8438.347739,383.047749
1383.593898,5773.606348,-6587.832884,766.095498
1383.594227,6513.812290,-5921.647536,383.047749
1383.594557,7846.182985,-4293.194464,1072.533697
1383.594886,9326.594869,-2812.782580,1915.238745
1383.595216,10658.965565,-1998.556043,1378.971896
1383.595545,10436.903782,-222.061783,2145.067394
1383.595875,11177.109724,-296.082377,1685.410096
1383.596205,11843.295072,0.000000,766.095498
1383.596534,12509.480420,-1258.350101,1302.362347
1383.596864,12879.583391,-2442.679609,1532.190996
1383.597193,11843.295072,-3552.988522,1838.629195
1383.597523,10362.883188,-4737.318029,1455.581446
1383.597852,8660.409521,-6661.853478,1378.971896
1383.598182,6735.874072,-8438.347739,1302.362347
1383.598511,5329.482782,-8142.265362,153.219100
1383.598841,4145.153275,-8216.285956,-306.438199
1383.599171,4959.379811,-7772.162391,-459.657299
1383.599500,6217.729913,-7105.977043,76.609550
1383.599830,7920.203579,-5847.626942,919.314598
1383.600159,9252.574275,-4071.132681,1608.800546
1383.600489,10732.986159,-2294.638420,2068.457845
1383.600818,11103.089130,-962.267725,1838.629195
1383.601148,11547.212695,-888.247130,1685.410096
1383.601478,11473.192101,148.041188,1685.410096
1383.601807,12065.356855,-296.082377,995.924147
1383.602137,12213.398043,-1184.329507,1532.190996
1383.602466,11695.253884,-3552.988522,2451.505594
1383.602796,11103.089130,-5773.606348,2757.943793
1383.603125,8956.491898,-5329.482782,2068.457845
1383.603455,6735.874072,-5995.668130,229.828649
1383.603785,5477.523971,-6809.894666,-383.047749
1383.604114,5329.482782,-7254.018232,-612.876398
1383.604444,5995.668130,-7402.059420,-842.705048
1383.604773,6883.915261,-5773.606348,536.266849
1383.605103,8586.388927,-3478.967927,153.219100
1383.605432,10214.842000,-2738.761985,229.828649
1383.605762,10510.924376,-2442.679609,919.314598
1383.606092,10955.047942,-1702.473667,1915.238745
1383.606421,11177.109724,-2516.700203,1762.019645
1383.606751,10584.944971,-2516.700203,1532.190996
1383.607080,9918.759623,-3701.029710,1762.019645
1383.607410,9622.677246,-5033.400406,1072.533697
1383.607739,8290.306550,-6365.771101,1608.800546
1383.608069,6883.915261,-7846.182985,1072.533697
1383.608398,6883.915261,-8512.368333,1455.581446
1383.608728,6365.771101,-7179.997637,689.485948
1383.609058,6957.935855,-5107.421000,459.657299
1383.609387,6809.894666,-4219.173869,-306.438199
1383.609717,7772.162391,-4589.276840,229.828649
1383.610046,9030.512492,-4515.256246,842.705048
1383.610376,9992.780217,-3849.070898,1225.752797
1383.610705,9548.656652,-2220.617826,842.705048
1383.611035,9326.594869,-3108.864956,0.000000
1383.611365,8808.450710,-5403.503377,919.314598
1383.611694,8586.388927,-7476.080014,766.095498
1383.612024,8512.368333,-7550.100608,1302.362347
1383.612353,8512.368333,-6439.791695,995.924147
1383.612683,8512.368333,-5995.668130,-153.219100
1383.613012,7254.018232,-6587.832884,536.266849
1383.613342,6217.729913,-9178.553681,1149.143247
1383.613672,5921.647536,-9030.512492,689.485948
1383.614001,5107.421000,-7402.059420,689.485948
1383.614331,4219.173869,-6587.832884,-383.047749
1383.614660,4737.318029,-6957.935855,-383.047749
1383.614990,6365.771101,-7476.080014,1225.752797
1383.615319,8142.265362,-7254.018232,2374.896044
1383.615649,9030.512492,-4515.256246,1838.629195
1383.615979,9252.574275,-2442.679609,2221.676944
1383.616308,9474.636058,-1628.453072,612.876398
1383.616638,9400.615463,-2886.803174,229.828649
1383.616967,7994.224174,-5995.668130,1608.800546
1383.617296,8068.244768,-7328.038826,1532.190996
1383.617626,7550.100608,-6809.894666,1455.581446
1383.617955,7254.018232,-5995.668130,1149.143247
1383.618284,7550.100608,-7031.956449,1532.190996
1383.618614,7698.141797,-7550.100608,1915.238745
1383.618943,6809.894666,-6957.935855,1608.800546
1383.619272,6143.709319,-4219.173869,536.266849
1383.619602,7254.018232,-1998.556043,229.828649
1383.619931,8364.327145,-4441.235652,1225.752797
1383.620260,7994.224174,-6883.915261,1991.848295
1383.620590,6661.853478,-7994.224174,1915.238745
1383.620919,5773.606348,-7105.977043,229.828649
1383.621249,5403.503377,-6883.915261,0.000000
1383.621578,6439.791695,-7772.162391,1149.143247
1383.621907,7772.162391,-9030.512492,2451.505594
1383.622237,8216.285956,-7846.182985,2068.457845
1383.622566,6587.832884,-6291.750507,1608.800546
1383.622895,7254.018232,-4959.379811,1225.752797
1383.623225,7624.121203,-4441.235652,1302.362347
1383.623554,7105.977043,-5995.668130,1991.848295
1383.623883,5847.626942,-6883.915261,766.095498
1383.624213,5329.482782,-5033.400406,995.924147
1383.624542,6661.853478,-5403.503377,919.314598
1383.624871,8068.244768,-7105.977043,2374.896044
1383.625201,8216.285956,-6217.729913,1915.238745
1383.625530,7105.977043,-5995.668130,229.828649
1383.625859,7476.080014,-5255.462188,383.047749
1383.626189,7402.059420,-8142.265362,2068.457845
1383.626518,8512.368333,-7698.141797,1685.410096
1383.626847,7105.977043,-7402.059420,229.828649
1383.627177,5403.503377,-7476.080014,0.000000
1383.627506,5477.523971,-8142.265362,306.438199
1383.627836,6439.791695,-10362.883188,2451.505594
1383.628165,7328.038826,-7846.182985,2145.067394
1383.628494,6217.729913,-5847.626942,306.438199
1383.628824,4959.379811,-4737.318029,306.438199
1383.629153,5773.606348,-5551.544565,766.095498
1383.629482,7105.977043,-7179.997637,1455.581446
1383.629812,7105.977043,-6069.688724,1838.629195
1383.630141,6143.709319,-5107.421000,-536.266849
1383.630470,6365.771101,-5921.647536,383.047749
1383.630800,7105.977043,-8364.327145,2145.067394
1383.631129,8364.327145,-8512.368333,2145.067394
1383.631458,7328.038826,-6439.791695,919.314598
1383.631788,6365.771101,-5403.503377,306.438199
1383.632117,7031.956449,-5773.606348,919.314598
1383.632446,8734.430116,-6143.709319,1838.629195
1383.632776,7698.141797,-7105.977043,1149.143247
1383.633105,5551.544565,-5995.668130,306.438199
1383.633434,4959.379811,-5107.421000,-229.828649
1383.633764,5477.523971,-7105.977043,536.266849
1383.634093,6661.853478,-8956.491898,1762.019645
1383.634423,7772.162391,-7105.977043,1915.238745
1383.634752,7994.224174,-5033.400406,383.047749
1383.635081,7550.100608,-4219.173869,612.876398
1383.635411,8290.306550,-5699.585753,1915.238745
1383.635740,9400.615463,-6661.853478,2221.676944
1383.636069,8142.265362,-5477.523971,995.924147
1383.636399,6069.688724,-4663.297435,76.609550
1383.636728,5625.565159,-6143.709319,153.219100
1383.637057,7772.162391,-7846.182985,1685.410096
1383.637387,8660.409521,-8512.368333,2681.334243
1383.637716,7698.141797,-6365.771101,2068.457845
1383.638045,6291.750507,-4737.318029,153.219100
1383.638375,5403.503377,-4959.379811,0.000000
1383.638704,6143.709319,-7105.977043,919.314598
1383.639033,7031.956449,-7476.080014,919.314598
1383.639363,6143.709319,-6513.812290,76.609550
1383.639692,5107.421000,-5921.647536,0.000000
1383.640021,5773.606348,-7105.977043,459.657299
1383.640351,7772.162391,-8290.306550,1762.019645
1383.640680,8512.368333,-8216.285956,1991.848295
1383.641009,7254.018232,-5477.523971,536.266849
1383.641339,6809.894666,-5255.462188,0.000000
1383.641668,7328.038826,-5847.626942,842.705048
1383.641998,7624.121203,-7846.182985,1608.800546
1383.642327,7179.997637,-7179.997637,1225.752797
1383.642656,5625.565159,-6143.709319,-383.047749
1383.642986,5477.523971,-7550.100608,229.828649
1383.643315,6735.874072,-8438.347739,1608.800546
1383.643644,7105.977043,-8364.327145,1838.629195
1383.643974,6513.812290,-6587.832884,766.095498
1383.644303,5551.544565,-5255.462188,0.000000
1383.644632,6513.812290,-4737.318029,842.705048
1383.644962,8216.285956,-5773.606348,1225.752797
1383.645291,9326.594869,-5921.647536,2604.724693
1383.645620,7476.080014,-6291.750507,689.485948
1383.645950,5625.565159,-7031.956449,229.828649
1383.646279,5181.441594,-7328.038826,536.266849
1383.646608,6735.874072,-8660.409521,1378.971896
1383.646938,7254.018232,-7550.100608,2911.162892
1383.647267,7328.038826,-5773.606348,1302.362347
1383.647596,7105.977043,-5181.441594,766.095498
1383.647926,7402.059420,-5255.462188,1455.581446
1383.648255,7402.059420,-5921.647536,1685.410096
1383.648585,7031.956449,-5551.544565,1225.752797
1383.648914,5995.668130,-5551.544565,383.047749
1383.649243,6069.688724,-5773.606348,229.828649
1383.649573,6513.812290,-6513.812290,1225.752797
1383.649902,8512.368333,-7846.182985,2451.505594
1383.650231,8882.471304,-5847.626942,1608.800546
1383.650561,7698.141797,-4811.338623,459.657299
1383.650890,7179.997637,-5033.400406,766.095498
1383.651219,7846.182985,-6513.812290,1991.848295
1383.651549,8438.347739,-8290.306550,1762.019645
1383.651878,6217.729913,-7624.121203,919.314598
1383.652207,4811.338623,-6735.874072,-459.657299
1383.652537,4811.338623,-8142.265362,383.047749
1383.652866,6365.771101,-9326.594869,2068.457845
1383.653195,7031.956449,-8512.368333,1991.848295
1383.653525,6513.812290,-5625.565159,536.266849
1383.653854,6069.688724,-4885.359217,0.000000
1383.654183,6809.894666,-5107.421000,229.828649
1383.654513,7550.100608,-6883.915261,2681.334243
1383.654842,8364.327145,-6735.874072,1225.752797
1383.655172,7476.080014,-4737.318029,0.000000
1383.655501,6957.935855,-6069.688724,306.438199
1383.655830,7772.162391,-7846.182985,1762.019645
1383.656160,8586.388927,-7772.162391,2221.676944
1383.656489,8216.285956,-6143.709319,1302.362347
1383.656818,7031.956449,-4737.318029,76.609550
1383.657148,7031.956449,-5699.585753,1072.533697
1383.657477,8068.244768,-7476.080014,2528.115143
1383.657806,6957.935855,-7994.224174,1378.971896
1383.658136,4737.318029,-6587.832884,229.828649
1383.658465,3256.906145,-6513.812290,-995.924147
1383.658794,4515.256246,-8068.244768,689.485948
1383.659124,7105.977043,-8660.409521,2987.772442
1383.659453,8290.306550,-7179.997637,2374.896044
1383.659782,7402.059420,-4811.338623,766.095498
1383.660112,6809.894666,-4441.235652,612.876398
1383.660441,7994.224174,-4959.379811,1302.362347
1383.660770,8586.388927,-6809.894666,2068.457845
1383.661100,7328.038826,-5699.585753,306.438199
1383.661429,5699.585753,-5181.441594,-919.314598
1383.661759,5921.647536,-6291.750507,0.000000
1383.662088,7105.977043,-9178.553681,1915.238745
1383.662417,8438.347739,-9252.574275,2911.162892
1383.662747,7624.121203,-7105.977043,1455.581446
1383.663076,5921.647536,-5699.585753,-383.047749
1383.663405,5847.626942,-5995.668130,306.438199
1383.663735,7476.080014,-7179.997637,1378.971896
1383.664064,7624.121203,-7105.977043,995.924147
1383.664393,6143.709319,-5995.668130,229.828649
1383.664723,5255.462188,-5921.647536,76.609550
1383.665052,6957.935855,-6883.915261,1455.581446
1383.665381,7772.162391,-8142.265362,2757.943793
1383.665711,7698.141797,-7179.997637,2298.286494
1383.666040,7402.059420,-4219.173869,919.314598
1383.666369,7476.080014,-3923.091493,536.266849
1383.666699,8512.368333,-5329.482782,1762.019645
1383.667028,8586.388927,-6513.812290,2451.505594
1383.667357,7254.018232,-5921.647536,919.314598
1383.667687,6069.688724,-5107.421000,-229.828649
1383.668016,5551.544565,-6217.729913,383.047749
1383.668345,7105.977043,-8290.306550,1532.190996
1383.668675,8364.327145,-8956.491898,2528.115143
1383.669004,7402.059420,-6587.832884,1072.533697
1383.669334,6291.750507,-4737.318029,-689.485948
1383.669663,6439.791695,-5477.523971,612.876398
1383.669992,7624.121203,-7105.977043,1378.971896
1383.670322,7105.977043,-7179.997637,1149.143247
1383.670651,5255.462188,-6439.791695,-153.219100
1383.670980,4737.318029,-5699.585753,-919.314598
1383.671310,6217.729913,-7476.080014,1072.533697
1383.671639,8142.265362,-9400.615463,2757.943793
1383.671968,8512.368333,-7624.121203,2757.943793
1383.672298,7624.121203,-5255.462188,612.876398
1383.672627,6587.832884,-4589.276840,766.095498
1383.672956,6735.874072,-5033.400406,689.485948
1383.673286,7698.141797,-6883.915261,1378.971896
1383.673615,7105.977043,-6513.812290,766.095498
1383.673944,5625.565159,-6291.750507,76.609550
1383.674274,5847.626942,-6439.791695,-153.219100
1383.674603,7328.038826,-7402.059420,1608.800546
1383.674932,8216.285956,-8808.450710,2145.067394
1383.675262,7031.956449,-7254.018232,842.705048
1383.675591,5551.544565,-6069.688724,306.438199
1383.675921,6217.729913,-6217.729913,0.000000
1383.676250,7476.080014,-7772.162391,1455.581446
1383.676579,7402.059420,-7698.141797,1991.848295
1383.676909,6365.771101,-7031.956449,612.876398
1383.677238,5329.482782,-7105.977043,0.000000
1383.677567,5847.626942,-7624.121203,1302.362347
1383.677897,6957.935855,-8512.368333,1838.629195
1383.678226,7476.080014,-6809.894666,1685.410096
1383.678555,7105.977043,-4515.256246,-306.438199
1383.678885,6661.853478,-4293.194464,0.000000
1383.679214,8216.285956,-5403.503377,1838.629195
1383.679543,9400.615463,-7105.977043,2374.896044
1383.679873,7920.203579,-6069.688724,1608.800546
1383.680202,5551.544565,-4589.276840,689.485948
1383.680531,5847.626942,-5329.482782,0.000000
1383.680861,7105.977043,-7846.182985,1608.800546
1383.681190,8290.306550,-8364.327145,2987.772442
1383.681519,8216.285956,-5699.585753,2068.457845
1383.681849,7254.018232,-3701.029710,1072.533697
1383.682178,6809.894666,-5181.441594,842.705048
1383.682508,7550.100608,-7550.100608,2221.676944
1383.682837,7105.977043,-6883.915261,1532.190996
1383.683166,4811.338623,-6809.894666,0.000000
1383.683496,3923.091493,-7179.997637,-536.266849
1383.683825,5551.544565,-6809.894666,766.095498
1383.684154,7698.141797,-8586.388927,2068.457845
1383.684484,8882.471304,-7179.997637,1991.848295
1383.684813,7179.997637,-4959.379811,689.485948
1383.685142,6587.832884,-5107.421000,0.000000
1383.685472,7105.977043,-6661.853478,1225.752797
1383.685801,7994.224174,-5477.523971,919.314598
1383.686130,7105.977043,-6735.874072,1302.362347
1383.686460,6143.709319,-6661.853478,383.047749
1383.686789,6513.812290,-5477.523971,689.485948
1383.687118,8438.347739,-7772.162391,2757.943793
1383.687448,9400.615463,-7254.018232,2911.162892
1383.687777,7994.224174,-4737.318029,1532.190996
1383.688106,5773.606348,-5403.503377,153.219100
1383.688436,5699.585753,-6143.709319,0.000000
1383.688765,6957.935855,-7550.100608,1685.410096
1383.689095,6957.935855,-8216.285956,1685.410096
1383.689424,6291.750507,-6217.729913,536.266849
1383.689753,5329.482782,-6513.812290,0.000000
1383.690083,6217.729913,-7105.977043,383.047749
1383.690412,7920.203579,-8808.450710,2298.286494
1383.690741,8808.450710,-8068.244768,2068.457845
1383.691071,7179.997637,-5773.606348,153.219100
1383.691400,6143.709319,-5181.441594,-306.438199
1383.691729,6661.853478,-6587.832884,536.266849
1383.692059,7031.956449,-8216.285956,1302.362347
1383.692388,7105.977043,-7179.997637,766.095498
1383.692717,5921.647536,-6661.853478,766.095498
1383.693047,6513.812290,-6217.729913,306.438199
1383.693376,7550.100608,-7328.038826,1685.410096
1383.693705,8290.306550,-7402.059420,2145.067394
1383.694035,8216.285956,-6291.750507,1532.190996
1383.694364,6957.935855,-4737.318029,0.000000
1383.694693,7031.956449,-4589.276840,306.438199
1383.695023,7550.100608,-6291.750507,1838.629195
1383.695352,7994.224174,-7328.038826,1991.848295
1383.695681,6143.709319,-7105.977043,689.485948
1383.696011,4145.153275,-7772.162391,-306.438199
1383.696340,4811.338623,-8512.368333,536.266849
1383.696670,6957.935855,-8660.409521,2451.505594
1383.696999,7698.141797,-7550.100608,2528.115143
1383.697328,6809.894666,-5033.400406,459.657299
1383.697658,6217.729913,-4071.132681,0.000000
1383.697987,7994.224174,-5847.626942,1149.143247
1383.698316,9548.656652,-6143.709319,3064.381992
1383.698646,8512.368333,-4737.318029,2374.896044
1383.698975,6735.874072,-4441.235652,0.000000
1383.699304,6365.771101,-4737.318029,229.828649
1383.699634,7179.997637,-7698.141797,1762.019645
1383.699963,8142.265362,-7624.121203,2451.505594
1383.700292,7402.059420,-5847.626942,1685.410096
1383.700622,6217.729913,-4219.173869,-383.047749
1383.700951,6365.771101,-5107.421000,229.828649
1383.701280,7698.141797,-8142.265362,2834.553343
1383.701610,8364.327145,-7994.224174,2528.115143
1383.701939,6439.791695,-7254.018232,689.485948
1383.702268,4737.318029,-6291.750507,-153.219100
1383.702598,4737.318029,-7698.141797,306.438199
1383.702927,6735.874072,-9104.533087,2298.286494
1383.703257,7254.018232,-8586.388927,2068.457845
1383.703586,6365.771101,-6069.688724,459.657299
1383.703915,6365.771101,-4885.359217,76.609550
1383.704245,7624.121203,-4737.318029,689.485948
1383.704574,8216.285956,-6217.729913,2145.067394
1383.704903,7328.038826,-5921.647536,1608.800546
1383.705233,6143.709319,-5995.668130,0.000000
1383.705562,5921.647536,-6439.791695,0.000000
1383.705891,7402.059420,-7772.162391,2145.067394
1383.706221,9104.533087,-8068.244768,2834.553343
1383.706550,8290.306550,-6365.771101,1225.752797
1383.706879,6143.709319,-6143.709319,536.266849
1383.707209,5847.626942,-6661.853478,842.705048
1383.707538,7254.018232,-7105.977043,2298.286494
1383.707867,6883.915261,-6809.894666,1072.533697
1383.708197,5033.400406,-6587.832884,536.266849
1383.708526,4441.235652,-6735.874072,-153.219100
1383.708855,5921.647536,-7476.080014,1455.581446
1383.709185,7846.182985,-8808.450710,2451.505594
1383.709514,7846.182985,-6809.894666,1915.238745
1383.709844,7179.997637,-5033.400406,383.047749
1383.710173,6735.874072,-5403.503377,459.657299
1383.710502,7179.997637,-5625.565159,1532.190996
1383.710832,7920.203579,-6809.894666,1532.190996
1383.711161,7105.977043,-6513.812290,1072.533697
1383.711490,6439.791695,-5921.647536,76.609550
1383.711820,5699.585753,-7254.018232,689.485948
1383.712149,6735.874072,-7476.080014,1991.848295
1383.712478,7105.977043,-7994.224174,2374.896044
1383.712808,7254.018232,-5551.544565,995.924147
1383.713137,6217.729913,-4589.276840,612.876398
1383.713466,7179.997637,-5403.503377,1225.752797
1383.713796,8290.306550,-5107.421000,1915.238745
1383.714125,7624.121203,-7105.977043,1685.410096
1383.714454,6217.729913,-6069.688724,229.828649
1383.714784,5033.400406,-6883.915261,383.047749
1383.715113,6291.750507,-7402.059420,766.095498
1383.715442,7698.141797,-8068.244768,2221.676944
1383.715772,8142.265362,-7402.059420,2298.286494
1383.716101,7179.997637,-5181.441594,612.876398
1383.716430,6513.812290,-4367.215058,459.657299
1383.716760,7105.977043,-4737.318029,995.924147
1383.717089,7920.203579,-5403.503377,1378.971896
1383.717418,7328.038826,-5995.668130,919.314598
1383.717748,6217.729913,-5847.626942,383.047749
1383.718077,6217.729913,-7105.977043,1608.800546
1383.718406,8216.285956,-7920.203579,2221.676944
1383.718736,8808.450710,-7698.141797,2374.896044
1383.719065,7402.059420,-6809.894666,1302.362347
1383.719394,6291.750507,-5403.503377,-306.438199
1383.719723,6439.791695,-6069.688724,383.047749
1383.720053,7179.997637,-7846.182985,1378.971896
1383.720382,6957.935855,-7624.121203,1149.143247
1383.720711,5551.544565,-6883.915261,0.000000
1383.721041,4885.359217,-8068.244768,-306.438199
1383.721370,5699.585753,-8290.306550,766.095498
1383.721699,6809.894666,-7994.224174,1838.629195
1383.722029,7550.100608,-7698.141797,1378.971896
1383.722358,7105.977043,-5033.400406,76.609550
1383.722687,6735.874072,-5329.482782,0.000000
1383.723017,7624.121203,-6069.688724,689.485948
1383.723346,8290.306550,-6143.709319,1685.410096
1383.723675,7624.121203,-6957.935855,1225.752797
1383.724004,6587.832884,-6217.729913,76.609550
1383.724334,6735.874072,-6809.894666,383.047749
1383.724663,7846.182985,-7476.080014,1532.190996
1383.724992,8660.409521,-7698.141797,3064.381992
1383.725322,8142.265362,-5699.585753,1838.629195
1383.725651,7031.956449,-3701.029710,0.000000
1383.725980,6217.729913,-4737.318029,383.047749
1383.726310,7105.977043,-6143.709319,1378.971896
1383.726639,7328.038826,-7402.059420,1915.238745
1383.726968,6439.791695,-6439.791695,766.095498
1383.727298,4663.297435,-6069.688724,-459.657299
1383.727627,5255.462188,-7624.121203,919.314598
1383.727956,6439.791695,-8956.491898,1838.629195
1383.728285,7698.141797,-7772.162391,1455.581446
1383.728615,7624.121203,-5699.585753,306.438199
1383.728944,7105.977043,-4441.235652,306.438199
1383.729273,8660.409521,-5403.503377,1302.362347
1383.729603,9400.615463,-6217.729913,2528.115143
1383.729932,8364.327145,-5625.565159,1225.752797
1383.730261,6735.874072,-4515.256246,229.828649
1383.730591,6735.874072,-5403.503377,995.924147
1383.730920,8586.388927,-6439.791695,2451.505594
1383.731249,8808.450710,-7402.059420,2757.943793
1383.731579,7328.038826,-5847.626942,1685.410096
1383.731908,5551.544565,-4737.318029,-536.266849
1383.732237,5921.647536,-5329.482782,383.047749
1383.732566,7254.018232,-7328.038826,1838.629195
1383.732896,7105.977043,-8068.244768,1685.410096
1383.733225,5625.565159,-6883.915261,612.876398
1383.733554,4441.235652,-7105.977043,-459.657299
1383.733884,4663.297435,-8734.430116,0.000000
1383.734213,5403.503377,-10510.924376,1608.800546
1383.734542,6291.750507,-8660.409521,1378.971896
1383.734872,6957.935855,-6513.812290,-383.047749
1383.735201,6217.729913,-5625.565159,229.828649
1383.735530,8142.265362,-5403.503377,1378.971896
1383.735860,9178.553681,-6809.894666,1762.019645
1383.736189,8142.265362,-6143.709319,2068.457845
1383.736518,6809.894666,-5625.565159,229.828649
1383.736847,6439.791695,-6587.832884,0.000000
1383.737177,7846.182985,-6587.832884,1838.629195
1383.737506,8734.430116,-7846.182985,2374.896044
1383.737835,8438.347739,-5921.647536,1685.410096
1383.738165,7550.100608,-4441.235652,229.828649
1383.738494,6957.935855,-5255.462188,1072.533697
1383.738823,7105.977043,-6365.771101,1608.800546
1383.739153,6587.832884,-6809.894666,229.828649
1383.739482,4811.338623,-6069.688724,-229.828649
1383.739811,4441.235652,-6883.915261,0.000000
1383.740141,6069.688724,-7846.182985,995.924147
1383.740470,7698.141797,-8882.471304,2987.772442
1383.740799,8142.265362,-7254.018232,2911.162892
1383.741128,7328.038826,-5033.400406,536.266849
1383.741458,6365.771101,-4737.318029,229.828649
1383.741787,7031.956449,-6291.750507,1455.581446
1383.742116,8290.306550,-7402.059420,1991.848295
1383.742446,7550.100608,-5255.462188,995.924147
1383.742775,6069.688724,-5477.523971,229.828649
1383.743104,6365.771101,-6291.750507,689.485948
1383.743434,7402.059420,-7328.038826,1838.629195
1383.743763,7846.182985,-7550.100608,2298.286494
1383.744092,8216.285956,-5403.503377,1532.190996
1383.744422,7402.059420,-3034.844362,842.705048
1383.744751,7254.018232,-4885.359217,766.095498
1383.745080,7846.182985,-6587.832884,1991.848295
1383.745410,7624.121203,-6883.915261,1762.019645
1383.745739,5921.647536,-6291.750507,153.219100
1383.746068,4367.215058,-7105.977043,-383.047749
1383.746397,4811.338623,-7994.224174,612.876398
1383.746727,6735.874072,-9992.780217,2145.067394
1383.747056,7328.038826,-7624.121203,1838.629195
1383.747385,6143.709319,-5921.647536,229.828649
1383.747715,6217.729913,-5033.400406,76.609550
1383.748044,7772.162391,-5255.462188,1838.629195
1383.748373,9326.594869,-6143.709319,2145.067394
1383.748703,6809.894666,-6069.688724,536.266849
1383.749032,5477.523971,-6513.812290,0.000000
1383.749361,6513.812290,-6587.832884,459.657299
1383.749691,8216.285956,-7105.977043,1455.581446
1383.750020,8586.388927,-7624.121203,2681.334243
1383.750349,8734.430116,-6513.812290,1455.581446
1383.750678,7402.059420,-5255.462188,229.828649
1383.751008,6513.812290,-6069.688724,536.266849
1383.751337,7105.977043,-8068.244768,1302.362347
1383.751666,7179.997637,-6365.771101,842.705048
1383.751996,5255.462188,-7476.080014,-306.438199
1383.752325,4367.215058,-8512.368333,76.609550
1383.752654,5995.668130,-7994.224174,995.924147
1383.752984,7624.121203,-8438.347739,2221.676944
1383.753313,7994.224174,-6883.915261,2068.457845
1383.753642,7254.018232,-4441.235652,0.000000
1383.753972,7105.977043,-4737.318029,229.828649
1383.754301,7550.100608,-6291.750507,689.485948
1383.754630,7772.162391,-6883.915261,1455.581446
1383.754959,7328.038826,-6661.853478,536.266849
1383.755289,6661.853478,-6809.894666,229.828649
1383.755618,6513.812290,-7254.018232,536.266849
1383.755947,7402.059420,-8290.306550,1838.629195
1383.756277,7624.121203,-7105.977043,1838.629195
1383.756606,7254.018232,-5403.503377,306.438199
1383.756935,6291.750507,-3997.112087,0.000000
1383.757265,7105.977043,-4367.215058,612.876398
1383.757594,8142.265362,-6365.771101,1532.190996
1383.757923,7698.141797,-6735.874072,2145.067394
1383.758253,6143.709319,-6365.771101,306.438199
1383.758582,5699.585753,-6513.812290,153.219100
1383.758911,6809.894666,-6661.853478,1991.848295
1383.759240,7846.182985,-8438.347739,1915.238745
1383.759570,7772.162391,-6587.832884,1532.190996
1383.759899,6883.915261,-4885.359217,229.828649
1383.760228,7254.018232,-4885.359217,229.828649
1383.760558,9030.512492,-6513.812290,1838.629195
1383.760887,8142.265362,-6957.935855,1991.848295
1383.761216,6069.688724,-6661.853478,153.219100
1383.761546,4737.318029,-7179.997637,-153.219100
1383.761875,5699.585753,-6661.853478,229.828649
1383.762204,7031.956449,-7994.224174,1685.410096
1383.762534,8142.265362,-7476.080014,2681.334243
1383.762863,7846.182985,-4811.338623,1302.362347
1383.763192,7179.997637,-3997.112087,153.219100
1383.763521,7179.997637,-4811.338623,1455.581446
1383.763851,7920.203579,-7031.956449,1608.800546
1383.764180,7846.182985,-7550.100608,1608.800546
1383.764509,6143.709319,-7105.977043,995.924147
1383.764839,5255.462188,-7476.080014,153.219100
1383.765168,5625.565159,-8142.265362,1149.143247
1383.765497,7105.977043,-8882.471304,2068.457845
1383.765827,6883.915261,-7624.121203,1378.971896
1383.766156,6143.709319,-5773.606348,-383.047749
1383.766485,6069.688724,-4959.379811,-306.438199
1383.766815,7105.977043,-7105.977043,919.314598
1383.767144,7994.224174,-7624.121203,2374.896044
1383.767473,7179.997637,-6661.853478,919.314598
1383.767802,6217.729913,-7031.956449,76.609550
1383.768132,6957.935855,-6143.709319,766.095498
1383.768461,7772.162391,-8142.265362,2451.505594
1383.768790,8142.265362,-7994.224174,2451.505594
1383.769120,7031.956449,-5477.523971,1225.752797
1383.769449,6587.832884,-4145.153275,-383.047749
1383.769778,7105.977043,-5181.441594,919.314598
1383.770108,8290.306550,-7328.038826,3140.991542
1383.770437,7624.121203,-7402.059420,2145.067394
1383.770766,6143.709319,-6217.729913,689.485948
1383.771096,4145.153275,-7031.956449,0.000000
1383.771425,5033.400406,-7920.203579,536.266849
1383.771754,6883.915261,-8068.244768,1991.848295
1383.772083,7254.018232,-6735.874072,995.924147
1383.772413,6957.935855,-4811.338623,-153.219100
1383.772742,7179.997637,-5033.400406,766.095498
1383.773071,8290.306550,-6069.688724,1762.019645
1383.773401,8660.409521,-7031.956449,2068.457845
1383.773730,7624.121203,-6513.812290,1149.143247
1383.774059,6439.791695,-5921.647536,612.876398
1383.774389,6143.709319,-6143.709319,1072.533697
1383.774718,7550.100608,-7179.997637,2145.067394
1383.775047,8364.327145,-6735.874072,2068.457845
1383.775377,7846.182985,-5033.400406,1455.581446
1383.775706,7105.977043,-4219.173869,459.657299
1383.776035,7402.059420,-4441.235652,842.705048
1383.776364,8290.306550,-6439.791695,2528.115143
1383.776694,7698.141797,-6883.915261,2374.896044
1383.777023,5847.626942,-5551.544565,383.047749
1383.777352,4367.215058,-6365.771101,0.000000
1383.777682,4589.276840,-8068.244768,689.485948
1383.778011,6439.791695,-9030.512492,1838.629195
1383.778340,7846.182985,-6735.874072,1455.581446
1383.778670,7031.956449,-5847.626942,306.438199
1383.778999,6957.935855,-5699.585753,383.047749
1383.779328,7846.182985,-5847.626942,1072.533697
1383.779658,8290.306550,-7402.059420,1838.629195
1383.779987,7179.997637,-6365.771101,1149.143247
1383.780316,5921.647536,-6365.771101,153.219100
1383.780645,6069.688724,-7105.977043,383.047749
1383.780975,7105.977043,-8068.244768,1455.581446
1383.781304,7179.997637,-7920.203579,1608.800546
1383.781633,6809.894666,-6143.709319,229.828649
1383.781963,6143.709319,-5255.462188,-153.219100
1383.782292,7105.977043,-6291.750507,766.095498
1383.782621,8512.368333,-7402.059420,2451.505594
1383.782951,7031.956449,-7550.100608,2145.067394
1383.783280,5181.441594,-6883.915261,-153.219100
1383.783609,3997.112087,-7254.018232,-842.705048
1383.783939,5625.565159,-7698.141797,1149.143247
1383.784268,7994.224174,-8808.450710,1991.848295
1383.784597,7772.162391,-7179.997637,2451.505594
1383.784927,7105.977043,-5329.482782,689.485948
1383.785256,6735.874072,-5255.462188,229.828649
1383.785585,7402.059420,-5181.441594,842.705048
1383.785914,7105.977043,-7402.059420,1455.581446
1383.786244,6735.874072,-5329.482782,919.314598
1383.786573,6365.771101,-5699.585753,0.000000
1383.786902,7328.038826,-6735.874072,919.314598
1383.787232,8364.327145,-7846.182985,2374.896044
1383.787561,8808.450710,-7179.997637,2681.334243
1383.787890,7624.121203,-5477.523971,612.876398
1383.788220,6661.853478,-4737.318029,0.000000
1383.788549,7031.956449,-5847.626942,766.095498
1383.788878,7698.141797,-6809.894666,1915.238745
1383.789208,6587.832884,-7328.038826,2068.457845
1383.789537,5995.668130,-6365.771101,612.876398
1383.789866,4589.276840,-6143.709319,76.609550
1383.790195,4737.318029,-6883.915261,1149.143247
1383.790525,6439.791695,-8290.306550,2068.457845
1383.790854,7772.162391,-6809.894666,2068.457845
1383.791183,7846.182985,-3849.070898,536.266849
1383.791513,7328.038826,-4441.235652,919.314598
1383.791842,8068.244768,-5921.647536,2068.457845
1383.792171,8512.368333,-6069.688724,1838.629195
1383.792501,7179.997637,-6439.791695,536.266849
1383.792830,5699.585753,-6143.709319,229.828649
1383.793159,6365.771101,-7328.038826,306.438199
1383.793489,7476.080014,-8512.368333,1838.629195
1383.793818,7994.224174,-7624.121203,2604.724693
1383.794147,7105.977043,-5773.606348,459.657299
1383.794476,6809.894666,-5107.421000,0.000000
1383.794806,6587.832884,-6143.709319,612.876398
1383.795135,7402.059420,-6883.915261,1685.410096
1383.795464,7105.977043,-6883.915261,1455.581446
1383.795794,6143.709319,-5773.606348,229.828649
1383.796123,5107.421000,-7031.956449,0.000000
1383.796452,6143.709319,-7920.203579,1455.581446
1383.796782,7994.224174,-7698.141797,2221.676944
1383.797111,8290.306550,-6513.812290,1378.971896
1383.797440,7402.059420,-4071.132681,76.609550
1383.797770,6735.874072,-5477.523971,153.219100
1383.798099,7624.121203,-6513.812290,995.924147
1383.798428,7031.956449,-8586.388927,1762.019645
1383.798757,5921.647536,-6735.874072,229.828649
1383.799087,5033.400406,-7105.977043,0.000000
1383.799416,5847.626942,-8364.327145,766.095498
1383.799745,7328.038826,-8660.409521,2145.067394
1383.800075,7698.141797,-7328.038826,2374.896044
1383.800404,6883.915261,-6291.750507,995.924147
1383.800733,6439.791695,-4589.276840,-383.047749
1383.801063,6883.915261,-5181.441594,536.266849
1383.801392,7698.141797,-7105.977043,1378.971896
1383.801721,7920.203579,-6957.935855,1455.581446
1383.802051,7105.977043,-6661.853478,919.314598
1383.802380,6513.812290,-6143.709319,306.438199
1383.802709,7105.977043,-6365.771101,2221.676944
1383.803038,8216.285956,-6957.935855,2145.067394
1383.803368,7994.224174,-6291.750507,1608.800546
1383.803697,6883.915261,-4293.194464,229.828649
1383.804026,6513.812290,-4293.194464,0.000000
1383.804356,7402.059420,-5921.647536,1532.190996
1383.804685,7920.203579,-6365.771101,1762.019645
1383.805014,6735.874072,-6587.832884,919.314598
1383.805344,5995.668130,-6809.894666,76.609550
1383.805673,5847.626942,-8142.265362,306.438199
1383.806002,6513.812290,-8142.265362,1532.190996
1383.806332,7550.100608,-8068.244768,1762.019645
1383.806661,7105.977043,-5995.668130,919.314598
1383.806990,6661.853478,-5329.482782,-459.657299
1383.807319,7179.997637,-5921.647536,995.924147
1383.807649,8660.409521,-6661.853478,2451.505594
1383.807978,7846.182985,-7105.977043,1685.410096
1383.808307,5551.544565,-6217.729913,0.000000
1383.808637,4071.132681,-5921.647536,-842.705048
1383.808966,5181.441594,-8216.285956,612.876398
1383.809295,7105.977043,-8660.409521,2528.115143
1383.809625,8512.368333,-5921.647536,2374.896044
1383.809954,7920.203579,-4663.297435,0.000000
1383.810283,7179.997637,-4145.153275,995.924147
1383.810613,7920.203579,-6291.750507,995.924147
1383.810942,8068.244768,-7031.956449,1685.410096
1383.811271,6587.832884,-6365.771101,689.485948
1383.811600,5477.523971,-6735.874072,-229.828649
1383.811930,5699.585753,-6883.915261,612.876398
1383.812259,6809.894666,-8660.409521,2374.896044
1383.812588,7550.100608,-7772.162391,2451.505594
1383.812918,7105.977043,-5625.565159,1532.190996
1383.813247,6587.832884,-5181.441594,612.876398
1383.813576,7920.203579,-5107.421000,1072.533697
1383.813906,7846.182985,-6735.874072,2298.286494
1383.814235,7550.100608,-6809.894666,1455.581446
1383.814564,5699.585753,-6661.853478,0.000000
1383.814893,5255.462188,-7254.018232,-306.438199
1383.815222,6291.750507,-8734.430116,1378.971896
1383.815551,7402.059420,-8734.430116,2528.115143
1383.815880,7698.141797,-6661.853478,1838.629195
1383.816209,6661.853478,-5033.400406,0.000000
1383.816538,5995.668130,-5403.503377,383.047749
1383.816867,7179.997637,-6069.688724,1072.533697
1383.817197,7550.100608,-6957.935855,1532.190996
1383.817526,6217.729913,-5921.647536,612.876398
1383.817855,5551.544565,-6439.791695,306.438199
1383.818184,6217.729913,-7328.038826,995.924147
1383.818513,7994.224174,-8216.285956,2221.676944
1383.818842,9178.553681,-6735.874072,2681.334243
1383.819171,8290.306550,-4737.318029,995.924147
1383.819500,7105.977043,-3997.112087,-383.047749
1383.819829,6883.915261,-5329.482782,612.876398
1383.820158,8142.265362,-8068.244768,2145.067394
1383.820487,7698.141797,-7254.018232,2374.896044
1383.820816,5477.523971,-6661.853478,536.266849
1383.821145,4663.297435,-6735.874072,383.047749
1383.821474,5033.400406,-8216.285956,1149.143247
1383.821804,6143.709319,-9252.574275,1302.362347
1383.822133,6735.874072,-6439.791695,1225.752797
1383.822462,7179.997637,-5033.400406,-383.047749
1383.822791,7031.956449,-5107.421000,153.219100
1383.823120,8216.285956,-5255.462188,1608.800546
1383.823449,8512.368333,-7105.977043,1685.410096
1383.823778,7994.224174,-5625.565159,689.485948
1383.824107,6957.935855,-5773.606348,536.266849
1383.824436,6957.935855,-7550.100608,612.876398
1383.824765,7105.977043,-9400.615463,1455.581446
1383.825094,7624.121203,-7772.162391,1378.971896
1383.825423,6957.935855,-6513.812290,842.705048
1383.825752,5625.565159,-6365.771101,0.000000
1383.826081,6439.791695,-5921.647536,459.657299
1383.826410,7624.121203,-7476.080014,2374.896044
1383.826740,7105.977043,-7624.121203,2068.457845
1383.827069,5995.668130,-4811.338623,-459.657299
1383.827398,5033.400406,-7031.956449,153.219100
1383.827727,5699.585753,-7402.059420,1149.143247
1383.828056,7179.997637,-7624.121203,2298.286494
1383.828385,8068.244768,-6735.874072,1378.971896
1383.828714,7994.224174,-4219.173869,919.314598
1383.829043,7994.224174,-5255.462188,766.095498
1383.829372,7846.182985,-6069.688724,1149.143247
1383.829701,7476.080014,-6365.771101,2068.457845
1383.830030,6883.915261,-6957.935855,1302.362347
1383.830359,5403.503377,-5773.606348,229.828649
1383.830688,5699.585753,-7476.080014,612.876398
1383.831017,6957.935855,-9622.677246,2221.676944
1383.831347,7550.100608,-7624.121203,2068.457845
1383.831676,6513.812290,-7031.956449,842.705048
1383.832005,6069.688724,-5107.421000,153.219100
1383.832334,6809.894666,-5625.565159,612.876398
1383.832663,8142.265362,-6587.832884,2068.457845
1383.832992,7772.162391,-6513.812290,1302.362347
1383.833321,6587.832884,-6587.832884,459.657299
1383.833650,5995.668130,-6217.729913,0.000000
1383.833979,6365.771101,-7624.121203,995.924147
1383.834308,7328.038826,-7698.141797,2374.896044
1383.834637,7402.059420,-6735.874072,1915.238745
1383.834966,6809.894666,-5255.462188,306.438199
1383.835295,6143.709319,-5181.441594,383.047749
1383.835624,6735.874072,-7179.997637,1455.581446
1383.835953,8142.265362,-7105.977043,1915.238745
1383.836283,7105.977043,-5625.565159,1225.752797
1383.836612,5921.647536,-6069.688724,306.438199
1383.836941,6513.812290,-6661.853478,1302.362347
1383.837270,8068.244768,-8068.244768,2145.067394
1383.837599,8660.409521,-7105.977043,2604.724693
1383.837928,7550.100608,-5255.462188,1302.362347
1383.838257,6513.812290,-4885.359217,-306.438199
1383.838586,6809.894666,-5329.482782,689.485948
1383.838915,7254.018232,-7179.997637,1838.629195
1383.839244,7624.121203,-6513.812290,1225.752797
1383.839573,5921.647536,-6587.832884,0.000000
1383.839902,5255.462188,-7031.956449,0.000000
1383.840231,5773.606348,-7772.162391,1072.533697
1383.840560,7031.956449,-8734.430116,2298.286494
1383.840890,7920.203579,-6883.915261,1455.581446
1383.841219,7105.977043,-5033.400406,383.047749
1383.841548,6957.935855,-4293.194464,153.219100
1383.841877,7698.141797,-6291.750507,1455.581446
1383.842206,8512.368333,-6735.874072,2681.334243
1383.842535,7920.203579,-5625.565159,1225.752797
1383.842864,6661.853478,-6143.709319,0.000000
1383.843193,5921.647536,-6957.935855,1225.752797
1383.843522,6735.874072,-7846.182985,1991.848295
1383.843851,7328.038826,-7328.038826,1915.238745
1383.844180,6513.812290,-5625.565159,383.047749
1383.844509,6217.729913,-4959.379811,-153.219100
1383.844838,7105.977043,-5477.523971,536.266849
1383.845167,8438.347739,-7402.059420,2145.067394
1383.845496,8068.244768,-7402.059420,1915.238745
1383.845826,5773.606348,-7402.059420,536.266849
1383.846155,4811.338623,-7846.182985,229.828649
1383.846484,5255.462188,-8290.306550,995.924147
1383.846813,6513.812290,-8882.471304,1608.800546
1383.847142,6809.894666,-6587.832884,842.705048
1383.847471,6587.832884,-5255.462188,306.438199
1383.847800,7476.080014,-5255.462188,919.314598
1383.848129,9474.636058,-5255.462188,1991.848295
1383.848458,9326.594869,-6143.709319,2145.067394
1383.848787,7254.018232,-5033.400406,1455.581446
1383.849116,5403.503377,-5625.565159,-459.657299
1383.849445,5995.668130,-7179.997637,536.266849
1383.849774,7550.100608,-7994.224174,2834.553343
1383.850103,8364.327145,-7624.121203,2451.505594
1383.850433,7624.121203,-5033.400406,689.485948
1383.850762,6217.729913,-5477.523971,689.485948
1383.851091,6513.812290,-7328.038826,1532.190996
1383.851420,7254.018232,-7920.203579,2298.286494
1383.851749,6513.812290,-7476.080014,1685.410096
1383.852078,4145.153275,-6883.915261,-459.657299
1383.852407,3775.050304,-7179.997637,0.000000
1383.852736,5847.626942,-8142.265362,1608.800546
1383.853065,8290.306550,-8068.244768,2451.505594
1383.853394,9178.553681,-5107.421000,1838.629195
1383.853723,8364.327145,-3627.009116,0.000000
1383.854052,8364.327145,-3478.967927,383.047749
1383.854381,9104.533087,-4959.379811,1608.800546
1383.854710,8734.430116,-5847.626942,1915.238745
1383.855039,7624.121203,-5033.400406,1225.752797
1383.855369,6661.853478,-5773.606348,689.485948
1383.855698,6883.915261,-7105.977043,1149.143247
1383.856027,7698.141797,-7698.141797,2374.896044
1383.856356,7476.080014,-6809.894666,2298.286494
1383.856685,5773.606348,-5699.585753,689.485948
1383.857014,4737.318029,-5033.400406,-536.266849
1383.857343,4737.318029,-5995.668130,1378.971896
1383.857672,6143.709319,-8142.265362,1149.143247
1383.858001,6291.750507,-7624.121203,1225.752797
1383.858330,5107.421000,-7402.059420,0.000000
1383.858659,5625.565159,-8068.244768,536.266849
1383.858988,7105.977043,-7698.141797,1991.848295
1383.859317,8142.265362,-7994.224174,2298.286494
1383.859646,7846.182985,-6217.729913,1532.190996
1383.859976,7031.956449,-4737.318029,-306.438199
1383.860305,7105.977043,-5181.441594,459.657299
1383.860634,8364.327145,-5921.647536,1302.362347
1383.860963,8808.450710,-7031.956449,2298.286494
1383.861292,7772.162391,-7031.956449,1225.752797
1383.861621,6439.791695,-6365.771101,229.828649
1383.861950,5403.503377,-6809.894666,153.219100
1383.862279,6735.874072,-7772.162391,919.314598
1383.862608,6513.812290,-7402.059420,995.924147
1383.862937,6587.832884,-6587.832884,0.000000
1383.863266,6661.853478,-5403.503377,0.000000
1383.863595,7031.956449,-5921.647536,1302.362347
1383.863924,7920.203579,-8216.285956,1455.581446
1383.864253,7254.018232,-7920.203579,1685.410096
1383.864582,6143.709319,-6883.915261,153.219100
1383.864912,5921.647536,-6809.894666,0.000000
1383.865241,6661.853478,-6735.874072,1378.971896
1383.865570,7846.182985,-7254.018232,1991.848295
1383.865899,7698.141797,-5847.626942,1072.533697
1383.866228,6291.750507,-4811.338623,0.000000
1383.866557,6365.771101,-5625.565159,76.609550
1383.866886,7698.141797,-5921.647536,919.314598
1383.867215,7920.203579,-5847.626942,1685.410096
1383.867544,7179.997637,-5625.565159,842.705048
1383.867873,6365.771101,-5625.565159,536.266849
1383.868202,7031.956449,-5847.626942,766.095498
1383.868531,7994.224174,-7328.038826,1991.848295
1383.868860,8660.409521,-6513.812290,2221.676944
1383.869189,7920.203579,-5255.462188,842.705048
1383.869518,7179.997637,-4811.338623,689.485948
1383.869848,7402.059420,-5477.523971,1149.143247
1383.870177,8290.306550,-7550.100608,1915.238745
1383.870506,7254.018232,-7179.997637,1608.800546
1383.870835,4811.338623,-6809.894666,229.828649
1383.871164,4293.194464,-7772.162391,0.000000
1383.871493,5181.441594,-8956.491898,612.876398
1383.871822,6439.791695,-8586.388927,1608.800546
1383.872151,6957.935855,-6661.853478,689.485948
1383.872480,6809.894666,-5551.544565,0.000000
1383.872809,6957.935855,-5403.503377,459.657299
1383.873138,7624.121203,-5995.668130,1072.533697
1383.873467,8068.244768,-6809.894666,1685.410096
1383.873796,7179.997637,-6069.688724,1225.752797
1383.874125,6883.915261,-5773.606348,229.828649
1383.874455,7031.956449,-6513.812290,919.314598
1383.874784,8068.244768,-7698.141797,2145.067394
1383.875113,8512.368333,-7105.977043,2221.676944
1383.875442,7624.121203,-5625.565159,1225.752797
1383.875771,6439.791695,-5625.565159,536.266849
1383.876100,7254.018232,-6217.729913,1149.143247
1383.876429,7476.080014,-7328.038826,2451.505594
1383.876758,6661.853478,-6661.853478,1608.800546
1383.877087,4885.359217,-6439.791695,0.000000
1383.877416,4737.318029,-6513.812290,76.609550
1383.877745,5699.585753,-8364.327145,1455.581446
1383.878074,6809.894666,-8290.306550,2068.457845
1383.878403,7031.956449,-6513.812290,1608.800546
1383.878732,6513.812290,-4737.318029,306.438199
1383.879061,7105.977043,-4441.235652,229.828649
1383.879391,7994.224174,-6217.729913,995.924147
1383.879720,8512.368333,-6809.894666,2221.676944
1383.880049,7772.162391,-5551.544565,919.314598
1383.880378,6439.791695,-6069.688724,536.266849
1383.880707,5847.626942,-7328.038826,1455.581446
1383.881036,7328.038826,-8734.430116,2681.334243
1383.881365,7920.203579,-6809.894666,2068.457845
1383.881694,6513.812290,-5699.585753,842.705048
1383.882023,5847.626942,-4885.359217,76.609550
1383.882352,6661.853478,-5329.482782,612.876398
1383.882681,7476.080014,-7402.059420,2298.286494
1383.883010,6809.894666,-7550.100608,1838.629195
1383.883339,5403.503377,-6365.771101,0.000000
1383.883668,4959.379811,-7179.997637,0.000000
1383.883998,5773.606348,-9104.533087,1149.143247
1383.884327,7920.203579,-8364.327145,2298.286494
1383.884656,8956.491898,-5773.606348,2068.457845
1383.884985,7920.203579,-5255.462188,1072.533697
1383.885314,7179.997637,-4737.318029,689.485948
1383.885643,7846.182985,-5403.503377,1455.581446
1383.885972,8216.285956,-6069.688724,2068.457845
1383.886301,7031.956449,-5625.565159,1225.752797
1383.886630,5773.606348,-6587.832884,383.047749
1383.886959,6587.832884,-6809.894666,995.924147
1383.887288,7698.141797,-7105.977043,2374.896044
1383.887617,8438.347739,-6661.853478,1762.019645
1383.887946,7402.059420,-5921.647536,459.657299
1383.888275,5921.647536,-5107.421000,-229.828649
1383.888604,6439.791695,-7179.997637,459.657299
1383.888934,7698.141797,-7476.080014,1532.190996
1383.889263,7031.956449,-7698.141797,1455.581446
1383.889592,5847.626942,-7698.141797,229.828649
1383.889921,5107.421000,-7105.977043,-306.438199
1383.890250,5995.668130,-7476.080014,1378.971896
1383.890579,7328.038826,-8438.347739,1455.581446
1383.890908,7550.100608,-6439.791695,1302.362347
1383.891237,7105.977043,-4589.276840,306.438199
1383.891566,7105.977043,-4589.276840,229.828649
1383.891895,8216.285956,-5625.565159,1532.190996
1383.892224,8438.347739,-6809.894666,1302.362347
1383.892553,7105.977043,-5921.647536,383.047749
1383.892882,5995.668130,-5921.647536,0.000000
1383.893211,6587.832884,-7698.141797,306.438199
1383.893541,7772.162391,-8216.285956,2604.724693
1383.893870,7994.224174,-7772.162391,2374.896044
1383.894199,7772.162391,-5699.585753,842.705048
1383.894528,6883.915261,-4441.235652,306.438199
1383.894857,7105.977043,-5625.565159,995.924147
1383.895186,7846.182985,-7105.977043,2221.676944
1383.895515,7254.018232,-7179.997637,2298.286494
1383.895844,5625.565159,-6365.771101,76.609550
1383.896173,4515.256246,-7105.977043,-306.438199
1383.896502,5107.421000,-8364.327145,689.485948
1383.896831,7328.038826,-8734.430116,1455.581446
1383.897160,7994.224174,-6661.853478,1225.752797
1383.897489,7031.956449,-5181.441594,536.266849
1383.897818,7254.018232,-4885.359217,229.828649
1383.898147,8512.368333,-5625.565159,1762.019645
1383.898477,9030.512492,-6365.771101,1838.629195
1383.898806,7772.162391,-5181.441594,1225.752797
1383.899135,6513.812290,-5995.668130,0.000000
1383.899464,7105.977043,-6883.915261,995.924147
1383.899793,7920.203579,-7994.224174,2298.286494
1383.900122,7846.182985,-6957.935855,1991.848295
1383.900451,6735.874072,-4885.359217,76.609550
1383.900780,5995.668130,-5329.482782,76.609550
1383.901109,7402.059420,-5921.647536,2145.067394
1383.901438,8364.327145,-7698.141797,1685.410096
1383.901767,7031.956449,-6439.791695,1915.238745
1383.902096,5181.441594,-5921.647536,153.219100
1383.902425,4959.379811,-7624.121203,-383.047749
1383.902754,5181.441594,-7772.162391,1225.752797
1383.903084,6513.812290,-9252.574275,1915.238745
1383.903413,7105.977043,-7328.038826,689.485948
1383.903742,6587.832884,-4737.318029,0.000000
1383.904071,6587.832884,-5995.668130,689.485948
1383.904400,8364.327145,-6513.812290,536.266849
1383.904729,8290.306550,-6883.915261,919.314598
1383.905058,7254.018232,-6735.874072,1302.362347
1383.905387,6217.729913,-6735.874072,0.000000
1383.905716,6513.812290,-6439.791695,459.657299
1383.906045,7179.997637,-7920.203579,1608.800546
1383.906374,8216.285956,-7328.038826,2757.943793
1383.906703,8882.471304,-5477.523971,1532.190996
1383.907032,6957.935855,-4367.215058,612.876398
1383.907361,6883.915261,-4589.276840,1608.800546
1383.907690,7328.038826,-6809.894666,1532.190996
1383.908020,5921.647536,-7402.059420,995.924147
1383.908349,4219.173869,-7031.956449,0.000000
1383.908678,4441.235652,-8142.265362,0.000000
1383.909007,5773.606348,-9252.574275,1762.019645
1383.909336,7476.080014,-9400.615463,2681.334243
1383.909665,7994.224174,-7254.018232,1225.752797
1383.909994,6143.709319,-5329.482782,-459.657299
1383.910323,5181.441594,-5477.523971,-306.438199
1383.910652,6809.894666,-6809.894666,919.314598
1383.910981,8364.327145,-6217.729913,1915.238745
1383.911310,8512.368333,-6439.791695,1532.190996
1383.911639,7698.141797,-5921.647536,1608.800546
1383.911968,7254.018232,-5921.647536,1838.629195
1383.912297,7476.080014,-7105.977043,2451.505594
1383.912627,7254.018232,-5403.503377,1991.848295
1383.912956,7179.997637,-3849.070898,306.438199
1383.913285,7031.956449,-4367.215058,0.000000
1383.913614,7328.038826,-6217.729913,1149.143247
1383.913943,8290.306550,-7402.059420,2221.676944
1383.914272,7105.977043,-7105.977043,1302.362347
1383.914601,5329.482782,-7105.977043,0.000000
1383.914930,4071.132681,-7476.080014,0.000000
1383.915259,4441.235652,-9474.636058,919.314598
1383.915588,6143.709319,-8956.491898,1685.410096
1383.915917,6365.771101,-7179.997637,1225.752797
1383.916246,6957.935855,-5329.482782,1532.190996
1383.916575,7402.059420,-4145.153275,1072.533697
1383.916904,8290.306550,-6069.688724,1608.800546
1383.917233,8142.265362,-6069.688724,1991.848295
1383.917562,6735.874072,-6069.688724,1225.752797
1383.917891,6291.750507,-5847.626942,383.047749
1383.918221,7254.018232,-6217.729913,1149.143247
1383.918550,8438.347739,-7476.080014,2374.896044
1383.918879,9030.512492,-6143.709319,2068.457845
1383.919208,7476.080014,-5847.626942,536.266849
1383.919537,6735.874072,-5255.462188,0.000000
1383.919866,7328.038826,-6883.915261,995.924147
1383.920195,7105.977043,-8068.244768,1915.238745
1383.920524,6217.729913,-7254.018232,1225.752797
1383.920853,4441.235652,-6513.812290,-306.438199
1383.921182,4071.132681,-7698.141797,0.000000
1383.921511,5995.668130,-7476.080014,995.924147
1383.921840,8512.368333,-6365.771101,2374.896044
1383.922169,8956.491898,-5107.421000,1149.143247
1383.922498,7846.182985,-4663.297435,459.657299
1383.922827,7402.059420,-5773.606348,919.314598
1383.923156,7846.182985,-6661.853478,1455.581446
1383.923485,7624.121203,-7179.997637,536.266849
1383.923814,6957.935855,-6809.894666,1072.533697
1383.924143,5995.668130,-6883.915261,-459.657299
1383.924472,6809.894666,-8068.244768,689.485948
1383.924801,7254.018232,-8142.265362,2604.724693
1383.925130,7698.141797,-7031.956449,1991.848295
1383.925459,6587.832884,-4515.256246,383.047749
1383.925788,5181.441594,-4071.132681,-153.219100
1383.926118,6365.771101,-5995.668130,306.438199
1383.926447,8808.450710,-6513.812290,2068.457845
1383.926776,8956.491898,-6957.935855,2834.553343
1383.927105,7476.080014,-7031.956449,1302.362347
1383.927434,5995.668130,-6883.915261,459.657299
1383.927763,5403.503377,-8216.285956,995.924147
1383.928092,5625.565159,-8290.306550,766.095498
1383.928421,6143.709319,-6587.832884,919.314598
1383.928750,6957.935855,-5625.565159,306.438199
1383.929079,7772.162391,-5773.606348,1149.143247
1383.929408,8142.265362,-6587.832884,1991.848295
1383.929737,7624.121203,-6439.791695,1762.019645
1383.930066,6143.709319,-6439.791695,612.876398
1383.930395,5255.462188,-6661.853478,306.438199
1383.930724,6291.750507,-7105.977043,1225.752797
1383.931053,8142.265362,-7105.977043,2068.457845
1383.931382,8734.430116,-6217.729913,1991.848295
1383.931711,7550.100608,-5107.421000,842.705048
1383.932040,7476.080014,-4589.276840,612.876398
1383.932369,8142.265362,-5921.647536,1302.362347
1383.932698,8068.244768,-7031.956449,1455.581446
1383.933027,6883.915261,-6809.894666,1608.800546
1383.933356,5625.565159,-6661.853478,-383.047749
1383.933685,4885.359217,-7179.997637,153.219100
1383.934015,6069.688724,-8512.368333,1685.410096
1383.934344,7328.038826,-7698.141797,1532.190996
1383.934673,6365.771101,-5847.626942,689.485948
1383.935002,6291.750507,-5329.482782,76.609550
1383.935331,7328.038826,-5477.523971,536.266849
1383.935660,7994.224174,-6661.853478,1455.581446
1383.935989,8290.306550,-7105.977043,2604.724693
1383.936318,7402.059420,-6365.771101,766.095498
1383.936647,6069.688724,-6291.750507,0.000000
1383.936976,6217.729913,-7550.100608,995.924147
1383.937305,7179.997637,-8586.388927,1991.848295
1383.937634,7624.121203,-6809.894666,2068.457845
1383.937963,6365.771101,-5847.626942,612.876398
1383.938292,6661.853478,-4515.256246,536.266849
1383.938621,7698.141797,-5107.421000,1685.410096
1383.938950,8216.285956,-6957.935855,1915.238745
1383.939279,6735.874072,-6439.791695,1455.581446
1383.939608,5255.462188,-6291.750507,0.000000
1383.939937,5551.544565,-6809.894666,153.219100
1383.940266,7031.956449,-7550.100608,1991.848295
1383.940595,7994.224174,-7476.080014,2221.676944
1383.940924,7772.162391,-5477.523971,919.314598
1383.941253,7402.059420,-4589.276840,229.828649
1383.941582,7550.100608,-6069.688724,766.095498
1383.941912,8586.388927,-7994.224174,2528.115143
1383.942241,7105.977043,-6883.915261,1608.800546
1383.942570,5107.421000,-7254.018232,-383.047749
1383.942899,4145.153275,-7550.100608,-689.485948
1383.943228,5255.462188,-7846.182985,612.876398
1383.943557,7402.059420,-7550.100608,1838.629195
1383.943886,7698.141797,-6217.729913,2221.676944
1383.944215,7402.059420,-4959.379811,995.924147
1383.944544,7031.956449,-4515.256246,1149.143247
1383.944873,7698.141797,-4885.359217,1072.533697
1383.945202,7772.162391,-7179.997637,1685.410096
1383.945531,6439.791695,-6143.709319,612.876398
1383.945860,4737.318029,-6513.812290,0.000000
1383.946189,5403.503377,-7698.141797,306.438199
1383.946518,6513.812290,-8290.306550,2145.067394
1383.946847,7550.100608,-8216.285956,2221.676944
1383.947176,6735.874072,-6809.894666,612.876398
1383.947505,5699.585753,-4515.256246,0.000000
1383.947834,6809.894666,-5403.503377,153.219100
1383.948163,7994.224174,-6883.915261,1532.190996
1383.948492,8216.285956,-6513.812290,1838.629195
1383.948821,7550.100608,-6513.812290,919.314598
1383.949150,6809.894666,-6217.729913,459.657299
1383.949479,7105.977043,-6513.812290,689.485948
1383.949809,7846.182985,-7179.997637,2068.457845
1383.950138,7624.121203,-6143.709319,1225.752797
1383.950467,6587.832884,-4589.276840,0.000000
1383.950796,6661.853478,-5403.503377,536.266849
1383.951125,8882.471304,-5699.585753,2374.896044
1383.951454,8512.368333,-7105.977043,1915.238745
1383.951783,6587.832884,-6513.812290,1072.533697
1383.952112,4959.379811,-6291.750507,153.219100
1383.952441,5255.462188,-6957.935855,459.657299
1383.952770,6291.750507,-8660.409521,1378.971896
1383.953099,7105.977043,-8586.388927,2604.724693
1383.953428,7254.018232,-6217.729913,1149.143247
1383.953757,6587.832884,-5033.400406,0.000000
1383.954086,6661.853478,-5551.544565,995.924147
1383.954415,8142.265362,-6439.791695,1762.019645
1383.954744,8882.471304,-6513.812290,2068.457845
1383.955073,7179.997637,-6365.771101,1149.143247
1383.955402,6439.791695,-6291.750507,306.438199
1383.955731,7179.997637,-7105.977043,919.314598
1383.956060,6809.894666,-8290.306550,1302.362347
1383.956389,7179.997637,-7402.059420,842.705048
1383.956718,7105.977043,-5329.482782,229.828649
1383.957047,6957.935855,-5699.585753,919.314598
1383.957377,7254.018232,-7402.059420,1302.362347
1383.957706,7402.059420,-7846.182985,2068.457845
1383.958035,6883.915261,-6957.935855,766.095498
1383.958364,5181.441594,-6661.853478,-153.219100
1383.958693,4589.276840,-7105.977043,153.219100
1383.959022,5699.585753,-8290.306550,1378.971896
1383.959351,7624.121203,-7772.162391,2221.676944
1383.959680,8142.265362,-5329.482782,1455.581446
1383.960009,7179.997637,-4663.297435,1302.362347
1383.960338,7772.162391,-4811.338623,1225.752797
1383.960667,7698.141797,-6735.874072,1838.629195
1383.960996,7105.977043,-5551.544565,919.314598
1383.961325,6365.771101,-5329.482782,76.609550
1383.961654,5773.606348,-8068.244768,0.000000
1383.961983,6513.812290,-8956.491898,842.705048
1383.962312,7550.100608,-6587.832884,1302.362347
1383.962641,6809.894666,-8216.285956,1378.971896
1383.962970,6143.709319,-6883.915261,-536.266849
1383.963299,6587.832884,-5181.441594,842.705048
1383.963628,7772.162391,-6439.791695,1302.362347
1383.963957,9474.636058,-4959.379811,2451.505594
1383.964286,8660.409521,-5329.482782,1762.019645
1383.964615,7624.121203,-4219.173869,536.266849
1383.964944,5847.626942,-5921.647536,842.705048
1383.965274,7105.977043,-7698.141797,1915.238745
1383.965603,8142.265362,-6513.812290,1991.848295
1383.965932,7698.141797,-4737.318029,1225.752797
1383.966261,6661.853478,-5403.503377,536.266849
1383.966590,7254.018232,-5033.400406,0.000000
1383.966919,7698.141797,-6735.874072,2068.457845
1383.967248,7105.977043,-6735.874072,995.924147
1383.967577,5329.482782,-7624.121203,-383.047749
1383.967906,5033.400406,-6439.791695,0.000000
1383.968235,5699.585753,-9030.512492,383.047749
1383.968564,7179.997637,-8290.306550,2068.457845
1383.968893,7550.100608,-7476.080014,2451.505594
1383.969222,7846.182985,-6735.874072,1072.533697
1383.969551,6957.935855,-4663.297435,0.000000
1383.969880,7105.977043,-6957.935855,995.924147
1383.970209,8142.265362,-7476.080014,1991.848295
1383.970538,7624.121203,-7105.977043,1072.533697
1383.970867,6069.688724,-6217.729913,0.000000
1383.971196,4885.359217,-7031.956449,-306.438199
1383.971525,6143.709319,-8364.327145,1072.533697
1383.971854,7105.977043,-8290.306550,2451.505594
1383.972183,7254.018232,-6513.812290,1608.800546
1383.972512,7031.956449,-4959.379811,76.609550
1383.972841,7254.018232,-4811.338623,995.924147
1383.973171,7624.121203,-6217.729913,1991.848295
1383.973500,7328.038826,-5329.482782,1149.143247
1383.973829,6217.729913,-6291.750507,612.876398
1383.974158,5625.565159,-6291.750507,153.219100
1383.974487,6735.874072,-7624.121203,842.705048
1383.974816,8216.285956,-8068.244768,2757.943793
1383.975145,8734.430116,-6217.729913,2528.115143
1383.975474,7179.997637,-5551.544565,612.876398
1383.975803,6365.771101,-4737.318029,153.219100
1383.976132,7031.956449,-6661.853478,1302.362347
1383.976461,7624.121203,-7550.100608,1762.019645
1383.976790,6587.832884,-6735.874072,1225.752797
1383.977119,4441.235652,-7328.038826,-612.876398
1383.977448,4885.359217,-7179.997637,0.000000
1383.977777,6735.874072,-8142.265362,1608.800546
1383.978106,7698.141797,-7550.100608,2374.896044
1383.978435,8142.265362,-5403.503377,1915.238745
1383.978764,7254.018232,-4145.153275,76.609550
1383.979093,7624.121203,-4663.297435,995.924147
1383.979422,8142.265362,-6365.771101,2145.067394
1383.979751,8142.265362,-6587.832884,2298.286494
1383.980080,7328.038826,-6069.688724,229.828649
1383.980409,5625.565159,-6365.771101,383.047749
1383.980738,6809.894666,-7179.997637,1149.143247
1383.981068,8216.285956,-8364.327145,2374.896044
1383.981397,8290.306550,-6439.791695,1378.971896
1383.981726,6513.812290,-5625.565159,229.828649
1383.982055,6217.729913,-4737.318029,0.000000
1383.982384,7105.977043,-6587.832884,1149.143247
1383.982713,8142.265362,-7254.018232,919.314598
1383.983042,6291.750507,-7179.997637,689.485948
1383.983371,4959.379811,-6809.894666,-153.219100
1383.983700,5033.400406,-7402.059420,612.876398
1383.984029,6513.812290,-7920.203579,1685.410096
1383.984358,7698.141797,-6513.812290,2298.286494
1383.984687,7698.141797,-5033.400406,612.876398
1383.985016,7402.059420,-4737.318029,306.438199
1383.985345,7846.182985,-5477.523971,689.485948
1383.985674,8142.265362,-6735.874072,1532.190996
1383.986003,7550.100608,-6439.791695,1532.190996
1383.986332,6513.812290,-6069.688724,0.000000
1383.986661,5921.647536,-6439.791695,76.609550
1383.986990,6661.853478,-7476.080014,1455.581446
1383.987319,7772.162391,-8068.244768,2374.896044
1383.987648,7624.121203,-6365.771101,1072.533697
1383.987977,6143.709319,-5403.503377,76.609550
1383.988306,6217.729913,-6291.750507,306.438199
1383.988635,7624.121203,-6735.874072,1225.752797
1383.988965,7846.182985,-7624.121203,2068.457845
1383.989294,6291.750507,-7179.997637,919.314598
1383.989623,5477.523971,-6365.771101,0.000000
1383.989952,5255.462188,-7698.141797,383.047749
1383.990281,6735.874072,-8660.409521,1762.019645
1383.990610,7846.182985,-7624.121203,2374.896044
1383.990939,8068.244768,-5403.503377,1072.533697
1383.991268,7698.141797,-5033.400406,995.924147
1383.991597,7846.182985,-4589.276840,1225.752797
1383.991926,8660.409521,-5033.400406,612.876398
1383.992255,7402.059420,-6143.709319,1149.143247
1383.992584,5625.565159,-5181.441594,0.000000
1383.992913,4959.379811,-7105.977043,-536.266849
1383.993242,5847.626942,-7328.038826,919.314598
1383.993571,7328.038826,-7994.224174,2068.457845
1383.993900,7254.018232,-7105.977043,1225.752797
1383.994229,6735.874072,-4737.318029,306.438199
1383.994558,7550.100608,-5033.400406,689.485948
1383.994887,9400.615463,-6587.832884,2681.334243
1383.995216,9770.718434,-6439.791695,2757.943793
1383.995545,7994.224174,-5625.565159,1225.752797
1383.995874,5403.503377,-5329.482782,-229.828649
1383.996203,4737.318029,-6809.894666,76.609550
1383.996532,6069.688724,-7920.203579,1838.629195
1383.996862,7254.018232,-8438.347739,2834.553343
1383.997191,6661.853478,-5625.565159,1455.581446
1383.997520,5255.462188,-5847.626942,0.000000
1383.997849,4811.338623,-5995.668130,-306.438199
1383.998178,5847.626942,-7772.162391,919.314598
1383.998507,7031.956449,-7328.038826,1149.143247
1383.998836,6661.853478,-6217.729913,995.924147
1383.999165,7254.018232,-6809.894666,612.876398
1383.999494,8882.471304,-7105.977043,2145.067394
1383.999823,8734.430116,-7698.141797,2757.943793
1384.000152,8734.430116,-6069.688724,1455.581446
1384.000481,7476.080014,-4737.318029,383.047749
1384.000810,7772.162391,-5033.400406,995.924147
1384.001139,8438.347739,-6291.750507,1532.190996
1384.001468,8438.347739,-6883.915261,2145.067394
1384.001797,6661.853478,-7105.977043,842.705048
1384.002126,4589.276840,-7105.977043,-383.047749
1384.002455,3478.967927,-7105.977043,153.219100
1384.002784,4737.318029,-9178.553681,919.314598
1384.003113,6291.750507,-7846.182985,1455.581446
1384.003442,6883.915261,-5773.606348,536.266849
1384.003771,7031.956449,-5107.421000,0.000000
1384.004100,7846.182985,-4737.318029,1762.019645
1384.004429,9178.553681,-6661.853478,2451.505594
1384.004759,9178.553681,-5625.565159,1838.629195
1384.005088,7550.100608,-5181.441594,919.314598
1384.005417,6291.750507,-6513.812290,153.219100
1384.005746,7031.956449,-7994.224174,919.314598
1384.006075,7402.059420,-8586.388927,2451.505594
1384.006404,7105.977043,-7105.977043,1072.533697
1384.006733,5847.626942,-5033.400406,-383.047749
1384.007062,5551.544565,-6069.688724,-459.657299
1384.007391,7031.956449,-7105.977043,1225.752797
1384.007720,7402.059420,-7920.203579,1608.800546
1384.008049,6143.709319,-7105.977043,766.095498
1384.008378,4367.215058,-6069.688724,-306.438199
1384.008707,4959.379811,-7698.141797,229.828649
1384.009036,7105.977043,-8512.368333,2068.457845
1384.009365,8586.388927,-7698.141797,2834.553343
1384.009694,8882.471304,-5255.462188,1685.410096
1384.010023,8068.244768,-3701.029710,995.924147
1384.010352,8142.265362,-4293.194464,1302.362347
1384.010681,8438.347739,-5995.668130,1991.848295
1384.011010,7105.977043,-5699.585753,1532.190996
1384.011339,6217.729913,-6069.688724,153.219100
1384.011668,5847.626942,-6661.853478,536.266849
1384.011997,6513.812290,-7846.182985,1378.971896
1384.012327,7624.121203,-8364.327145,2451.505594
1384.012656,7179.997637,-5995.668130,1072.533697
1384.012985,6661.853478,-5403.503377,-153.219100
1384.013314,6365.771101,-5625.565159,76.609550
1384.013643,7698.141797,-6587.832884,1225.752797
1384.013972,9030.512492,-7994.224174,2221.676944
1384.014301,7920.203579,-6735.874072,1838.629195
1384.014630,5773.606348,-6439.791695,229.828649
1384.014959,5551.544565,-7105.977043,612.876398
1384.015288,6661.853478,-8216.285956,1455.581446
1384.015617,7179.997637,-7624.121203,1685.410096
1384.015946,6735.874072,-5329.482782,995.924147
1384.016275,6365.771101,-4885.359217,-306.438199
1384.016604,7105.977043,-5403.503377,229.828649
1384.016933,7994.224174,-6513.812290,1915.238745
1384.017262,7624.121203,-7179.997637,1608.800546
1384.017591,6661.853478,-4885.359217,0.000000
1384.017920,5477.523971,-6365.771101,0.000000
1384.018249,6513.812290,-7624.121203,919.314598
1384.018578,7402.059420,-8216.285956,2221.676944
1384.018907,7550.100608,-7105.977043,2451.505594
1384.019236,6957.935855,-5033.400406,842.705048
1384.019565,6809.894666,-4959.379811,306.438199
1384.019894,7105.977043,-6513.812290,1378.971896
1384.020223,7328.038826,-8290.306550,1838.629195
1384.020552,6069.688724,-7031.956449,612.876398
1384.020881,5255.462188,-7179.997637,766.095498
1384.021210,5551.544565,-8290.306550,229.828649
1384.021539,6661.853478,-8586.388927,1685.410096
1384.021868,6957.935855,-7105.977043,1532.190996
1384.022197,7402.059420,-5995.668130,229.828649
1384.022526,6883.915261,-4663.297435,0.000000
1384.022855,7698.141797,-5477.523971,1149.143247
1384.023185,8882.471304,-6661.853478,2298.286494
1384.023514,8882.471304,-5625.565159,1455.581446
1384.023843,6883.915261,-5107.421000,-76.609550
1384.024172,6143.709319,-6365.771101,229.828649
1384.024501,7179.997637,-6957.935855,1915.238745
1384.024830,8734.430116,-7105.977043,3064.381992
1384.025159,8142.265362,-6365.771101,3064.381992
1384.025488,7031.956449,-4145.153275,766.095498
1384.025817,5995.668130,-4959.379811,76.609550
1384.026146,6587.832884,-7179.997637,1532.190996
1384.026475,7179.997637,-7920.203579,2374.896044
1384.026804,5773.606348,-7179.997637,766.095498
1384.027133,4441.235652,-6291.750507,-76.609550
1384.027462,4885.359217,-8512.368333,306.438199
1384.027791,6809.894666,-9178.553681,1302.362347
1384.028120,7476.080014,-7179.997637,1685.410096
1384.028449,7105.977043,-6365.771101,536.266849
1384.028778,7105.977043,-4293.194464,0.000000
1384.029107,7772.162391,-5625.565159,995.924147
1384.029436,8586.388927,-7105.977043,1915.238745
1384.029765,8290.306550,-5847.626942,1685.410096
1384.030094,7402.059420,-5847.626942,612.876398
1384.030423,6513.812290,-5847.626942,536.266849
1384.030752,6661.853478,-7105.977043,1455.581446
1384.031081,8068.244768,-6809.894666,2374.896044
1384.031410,8142.265362,-6069.688724,1762.019645
1384.031739,7105.977043,-5699.585753,842.705048
1384.032068,6365.771101,-5477.523971,153.219100
1384.032397,7105.977043,-7328.038826,1455.581446
1384.032726,7105.977043,-8142.265362,2221.676944
1384.033055,5625.565159,-7105.977043,689.485948
1384.033384,4737.318029,-7179.997637,-306.438199
1384.033713,5255.462188,-7550.100608,536.266849
1384.034042,6735.874072,-9252.574275,1685.410096
1384.034371,7624.121203,-7698.141797,1225.752797
1384.034700,6365.771101,-6661.853478,76.609550
1384.035029,5625.565159,-6439.791695,-383.047749
1384.035358,6587.832884,-7179.997637,766.095498
1384.035687,8142.265362,-8364.327145,1915.238745
1384.036016,7328.038826,-8660.409521,1378.971896
1384.036345,5329.482782,-7624.121203,76.609550
1384.036674,3923.091493,-8808.450710,-383.047749
1384.037003,4885.359217,-9770.718434,766.095498
1384.037332,5847.626942,-9474.636058,2145.067394
1384.037661,5847.626942,-8512.368333,536.266849
1384.037990,5329.482782,-6439.791695,153.219100
1384.038319,5921.647536,-6365.771101,766.095498
1384.038648,7920.203579,-6809.894666,2145.067394
1384.038977,7402.059420,-6439.791695,2298.286494
1384.039306,5847.626942,-7031.956449,1149.143247
1384.039635,3997.112087,-7920.203579,766.095498
1384.039964,4293.194464,-6587.832884,1072.533697
1384.040293,5847.626942,-6661.853478,2911.162892
1384.040622,8142.265362,-6291.750507,3830.477490
1384.040951,7846.182985,-5181.441594,2834.553343
1384.041280,6587.832884,-4441.235652,1302.362347
1384.041609,5847.626942,-4219.173869,459.657299
1384.041939,6957.935855,-5625.565159,842.705048
1384.042268,6439.791695,-8512.368333,1302.362347
1384.042597,4589.276840,-9844.739029,842.705048
1384.042926,3256.906145,-10510.924376,-229.828649
1384.043255,3627.009116,-10214.842000,-306.438199
1384.043584,3701.029710,-12287.418637,689.485948
1384.043913,4145.153275,-11029.068536,842.705048
1384.044242,3849.070898,-11621.233289,76.609550
1384.044571,3404.947333,-10288.862594,153.219100
1384.044900,3701.029710,-9252.574275,459.657299
1384.045229,4367.215058,-8364.327145,1225.752797
1384.045558,5773.606348,-7105.977043,2221.676944
1384.045887,6291.750507,-7328.038826,2757.943793
1384.046216,5847.626942,-6661.853478,2757.943793
1384.046545,5699.585753,-6291.750507,2451.505594
1384.046874,5847.626942,-5995.668130,1762.019645
1384.047203,5255.462188,-6587.832884,919.314598
1384.047532,3701.029710,-8734.430116,1455.581446
1384.047861,3997.112087,-9992.780217,1225.752797
1384.048190,3997.112087,-9622.677246,995.924147
1384.048519,4441.235652,-9474.636058,459.657299
1384.048848,4959.379811,-9178.553681,0.000000
1384.049177,5255.462188,-9770.718434,536.266849
1384.049506,5107.421000,-10288.862594,612.876398
1384.049835,5255.462188,-9844.739029,1149.143247
1384.050164,5107.421000,-8882.471304,766.095498
1384.050493,4441.235652,-9178.553681,-229.828649
1384.050822,4219.173869,-10658.965565,459.657299
1384.051151,4071.132681,-11473.192101,1225.752797
1384.051480,4219.173869,-10658.965565,1532.190996
1384.051809,4663.297435,-8586.388927,1455.581446
1384.052138,5107.421000,-5921.647536,1149.143247
1384.052467,6439.791695,-5551.544565,1378.971896
1384.052796,6957.935855,-4885.359217,1915.238745
1384.053125,6957.935855,-5773.606348,1532.190996
1384.053454,7105.977043,-5773.606348,1685.410096
1384.053783,7254.018232,-5255.462188,1455.581446
1384.054112,6439.791695,-7846.182985,1991.848295
1384.054441,4737.318029,-10584.944971,1455.581446
1384.054770,3330.926739,-10732.986159,536.266849
1384.055099,2664.741391,-11473.192101,-383.047749
1384.055428,2960.823768,-11399.171507,766.095498
1384.055757,4219.173869,-10955.047942,229.828649
1384.056086,4737.318029,-11473.192101,919.314598
1384.056415,4663.297435,-10658.965565,1455.581446
1384.056744,4219.173869,-9104.533087,1455.581446
1384.057073,4515.256246,-7105.977043,1072.533697
1384.057402,4737.318029,-5699.585753,1455.581446
1384.057731,5995.668130,-5033.400406,766.095498
1384.058060,6587.832884,-5699.585753,689.485948
1384.058389,6735.874072,-6069.688724,766.095498
1384.058718,6513.812290,-8364.327145,1762.019645
1384.059047,6513.812290,-8364.327145,1302.362347
1384.059376,4811.338623,-10066.800811,1072.533697
1384.059705,3552.988522,-11991.336260,612.876398
1384.060034,2146.597232,-12509.480420,229.828649
1384.060363,2590.720797,-11843.295072,-383.047749
1384.060692,3330.926739,-11547.212695,76.609550
1384.061022,5033.400406,-9030.512492,1302.362347
1384.061351,6365.771101,-7550.100608,1915.238745
1384.061680,5921.647536,-6661.853478,2068.457845
1384.062009,5477.523971,-6365.771101,2451.505594
1384.062338,5773.606348,-5847.626942,2221.676944
1384.062667,5921.647536,-5403.503377,1378.971896
1384.062996,5403.503377,-5403.503377,1225.752797
1384.063325,5329.482782,-6661.853478,689.485948
1384.063654,5255.462188,-8660.409521,383.047749
1384.063983,4737.318029,-9918.759623,459.657299
1384.064312,4737.318029,-11621.233289,0.000000
1384.064641,4885.359217,-12583.501014,842.705048
1384.064970,4441.235652,-13471.748144,919.314598
1384.065299,3256.906145,-12731.542202,153.219100
1384.065628,2812.782580,-11769.274478,689.485948
1384.065957,3330.926739,-11325.150913,1302.362347
1384.066286,3923.091493,-9030.512492,1685.410096
1384.066615,4737.318029,-6735.874072,2681.334243
1384.066944,6217.729913,-4589.276840,2068.457845
1384.067273,7698.141797,-3849.070898,2604.724693
1384.067602,8364.327145,-3478.967927,3140.991542
1384.067931,6883.915261,-3849.070898,1072.533697
1384.068260,5921.647536,-4737.318029,0.000000
1384.068589,4515.256246,-7772.162391,0.000000
1384.068918,3997.112087,-12065.356855,919.314598
1384.069247,3330.926739,-14211.954086,842.705048
1384.069576,3404.947333,-14211.954086,689.485948
1384.069905,4515.256246,-13989.892304,1302.362347
1384.070234,5033.400406,-11177.109724,2221.676944
1384.070563,5329.482782,-9992.780217,2145.067394
1384.070892,4219.173869,-7476.080014,1762.019645
1384.071221,3404.947333,-5921.647536,1302.362347
1384.071550,3849.070898,-5699.585753,1149.143247
1384.071879,4737.318029,-5033.400406,1225.752797
1384.072208,5477.523971,-5329.482782,995.924147
1384.072537,5995.668130,-5699.585753,153.219100
1384.072866,5995.668130,-5625.565159,536.266849
1384.073195,6143.709319,-8142.265362,153.219100
1384.073524,6513.812290,-10362.883188,1302.362347
1384.073853,5329.482782,-12139.377449,766.095498
1384.074182,5107.421000,-13101.645173,383.047749
1384.074511,4885.359217,-12287.418637,1225.752797
1384.074840,5255.462188,-10807.006753,2681.334243
1384.075169,6217.729913,-8660.409521,3064.381992
1384.075498,5773.606348,-6291.750507,3217.601092
1384.075827,5551.544565,-5255.462188,3217.601092
1384.076156,5255.462188,-5033.400406,2451.505594
1384.076485,5773.606348,-4959.379811,3140.991542
1384.076814,5255.462188,-5107.421000,1915.238745
1384.077143,5181.441594,-5551.544565,1149.143247
1384.077472,4959.379811,-6957.935855,1455.581446
1384.077801,5255.462188,-9474.636058,1455.581446
1384.078130,5329.482782,-10955.047942,2221.676944
1384.078459,4515.256246,-11843.295072,1685.410096
1384.078788,4219.173869,-12731.542202,1302.362347
1384.079117,4367.215058,-11473.192101,1685.410096
1384.079446,5033.400406,-10140.821405,2987.772442
1384.079776,6661.853478,-8290.306550,2911.162892
1384.080105,6957.935855,-6143.709319,4213.525239
1384.080434,7105.977043,-5107.421000,4749.792088
1384.080763,6735.874072,-4219.173869,3830.477490
1384.081092,6439.791695,-3701.029710,3294.210641
1384.081421,5847.626942,-4737.318029,1685.410096
1384.081750,5847.626942,-5847.626942,1991.848295
1384.082079,6809.894666,-6883.915261,2681.334243
1384.082408,7402.059420,-7772.162391,3294.210641
1384.082737,7105.977043,-9104.533087,4519.963438
1384.083066,6291.750507,-9770.718434,4136.915689
1384.083395,5551.544565,-9696.697840,3140.991542
1384.083724,5181.441594,-8808.450710,3064.381992
1384.084053,5921.647536,-7402.059420,4290.134789
1384.084382,6809.894666,-6069.688724,4213.525239
1384.084711,7772.162391,-4737.318029,4903.011187
1384.085040,7179.997637,-4589.276840,4903.011187
1384.085369,6809.894666,-4737.318029,4290.134789
1384.085698,6809.894666,-4293.194464,3907.087040
1384.086027,6661.853478,-5255.462188,3830.477490
1384.086356,7179.997637,-5107.421000,3753.867940
1384.086685,8290.306550,-5551.544565,4673.182538
1384.087014,8512.368333,-7254.018232,4749.792088
1384.087343,7476.080014,-8512.368333,4519.963438
1384.087672,6365.771101,-9696.697840,3753.867940
1384.088001,5033.400406,-10436.903782,3447.429741
1384.088330,4515.256246,-10807.006753,3294.210641
1384.088659,5107.421000,-8734.430116,3907.087040
1384.088988,5181.441594,-8068.244768,4826.401637
1384.089317,5625.565159,-6069.688724,5209.449386
1384.089646,6809.894666,-4293.194464,5439.278036
1384.089975,7550.100608,-4367.215058,5822.325785
1384.090304,7624.121203,-3478.967927,5132.839837
1384.090633,7772.162391,-4515.256246,4979.620737
1384.090962,8734.430116,-4589.276840,4903.011187
1384.091291,9474.636058,-3997.112087,5439.278036
1384.091620,10066.800811,-5033.400406,5669.106685
1384.091949,9696.697840,-5403.503377,5209.449386
1384.092278,8290.306550,-6069.688724,5132.839837
1384.092607,7031.956449,-7179.997637,3907.087040
1384.092936,6365.771101,-7994.224174,3753.867940
1384.093265,4811.338623,-8586.388927,3830.477490
1384.093594,4071.132681,-9474.636058,3294.210641
1384.093923,2960.823768,-9474.636058,3064.381992
1384.094252,2442.679609,-9918.759623,3140.991542
1384.094581,2738.761985,-10066.800811,3294.210641
1384.094910,4145.153275,-8660.409521,3294.210641
1384.095239,5773.606348,-7031.956449,4290.134789
1384.095568,8142.265362,-4885.359217,4596.572988
1384.095897,9622.677246,-3256.906145,5515.887586
1384.096226,10732.986159,-3108.864956,6588.421283
1384.096555,11251.130318,-2368.659014,5439.278036
1384.096884,10066.800811,-3775.050304,5362.668486
1384.097213,8512.368333,-4885.359217,3830.477490
1384.097542,6661.853478,-6883.915261,3447.429741
1384.097871,5477.523971,-8216.285956,2757.943793
1384.098200,4515.256246,-8882.471304,2145.067394
1384.098529,4737.318029,-9030.512492,2681.334243
1384.098859,4737.318029,-9178.553681,3294.210641
1384.099188,5181.441594,-8586.388927,4060.306139
1384.099517,5773.606348,-7550.100608,4673.182538
1384.099846,7105.977043,-5477.523971,4060.306139
1384.100175,7994.224174,-4515.256246,4673.182538
1384.100504,9696.697840,-3627.009116,5056.230287
1384.100833,10066.800811,-4367.215058,4596.572988
1384.101162,9178.553681,-4737.318029,3830.477490
1384.101491,7328.038826,-5625.565159,2757.943793
1384.101820,6069.688724,-7550.100608,2298.286494
1384.102149,5773.606348,-8068.244768,2374.896044
1384.102478,4959.379811,-8512.368333,2528.115143
1384.102807,5995.668130,-8142.265362,2604.724693
1384.103136,6883.915261,-7254.018232,4213.525239
1384.103465,7476.080014,-7698.141797,3983.696590
1384.103794,7624.121203,-7105.977043,4443.353888
1384.104123,7402.059420,-6143.709319,4213.525239
1384.104452,7550.100608,-5403.503377,3600.648841
1384.104781,7624.121203,-3775.050304,3830.477490
1384.105110,8216.285956,-3627.009116,4213.525239
1384.105439,9696.697840,-2960.823768,4979.620737
1384.105768,9548.656652,-3404.947333,4826.401637
1384.106097,8808.450710,-4219.173869,4673.182538
1384.106426,7624.121203,-6513.812290,3677.258390
1384.106755,6513.812290,-9326.594869,3753.867940
1384.107084,4737.318029,-10436.903782,2834.553343
1384.107413,2812.782580,-11177.109724,1915.238745
1384.107742,2368.659014,-10584.944971,2145.067394
1384.108071,2960.823768,-9770.718434,2374.896044
1384.108400,4663.297435,-8364.327145,2834.553343
1384.108729,6439.791695,-6069.688724,3830.477490
1384.109058,7994.224174,-5773.606348,4673.182538
1384.109387,8808.450710,-4071.132681,4826.401637
1384.109716,9400.615463,-3330.926739,5745.716235
1384.110045,10214.842000,-2738.761985,5056.230287
1384.110374,10881.027347,-1776.494261,5209.449386
1384.110703,9770.718434,-3849.070898,4596.572988
1384.111032,7994.224174,-5403.503377,4136.915689
1384.111361,6587.832884,-6439.791695,3370.820191
1384.111690,5921.647536,-8956.491898,2834.553343
1384.112019,4737.318029,-10288.862594,3370.820191
1384.112348,4589.276840,-11991.336260,4290.134789
1384.112677,4663.297435,-10288.862594,3294.210641
1384.113006,3849.070898,-8512.368333,3983.696590
1384.113335,4145.153275,-6883.915261,3447.429741
1384.113664,5847.626942,-5033.400406,3753.867940
1384.113993,7994.224174,-4071.132681,5056.230287
1384.114322,9178.553681,-3034.844362,5515.887586
1384.114651,9400.615463,-3034.844362,4903.011187
1384.114980,9178.553681,-2664.741391,4979.620737
1384.115309,8068.244768,-4737.318029,4826.401637
1384.115638,7254.018232,-6587.832884,4903.011187
1384.115967,7254.018232,-7402.059420,4596.572988
1384.116296,7105.977043,-8882.471304,3600.648841
1384.116625,7402.059420,-7994.224174,3677.258390
1384.116954,6513.812290,-7994.224174,2757.943793
1384.117284,5847.626942,-8438.347739,2145.067394
1384.117613,5625.565159,-6809.894666,2221.676944
1384.117942,6365.771101,-6661.853478,3217.601092
1384.118271,7179.997637,-6143.709319,3983.696590
1384.118600,7402.059420,-5921.647536,4213.525239
1384.118929,6365.771101,-5699.585753,3140.991542
1384.119258,5625.565159,-5477.523971,2681.334243
1384.119587,6143.709319,-5699.585753,2834.553343
1384.119916,7698.141797,-5699.585753,3753.867940
1384.120245,8660.409521,-5255.462188,3907.087040
1384.120574,8438.347739,-4811.338623,2604.724693
1384.120903,7624.121203,-5921.647536,2604.724693
1384.121232,7105.977043,-7105.977043,2757.943793
1384.121561,7328.038826,-8216.285956,2911.162892
1384.121890,7031.956449,-7476.080014,2681.334243
1384.122219,6365.771101,-7920.203579,1915.238745
1384.122548,4959.379811,-8512.368333,1302.362347
1384.122877,5329.482782,-8364.327145,1685.410096
1384.123206,6217.729913,-8808.450710,2068.457845
1384.123535,6661.853478,-4959.379811,1915.238745
1384.123864,6291.750507,-3997.112087,766.095498
1384.124193,6291.750507,-3552.988522,0.000000
1384.124522,6809.894666,-5033.400406,689.485948
1384.124851,8808.450710,-8364.327145,3677.258390
1384.125180,9992.780217,-5921.647536,3677.258390
1384.125509,9548.656652,-6143.709319,3294.210641
1384.125838,7994.224174,-6957.935855,2451.505594
1384.126167,6143.709319,-9030.512492,1532.190996
1384.126496,5847.626942,-8808.450710,1072.533697
1384.126825,5551.544565,-6143.709319,383.047749
1384.127154,6143.709319,-4663.297435,-383.047749
1384.127484,6957.935855,-5107.421000,0.000000
1384.127813,7328.038826,-6439.791695,1302.362347
1384.128142,7031.956449,-7476.080014,842.705048
1384.128471,6883.915261,-6513.812290,919.314598
1384.128800,6809.894666,-6809.894666,536.266849
1384.129129,7179.997637,-7328.038826,612.876398
1384.129458,7105.977043,-7476.080014,536.266849
1384.129787,7031.956449,-7772.162391,612.876398
1384.130116,7031.956449,-5773.606348,-306.438199
1384.130445,7328.038826,-5699.585753,0.000000
1384.130774,8068.244768,-5477.523971,229.828649
1384.131103,8438.347739,-6439.791695,766.095498
1384.131432,7179.997637,-7846.182985,1838.629195
1384.131761,6069.688724,-7105.977043,689.485948
1384.132090,5773.606348,-7179.997637,0.000000
1384.132419,5403.503377,-6883.915261,153.219100
1384.132748,5625.565159,-6735.874072,229.828649
1384.133077,5699.585753,-5847.626942,0.000000
1384.133406,6661.853478,-4959.379811,536.266849
1384.133735,8364.327145,-4663.297435,919.314598
1384.134064,9104.533087,-5107.421000,1838.629195
1384.134393,8734.430116,-5033.400406,1838.629195
1384.134722,7698.141797,-7105.977043,1915.238745
1384.135051,7179.997637,-8068.244768,1685.410096
1384.135380,6587.832884,-6883.915261,1378.971896
1384.135709,6883.915261,-8586.388927,612.876398
1384.136038,6587.832884,-8438.347739,1149.143247
1384.136367,6735.874072,-7179.997637,459.657299
1384.136696,5995.668130,-6513.812290,0.000000
1384.137025,5699.585753,-5551.544565,842.705048
1384.137355,6809.894666,-6513.812290,459.657299
1384.137684,7476.080014,-6291.750507,1225.752797
1384.138013,7105.977043,-6661.853478,1991.848295
1384.138342,7698.141797,-7550.100608,2374.896044
1384.138671,7698.141797,-6217.729913,2298.286494
1384.139000,7105.977043,-6587.832884,1608.800546
1384.139329,6587.832884,-6069.688724,1532.190996
1384.139658,6883.915261,-5921.647536,1532.190996
1384.139987,6587.832884,-5329.482782,1149.143247
1384.140316,7179.997637,-5551.544565,1532.190996
1384.140645,7994.224174,-6735.874072,2451.505594
1384.140974,7550.100608,-6587.832884,1915.238745
1384.141303,6069.688724,-6883.915261,1608.800546
1384.141632,5551.544565,-7254.018232,1608.800546
1384.141961,6735.874072,-7476.080014,153.219100
1384.142290,6513.812290,-8068.244768,1608.800546
1384.142619,6365.771101,-6069.688724,1225.752797
1384.142948,6957.935855,-6143.709319,612.876398
1384.143277,6883.915261,-5921.647536,1532.190996
1384.143606,6365.771101,-5921.647536,919.314598
1384.143935,6661.853478,-6217.729913,1302.362347
1384.144264,6513.812290,-6883.915261,2145.067394
1384.144593,6661.853478,-7772.162391,1685.410096
1384.144922,6883.915261,-7179.997637,2528.115143
1384.145251,6735.874072,-6957.935855,2298.286494
1384.145580,6513.812290,-6217.729913,1072.533697
1384.145909,6513.812290,-5921.647536,995.924147
1384.146238,7179.997637,-5181.441594,459.657299
1384.146567,9104.533087,-6957.935855,1455.581446
1384.146896,8808.450710,-5699.585753,2298.286494
1384.147226,7105.977043,-5995.668130,1225.752797
1384.147555,5625.565159,-6661.853478,766.095498
1384.147884,5477.523971,-6587.832884,306.438199
1384.148213,7031.956449,-6587.832884,612.876398
1384.148542,7476.080014,-6587.832884,1225.752797
1384.148871,7402.059420,-5625.565159,995.924147
1384.149200,7179.997637,-6957.935855,1455.581446
1384.149529,7994.224174,-5847.626942,1225.752797
1384.149858,7698.141797,-5625.565159,689.485948
1384.150187,7254.018232,-6439.791695,1302.362347
1384.150516,6957.935855,-7031.956449,1762.019645
1384.150845,6587.832884,-8586.388927,1302.362347
1384.151174,6883.915261,-8586.388927,1149.143247
1384.151503,6809.894666,-8068.244768,995.924147
1384.151832,7105.977043,-7254.018232,536.266849
1384.152161,6661.853478,-6069.688724,-306.438199
1384.152490,6143.709319,-4811.338623,0.000000
1384.152819,7179.997637,-4737.318029,-306.438199
1384.153148,7698.141797,-4367.215058,383.047749
1384.153477,7550.100608,-6365.771101,1302.362347
1384.153806,7698.141797,-8068.244768,1608.800546
1384.154135,6957.935855,-7698.141797,995.924147
1384.154464,6957.935855,-6365.771101,689.485948
1384.154793,7254.018232,-7550.100608,536.266849
1384.155122,7402.059420,-6957.935855,842.705048
1384.155451,7105.977043,-6291.750507,459.657299
1384.155780,6513.812290,-5921.647536,383.047749
1384.156109,6513.812290,-5995.668130,612.876398
1384.156438,6957.935855,-7031.956449,766.095498
1384.156767,5847.626942,-7031.956449,995.924147
1384.157096,5329.482782,-8586.388927,1225.752797
1384.157426,5995.668130,-7550.100608,995.924147
1384.157755,7031.956449,-6217.729913,766.095498
1384.158084,6587.832884,-5699.585753,1455.581446
1384.158413,6587.832884,-6069.688724,536.266849
1384.158742,6439.791695,-6143.709319,536.266849
1384.159071,7328.038826,-4737.318029,459.657299
1384.159400,7550.100608,-5921.647536,995.924147
1384.159729,7920.203579,-6365.771101,2374.896044
1384.160058,7698.141797,-7031.956449,1608.800546
1384.160387,7105.977043,-8364.327145,842.705048
1384.160716,7328.038826,-8068.244768,383.047749
1384.161045,7031.956449,-7698.141797,229.828649
1384.161374,6439.791695,-6365.771101,153.219100
1384.161703,6513.812290,-5625.565159,-383.047749
1384.162032,7031.956449,-6069.688724,306.438199
1384.162361,8512.368333,-5625.565159,995.924147
1384.162690,8660.409521,-5551.544565,1762.019645
1384.163019,7105.977043,-6809.894666,2068.457845
1384.163348,6809.894666,-6883.915261,1378.971896
1384.163677,6513.812290,-7846.182985,1838.629195
1384.164006,6809.894666,-7179.997637,1608.800546
1384.164335,7105.977043,-6587.832884,1838.629195
1384.164664,6587.832884,-4367.215058,1225.752797
1384.164993,6365.771101,-4737.318029,536.266849
1384.165322,7254.018232,-4663.297435,1455.581446
1384.165651,7994.224174,-6143.709319,2145.067394
1384.165980,7476.080014,-6883.915261,1455.581446
1384.166309,5921.647536,-7328.038826,536.266849
1384.166638,5847.626942,-8882.471304,1378.971896
1384.166967,7624.121203,-7698.141797,766.095498
1384.167297,7772.162391,-7105.977043,689.485948
1384.167626,6661.853478,-6217.729913,689.485948
1384.167955,6587.832884,-5625.565159,0.000000
1384.168284,6217.729913,-5921.647536,536.266849
1384.168613,7179.997637,-6291.750507,1149.143247
1384.168942,7994.224174,-6439.791695,1915.238745
1384.169271,7402.059420,-7105.977043,2298.286494
1384.169600,6069.688724,-7920.203579,2298.286494
1384.169929,6291.750507,-7254.018232,2068.457845
1384.170258,7254.018232,-6439.791695,2221.676944
1384.170587,6661.853478,-6661.853478,2221.676944
1384.170916,6365.771101,-5847.626942,2068.457845
1384.171245,6069.688724,-5255.462188,842.705048
1384.171574,6365.771101,-5329.482782,536.266849
1384.171903,7105.977043,-5625.565159,1302.362347
1384.172232,6587.832884,-7105.977043,1378.971896
1384.172561,5995.668130,-7698.141797,1762.019645
1384.172890,6143.709319,-8290.306550,1455.581446
1384.173219,7105.977043,-7624.121203,536.266849
1384.173548,6957.935855,-5551.544565,153.219100
1384.173877,6365.771101,-6883.915261,536.266849
1384.174206,6587.832884,-5995.668130,459.657299
1384.174535,7846.182985,-5329.482782,689.485948
1384.174864,9104.533087,-5921.647536,1378.971896
1384.175193,8438.347739,-7105.977043,1915.238745
1384.175522,7550.100608,-7624.121203,1378.971896
1384.175851,6957.935855,-8512.368333,919.314598
1384.176180,6735.874072,-7994.224174,1149.143247
1384.176509,7031.956449,-6143.709319,612.876398
1384.176838,7105.977043,-6069.688724,1532.190996
1384.177168,6735.874072,-6217.729913,1302.362347
1384.177497,6809.894666,-5033.400406,536.266849
1384.177826,7994.224174,-4219.173869,0.000000
1384.178155,7476.080014,-5181.441594,995.924147
1384.178484,7031.956449,-4737.318029,383.047749
1384.178813,6365.771101,-6809.894666,229.828649
1384.179142,6809.894666,-7624.121203,995.924147
1384.179471,8438.347739,-8956.491898,1532.190996
1384.179800,8068.244768,-7476.080014,1915.238745
1384.180129,6883.915261,-6217.729913,76.609550
1384.180458,5847.626942,-6217.729913,-536.266849
1384.180787,6513.812290,-5773.606348,-306.438199
1384.181116,7476.080014,-6365.771101,-306.438199
1384.181445,7550.100608,-6957.935855,766.095498
1384.181774,6809.894666,-7254.018232,1302.362347
1384.182103,6291.750507,-7550.100608,689.485948
1384.182432,6513.812290,-8216.285956,1762.019645
1384.182761,6957.935855,-7105.977043,1838.629195
1384.183090,7105.977043,-6069.688724,1455.581446
1384.183419,6439.791695,-4737.318029,1149.143247
1384.183748,6883.915261,-4663.297435,459.657299
1384.184077,7994.224174,-4663.297435,1302.362347
1384.184406,7994.224174,-5255.462188,1302.362347
1384.184735,6365.771101,-5995.668130,842.705048
1384.185064,5477.523971,-7402.059420,612.876398
1384.185393,6513.812290,-7698.141797,689.485948
1384.185722,7476.080014,-8216.285956,612.876398
1384.186051,7846.182985,-8364.327145,1532.190996
1384.186380,7105.977043,-7624.121203,1149.143247
1384.186709,5995.668130,-6809.894666,-612.876398
1384.187039,6217.729913,-6587.832884,0.000000
1384.187368,7328.038826,-6217.729913,995.924147
1384.187697,7698.141797,-5995.668130,766.095498
1384.188026,6513.812290,-7105.977043,1225.752797
1384.188355,6217.729913,-6957.935855,1915.238745
1384.188684,7105.977043,-6439.791695,1532.190996
1384.189013,7846.182985,-5847.626942,2451.505594
1384.189342,7402.059420,-5847.626942,2145.067394
1384.189671,6735.874072,-5625.565159,689.485948
1384.190000,6513.812290,-5329.482782,1149.143247
1384.190329,7254.018232,-6513.812290,459.657299
1384.190658,7920.203579,-5773.606348,766.095498
1384.190987,7179.997637,-5773.606348,766.095498
1384.191316,6513.812290,-7698.141797,995.924147
1384.191645,6439.791695,-8364.327145,842.705048
1384.191974,7328.038826,-7698.141797,1685.410096
1384.192303,8068.244768,-6883.915261,1915.238745
1384.192632,7328.038826,-6291.750507,1302.362347
1384.192961,6365.771101,-5773.606348,1225.752797
1384.193290,6957.935855,-5033.400406,766.095498
1384.193619,7624.121203,-5625.565159,1455.581446
1384.193948,7772.162391,-5477.523971,1762.019645
1384.194277,6365.771101,-6291.750507,1378.971896
1384.194606,6365.771101,-7328.038826,1762.019645
1384.194935,6661.853478,-7772.162391,1685.410096
1384.195264,6883.915261,-7550.100608,2068.457845
1384.195593,6513.812290,-5921.647536,1455.581446
1384.195922,5773.606348,-6735.874072,919.314598
1384.196251,6439.791695,-6291.750507,919.314598
1384.196580,7254.018232,-6587.832884,1608.800546
1384.196909,7920.203579,-6143.709319,1455.581446
1384.197239,6883.915261,-5403.503377,1072.533697
1384.197568,5625.565159,-6735.874072,1302.362347
1384.197897,6069.688724,-7254.018232,995.924147
1384.198226,7624.121203,-6365.771101,1685.410096
1384.198555,7698.141797,-6735.874072,1991.848295
1384.198884,7624.121203,-5551.544565,1532.190996
1384.199213,7179.997637,-6809.894666,1072.533697
1384.199542,7920.203579,-7031.956449,1532.190996
1384.199871,8586.388927,-6513.812290,1685.410096
1384.200200,7772.162391,-6513.812290,1608.800546
1384.200529,5625.565159,-6217.729913,842.705048
1384.200858,4515.256246,-7846.182985,536.266849
1384.201187,5477.523971,-7772.162391,1149.143247
1384.201516,6735.874072,-8142.265362,1991.848295
1384.201845,7550.100608,-7179.997637,2298.286494
1384.202174,7550.100608,-5699.585753,1532.190996
1384.202503,6291.750507,-5403.503377,0.000000
1384.202832,6957.935855,-4293.194464,153.219100
1384.203161,7624.121203,-4737.318029,0.000000
1384.203490,7846.182985,-6069.688724,1225.752797
1384.203819,7031.956449,-6809.894666,2068.457845
1384.204148,6957.935855,-8068.244768,612.876398
1384.204477,7105.977043,-8956.491898,1378.971896
1384.204806,7402.059420,-7328.038826,1072.533697
1384.205135,7550.100608,-7254.018232,766.095498
1384.205464,7254.018232,-6809.894666,383.047749
1384.205793,7550.100608,-6143.709319,536.266849
1384.206122,8438.347739,-4959.379811,76.609550
1384.206451,7624.121203,-5551.544565,1225.752797
1384.206780,5995.668130,-6661.853478,842.705048
1384.207110,5477.523971,-7698.141797,306.438199
1384.207439,5847.626942,-6957.935855,1149.143247
1384.207768,7105.977043,-6587.832884,1532.190996
1384.208097,7846.182985,-5995.668130,1532.190996
1384.208426,7328.038826,-6809.894666,1302.362347
1384.208755,6365.771101,-5699.585753,536.266849
1384.209084,6957.935855,-5329.482782,536.266849
1384.209413,7846.182985,-4515.256246,842.705048
1384.209742,6735.874072,-5329.482782,153.219100
1384.210071,5329.482782,-7476.080014,842.705048
1384.210400,6439.791695,-8142.265362,689.485948
1384.210729,7772.162391,-8364.327145,536.266849
1384.211058,8364.327145,-6957.935855,1149.143247
1384.211387,7179.997637,-6883.915261,766.095498
1384.211716,6957.935855,-6661.853478,0.000000
1384.212045,6439.791695,-5625.565159,76.609550
1384.212374,7031.956449,-5033.400406,0.000000
1384.212703,7994.224174,-5329.482782,1532.190996
1384.213032,7328.038826,-6291.750507,1302.362347
1384.213361,6513.812290,-8586.388927,1915.238745
1384.213690,7031.956449,-7402.059420,1915.238745
1384.214019,7476.080014,-7179.997637,1455.581446
1384.214348,7105.977043,-6143.709319,2451.505594
1384.214677,6587.832884,-5625.565159,1149.143247
1384.215006,5995.668130,-4959.379811,383.047749
1384.215335,6661.853478,-3627.009116,-76.609550
1384.215664,7105.977043,-4885.359217,536.266849
1384.215993,6883.915261,-6809.894666,1225.752797
1384.216322,6513.812290,-7772.162391,995.924147
1384.216651,6439.791695,-8808.450710,459.657299
1384.216981,7031.956449,-8364.327145,1225.752797
1384.217310,7402.059420,-7328.038826,1378.971896
1384.217639,7105.977043,-7105.977043,919.314598
1384.217968,6809.894666,-5847.626942,0.000000
1384.218297,6587.832884,-5551.544565,0.000000
1384.218626,7105.977043,-5847.626942,919.314598
1384.218955,8142.265362,-6883.915261,1532.190996
1384.219284,7328.038826,-6957.935855,2451.505594
1384.219613,6587.832884,-8364.327145,1685.410096
1384.219942,6809.894666,-6957.935855,1838.629195
1384.220271,7179.997637,-6143.709319,1991.848295
1384.220600,7254.018232,-6069.688724,1838.629195
1384.220929,6365.771101,-5625.565159,1225.752797
1384.221258,6217.729913,-5033.400406,689.485948
1384.221587,7402.059420,-4737.318029,229.828649
1384.221916,8142.265362,-5625.565159,1302.362347
1384.222245,7031.956449,-7105.977043,2068.457845
1384.222574,5995.668130,-7698.141797,1455.581446
1384.222903,6069.688724,-8438.347739,842.705048
1384.223232,7254.018232,-8216.285956,2068.457845
1384.223562,8290.306550,-7476.080014,1455.581446
1384.223891,7254.018232,-6217.729913,1455.581446
1384.224220,6143.709319,-5699.585753,0.000000
1384.224549,6735.874072,-5699.585753,0.000000
1384.224878,7328.038826,-4367.215058,842.705048
1384.225207,7328.038826,-6143.709319,1149.143247
1384.225536,6217.729913,-6957.935855,1838.629195
1384.225865,6365.771101,-8216.285956,1685.410096
1384.226194,7105.977043,-7254.018232,1532.190996
1384.226523,7698.141797,-6291.750507,1225.752797
1384.226852,7550.100608,-6291.750507,1685.410096
1384.227181,7328.038826,-5699.585753,842.705048
1384.227510,6809.894666,-5255.462188,306.438199
1384.227839,6883.915261,-4737.318029,536.266849
1384.228168,7624.121203,-5625.565159,1532.190996
1384.228497,7402.059420,-6217.729913,2987.772442
1384.228827,6661.853478,-6661.853478,1455.581446
1384.229156,6143.709319,-8290.306550,1915.238745
1384.229485,7179.997637,-6661.853478,306.438199
1384.229814,7624.121203,-6661.853478,919.314598
1384.230143,7328.038826,-6735.874072,919.314598
1384.230472,6735.874072,-6143.709319,-229.828649
1384.230801,6439.791695,-5773.606348,-153.219100
1384.231130,7328.038826,-6291.750507,153.219100
1384.231459,7476.080014,-7179.997637,1455.581446
1384.231788,6735.874072,-8290.306550,1532.190996
1384.232117,5181.441594,-9030.512492,842.705048
1384.232446,6143.709319,-8068.244768,306.438199
1384.232775,6883.915261,-8068.244768,1149.143247
1384.233104,7105.977043,-6809.894666,1608.800546
1384.233433,6809.894666,-5033.400406,689.485948
1384.233762,6217.729913,-5551.544565,995.924147
1384.234091,6809.894666,-3849.070898,306.438199
1384.234421,7402.059420,-4885.359217,306.438199
1384.234750,6957.935855,-6439.791695,1225.752797
1384.235079,6883.915261,-7402.059420,459.657299
1384.235408,6513.812290,-8956.491898,842.705048
1384.235737,7476.080014,-8586.388927,1608.800546
1384.236066,8068.244768,-6883.915261,536.266849
1384.236395,7254.018232,-6809.894666,153.219100
1384.236724,5921.647536,-5995.668130,-536.266849
1384.237053,5033.400406,-6809.894666,-306.438199
1384.237382,6957.935855,-5921.647536,0.000000
1384.237711,7402.059420,-5033.400406,1378.971896
1384.238040,6809.894666,-6809.894666,1838.629195
1384.238369,6883.915261,-8142.265362,1762.019645
1384.238698,7105.977043,-7328.038826,2145.067394
1384.239027,7179.997637,-5847.626942,1302.362347
1384.239356,6809.894666,-4663.297435,995.924147
1384.239685,6957.935855,-5847.626942,766.095498
1384.240015,6957.935855,-6217.729913,229.828649
1384.240344,7402.059420,-4885.359217,459.657299
1384.240673,7624.121203,-5921.647536,612.876398
1384.241002,7179.997637,-6291.750507,995.924147
1384.241331,6143.709319,-7698.141797,612.876398
1384.241660,6143.709319,-8216.285956,842.705048
1384.241989,7476.080014,-7402.059420,995.924147
1384.242318,7772.162391,-7254.018232,1225.752797
1384.242647,7105.977043,-6735.874072,1302.362347
1384.242976,7105.977043,-5921.647536,76.609550
1384.243305,7105.977043,-4885.359217,459.657299
1384.243634,7550.100608,-5329.482782,1225.752797
1384.243963,8142.265362,-5625.565159,1455.581446
1384.244292,7402.059420,-7179.997637,2451.505594
1384.244621,7031.956449,-7920.203579,2451.505594
1384.244950,7105.977043,-6883.915261,1532.190996
1384.245280,7105.977043,-7328.038826,1532.190996
1384.245609,6735.874072,-7105.977043,1685.410096
1384.245938,5921.647536,-5847.626942,1302.362347
1384.246267,5477.523971,-6365.771101,229.828649
1384.246596,6217.729913,-5329.482782,-383.047749
1384.246925,6809.894666,-6217.729913,612.876398
1384.247254,6587.832884,-7254.018232,995.924147
1384.247583,5995.668130,-8142.265362,1608.800546
1384.247912,6291.750507,-8512.368333,919.314598
1384.248241,7476.080014,-7624.121203,1072.533697
1384.248570,8438.347739,-6735.874072,2528.115143
1384.248899,8438.347739,-5921.647536,1838.629195
1384.249228,6661.853478,-6143.709319,536.266849
1384.249557,6217.729913,-4885.359217,229.828649
1384.249886,7179.997637,-5329.482782,153.219100
1384.250215,7550.100608,-6587.832884,1991.848295
1384.250544,6883.915261,-7105.977043,3064.381992
1384.250874,6809.894666,-9696.697840,1685.410096
1384.251203,5477.523971,-7476.080014,1072.533697
1384.251532,4959.379811,-6439.791695,689.485948
1384.251861,5995.668130,-5255.462188,1378.971896
1384.252190,6809.894666,-5033.400406,1455.581446
1384.252519,6513.812290,-5847.626942,766.095498
1384.252848,7402.059420,-5773.606348,1302.362347
1384.253177,8586.388927,-4885.359217,2451.505594
1384.253506,7698.141797,-6439.791695,1685.410096
1384.253835,5847.626942,-6809.894666,536.266849
1384.254164,5699.585753,-8734.430116,995.924147
1384.254493,7402.059420,-7328.038826,-76.609550
1384.254822,7328.038826,-6143.709319,842.705048
1384.255151,6883.915261,-5551.544565,919.314598
1384.255480,7698.141797,-7031.956449,-306.438199
1384.255809,7698.141797,-7105.977043,919.314598
1384.256139,7698.141797,-6365.771101,1225.752797
1384.256468,7846.182985,-6661.853478,1685.410096
1384.256797,7105.977043,-6735.874072,2298.286494
1384.257126,6291.750507,-8290.306550,1762.019645
1384.257455,6883.915261,-7031.956449,1225.752797
1384.257784,7624.121203,-6291.750507,1762.019645
1384.258113,7624.121203,-5699.585753,689.485948
1384.258442,6291.750507,-5107.421000,1072.533697
1384.258771,6217.729913,-5403.503377,536.266849
1384.259100,7179.997637,-5181.441594,995.924147
1384.259429,7105.977043,-5847.626942,1762.019645
1384.259758,6809.894666,-7105.977043,1302.362347
1384.260087,5995.668130,-8068.244768,766.095498
1384.260416,6217.729913,-8586.388927,1225.752797
1384.260745,6661.853478,-7328.038826,842.705048
1384.261074,6587.832884,-7179.997637,995.924147
1384.261403,7031.956449,-5995.668130,0.000000
1384.261733,6439.791695,-6661.853478,76.609550
