#time,accel_x,accel_y,accel_z
1271.646994,7254.018232,-6217.729913,1072.533697
1271.647324,6957.935855,-5995.668130,1302.362347
1271.647654,6735.874072,-6513.812290,1149.143247
1271.647985,6957.935855,-6439.791695,995.924147
1271.648315,6735.874072,-6217.729913,1072.533697
1271.648646,6513.812290,-6513.812290,1455.581446
1271.648976,6513.812290,-6587.832884,995.924147
1271.649307,6291.750507,-6735.874072,1149.143247
1271.649637,6735.874072,-6587.832884,995.924147
1271.649968,7031.956449,-6661.853478,1149.143247
1271.650298,6957.935855,-6661.853478,995.924147
1271.650629,6587.832884,-7105.977043,1072.533697
1271.650959,6513.812290,-6957.935855,919.314598
1271.651290,6587.832884,-6809.894666,842.705048
1271.651620,6809.894666,-6883.915261,1455.581446
1271.651950,6957.935855,-6735.874072,1455.581446
1271.652281,7031.956449,-6587.832884,536.266849
1271.652611,7031.956449,-6661.853478,536.266849
1271.652942,7105.977043,-6661.853478,1302.362347
1271.653272,7624.121203,-6439.791695,842.705048
1271.653603,7031.956449,-6365.771101,1149.143247
1271.653933,7105.977043,-6365.771101,995.924147
1271.654264,7254.018232,-6513.812290,1072.533697
1271.654594,7105.977043,-6143.709319,1149.143247
1271.654925,7105.977043,-6439.791695,1225.752797
1271.655255,7179.997637,-6587.832884,1225.752797
1271.655586,7031.956449,-6587.832884,1072.533697
1271.655916,6439.791695,-6661.853478,1149.143247
1271.656246,7105.977043,-6809.894666,1072.533697
1271.656577,7105.977043,-6587.832884,1378.971896
1271.656907,6957.935855,-6661.853478,1225.752797
1271.657238,6809.894666,-6365.771101,1072.533697
1271.657568,6809.894666,-6587.832884,995.924147
1271.657899,6513.812290,-6291.750507,842.705048
1271.658229,6513.812290,-6883.915261,919.314598
1271.658560,6883.915261,-6883.915261,612.876398
1271.658890,7105.977043,-6513.812290,766.095498
1271.659221,7476.080014,-6365.771101,1685.410096
1271.659551,7550.100608,-6587.832884,919.314598
1271.659882,7402.059420,-6439.791695,1149.143247
1271.660212,7328.038826,-6513.812290,1225.752797
1271.660543,7105.977043,-6661.853478,995.924147
1271.660873,7031.956449,-5995.668130,1455.581446
1271.661203,7402.059420,-6217.729913,995.924147
1271.661534,7105.977043,-6069.688724,995.924147
1271.661864,6957.935855,-5921.647536,1149.143247
1271.662195,7328.038826,-6143.709319,1532.190996
1271.662525,7105.977043,-6439.791695,995.924147
1271.662856,6809.894666,-6143.709319,1149.143247
1271.663186,6513.812290,-6809.894666,689.485948
1271.663517,6809.894666,-6809.894666,995.924147
1271.663847,6883.915261,-6069.688724,919.314598
1271.664178,6587.832884,-7105.977043,1149.143247
1271.664508,6661.853478,-6661.853478,1072.533697
1271.664839,6957.935855,-6957.935855,1225.752797
1271.665169,6439.791695,-7105.977043,919.314598
1271.665499,6513.812290,-6735.874072,842.705048
1271.665830,6587.832884,-6513.812290,766.095498
1271.666160,6809.894666,-6735.874072,842.705048
1271.666491,6735.874072,-6587.832884,1072.533697
1271.666821,7031.956449,-5773.606348,1991.848295
1271.667152,7105.977043,-6513.812290,1149.143247
1271.667482,7105.977043,-6587.832884,1072.533697
1271.667813,7031.956449,-6439.791695,766.095498
1271.668143,6957.935855,-6883.915261,1149.143247
1271.668474,7476.080014,-6143.709319,1302.362347
1271.668804,7550.100608,-6291.750507,1378.971896
1271.669135,6957.935855,-6365.771101,1378.971896
1271.669465,7254.018232,-6217.729913,1149.143247
1271.669795,7105.977043,-6291.750507,919.314598
1271.670126,6957.935855,-5995.668130,995.924147
1271.670456,6513.812290,-6661.853478,919.314598
1271.670787,6957.935855,-6439.791695,919.314598
1271.671117,7031.956449,-6883.915261,1225.752797
1271.671448,6957.935855,-6439.791695,1225.752797
1271.671778,7105.977043,-6735.874072,919.314598
1271.672109,7031.956449,-6883.915261,1072.533697
1271.672439,7031.956449,-6883.915261,995.924147
1271.672770,6439.791695,-7031.956449,612.876398
1271.673100,6957.935855,-6513.812290,1149.143247
1271.673431,7254.018232,-6957.935855,919.314598
1271.673761,7402.059420,-6661.853478,1455.581446
1271.674091,7328.038826,-6439.791695,1072.533697
1271.674422,7402.059420,-6365.771101,306.438199
1271.674752,7254.018232,-6439.791695,919.314598
1271.675083,6957.935855,-6587.832884,995.924147
1271.675413,7328.038826,-6365.771101,1072.533697
1271.675744,7550.100608,-5995.668130,1072.533697
1271.676074,6883.915261,-6439.791695,1225.752797
1271.676405,7105.977043,-5995.668130,1072.533697
1271.676735,7105.977043,-6439.791695,995.924147
1271.677066,7179.997637,-6587.832884,1149.143247
1271.677396,6809.894666,-6513.812290,995.924147
1271.677727,6661.853478,-6661.853478,689.485948
1271.678057,6735.874072,-6513.812290,919.314598
1271.678387,6809.894666,-7031.956449,1149.143247
1271.678718,6661.853478,-6587.832884,919.314598
1271.679048,6661.853478,-6513.812290,1225.752797
1271.679379,6661.853478,-6439.791695,1149.143247
1271.679709,6439.791695,-7254.018232,842.705048
1271.680040,6439.791695,-7031.956449,919.314598
1271.680370,6957.935855,-7031.956449,1302.362347
1271.680701,6957.935855,-6883.915261,995.924147
1271.681031,7179.997637,-6957.935855,1225.752797
1271.681362,7179.997637,-6883.915261,995.924147
1271.681692,7105.977043,-6661.853478,1149.143247
1271.682023,6883.915261,-5995.668130,1072.533697
1271.682353,6809.894666,-6661.853478,766.095498
1271.682684,7105.977043,-6661.853478,1072.533697
1271.683014,7328.038826,-6217.729913,1225.752797
1271.683344,7328.038826,-6365.771101,842.705048
1271.683675,7254.018232,-6217.729913,1302.362347
1271.684005,6957.935855,-5995.668130,919.314598
1271.684336,6883.915261,-6439.791695,995.924147
1271.684666,6809.894666,-6587.832884,1149.143247
1271.684997,6809.894666,-6809.894666,1532.190996
1271.685327,6957.935855,-7105.977043,919.314598
1271.685658,7031.956449,-6735.874072,1225.752797
1271.685988,6735.874072,-6883.915261,1149.143247
1271.686319,6883.915261,-6587.832884,995.924147
1271.686649,6587.832884,-7105.977043,1762.019645
1271.686980,6587.832884,-6809.894666,919.314598
1271.687310,6735.874072,-6661.853478,842.705048
1271.687640,7031.956449,-6661.853478,1072.533697
1271.687971,7402.059420,-6883.915261,229.828649
1271.688301,7105.977043,-6439.791695,1378.971896
1271.688632,7179.997637,-6587.832884,1149.143247
1271.688962,7328.038826,-6661.853478,766.095498
1271.689293,7105.977043,-6513.812290,1225.752797
1271.689623,7476.080014,-6439.791695,842.705048
1271.689954,7328.038826,-6439.791695,919.314598
1271.690284,7328.038826,-5847.626942,1302.362347
1271.690615,7254.018232,-6513.812290,766.095498
1271.690945,7179.997637,-5847.626942,1378.971896
1271.691276,7179.997637,-6217.729913,1378.971896
1271.691606,7328.038826,-6513.812290,1302.362347
1271.691936,7031.956449,-6143.709319,995.924147
1271.692267,6587.832884,-6809.894666,995.924147
1271.692597,6735.874072,-6069.688724,1302.362347
1271.692928,6957.935855,-6809.894666,1072.533697
1271.693258,6883.915261,-7105.977043,1302.362347
1271.693589,6587.832884,-6883.915261,995.924147
1271.693919,6809.894666,-7031.956449,1149.143247
1271.694250,6513.812290,-7179.997637,995.924147
1271.694580,6365.771101,-6957.935855,842.705048
1271.694911,6587.832884,-6735.874072,1225.752797
1271.695241,6587.832884,-6883.915261,689.485948
1271.695572,7105.977043,-6217.729913,1072.533697
1271.695902,7105.977043,-6735.874072,995.924147
1271.696232,7105.977043,-6661.853478,842.705048
1271.696563,6957.935855,-6291.750507,1225.752797
1271.696893,6883.915261,-6587.832884,842.705048
1271.697224,6661.853478,-6883.915261,919.314598
1271.697554,7179.997637,-6291.750507,1225.752797
1271.697885,7179.997637,-6809.894666,995.924147
1271.698215,7105.977043,-6217.729913,1455.581446
1271.698546,7328.038826,-6291.750507,1149.143247
1271.698876,6809.894666,-6217.729913,842.705048
1271.699207,6735.874072,-6439.791695,919.314598
1271.699537,6661.853478,-6365.771101,919.314598
1271.699868,6957.935855,-6513.812290,459.657299
1271.700198,7179.997637,-6291.750507,1225.752797
1271.700529,6883.915261,-6439.791695,995.924147
1271.700859,6809.894666,-6587.832884,1072.533697
1271.701189,6957.935855,-6735.874072,1225.752797
1271.701520,6809.894666,-6809.894666,612.876398
1271.701850,7031.956449,-6661.853478,766.095498
1271.702181,6513.812290,-7031.956449,842.705048
1271.702511,7328.038826,-7031.956449,689.485948
1271.702842,7328.038826,-6735.874072,919.314598
1271.703172,7402.059420,-6217.729913,995.924147
1271.703503,7550.100608,-6143.709319,766.095498
1271.703833,7476.080014,-6365.771101,1072.533697
1271.704164,7105.977043,-6587.832884,689.485948
1271.704494,7179.997637,-6291.750507,1149.143247
1271.704825,7476.080014,-5995.668130,1455.581446
1271.705155,7105.977043,-6291.750507,995.924147
1271.705485,7476.080014,-5773.606348,1149.143247
1271.705816,7105.977043,-6439.791695,1378.971896
1271.706146,7328.038826,-6143.709319,689.485948
1271.706477,6735.874072,-6217.729913,995.924147
1271.706807,6291.750507,-6513.812290,612.876398
1271.707138,6587.832884,-6735.874072,689.485948
1271.707468,6735.874072,-6809.894666,1072.533697
1271.707799,6587.832884,-7031.956449,1455.581446
1271.708129,6957.935855,-6809.894666,919.314598
1271.708460,6661.853478,-6735.874072,995.924147
1271.708790,6587.832884,-7105.977043,842.705048
1271.709121,6439.791695,-6809.894666,459.657299
1271.709451,6365.771101,-6365.771101,1225.752797
1271.709781,6883.915261,-7031.956449,1149.143247
1271.710112,7105.977043,-6587.832884,1225.752797
1271.710442,7031.956449,-6439.791695,919.314598
1271.710773,7328.038826,-6439.791695,383.047749
1271.711103,7105.977043,-6439.791695,689.485948
1271.711434,6661.853478,-6661.853478,766.095498
1271.711764,6883.915261,-6883.915261,1225.752797
1271.712095,7254.018232,-6587.832884,766.095498
1271.712425,7476.080014,-6217.729913,612.876398
1271.712756,6809.894666,-6217.729913,1149.143247
1271.713086,6809.894666,-5995.668130,1225.752797
1271.713416,7031.956449,-6661.853478,842.705048
1271.713745,6217.729913,-5995.668130,1302.362347
1271.714075,6365.771101,-6587.832884,919.314598
1271.714404,6883.915261,-6661.853478,995.924147
1271.714734,7031.956449,-6513.812290,1225.752797
1271.715063,6883.915261,-6883.915261,919.314598
1271.715393,7031.956449,-6587.832884,459.657299
1271.715722,6661.853478,-6735.874072,1225.752797
1271.716052,6809.894666,-7105.977043,612.876398
1271.716381,6661.853478,-6809.894666,766.095498
1271.716711,6809.894666,-6661.853478,919.314598
1271.717040,7105.977043,-6661.853478,1149.143247
1271.717370,7179.997637,-6291.750507,1149.143247
1271.717699,7254.018232,-6513.812290,1149.143247
1271.718029,7550.100608,-6217.729913,995.924147
1271.718358,7254.018232,-6513.812290,1378.971896
1271.718688,7254.018232,-6513.812290,842.705048
1271.719017,7179.997637,-6365.771101,1225.752797
1271.719347,7402.059420,-6365.771101,919.314598
1271.719676,7254.018232,-6143.709319,919.314598
1271.720006,7550.100608,-6069.688724,689.485948
1271.720335,7031.956449,-6291.750507,995.924147
1271.720665,7179.997637,-6513.812290,1072.533697
1271.720994,7254.018232,-6217.729913,1225.752797
1271.721324,7031.956449,-6291.750507,1378.971896
1271.721653,7105.977043,-6439.791695,689.485948
1271.721983,6809.894666,-6587.832884,1302.362347
1271.722312,6809.894666,-6883.915261,1072.533697
1271.722641,7105.977043,-6735.874072,1378.971896
1271.722971,6735.874072,-6809.894666,1685.410096
1271.723300,6291.750507,-7105.977043,919.314598
1271.723630,6069.688724,-6957.935855,995.924147
1271.723959,6513.812290,-6883.915261,842.705048
1271.724289,6809.894666,-7031.956449,766.095498
1271.724618,7105.977043,-7105.977043,1149.143247
1271.724948,7105.977043,-6587.832884,612.876398
1271.725277,7105.977043,-6809.894666,766.095498
1271.725607,7031.956449,-6439.791695,995.924147
1271.725936,6883.915261,-6661.853478,1302.362347
1271.726266,6957.935855,-6587.832884,1072.533697
1271.726595,7179.997637,-6217.729913,995.924147
1271.726925,7179.997637,-6439.791695,842.705048
1271.727254,6957.935855,-6513.812290,1225.752797
1271.727584,6587.832884,-6217.729913,1302.362347
1271.727913,7105.977043,-6587.832884,1149.143247
1271.728243,6661.853478,-6143.709319,1225.752797
1271.728572,6587.832884,-6587.832884,1072.533697
1271.728902,6735.874072,-6513.812290,919.314598
1271.729231,6587.832884,-6661.853478,1225.752797
1271.729561,6735.874072,-6587.832884,995.924147
1271.729890,6957.935855,-6513.812290,842.705048
1271.730220,6809.894666,-6957.935855,1149.143247
1271.730549,7031.956449,-7031.956449,459.657299
1271.730879,6661.853478,-6883.915261,1072.533697
1271.731208,6957.935855,-6957.935855,842.705048
1271.731538,7105.977043,-6809.894666,919.314598
1271.731867,7328.038826,-6661.853478,1378.971896
1271.732197,7550.100608,-6143.709319,1225.752797
1271.732526,7328.038826,-6439.791695,919.314598
1271.732856,7179.997637,-6291.750507,1149.143247
1271.733185,7402.059420,-6365.771101,842.705048
1271.733515,7254.018232,-6069.688724,1149.143247
1271.733844,7328.038826,-5921.647536,995.924147
1271.734174,7179.997637,-6587.832884,612.876398
1271.734503,7254.018232,-6439.791695,1455.581446
1271.734833,7179.997637,-6217.729913,1072.533697
1271.735162,7476.080014,-6957.935855,1225.752797
1271.735492,6957.935855,-6291.750507,1072.533697
1271.735821,6513.812290,-7031.956449,612.876398
1271.736151,6661.853478,-6513.812290,919.314598
1271.736480,6809.894666,-6513.812290,1302.362347
1271.736810,7031.956449,-6661.853478,919.314598
1271.737139,6957.935855,-6587.832884,1302.362347
1271.737469,6809.894666,-6809.894666,1532.190996
1271.737798,6587.832884,-6809.894666,842.705048
1271.738128,6661.853478,-6291.750507,536.266849
1271.738457,6513.812290,-7031.956449,1149.143247
1271.738787,6883.915261,-6957.935855,842.705048
1271.739116,7031.956449,-6735.874072,1302.362347
1271.739446,6957.935855,-6661.853478,1302.362347
1271.739775,6957.935855,-6513.812290,1302.362347
1271.740105,7105.977043,-6439.791695,1072.533697
1271.740434,7031.956449,-6661.853478,766.095498
1271.740764,6957.935855,-6883.915261,1072.533697
1271.741093,7105.977043,-6069.688724,1149.143247
1271.741423,7254.018232,-6291.750507,919.314598
1271.741752,7031.956449,-6217.729913,1378.971896
1271.742082,7105.977043,-6217.729913,1149.143247
1271.742411,7105.977043,-6661.853478,1072.533697
1271.742741,6661.853478,-5995.668130,1455.581446
1271.743070,6587.832884,-6513.812290,612.876398
1271.743400,6513.812290,-6809.894666,842.705048
1271.743729,6809.894666,-7031.956449,1072.533697
1271.744059,6957.935855,-6809.894666,842.705048
1271.744388,7031.956449,-6661.853478,1149.143247
1271.744718,6957.935855,-6809.894666,1072.533697
1271.745047,6809.894666,-6735.874072,612.876398
1271.745377,6957.935855,-6809.894666,1072.533697
1271.745706,6883.915261,-6957.935855,766.095498
1271.746036,7031.956449,-6587.832884,842.705048
1271.746365,7105.977043,-6661.853478,1149.143247
1271.746695,7105.977043,-6365.771101,842.705048
1271.747024,7105.977043,-6069.688724,1149.143247
1271.747354,7105.977043,-6291.750507,766.095498
1271.747683,7105.977043,-6291.750507,766.095498
1271.748013,6883.915261,-6365.771101,995.924147
1271.748342,7328.038826,-6069.688724,842.705048
1271.748672,7846.182985,-5921.647536,1149.143247
1271.749001,7328.038826,-5773.606348,1072.533697
1271.749331,7105.977043,-6069.688724,1225.752797
1271.749660,7179.997637,-6291.750507,1149.143247
1271.749990,7031.956449,-6217.729913,766.095498
1271.750319,6587.832884,-6661.853478,995.924147
1271.750649,6661.853478,-6661.853478,612.876398
1271.750978,6809.894666,-6883.915261,1225.752797
1271.751308,6735.874072,-6439.791695,919.314598
1271.751637,6439.791695,-6513.812290,1149.143247
1271.751967,6735.874072,-6513.812290,1225.752797
1271.752296,6735.874072,-7105.977043,689.485948
1271.752626,6809.894666,-6735.874072,995.924147
1271.752955,6735.874072,-6661.853478,919.314598
1271.753285,6735.874072,-6143.709319,1149.143247
1271.753614,7105.977043,-6587.832884,1225.752797
1271.753944,7179.997637,-6735.874072,1225.752797
1271.754273,7254.018232,-6587.832884,919.314598
1271.754603,7179.997637,-6587.832884,1455.581446
1271.754932,7031.956449,-6957.935855,995.924147
1271.755262,6883.915261,-6883.915261,995.924147
1271.755591,7105.977043,-6587.832884,1149.143247
1271.755921,7105.977043,-6439.791695,1302.362347
1271.756250,7254.018232,-6069.688724,842.705048
1271.756580,7105.977043,-6291.750507,1225.752797
1271.756909,6957.935855,-6587.832884,995.924147
1271.757239,6735.874072,-6291.750507,1225.752797
1271.757568,6291.750507,-6883.915261,1225.752797
1271.757898,6957.935855,-6735.874072,995.924147
1271.758227,7031.956449,-6513.812290,1378.971896
1271.758557,6883.915261,-6809.894666,1225.752797
1271.758886,6883.915261,-7105.977043,995.924147
1271.759216,7105.977043,-6439.791695,1149.143247
1271.759545,6809.894666,-6735.874072,766.095498
1271.759875,6513.812290,-6883.915261,766.095498
1271.760204,6439.791695,-6661.853478,995.924147
1271.760534,7105.977043,-6809.894666,842.705048
1271.760863,7105.977043,-6365.771101,1302.362347
1271.761193,7179.997637,-6365.771101,919.314598
1271.761522,7105.977043,-6587.832884,995.924147
1271.761852,7105.977043,-6513.812290,1149.143247
1271.762181,7402.059420,-6069.688724,1302.362347
1271.762511,7624.121203,-5329.482782,612.876398
1271.762840,8290.306550,-4885.359217,919.314598
1271.763170,8586.388927,-5181.441594,1072.533697
1271.763499,8364.327145,-5477.523971,1455.581446
1271.763829,7698.141797,-5699.585753,459.657299
1271.764158,6513.812290,-6661.853478,153.219100
1271.764488,5699.585753,-7179.997637,76.609550
1271.764817,6069.688724,-6809.894666,0.000000
1271.765147,7031.956449,-6957.935855,1072.533697
1271.765476,7772.162391,-6291.750507,1608.800546
1271.765806,8512.368333,-5921.647536,1685.410096
1271.766135,8438.347739,-3997.112087,1302.362347
1271.766465,7994.224174,-4737.318029,1455.581446
1271.766794,8068.244768,-4885.359217,1072.533697
1271.767124,8290.306550,-4367.215058,995.924147
1271.767453,8068.244768,-4885.359217,1072.533697
1271.767783,8142.265362,-4737.318029,306.438199
1271.768112,7772.162391,-5477.523971,689.485948
1271.768442,8808.450710,-4885.359217,383.047749
1271.768771,8808.450710,-5107.421000,612.876398
1271.769101,8586.388927,-6143.709319,842.705048
1271.769430,8364.327145,-5477.523971,536.266849
1271.769760,8290.306550,-5181.441594,306.438199
1271.770089,8290.306550,-5477.523971,995.924147
1271.770419,8364.327145,-5477.523971,689.485948
1271.770748,8216.285956,-5181.441594,995.924147
1271.771078,8290.306550,-4515.256246,995.924147
1271.771407,8956.491898,-5329.482782,1072.533697
1271.771737,8882.471304,-3627.009116,1455.581446
1271.772066,9104.533087,-3627.009116,1608.800546
1271.772396,9474.636058,-3108.864956,1378.971896
1271.772725,9844.739029,-2368.659014,1532.190996
1271.773055,10066.800811,-3034.844362,1608.800546
1271.773384,10140.821405,-2886.803174,1762.019645
1271.773714,9696.697840,-3849.070898,2068.457845
1271.774043,9400.615463,-4293.194464,1072.533697
1271.774373,8734.430116,-4737.318029,1302.362347
1271.774702,8586.388927,-5551.544565,1302.362347
1271.775032,8512.368333,-4959.379811,1149.143247
1271.775361,7846.182985,-6217.729913,1302.362347
1271.775691,7698.141797,-5403.503377,689.485948
1271.776020,7476.080014,-5107.421000,612.876398
1271.776349,8290.306550,-4959.379811,919.314598
1271.776679,8216.285956,-5255.462188,612.876398
1271.777008,8216.285956,-6143.709319,766.095498
1271.777338,8068.244768,-4663.297435,689.485948
1271.777667,8142.265362,-4663.297435,0.000000
1271.777997,8808.450710,-4737.318029,536.266849
1271.778326,9770.718434,-4737.318029,153.219100
1271.778656,10288.862594,-5033.400406,612.876398
1271.778985,10140.821405,-4441.235652,1149.143247
1271.779315,9252.574275,-3849.070898,459.657299
1271.779644,9326.594869,-3775.050304,689.485948
1271.779974,9622.677246,-4441.235652,1455.581446
1271.780303,9696.697840,-3701.029710,2145.067394
1271.780633,9844.739029,-3849.070898,2068.457845
1271.780962,9400.615463,-3552.988522,2221.676944
1271.781292,9252.574275,-3627.009116,1608.800546
1271.781621,8956.491898,-3701.029710,1685.410096
1271.781951,8660.409521,-3404.947333,2145.067394
1271.782280,9252.574275,-3330.926739,1072.533697
1271.782610,9474.636058,-3330.926739,995.924147
1271.782939,9474.636058,-3923.091493,0.000000
1271.783269,9252.574275,-4589.276840,0.000000
1271.783598,9178.553681,-5033.400406,229.828649
1271.783928,8882.471304,-5699.585753,-689.485948
1271.784257,8512.368333,-6439.791695,76.609550
1271.784587,8512.368333,-6809.894666,0.000000
1271.784916,8216.285956,-7476.080014,383.047749
1271.785246,7624.121203,-6809.894666,1302.362347
1271.785575,7772.162391,-6587.832884,1762.019645
1271.785905,8142.265362,-6291.750507,2298.286494
1271.786234,8068.244768,-4885.359217,1991.848295
1271.786564,7698.141797,-4071.132681,1762.019645
1271.786893,7846.182985,-3849.070898,1762.019645
1271.787223,8956.491898,-2664.741391,1455.581446
1271.787552,9474.636058,-2590.720797,919.314598
1271.787882,10066.800811,-1998.556043,1455.581446
1271.788211,9474.636058,-1702.473667,612.876398
1271.788541,9992.780217,-3478.967927,0.000000
1271.788870,9696.697840,-4737.318029,0.000000
1271.789200,8882.471304,-6069.688724,536.266849
1271.789529,8438.347739,-7624.121203,995.924147
1271.789859,7772.162391,-8660.409521,1302.362347
1271.790188,6365.771101,-9844.739029,766.095498
1271.790518,4959.379811,-10510.924376,919.314598
1271.790847,4367.215058,-9918.759623,919.314598
1271.791177,4589.276840,-8512.368333,0.000000
1271.791506,4663.297435,-7920.203579,76.609550
1271.791836,5255.462188,-6661.853478,153.219100
1271.792165,6587.832884,-5921.647536,459.657299
1271.792495,7179.997637,-4737.318029,689.485948
1271.792824,7624.121203,-4737.318029,459.657299
1271.793154,8808.450710,-3997.112087,1302.362347
1271.793483,9548.656652,-3701.029710,1149.143247
1271.793813,10140.821405,-3775.050304,1302.362347
1271.794142,10288.862594,-3923.091493,1762.019645
1271.794472,10288.862594,-4959.379811,995.924147
1271.794801,9252.574275,-4885.359217,1532.190996
1271.795131,7476.080014,-6069.688724,1915.238745
1271.795460,6513.812290,-5329.482782,1532.190996
1271.795790,6069.688724,-6439.791695,1455.581446
1271.796119,5773.606348,-7179.997637,1762.019645
1271.796449,5847.626942,-6957.935855,2068.457845
1271.796778,5995.668130,-7031.956449,1072.533697
1271.797108,5551.544565,-6661.853478,842.705048
1271.797437,5477.523971,-6291.750507,0.000000
1271.797767,6661.853478,-6883.915261,-229.828649
1271.798096,7402.059420,-6661.853478,153.219100
1271.798426,7624.121203,-7105.977043,536.266849
1271.798755,7624.121203,-6957.935855,1149.143247
1271.799085,7402.059420,-6661.853478,689.485948
1271.799414,7772.162391,-7254.018232,1455.581446
1271.799744,7772.162391,-6217.729913,2451.505594
1271.800073,8364.327145,-5625.565159,2221.676944
1271.800403,8216.285956,-4737.318029,2298.286494
1271.800732,7920.203579,-4219.173869,2145.067394
1271.801062,7402.059420,-5033.400406,2068.457845
1271.801391,6513.812290,-5033.400406,1455.581446
1271.801721,5181.441594,-6439.791695,1915.238745
1271.802050,5255.462188,-6439.791695,689.485948
1271.802380,5255.462188,-7105.977043,536.266849
1271.802709,6143.709319,-8438.347739,1608.800546
1271.803039,6809.894666,-8216.285956,1225.752797
1271.803368,6661.853478,-7476.080014,459.657299
1271.803698,5699.585753,-7920.203579,0.000000
1271.804027,6439.791695,-7402.059420,229.828649
1271.804357,7105.977043,-7031.956449,1072.533697
1271.804686,7402.059420,-6069.688724,2757.943793
1271.805016,7920.203579,-4959.379811,2145.067394
1271.805345,8068.244768,-4737.318029,1532.190996
1271.805675,7772.162391,-4293.194464,1225.752797
1271.806004,7105.977043,-6069.688724,1225.752797
1271.806334,6883.915261,-6143.709319,995.924147
1271.806663,7031.956449,-5995.668130,0.000000
1271.806993,6587.832884,-8068.244768,995.924147
1271.807322,7254.018232,-7698.141797,1455.581446
1271.807652,7105.977043,-8808.450710,2145.067394
1271.807981,6957.935855,-7772.162391,1378.971896
1271.808311,5995.668130,-7105.977043,1149.143247
1271.808640,5625.565159,-6957.935855,612.876398
1271.808970,5625.565159,-7031.956449,229.828649
1271.809299,5699.585753,-7402.059420,536.266849
1271.809629,6143.709319,-7179.997637,76.609550
1271.809958,6143.709319,-7105.977043,995.924147
1271.810288,6291.750507,-6883.915261,995.924147
1271.810617,7105.977043,-6217.729913,1302.362347
1271.810947,7105.977043,-5847.626942,1685.410096
1271.811276,8068.244768,-4885.359217,1532.190996
1271.811606,8216.285956,-5329.482782,1608.800546
1271.811935,8956.491898,-5255.462188,1455.581446
1271.812264,9474.636058,-5033.400406,766.095498
1271.812594,8216.285956,-5995.668130,919.314598
1271.812923,7624.121203,-5699.585753,612.876398
1271.813252,7402.059420,-6883.915261,1072.533697
1271.813582,7698.141797,-5921.647536,1532.190996
1271.813911,6513.812290,-6883.915261,459.657299
1271.814240,5255.462188,-7698.141797,612.876398
1271.814570,4737.318029,-7920.203579,459.657299
1271.814899,5255.462188,-8956.491898,0.000000
1271.815228,5403.503377,-7476.080014,536.266849
1271.815558,5995.668130,-7920.203579,612.876398
1271.815887,7031.956449,-7920.203579,1149.143247
1271.816216,7476.080014,-6735.874072,1532.190996
1271.816546,7698.141797,-6661.853478,1532.190996
1271.816875,7698.141797,-4959.379811,1532.190996
1271.817204,7698.141797,-4737.318029,919.314598
1271.817534,7550.100608,-5477.523971,459.657299
1271.817863,7179.997637,-4885.359217,459.657299
1271.818192,7476.080014,-5773.606348,842.705048
1271.818522,8142.265362,-5699.585753,612.876398
1271.818851,7550.100608,-6809.894666,1378.971896
1271.819180,7105.977043,-7105.977043,1225.752797
1271.819510,6439.791695,-7476.080014,995.924147
1271.819839,6291.750507,-7698.141797,1915.238745
1271.820168,6143.709319,-7179.997637,842.705048
1271.820498,6291.750507,-7328.038826,1149.143247
1271.820827,6661.853478,-7328.038826,919.314598
1271.821156,6883.915261,-7105.977043,536.266849
1271.821486,6587.832884,-6883.915261,612.876398
1271.821815,6217.729913,-7328.038826,459.657299
1271.822144,6809.894666,-6957.935855,919.314598
1271.822474,7105.977043,-6069.688724,1608.800546
1271.822803,7476.080014,-4737.318029,1302.362347
1271.823132,7105.977043,-4737.318029,1608.800546
1271.823462,7994.224174,-4071.132681,1838.629195
1271.823791,9030.512492,-4589.276840,1455.581446
1271.824120,9474.636058,-4663.297435,1838.629195
1271.824450,8512.368333,-4959.379811,1532.190996
1271.824779,7994.224174,-6365.771101,1072.533697
1271.825108,6957.935855,-6809.894666,153.219100
1271.825438,6143.709319,-7846.182985,919.314598
1271.825767,6217.729913,-8660.409521,1455.581446
1271.826096,5255.462188,-8216.285956,1455.581446
1271.826426,4441.235652,-8586.388927,0.000000
1271.826755,4145.153275,-8586.388927,-229.828649
1271.827084,4219.173869,-7328.038826,-766.095498
1271.827414,5773.606348,-7105.977043,-306.438199
1271.827743,6365.771101,-6957.935855,612.876398
1271.828072,7476.080014,-6217.729913,1072.533697
1271.828402,8216.285956,-5403.503377,1149.143247
1271.828731,8216.285956,-5329.482782,1915.238745
1271.829060,7846.182985,-4737.318029,2374.896044
1271.829390,9474.636058,-4367.215058,1685.410096
1271.829719,9696.697840,-4663.297435,1608.800546
1271.830048,9178.553681,-5033.400406,1532.190996
1271.830378,8808.450710,-6587.832884,1302.362347
1271.830707,7328.038826,-7328.038826,1455.581446
1271.831036,6365.771101,-7402.059420,383.047749
1271.831366,5033.400406,-7994.224174,766.095498
1271.831695,5329.482782,-7105.977043,1072.533697
1271.832024,5551.544565,-7624.121203,766.095498
1271.832354,5107.421000,-7550.100608,766.095498
1271.832683,5033.400406,-7846.182985,306.438199
1271.833012,5773.606348,-6957.935855,0.000000
1271.833341,5921.647536,-6883.915261,306.438199
1271.833671,6587.832884,-7476.080014,536.266849
1271.834000,7328.038826,-7476.080014,1225.752797
1271.834329,7920.203579,-6661.853478,1532.190996
1271.834659,7920.203579,-6069.688724,1302.362347
1271.834988,8142.265362,-4367.215058,1149.143247
1271.835317,8734.430116,-4811.338623,1532.190996
1271.835647,9178.553681,-5403.503377,1608.800546
1271.835976,8586.388927,-4885.359217,1149.143247
1271.836305,8216.285956,-5107.421000,1225.752797
1271.836635,8068.244768,-6069.688724,1685.410096
1271.836964,7031.956449,-6883.915261,1302.362347
1271.837293,4885.359217,-7105.977043,842.705048
1271.837623,4441.235652,-7846.182985,919.314598
1271.837952,4737.318029,-7698.141797,919.314598
1271.838281,5255.462188,-7254.018232,459.657299
1271.838611,5625.565159,-7698.141797,383.047749
1271.838940,6291.750507,-7254.018232,689.485948
1271.839269,6661.853478,-7105.977043,536.266849
1271.839599,6809.894666,-6513.812290,919.314598
1271.839928,7105.977043,-6217.729913,1225.752797
1271.840257,8142.265362,-6291.750507,1378.971896
1271.840587,8438.347739,-5255.462188,1838.629195
1271.840916,8142.265362,-5033.400406,1532.190996
1271.841245,8438.347739,-4737.318029,1225.752797
1271.841575,8586.388927,-5477.523971,1149.143247
1271.841904,8068.244768,-6069.688724,766.095498
1271.842233,7402.059420,-7031.956449,919.314598
1271.842563,7254.018232,-6883.915261,536.266849
1271.842892,6735.874072,-7328.038826,1532.190996
1271.843221,7179.997637,-7476.080014,2221.676944
1271.843551,6809.894666,-6587.832884,1685.410096
1271.843880,6513.812290,-6957.935855,995.924147
1271.844209,6143.709319,-7105.977043,383.047749
1271.844539,5033.400406,-7105.977043,0.000000
1271.844868,5551.544565,-7846.182985,0.000000
1271.845197,6291.750507,-7550.100608,383.047749
1271.845527,6513.812290,-7624.121203,1991.848295
1271.845856,6587.832884,-7476.080014,1455.581446
1271.846185,6587.832884,-5773.606348,1915.238745
1271.846515,7402.059420,-4293.194464,1838.629195
1271.846844,8142.265362,-4219.173869,1762.019645
1271.847173,8808.450710,-4145.153275,1991.848295
1271.847503,8586.388927,-4515.256246,995.924147
1271.847832,8364.327145,-4737.318029,842.705048
1271.848161,7624.121203,-5847.626942,536.266849
1271.848491,7179.997637,-7476.080014,536.266849
1271.848820,7105.977043,-8216.285956,1455.581446
1271.849149,6439.791695,-8290.306550,1302.362347
1271.849479,5329.482782,-8512.368333,536.266849
1271.849808,4737.318029,-8586.388927,153.219100
1271.850137,4515.256246,-8586.388927,-306.438199
1271.850467,4589.276840,-8068.244768,-229.828649
1271.850796,4959.379811,-8068.244768,0.000000
1271.851125,5995.668130,-7846.182985,536.266849
1271.851455,7328.038826,-6809.894666,1685.410096
1271.851784,7550.100608,-5477.523971,2221.676944
1271.852113,7994.224174,-4515.256246,2374.896044
1271.852443,8660.409521,-3775.050304,2374.896044
1271.852772,9030.512492,-3256.906145,1685.410096
1271.853101,9030.512492,-3552.988522,766.095498
1271.853430,8512.368333,-5107.421000,689.485948
1271.853760,7994.224174,-6069.688724,536.266849
1271.854089,7772.162391,-7698.141797,459.657299
1271.854418,7772.162391,-8216.285956,1225.752797
1271.854748,7254.018232,-8956.491898,1762.019645
1271.855077,6661.853478,-8808.450710,1378.971896
1271.855406,5329.482782,-7846.182985,1225.752797
1271.855736,5107.421000,-7179.997637,229.828649
1271.856065,4885.359217,-6587.832884,612.876398
1271.856394,5255.462188,-6439.791695,-842.705048
1271.856724,5329.482782,-7105.977043,-536.266849
1271.857053,6069.688724,-7550.100608,383.047749
1271.857382,7031.956449,-7624.121203,919.314598
1271.857712,7772.162391,-6069.688724,1762.019645
1271.858041,7920.203579,-5329.482782,1608.800546
1271.858370,8364.327145,-4885.359217,1762.019645
1271.858700,8882.471304,-4663.297435,1532.190996
1271.859029,8808.450710,-4663.297435,1532.190996
1271.859358,8882.471304,-4441.235652,1302.362347
1271.859688,8956.491898,-5107.421000,1072.533697
1271.860017,8290.306550,-6439.791695,1225.752797
1271.860346,7179.997637,-6957.935855,1532.190996
1271.860676,6661.853478,-7105.977043,2451.505594
1271.861005,5921.647536,-7031.956449,1378.971896
1271.861334,4663.297435,-6661.853478,229.828649
1271.861664,3997.112087,-7105.977043,0.000000
1271.861993,4219.173869,-7624.121203,76.609550
1271.862322,4737.318029,-7698.141797,76.609550
1271.862652,6365.771101,-7179.997637,459.657299
1271.862981,7179.997637,-7402.059420,919.314598
1271.863310,8290.306550,-6365.771101,1455.581446
1271.863640,8290.306550,-6365.771101,2374.896044
1271.863969,7698.141797,-6587.832884,1378.971896
1271.864298,7328.038826,-5329.482782,1072.533697
1271.864628,7179.997637,-5477.523971,612.876398
1271.864957,7328.038826,-5181.441594,536.266849
1271.865286,7328.038826,-5699.585753,1302.362347
1271.865616,7994.224174,-6957.935855,1455.581446
1271.865945,8142.265362,-6291.750507,1532.190996
1271.866274,7772.162391,-6735.874072,1685.410096
1271.866604,7328.038826,-7105.977043,2604.724693
1271.866933,6883.915261,-6661.853478,1915.238745
1271.867262,5847.626942,-6883.915261,1455.581446
1271.867592,4885.359217,-7031.956449,306.438199
1271.867921,4663.297435,-7179.997637,0.000000
1271.868250,5403.503377,-6735.874072,153.219100
1271.868580,6365.771101,-8142.265362,229.828649
1271.868909,6587.832884,-7846.182985,842.705048
1271.869238,6365.771101,-7846.182985,1378.971896
1271.869568,6735.874072,-7105.977043,1455.581446
1271.869897,6957.935855,-4885.359217,1991.848295
1271.870226,7105.977043,-4737.318029,1072.533697
1271.870556,8364.327145,-3701.029710,1455.581446
1271.870885,8956.491898,-3552.988522,1225.752797
1271.871214,9400.615463,-4737.318029,995.924147
1271.871544,9474.636058,-5255.462188,1608.800546
1271.871873,9474.636058,-5847.626942,1838.629195
1271.872202,8142.265362,-6661.853478,1838.629195
1271.872532,6365.771101,-7328.038826,1455.581446
1271.872861,5107.421000,-7920.203579,1455.581446
1271.873190,4589.276840,-7994.224174,306.438199
1271.873520,3701.029710,-8068.244768,0.000000
1271.873849,3997.112087,-7994.224174,0.000000
1271.874178,4589.276840,-8438.347739,0.000000
1271.874507,5255.462188,-8142.265362,0.000000
1271.874837,6217.729913,-8364.327145,919.314598
1271.875166,7328.038826,-7031.956449,1685.410096
1271.875495,7550.100608,-5921.647536,1455.581446
1271.875825,7105.977043,-5329.482782,1455.581446
1271.876154,7624.121203,-5033.400406,1378.971896
1271.876483,8142.265362,-4959.379811,1072.533697
1271.876813,8882.471304,-4885.359217,1149.143247
1271.877142,8438.347739,-5033.400406,2068.457845
1271.877471,9326.594869,-5551.544565,1991.848295
1271.877801,8808.450710,-6661.853478,1838.629195
1271.878130,7550.100608,-6735.874072,1225.752797
1271.878459,6439.791695,-7105.977043,995.924147
1271.878789,6661.853478,-7402.059420,995.924147
1271.879118,5847.626942,-7550.100608,536.266849
1271.879447,4737.318029,-7105.977043,0.000000
1271.879777,4589.276840,-7031.956449,-229.828649
1271.880106,5699.585753,-7994.224174,0.000000
1271.880435,6883.915261,-8512.368333,689.485948
1271.880765,6661.853478,-7179.997637,995.924147
1271.881094,7105.977043,-6143.709319,842.705048
1271.881423,7254.018232,-6217.729913,1532.190996
1271.881753,7402.059420,-5255.462188,1685.410096
1271.882082,7550.100608,-4515.256246,1072.533697
1271.882411,8586.388927,-3775.050304,1762.019645
1271.882741,8956.491898,-3923.091493,1149.143247
1271.883070,8882.471304,-4885.359217,1762.019645
1271.883399,8882.471304,-5181.441594,1991.848295
1271.883729,7772.162391,-6513.812290,1302.362347
1271.884058,7254.018232,-7105.977043,1149.143247
1271.884387,5773.606348,-7624.121203,766.095498
1271.884717,4885.359217,-8882.471304,766.095498
1271.885046,4589.276840,-8956.491898,306.438199
1271.885375,4367.215058,-8438.347739,-229.828649
1271.885705,4959.379811,-7698.141797,0.000000
1271.886034,6143.709319,-7476.080014,306.438199
1271.886363,7328.038826,-7624.121203,1072.533697
1271.886693,7476.080014,-6069.688724,1455.581446
1271.887022,7698.141797,-5403.503377,1149.143247
1271.887351,8438.347739,-4811.338623,1455.581446
1271.887681,8364.327145,-4737.318029,1685.410096
1271.888010,8438.347739,-4589.276840,995.924147
1271.888339,7994.224174,-5107.421000,995.924147
1271.888669,7772.162391,-6069.688724,766.095498
1271.888998,7920.203579,-6661.853478,995.924147
1271.889327,7920.203579,-7402.059420,1838.629195
1271.889657,7846.182985,-8438.347739,1685.410096
1271.889986,6883.915261,-7772.162391,1149.143247
1271.890315,5995.668130,-7698.141797,1072.533697
1271.890645,5625.565159,-6883.915261,1225.752797
1271.890974,6143.709319,-6809.894666,1072.533697
1271.891303,5699.585753,-6735.874072,306.438199
1271.891633,5255.462188,-6661.853478,76.609550
1271.891962,5329.482782,-7476.080014,0.000000
1271.892291,6069.688724,-7402.059420,459.657299
1271.892621,7031.956449,-7179.997637,612.876398
1271.892950,6957.935855,-6735.874072,1072.533697
1271.893279,7105.977043,-6291.750507,1608.800546
1271.893609,7105.977043,-5847.626942,1378.971896
1271.893938,7772.162391,-4811.338623,1762.019645
1271.894267,8956.491898,-4589.276840,1915.238745
1271.894597,9770.718434,-4219.173869,1838.629195
1271.894926,9400.615463,-4515.256246,1685.410096
1271.895255,8882.471304,-5107.421000,1455.581446
1271.895584,8882.471304,-5625.565159,1455.581446
1271.895914,7105.977043,-6587.832884,1302.362347
1271.896243,5847.626942,-6957.935855,1378.971896
1271.896572,4589.276840,-7772.162391,995.924147
1271.896902,4441.235652,-8068.244768,689.485948
1271.897231,4441.235652,-8216.285956,-229.828649
1271.897560,4811.338623,-7920.203579,-229.828649
1271.897890,5403.503377,-7698.141797,229.828649
1271.898219,6513.812290,-8142.265362,689.485948
1271.898548,7698.141797,-7179.997637,1072.533697
1271.898878,7254.018232,-6069.688724,919.314598
1271.899207,7328.038826,-5921.647536,689.485948
1271.899536,7624.121203,-5477.523971,1685.410096
1271.899866,8438.347739,-4737.318029,1455.581446
1271.900195,8808.450710,-4737.318029,1991.848295
1271.900524,9030.512492,-4441.235652,1838.629195
1271.900854,8808.450710,-5107.421000,919.314598
1271.901183,8290.306550,-6291.750507,1225.752797
1271.901512,7476.080014,-6513.812290,1838.629195
1271.901842,7254.018232,-7105.977043,1608.800546
1271.902171,6217.729913,-7476.080014,1378.971896
1271.902500,5551.544565,-7994.224174,766.095498
1271.902830,5033.400406,-7846.182985,153.219100
1271.903159,5033.400406,-7698.141797,306.438199
1271.903488,5107.421000,-8290.306550,76.609550
1271.903818,5625.565159,-8660.409521,306.438199
1271.904147,5847.626942,-8808.450710,689.485948
1271.904476,5699.585753,-7698.141797,612.876398
1271.904806,6069.688724,-6809.894666,919.314598
1271.905135,6883.915261,-6069.688724,1838.629195
1271.905464,7476.080014,-4885.359217,1915.238745
1271.905794,8808.450710,-3182.885551,1455.581446
1271.906123,9696.697840,-3108.864956,1685.410096
1271.906452,10510.924376,-3330.926739,1991.848295
1271.906782,9622.677246,-4515.256246,1378.971896
1271.907111,8734.430116,-5477.523971,842.705048
1271.907440,7624.121203,-6809.894666,766.095498
1271.907770,7031.956449,-7846.182985,995.924147
1271.908099,6069.688724,-8734.430116,919.314598
1271.908428,4811.338623,-8808.450710,689.485948
1271.908758,3849.070898,-8660.409521,306.438199
1271.909087,3775.050304,-8438.347739,536.266849
1271.909416,4737.318029,-7994.224174,0.000000
1271.909746,5255.462188,-8142.265362,306.438199
1271.910075,5921.647536,-7402.059420,383.047749
1271.910404,6809.894666,-6143.709319,689.485948
1271.910734,7920.203579,-5255.462188,1915.238745
1271.911063,8438.347739,-4737.318029,2145.067394
1271.911392,9178.553681,-4071.132681,2451.505594
1271.911722,8956.491898,-3627.009116,1838.629195
1271.912051,9104.533087,-4589.276840,1225.752797
1271.912380,8216.285956,-5921.647536,1225.752797
1271.912710,8142.265362,-6587.832884,1072.533697
1271.913039,7846.182985,-7624.121203,842.705048
1271.913368,7031.956449,-7328.038826,1072.533697
1271.913698,6513.812290,-8142.265362,1532.190996
1271.914027,6291.750507,-8290.306550,1532.190996
1271.914356,6069.688724,-7550.100608,1149.143247
1271.914685,5107.421000,-7846.182985,153.219100
1271.915014,4737.318029,-7105.977043,0.000000
1271.915343,5477.523971,-7624.121203,153.219100
1271.915673,5699.585753,-8290.306550,0.000000
1271.916002,6143.709319,-7550.100608,306.438199
1271.916331,6587.832884,-6883.915261,766.095498
1271.916660,7328.038826,-6143.709319,689.485948
1271.916989,8290.306550,-5551.544565,1915.238745
1271.917318,8586.388927,-4663.297435,2221.676944
1271.917647,9030.512492,-4219.173869,2681.334243
1271.917977,9104.533087,-3404.947333,1608.800546
1271.918306,8438.347739,-4145.153275,1915.238745
1271.918635,8364.327145,-5181.441594,1685.410096
1271.918964,8512.368333,-6661.853478,1532.190996
1271.919293,7254.018232,-7328.038826,995.924147
1271.919622,5033.400406,-7179.997637,612.876398
1271.919952,4663.297435,-7994.224174,1225.752797
1271.920281,4737.318029,-7846.182985,0.000000
1271.920610,4367.215058,-7698.141797,76.609550
1271.920939,4737.318029,-8068.244768,0.000000
1271.921268,6291.750507,-7402.059420,0.000000
1271.921597,7105.977043,-7476.080014,383.047749
1271.921926,7328.038826,-7476.080014,919.314598
1271.922256,7624.121203,-6143.709319,1378.971896
1271.922585,7994.224174,-5773.606348,1608.800546
1271.922914,7846.182985,-4959.379811,1608.800546
1271.923243,8290.306550,-4737.318029,2145.067394
1271.923572,9178.553681,-4219.173869,1532.190996
1271.923901,8734.430116,-4737.318029,995.924147
1271.924230,8142.265362,-5033.400406,1149.143247
1271.924560,7402.059420,-6069.688724,1072.533697
1271.924889,7846.182985,-7179.997637,1225.752797
1271.925218,7105.977043,-7328.038826,1838.629195
1271.925547,6069.688724,-7920.203579,1455.581446
1271.925876,5773.606348,-7698.141797,766.095498
1271.926205,5107.421000,-7624.121203,842.705048
1271.926534,4737.318029,-7698.141797,-306.438199
1271.926864,4737.318029,-7846.182985,0.000000
1271.927193,5551.544565,-9104.533087,-229.828649
1271.927522,6587.832884,-8956.491898,306.438199
1271.927851,6513.812290,-7402.059420,612.876398
1271.928180,6735.874072,-6735.874072,383.047749
1271.928509,7624.121203,-5995.668130,1532.190996
1271.928838,8438.347739,-4737.318029,2068.457845
1271.929168,8512.368333,-4959.379811,1685.410096
1271.929497,8068.244768,-3997.112087,1762.019645
1271.929826,8364.327145,-3775.050304,995.924147
1271.930155,8734.430116,-4071.132681,842.705048
1271.930484,8660.409521,-5107.421000,1225.752797
1271.930813,8290.306550,-6957.935855,1455.581446
1271.931143,7402.059420,-7402.059420,1532.190996
1271.931472,5921.647536,-7402.059420,1225.752797
1271.931801,4737.318029,-7994.224174,1455.581446
1271.932130,4663.297435,-8290.306550,0.000000
1271.932459,4367.215058,-8364.327145,0.000000
1271.932788,4441.235652,-8216.285956,0.000000
1271.933117,5847.626942,-7698.141797,612.876398
1271.933447,6735.874072,-6365.771101,1455.581446
1271.933776,7328.038826,-6587.832884,1072.533697
1271.934105,7328.038826,-5625.565159,1302.362347
1271.934434,7402.059420,-5329.482782,995.924147
1271.934763,7402.059420,-5255.462188,459.657299
1271.935092,7328.038826,-4589.276840,1685.410096
1271.935421,7920.203579,-5847.626942,919.314598
1271.935751,8290.306550,-5329.482782,1302.362347
1271.936080,8808.450710,-5847.626942,1455.581446
1271.936409,8734.430116,-7254.018232,1302.362347
1271.936738,8734.430116,-7179.997637,1838.629195
1271.937067,7846.182985,-7031.956449,1532.190996
1271.937396,6587.832884,-7179.997637,1378.971896
1271.937725,5625.565159,-6957.935855,995.924147
1271.938055,5699.585753,-7476.080014,536.266849
1271.938384,4959.379811,-7254.018232,459.657299
1271.938713,4737.318029,-6883.915261,306.438199
1271.939042,4959.379811,-7105.977043,0.000000
1271.939371,6069.688724,-7254.018232,995.924147
1271.939700,6365.771101,-7254.018232,995.924147
1271.940030,6661.853478,-6883.915261,1378.971896
1271.940359,7031.956449,-5699.585753,1608.800546
1271.940688,7624.121203,-4811.338623,1685.410096
1271.941017,8512.368333,-4441.235652,1685.410096
1271.941346,8808.450710,-5255.462188,2068.457845
1271.941675,9400.615463,-5329.482782,1762.019645
1271.942004,8734.430116,-5329.482782,766.095498
1271.942334,7772.162391,-5699.585753,1455.581446
1271.942663,7624.121203,-6587.832884,1225.752797
1271.942992,7179.997637,-6809.894666,1225.752797
1271.943321,5847.626942,-7846.182985,1608.800546
1271.943650,4737.318029,-8068.244768,306.438199
1271.943979,3775.050304,-7402.059420,-536.266849
1271.944308,4071.132681,-7698.141797,-689.485948
1271.944638,4589.276840,-8364.327145,-153.219100
1271.944967,5625.565159,-8364.327145,459.657299
1271.945296,6735.874072,-7402.059420,766.095498
1271.945625,7550.100608,-6587.832884,1378.971896
1271.945954,8216.285956,-5107.421000,1532.190996
1271.946283,8512.368333,-4441.235652,1762.019645
1271.946612,8586.388927,-5107.421000,1685.410096
1271.946942,8364.327145,-4515.256246,1915.238745
1271.947271,8290.306550,-5107.421000,1455.581446
1271.947600,7920.203579,-5255.462188,1149.143247
1271.947929,7920.203579,-5699.585753,1225.752797
1271.948258,7846.182985,-6809.894666,919.314598
1271.948587,7550.100608,-6439.791695,1302.362347
1271.948916,6735.874072,-7105.977043,1378.971896
1271.949246,6217.729913,-7476.080014,919.314598
1271.949575,5625.565159,-7402.059420,612.876398
1271.949904,5181.441594,-7994.224174,0.000000
1271.950233,5255.462188,-7994.224174,0.000000
1271.950562,5403.503377,-8216.285956,306.438199
1271.950891,6513.812290,-8142.265362,229.828649
1271.951221,7179.997637,-7476.080014,612.876398
1271.951550,7772.162391,-6291.750507,1532.190996
1271.951879,8216.285956,-6143.709319,1378.971896
1271.952208,7846.182985,-5255.462188,1915.238745
1271.952537,8068.244768,-5255.462188,1455.581446
1271.952866,7846.182985,-4441.235652,1532.190996
1271.953195,8068.244768,-3701.029710,1149.143247
1271.953525,8512.368333,-4737.318029,1225.752797
1271.953854,9548.656652,-5181.441594,1762.019645
1271.954183,9326.594869,-6513.812290,1991.848295
1271.954512,7105.977043,-6365.771101,2068.457845
1271.954841,6217.729913,-7105.977043,1072.533697
1271.955170,5033.400406,-7402.059420,766.095498
1271.955499,4737.318029,-8364.327145,536.266849
1271.955829,4367.215058,-8660.409521,229.828649
1271.956158,4367.215058,-7328.038826,153.219100
1271.956487,5255.462188,-7698.141797,0.000000
1271.956816,6513.812290,-7328.038826,995.924147
1271.957145,7698.141797,-7031.956449,1532.190996
1271.957474,7624.121203,-6069.688724,1225.752797
1271.957803,7476.080014,-5403.503377,1455.581446
1271.958133,7179.997637,-5477.523971,919.314598
1271.958462,7994.224174,-4885.359217,1685.410096
1271.958791,8586.388927,-4737.318029,1302.362347
1271.959120,8364.327145,-5255.462188,1838.629195
1271.959449,7698.141797,-5551.544565,1225.752797
1271.959778,7254.018232,-6809.894666,842.705048
1271.960108,7328.038826,-7254.018232,1378.971896
1271.960437,7254.018232,-7105.977043,1685.410096
1271.960766,6735.874072,-6291.750507,1532.190996
1271.961095,6143.709319,-6587.832884,1378.971896
1271.961424,5699.585753,-7254.018232,1532.190996
1271.961753,5477.523971,-7402.059420,842.705048
1271.962082,5107.421000,-7402.059420,689.485948
1271.962412,5847.626942,-7698.141797,383.047749
1271.962741,6661.853478,-7476.080014,306.438199
1271.963070,6957.935855,-6735.874072,1149.143247
1271.963399,7179.997637,-6439.791695,612.876398
1271.963728,6883.915261,-5995.668130,1455.581446
1271.964057,7328.038826,-5107.421000,1072.533697
1271.964386,7476.080014,-5921.647536,1302.362347
1271.964716,8290.306550,-5477.523971,1838.629195
1271.965045,8808.450710,-5329.482782,1685.410096
1271.965374,8512.368333,-5477.523971,1532.190996
1271.965703,7698.141797,-5995.668130,1455.581446
1271.966032,7772.162391,-6587.832884,1072.533697
1271.966361,7105.977043,-7031.956449,919.314598
1271.966690,6809.894666,-7920.203579,1685.410096
1271.967020,5255.462188,-8364.327145,919.314598
1271.967349,4885.359217,-7254.018232,306.438199
1271.967678,5033.400406,-7772.162391,-153.219100
1271.968007,4885.359217,-7550.100608,229.828649
1271.968336,6291.750507,-6883.915261,153.219100
1271.968665,6957.935855,-6957.935855,842.705048
1271.968994,7031.956449,-6291.750507,919.314598
1271.969324,7105.977043,-6291.750507,1225.752797
1271.969653,7328.038826,-5921.647536,1685.410096
1271.969982,7624.121203,-5625.565159,689.485948
1271.970311,7105.977043,-5329.482782,1608.800546
1271.970640,7402.059420,-5255.462188,1225.752797
1271.970969,8290.306550,-5181.441594,306.438199
1271.971299,8216.285956,-4885.359217,995.924147
1271.971628,7920.203579,-7031.956449,1455.581446
1271.971957,8438.347739,-6957.935855,1302.362347
1271.972286,7772.162391,-6587.832884,1302.362347
1271.972615,6809.894666,-7476.080014,1302.362347
1271.972944,6513.812290,-6587.832884,1991.848295
1271.973273,5699.585753,-7328.038826,766.095498
1271.973603,4959.379811,-7328.038826,0.000000
1271.973932,4959.379811,-6587.832884,153.219100
1271.974261,6069.688724,-6513.812290,306.438199
1271.974590,6957.935855,-7698.141797,536.266849
1271.974919,6809.894666,-7476.080014,1072.533697
1271.975248,6365.771101,-7031.956449,842.705048
1271.975577,6513.812290,-6217.729913,1072.533697
1271.975907,6957.935855,-5847.626942,1838.629195
1271.976236,7328.038826,-5995.668130,1378.971896
1271.976565,7920.203579,-5625.565159,1532.190996
1271.976894,8364.327145,-5255.462188,1378.971896
1271.977223,8290.306550,-5255.462188,1532.190996
1271.977552,8586.388927,-5921.647536,1608.800546
1271.977881,8586.388927,-5921.647536,1685.410096
1271.978211,7402.059420,-6439.791695,766.095498
1271.978540,6365.771101,-6735.874072,1532.190996
1271.978869,5699.585753,-6587.832884,1455.581446
1271.979198,5033.400406,-7254.018232,766.095498
1271.979527,5107.421000,-7105.977043,153.219100
1271.979856,5107.421000,-7476.080014,0.000000
1271.980186,6217.729913,-7328.038826,766.095498
1271.980515,7402.059420,-7105.977043,383.047749
1271.980844,7328.038826,-6513.812290,995.924147
1271.981173,7254.018232,-6217.729913,919.314598
1271.981502,7550.100608,-5477.523971,1455.581446
1271.981831,8216.285956,-5625.565159,1991.848295
1271.982160,8142.265362,-5773.606348,1685.410096
1271.982490,7624.121203,-5477.523971,1378.971896
1271.982819,7920.203579,-5181.441594,842.705048
1271.983148,7920.203579,-5699.585753,766.095498
1271.983477,8512.368333,-6661.853478,1455.581446
1271.983806,7846.182985,-7105.977043,1455.581446
1271.984135,6809.894666,-7550.100608,1378.971896
1271.984464,5773.606348,-7550.100608,1302.362347
1271.984794,4737.318029,-7698.141797,842.705048
1271.985123,4737.318029,-7772.162391,76.609550
1271.985452,5181.441594,-8068.244768,153.219100
1271.985781,5551.544565,-7402.059420,306.438199
1271.986110,5921.647536,-7476.080014,0.000000
1271.986439,6735.874072,-7698.141797,1225.752797
1271.986768,6957.935855,-6735.874072,689.485948
1271.987098,6883.915261,-7105.977043,689.485948
1271.987427,6883.915261,-6809.894666,1455.581446
1271.987756,7254.018232,-6365.771101,2145.067394
1271.988085,7994.224174,-5107.421000,1302.362347
1271.988414,8290.306550,-4515.256246,919.314598
1271.988743,8808.450710,-5255.462188,1378.971896
1271.989072,8956.491898,-5551.544565,1532.190996
1271.989402,8660.409521,-5255.462188,1762.019645
1271.989731,8216.285956,-5699.585753,1532.190996
1271.990060,7179.997637,-6587.832884,1455.581446
1271.990389,6365.771101,-7179.997637,1991.848295
1271.990718,5625.565159,-7402.059420,1302.362347
1271.991047,5181.441594,-7476.080014,689.485948
1271.991377,4959.379811,-6661.853478,229.828649
1271.991706,5551.544565,-7328.038826,-76.609550
1271.992035,5921.647536,-7772.162391,459.657299
1271.992364,6957.935855,-7698.141797,612.876398
1271.992693,7254.018232,-6883.915261,689.485948
1271.993022,7105.977043,-5995.668130,1072.533697
1271.993351,7105.977043,-6069.688724,919.314598
1271.993681,7328.038826,-5921.647536,1072.533697
1271.994010,8290.306550,-5921.647536,2145.067394
1271.994339,8586.388927,-5255.462188,1685.410096
1271.994668,8734.430116,-5329.482782,1838.629195
1271.994997,8808.450710,-5625.565159,1225.752797
1271.995326,8660.409521,-6365.771101,1225.752797
1271.995655,7402.059420,-6809.894666,1532.190996
1271.995985,6365.771101,-7105.977043,1302.362347
1271.996314,6143.709319,-7402.059420,1455.581446
1271.996643,5625.565159,-7328.038826,1149.143247
1271.996972,5477.523971,-7846.182985,612.876398
1271.997301,5181.441594,-7920.203579,0.000000
1271.997630,4885.359217,-7550.100608,76.609550
1271.997959,5847.626942,-8290.306550,0.000000
1271.998289,6365.771101,-7772.162391,842.705048
1271.998618,6957.935855,-6809.894666,995.924147
1271.998947,6513.812290,-6439.791695,689.485948
1271.999276,6217.729913,-6143.709319,1072.533697
1271.999605,6809.894666,-5921.647536,1302.362347
1271.999934,8216.285956,-4885.359217,842.705048
1272.000264,8808.450710,-4367.215058,1608.800546
1272.000593,9400.615463,-4145.153275,1532.190996
1272.000922,9548.656652,-4811.338623,1685.410096
1272.001251,9400.615463,-5625.565159,1685.410096
1272.001580,8734.430116,-6587.832884,1685.410096
1272.001909,7179.997637,-6957.935855,2068.457845
1272.002238,6291.750507,-7179.997637,689.485948
1272.002568,5033.400406,-8438.347739,689.485948
1272.002897,4663.297435,-7994.224174,689.485948
1272.003226,4811.338623,-7624.121203,0.000000
1272.003555,5847.626942,-7402.059420,229.828649
1272.003884,6513.812290,-7031.956449,689.485948
1272.004213,6661.853478,-7105.977043,1149.143247
1272.004542,7105.977043,-6217.729913,1378.971896
1272.004872,6587.832884,-5773.606348,1302.362347
1272.005201,6957.935855,-5551.544565,1608.800546
1272.005530,7550.100608,-5477.523971,1532.190996
1272.005859,8142.265362,-5033.400406,1685.410096
1272.006188,8290.306550,-4811.338623,1608.800546
1272.006517,8364.327145,-5921.647536,1608.800546
1272.006846,8512.368333,-6513.812290,1685.410096
1272.007176,7920.203579,-7179.997637,1225.752797
1272.007505,7328.038826,-7105.977043,1532.190996
1272.007834,6735.874072,-7402.059420,766.095498
1272.008163,5995.668130,-7624.121203,1225.752797
1272.008492,5477.523971,-7698.141797,842.705048
1272.008821,5181.441594,-7476.080014,229.828649
1272.009150,5033.400406,-6957.935855,612.876398
1272.009480,5255.462188,-7328.038826,-153.219100
1272.009809,5699.585753,-7698.141797,383.047749
1272.010138,6365.771101,-7624.121203,842.705048
1272.010467,7105.977043,-6883.915261,919.314598
1272.010796,7105.977043,-6217.729913,1225.752797
1272.011125,7179.997637,-5329.482782,919.314598
1272.011455,8142.265362,-5329.482782,1838.629195
1272.011784,8734.430116,-4737.318029,1838.629195
1272.012113,9252.574275,-4811.338623,2068.457845
1272.012442,8882.471304,-5107.421000,1378.971896
1272.012771,8586.388927,-5477.523971,1149.143247
1272.013100,8290.306550,-6587.832884,1378.971896
1272.013429,7328.038826,-6883.915261,1149.143247
1272.013758,5847.626942,-7105.977043,689.485948
1272.014087,4737.318029,-7254.018232,383.047749
1272.014416,4737.318029,-7846.182985,229.828649
1272.014745,5255.462188,-7624.121203,306.438199
1272.015074,5255.462188,-7772.162391,153.219100
1272.015403,6143.709319,-7550.100608,306.438199
1272.015733,6957.935855,-6883.915261,842.705048
1272.016062,7179.997637,-7031.956449,612.876398
1272.016391,7624.121203,-6513.812290,1378.971896
1272.016720,7624.121203,-5625.565159,1762.019645
1272.017049,7920.203579,-5995.668130,1685.410096
1272.017378,7772.162391,-4737.318029,1302.362347
1272.017707,7772.162391,-5033.400406,995.924147
1272.018036,8438.347739,-5329.482782,1455.581446
1272.018365,8660.409521,-5847.626942,1225.752797
1272.018694,7994.224174,-5847.626942,919.314598
1272.019023,8142.265362,-6587.832884,1378.971896
1272.019352,7402.059420,-7105.977043,1608.800546
1272.019681,6809.894666,-7254.018232,1838.629195
1272.020010,5847.626942,-7550.100608,1378.971896
1272.020339,5181.441594,-7698.141797,842.705048
1272.020668,4959.379811,-7846.182985,-153.219100
1272.020997,4515.256246,-8364.327145,0.000000
1272.021326,5181.441594,-8734.430116,0.000000
1272.021655,5921.647536,-8438.347739,153.219100
1272.021984,6365.771101,-7476.080014,459.657299
1272.022313,6513.812290,-7105.977043,459.657299
1272.022642,7105.977043,-5847.626942,1608.800546
1272.022971,7328.038826,-5403.503377,1455.581446
1272.023301,7920.203579,-5181.441594,1302.362347
1272.023630,8586.388927,-4219.173869,1532.190996
1272.023959,9326.594869,-4441.235652,995.924147
1272.024288,9474.636058,-4959.379811,1915.238745
1272.024617,8734.430116,-5625.565159,1608.800546
1272.024946,8290.306550,-5921.647536,1685.410096
1272.025275,7402.059420,-6661.853478,1762.019645
1272.025604,6735.874072,-7179.997637,1608.800546
1272.025933,5181.441594,-7550.100608,1072.533697
1272.026262,3923.091493,-7920.203579,76.609550
1272.026591,3627.009116,-8216.285956,-229.828649
1272.026920,4293.194464,-7994.224174,-229.828649
1272.027249,5403.503377,-7994.224174,536.266849
1272.027578,6661.853478,-7476.080014,1149.143247
1272.027907,7550.100608,-7105.977043,1455.581446
1272.028236,7698.141797,-5921.647536,1608.800546
1272.028565,7698.141797,-4959.379811,1608.800546
1272.028894,8216.285956,-4959.379811,1378.971896
1272.029223,8142.265362,-4515.256246,1225.752797
1272.029552,8882.471304,-4515.256246,1072.533697
1272.029881,9030.512492,-4811.338623,1455.581446
1272.030210,8808.450710,-5329.482782,1915.238745
1272.030540,8882.471304,-6735.874072,1225.752797
1272.030869,8290.306550,-6883.915261,1838.629195
1272.031198,6957.935855,-7105.977043,1608.800546
1272.031527,5847.626942,-7772.162391,1225.752797
1272.031856,4811.338623,-7624.121203,689.485948
1272.032185,4737.318029,-7994.224174,536.266849
1272.032514,4959.379811,-7920.203579,229.828649
1272.032843,5477.523971,-7105.977043,0.000000
1272.033172,5625.565159,-7031.956449,153.219100
1272.033501,6217.729913,-7254.018232,689.485948
1272.033830,6587.832884,-7105.977043,1225.752797
1272.034159,6957.935855,-6365.771101,1302.362347
1272.034488,7105.977043,-5847.626942,1455.581446
1272.034817,7402.059420,-4959.379811,1838.629195
1272.035146,7994.224174,-5033.400406,1838.629195
1272.035475,7994.224174,-5107.421000,1762.019645
1272.035804,7994.224174,-5181.441594,1378.971896
1272.036133,8290.306550,-5625.565159,689.485948
1272.036462,8216.285956,-6217.729913,1532.190996
1272.036791,7624.121203,-7105.977043,1378.971896
1272.037120,7624.121203,-8068.244768,1685.410096
1272.037449,6291.750507,-7550.100608,1378.971896
1272.037778,5107.421000,-7328.038826,536.266849
1272.038108,4515.256246,-7105.977043,0.000000
1272.038437,4811.338623,-7846.182985,0.000000
1272.038766,5921.647536,-7698.141797,76.609550
1272.039095,6513.812290,-7179.997637,536.266849
1272.039424,7105.977043,-6809.894666,1532.190996
1272.039753,7624.121203,-5995.668130,1225.752797
1272.040082,7698.141797,-5773.606348,1532.190996
1272.040411,7624.121203,-5625.565159,1608.800546
1272.040740,7550.100608,-4811.338623,1915.238745
1272.041069,7772.162391,-4885.359217,2068.457845
1272.041398,7994.224174,-4441.235652,919.314598
1272.041727,7994.224174,-5033.400406,1072.533697
1272.042056,8364.327145,-5921.647536,919.314598
1272.042385,8586.388927,-6365.771101,842.705048
1272.042714,7550.100608,-7105.977043,1685.410096
1272.043043,6809.894666,-7624.121203,1685.410096
1272.043372,6587.832884,-7698.141797,1608.800546
1272.043701,5921.647536,-7328.038826,1838.629195
1272.044030,5699.585753,-7476.080014,383.047749
1272.044359,5255.462188,-7328.038826,0.000000
1272.044688,5625.565159,-7105.977043,153.219100
1272.045017,6217.729913,-7994.224174,76.609550
1272.045347,6439.791695,-7031.956449,766.095498
1272.045676,6809.894666,-7328.038826,689.485948
1272.046005,6735.874072,-7105.977043,766.095498
1272.046334,6439.791695,-5847.626942,1072.533697
1272.046663,6513.812290,-6143.709319,1302.362347
1272.046992,7476.080014,-5107.421000,1685.410096
1272.047321,8068.244768,-4811.338623,1455.581446
1272.047650,8142.265362,-4959.379811,1455.581446
1272.047979,8438.347739,-5255.462188,1225.752797
1272.048308,8882.471304,-6735.874072,1532.190996
1272.048637,7624.121203,-6809.894666,1532.190996
1272.048966,6439.791695,-7105.977043,1302.362347
1272.049295,5699.585753,-7476.080014,1149.143247
1272.049624,5181.441594,-7772.162391,689.485948
1272.049953,4811.338623,-8068.244768,536.266849
1272.050282,4737.318029,-7698.141797,0.000000
1272.050611,5403.503377,-7402.059420,-306.438199
1272.050940,6365.771101,-7476.080014,459.657299
1272.051269,7105.977043,-6957.935855,536.266849
1272.051598,7402.059420,-6809.894666,1532.190996
1272.051927,7772.162391,-6069.688724,995.924147
1272.052256,7402.059420,-5921.647536,1072.533697
1272.052586,7994.224174,-5033.400406,1455.581446
1272.052915,8808.450710,-4145.153275,1455.581446
1272.053244,9104.533087,-4441.235652,1149.143247
1272.053573,8512.368333,-5033.400406,612.876398
1272.053902,8734.430116,-5699.585753,1455.581446
1272.054231,9030.512492,-6587.832884,1915.238745
1272.054560,8512.368333,-6439.791695,2068.457845
1272.054889,6661.853478,-7105.977043,1455.581446
1272.055218,5181.441594,-7254.018232,919.314598
1272.055547,4811.338623,-7772.162391,612.876398
1272.055876,4811.338623,-7624.121203,229.828649
1272.056205,5107.421000,-8142.265362,459.657299
1272.056534,5255.462188,-7402.059420,306.438199
1272.056863,5403.503377,-8364.327145,229.828649
1272.057192,5551.544565,-8438.347739,229.828649
1272.057521,5847.626942,-7994.224174,1149.143247
1272.057850,5995.668130,-7328.038826,536.266849
1272.058179,6513.812290,-5699.585753,1455.581446
1272.058508,7994.224174,-5107.421000,1991.848295
1272.058837,9178.553681,-4071.132681,1915.238745
1272.059166,9696.697840,-3849.070898,1149.143247
1272.059495,9104.533087,-4293.194464,1149.143247
1272.059824,8734.430116,-4515.256246,1149.143247
1272.060154,8660.409521,-5255.462188,1302.362347
1272.060483,7994.224174,-6365.771101,1685.410096
1272.060812,7031.956449,-7105.977043,1838.629195
1272.061141,6143.709319,-7402.059420,1378.971896
1272.061470,4811.338623,-7402.059420,689.485948
1272.061799,4293.194464,-7920.203579,306.438199
1272.062128,3997.112087,-7772.162391,76.609550
1272.062457,4737.318029,-7994.224174,-383.047749
1272.062786,5477.523971,-7772.162391,459.657299
1272.063115,7031.956449,-7105.977043,1378.971896
1272.063444,8290.306550,-6143.709319,1838.629195
1272.063773,8512.368333,-5255.462188,1838.629195
1272.064102,8216.285956,-4959.379811,1762.019645
1272.064431,7846.182985,-4663.297435,1072.533697
1272.064760,7994.224174,-4589.276840,1225.752797
1272.065089,8216.285956,-4885.359217,1302.362347
1272.065418,8586.388927,-5847.626942,1302.362347
1272.065747,8586.388927,-6439.791695,1225.752797
1272.066076,8068.244768,-7105.977043,1455.581446
1272.066405,7254.018232,-7698.141797,1838.629195
1272.066734,5921.647536,-8290.306550,1072.533697
1272.067063,5625.565159,-7624.121203,536.266849
1272.067393,5255.462188,-7698.141797,459.657299
1272.067722,5403.503377,-8068.244768,229.828649
1272.068051,5181.441594,-7105.977043,919.314598
1272.068380,6069.688724,-7105.977043,459.657299
1272.068709,6735.874072,-7105.977043,919.314598
1272.069038,7031.956449,-6587.832884,1225.752797
1272.069367,7105.977043,-6217.729913,1225.752797
1272.069696,7031.956449,-5329.482782,1378.971896
1272.070025,7179.997637,-4885.359217,1762.019645
1272.070354,8142.265362,-4959.379811,1532.190996
1272.070683,8438.347739,-4589.276840,1225.752797
1272.071012,8734.430116,-5329.482782,1685.410096
1272.071341,8512.368333,-5773.606348,1455.581446
1272.071670,8142.265362,-6291.750507,1378.971896
1272.071999,7254.018232,-7105.977043,1225.752797
1272.072328,6661.853478,-7476.080014,842.705048
1272.072657,5847.626942,-7179.997637,1608.800546
1272.072986,4737.318029,-7550.100608,306.438199
1272.073315,4145.153275,-7920.203579,459.657299
1272.073644,4811.338623,-7772.162391,-306.438199
1272.073973,5551.544565,-7328.038826,0.000000
1272.074302,6661.853478,-7105.977043,612.876398
1272.074631,7550.100608,-7105.977043,842.705048
1272.074961,8142.265362,-6587.832884,1762.019645
1272.075290,7920.203579,-6069.688724,1072.533697
1272.075619,7698.141797,-5255.462188,1685.410096
1272.075948,8068.244768,-4737.318029,1455.581446
1272.076277,8290.306550,-4737.318029,1378.971896
1272.076606,7994.224174,-5033.400406,1608.800546
1272.076935,8068.244768,-5181.441594,1149.143247
1272.077264,8068.244768,-5847.626942,1225.752797
1272.077593,7476.080014,-6513.812290,1302.362347
1272.077922,7550.100608,-7031.956449,1455.581446
1272.078251,6883.915261,-7476.080014,2451.505594
1272.078580,6069.688724,-7550.100608,1915.238745
1272.078909,5107.421000,-7328.038826,229.828649
1272.079238,4737.318029,-7254.018232,383.047749
1272.079567,5477.523971,-8216.285956,229.828649
1272.079896,6143.709319,-7846.182985,153.219100
1272.080225,6513.812290,-7179.997637,229.828649
1272.080554,6809.894666,-7920.203579,689.485948
1272.080883,7105.977043,-7698.141797,1225.752797
1272.081212,6883.915261,-7105.977043,1225.752797
1272.081541,6513.812290,-6291.750507,1455.581446
1272.081870,6661.853478,-5033.400406,612.876398
1272.082200,7179.997637,-5181.441594,1072.533697
1272.082529,7550.100608,-4885.359217,1072.533697
1272.082858,8660.409521,-4959.379811,1378.971896
1272.083187,9252.574275,-4589.276840,1378.971896
1272.083516,8438.347739,-5255.462188,1685.410096
1272.083845,7846.182985,-6365.771101,1915.238745
1272.084174,6957.935855,-7179.997637,1225.752797
1272.084503,6217.729913,-7328.038826,1072.533697
1272.084832,5699.585753,-7476.080014,383.047749
1272.085161,4663.297435,-7920.203579,-229.828649
1272.085490,4737.318029,-8142.265362,383.047749
1272.085819,5477.523971,-8512.368333,229.828649
1272.086148,5995.668130,-7402.059420,689.485948
1272.086477,6439.791695,-7031.956449,766.095498
1272.086806,7179.997637,-6661.853478,842.705048
1272.087135,7402.059420,-5255.462188,1608.800546
1272.087464,7254.018232,-5329.482782,995.924147
1272.087793,7846.182985,-4515.256246,1838.629195
1272.088122,8142.265362,-4441.235652,1149.143247
1272.088451,8512.368333,-4885.359217,1302.362347
1272.088780,8660.409521,-5551.544565,1149.143247
1272.089109,9178.553681,-6143.709319,1762.019645
1272.089439,8882.471304,-6513.812290,1762.019645
1272.089768,7846.182985,-6957.935855,1685.410096
1272.090097,7328.038826,-7105.977043,1225.752797
1272.090426,6661.853478,-6809.894666,1378.971896
1272.090755,6735.874072,-6957.935855,459.657299
1272.091084,5181.441594,-6809.894666,306.438199
1272.091413,4663.297435,-7254.018232,76.609550
1272.091742,5181.441594,-7476.080014,0.000000
1272.092071,5995.668130,-7698.141797,306.438199
1272.092400,6291.750507,-7402.059420,612.876398
1272.092729,6735.874072,-6883.915261,1149.143247
1272.093058,7105.977043,-6513.812290,995.924147
1272.093387,6957.935855,-5773.606348,1378.971896
1272.093716,7105.977043,-5033.400406,1532.190996
1272.094045,8364.327145,-4811.338623,1455.581446
1272.094374,8956.491898,-4737.318029,1225.752797
1272.094703,8734.430116,-4959.379811,1225.752797
1272.095032,8734.430116,-5773.606348,1225.752797
1272.095361,8956.491898,-5847.626942,1762.019645
1272.095690,7772.162391,-7105.977043,842.705048
1272.096019,6809.894666,-7402.059420,1378.971896
1272.096348,5847.626942,-7624.121203,919.314598
1272.096677,5255.462188,-8068.244768,459.657299
1272.097007,4441.235652,-7402.059420,153.219100
1272.097336,4441.235652,-7846.182985,153.219100
1272.097665,5625.565159,-8068.244768,383.047749
1272.097994,6439.791695,-7402.059420,766.095498
1272.098323,7105.977043,-6883.915261,1072.533697
1272.098652,7476.080014,-6661.853478,1378.971896
1272.098981,8216.285956,-5847.626942,1762.019645
1272.099310,8142.265362,-4811.338623,1608.800546
1272.099639,8068.244768,-4737.318029,1455.581446
1272.099968,7920.203579,-4737.318029,1455.581446
1272.100297,8290.306550,-5255.462188,919.314598
1272.100626,8216.285956,-6439.791695,1149.143247
1272.100955,7846.182985,-6735.874072,1608.800546
1272.101284,7846.182985,-7550.100608,1762.019645
1272.101613,6957.935855,-6957.935855,1149.143247
1272.101942,5921.647536,-7476.080014,919.314598
1272.102271,5625.565159,-7772.162391,919.314598
1272.102600,5921.647536,-7328.038826,612.876398
1272.102929,5477.523971,-7105.977043,383.047749
1272.103258,5477.523971,-6883.915261,229.828649
1272.103587,6513.812290,-7179.997637,536.266849
1272.103916,6809.894666,-7698.141797,919.314598
1272.104246,6735.874072,-6661.853478,1532.190996
1272.104575,6587.832884,-6957.935855,995.924147
1272.104904,6883.915261,-5995.668130,1302.362347
1272.105233,7105.977043,-5773.606348,1532.190996
1272.105562,7328.038826,-5403.503377,1378.971896
1272.105891,8216.285956,-4589.276840,2145.067394
1272.106220,8512.368333,-4663.297435,1608.800546
1272.106549,8512.368333,-5403.503377,1532.190996
1272.106878,7994.224174,-5625.565159,1149.143247
1272.107207,7105.977043,-6365.771101,1838.629195
1272.107536,7328.038826,-7105.977043,1378.971896
1272.107865,5921.647536,-7254.018232,919.314598
1272.108194,5329.482782,-7698.141797,919.314598
1272.108523,5033.400406,-8512.368333,612.876398
1272.108852,4885.359217,-7698.141797,153.219100
1272.109181,4959.379811,-8142.265362,0.000000
1272.109510,5699.585753,-8216.285956,229.828649
1272.109839,6809.894666,-7550.100608,766.095498
1272.110168,7254.018232,-6735.874072,612.876398
1272.110497,7624.121203,-5107.421000,995.924147
1272.110826,8216.285956,-4885.359217,995.924147
1272.111155,8660.409521,-4885.359217,1225.752797
1272.111484,8290.306550,-4737.318029,1991.848295
1272.111814,8364.327145,-5107.421000,1149.143247
1272.112143,8512.368333,-5847.626942,1225.752797
1272.112472,8586.388927,-6143.709319,1225.752797
1272.112801,7698.141797,-6809.894666,1149.143247
1272.113130,7550.100608,-6809.894666,919.314598
1272.113459,7105.977043,-7550.100608,1762.019645
1272.113788,6365.771101,-7550.100608,1225.752797
1272.114117,5625.565159,-7328.038826,1455.581446
1272.114446,5255.462188,-7920.203579,1072.533697
1272.114775,5255.462188,-8216.285956,153.219100
1272.115104,5329.482782,-8290.306550,612.876398
1272.115433,5773.606348,-8068.244768,459.657299
1272.115762,6513.812290,-7476.080014,229.828649
1272.116091,6365.771101,-6661.853478,766.095498
1272.116420,6217.729913,-6069.688724,306.438199
1272.116749,6957.935855,-5699.585753,612.876398
1272.117078,7920.203579,-5477.523971,1685.410096
1272.117407,8364.327145,-4737.318029,1532.190996
1272.117736,9104.533087,-5033.400406,1685.410096
1272.118065,9326.594869,-4441.235652,1915.238745
1272.118394,9178.553681,-4885.359217,1532.190996
1272.118723,8586.388927,-5773.606348,1685.410096
1272.119052,8216.285956,-5773.606348,1608.800546
1272.119381,7476.080014,-6587.832884,1149.143247
1272.119710,6217.729913,-6957.935855,1838.629195
1272.120039,5107.421000,-7105.977043,612.876398
1272.120368,4589.276840,-7846.182985,383.047749
1272.120697,4737.318029,-8216.285956,536.266849
1272.121026,5403.503377,-7846.182985,0.000000
1272.121355,5995.668130,-7254.018232,612.876398
1272.121684,6809.894666,-7031.956449,1072.533697
1272.122013,7179.997637,-6143.709319,612.876398
1272.122342,6809.894666,-4811.338623,766.095498
1272.122671,7624.121203,-4737.318029,842.705048
1272.123000,8068.244768,-5033.400406,1532.190996
1272.123329,8586.388927,-5477.523971,1991.848295
1272.123658,8290.306550,-5995.668130,1302.362347
1272.123987,8364.327145,-5847.626942,1302.362347
1272.124316,7994.224174,-6513.812290,919.314598
1272.124645,8142.265362,-7476.080014,919.314598
1272.124974,7920.203579,-7179.997637,1302.362347
1272.125303,7254.018232,-6439.791695,919.314598
1272.125632,6809.894666,-7031.956449,842.705048
1272.125961,5773.606348,-7031.956449,766.095498
1272.126290,5477.523971,-8142.265362,995.924147
1272.126619,4737.318029,-8364.327145,459.657299
1272.126948,4737.318029,-7105.977043,153.219100
1272.127277,5255.462188,-7476.080014,153.219100
1272.127606,5995.668130,-7772.162391,689.485948
1272.127935,6735.874072,-7698.141797,1072.533697
1272.128264,6587.832884,-6587.832884,919.314598
1272.128593,6883.915261,-5255.462188,766.095498
1272.128922,7105.977043,-5255.462188,1378.971896
1272.129251,8290.306550,-5403.503377,1532.190996
1272.129580,8586.388927,-5699.585753,1685.410096
1272.129909,9400.615463,-4737.318029,2068.457845
1272.130238,9178.553681,-5255.462188,1149.143247
1272.130567,8512.368333,-5329.482782,1608.800546
1272.130896,7476.080014,-5995.668130,919.314598
1272.131225,6587.832884,-6957.935855,689.485948
1272.131554,6143.709319,-7254.018232,1532.190996
1272.131883,5477.523971,-8142.265362,306.438199
1272.132212,5107.421000,-8068.244768,536.266849
1272.132541,4811.338623,-8068.244768,0.000000
1272.132870,5107.421000,-7698.141797,459.657299
1272.133199,5995.668130,-7550.100608,459.657299
1272.133528,7031.956449,-7179.997637,995.924147
1272.133857,7698.141797,-6957.935855,1225.752797
1272.134186,7624.121203,-5995.668130,1762.019645
1272.134515,7402.059420,-5773.606348,229.828649
1272.134844,7254.018232,-5921.647536,1149.143247
1272.135173,7328.038826,-5699.585753,2221.676944
1272.135502,8068.244768,-5477.523971,1762.019645
1272.135831,8512.368333,-5255.462188,1532.190996
1272.136160,8660.409521,-5033.400406,1915.238745
1272.136489,8512.368333,-6587.832884,1762.019645
1272.136818,8142.265362,-6291.750507,2145.067394
1272.137147,6957.935855,-6587.832884,1685.410096
1272.137476,5699.585753,-7254.018232,1225.752797
1272.137805,5107.421000,-6957.935855,842.705048
1272.138134,5255.462188,-8142.265362,459.657299
1272.138463,5477.523971,-7994.224174,1149.143247
1272.138792,6217.729913,-7550.100608,536.266849
1272.139121,6661.853478,-7550.100608,1072.533697
1272.139450,6439.791695,-6883.915261,536.266849
1272.139779,6439.791695,-7031.956449,612.876398
1272.140108,6661.853478,-6143.709319,1149.143247
1272.140437,7105.977043,-6217.729913,995.924147
1272.140766,7328.038826,-5847.626942,1532.190996
1272.141095,8068.244768,-5033.400406,1838.629195
1272.141424,8734.430116,-5255.462188,1838.629195
1272.141753,9104.533087,-5107.421000,1378.971896
1272.142082,8808.450710,-4737.318029,1225.752797
1272.142411,8438.347739,-5773.606348,1608.800546
1272.142740,7698.141797,-6587.832884,1072.533697
1272.143069,6217.729913,-7402.059420,612.876398
1272.143398,4589.276840,-8586.388927,612.876398
1272.143727,4885.359217,-9548.656652,306.438199
1272.144056,4145.153275,-9252.574275,229.828649
1272.144385,3997.112087,-8882.471304,-229.828649
1272.144714,4811.338623,-8364.327145,0.000000
1272.145043,6143.709319,-7476.080014,689.485948
1272.145372,6513.812290,-6735.874072,995.924147
1272.145701,7328.038826,-5255.462188,766.095498
1272.146030,7846.182985,-4515.256246,1149.143247
1272.146359,8290.306550,-4737.318029,1225.752797
1272.146688,9104.533087,-5477.523971,1838.629195
1272.147017,9400.615463,-4737.318029,1991.848295
1272.147346,8956.491898,-4885.359217,1302.362347
1272.147675,8364.327145,-5255.462188,1302.362347
1272.148004,7994.224174,-5921.647536,1072.533697
1272.148333,8142.265362,-6735.874072,1991.848295
1272.148662,7402.059420,-6439.791695,1532.190996
1272.148991,6513.812290,-7031.956449,1149.143247
1272.149320,6291.750507,-7031.956449,1532.190996
1272.149649,6217.729913,-7772.162391,1225.752797
1272.149978,5551.544565,-7994.224174,536.266849
1272.150307,4811.338623,-7328.038826,0.000000
1272.150636,5107.421000,-7624.121203,383.047749
1272.150965,6217.729913,-7846.182985,153.219100
1272.151294,6513.812290,-6661.853478,842.705048
1272.151623,6513.812290,-7179.997637,995.924147
1272.151952,6809.894666,-6587.832884,766.095498
1272.152281,7105.977043,-5773.606348,1302.362347
1272.152610,7772.162391,-5329.482782,1762.019645
1272.152939,8808.450710,-4885.359217,1685.410096
1272.153268,9400.615463,-4811.338623,1378.971896
1272.153597,9030.512492,-5255.462188,1149.143247
1272.153926,8290.306550,-5847.626942,919.314598
1272.154255,8512.368333,-6587.832884,1149.143247
1272.154584,7402.059420,-6957.935855,1225.752797
1272.154913,6143.709319,-7254.018232,1302.362347
1272.155242,5773.606348,-7550.100608,1149.143247
1272.155571,5551.544565,-7624.121203,1225.752797
1272.155900,5329.482782,-7031.956449,383.047749
1272.156229,4959.379811,-7254.018232,76.609550
1272.156558,5403.503377,-7254.018232,306.438199
1272.156887,6217.729913,-7476.080014,995.924147
1272.157216,6587.832884,-6439.791695,1072.533697
1272.157545,7254.018232,-5995.668130,1149.143247
1272.157874,7624.121203,-5255.462188,1378.971896
1272.158203,7179.997637,-5477.523971,1149.143247
1272.158532,7402.059420,-5107.421000,1532.190996
1272.158861,8142.265362,-5255.462188,1149.143247
1272.159190,8586.388927,-5329.482782,995.924147
1272.159518,8142.265362,-6069.688724,1225.752797
1272.159847,7920.203579,-6661.853478,995.924147
1272.160176,8290.306550,-7179.997637,1149.143247
1272.160505,7328.038826,-6809.894666,1378.971896
1272.160834,6217.729913,-7105.977043,1149.143247
1272.161163,5625.565159,-7179.997637,919.314598
1272.161492,5625.565159,-7698.141797,612.876398
1272.161821,5329.482782,-7846.182985,153.219100
1272.162150,5107.421000,-7328.038826,-76.609550
1272.162479,5625.565159,-7624.121203,153.219100
1272.162808,6217.729913,-7624.121203,766.095498
1272.163137,6809.894666,-6809.894666,995.924147
1272.163466,7105.977043,-6291.750507,1149.143247
1272.163795,7105.977043,-5847.626942,1378.971896
1272.164124,7328.038826,-5551.544565,1302.362347
1272.164453,7624.121203,-4885.359217,1455.581446
1272.164782,8364.327145,-4441.235652,1302.362347
1272.165111,8512.368333,-5033.400406,2145.067394
1272.165440,9104.533087,-5107.421000,1762.019645
1272.165769,8882.471304,-6217.729913,1608.800546
1272.166098,8216.285956,-6735.874072,2068.457845
1272.166427,7476.080014,-7772.162391,1072.533697
1272.166756,6217.729913,-7772.162391,1378.971896
1272.167085,5255.462188,-8068.244768,383.047749
1272.167414,4441.235652,-8438.347739,229.828649
1272.167743,4145.153275,-7772.162391,0.000000
1272.168072,4737.318029,-7698.141797,-612.876398
1272.168401,5403.503377,-7846.182985,76.609550
1272.168730,6513.812290,-7254.018232,612.876398
1272.169059,6809.894666,-7105.977043,842.705048
1272.169388,7698.141797,-5255.462188,1302.362347
1272.169717,7624.121203,-5033.400406,995.924147
1272.170046,8142.265362,-4663.297435,1302.362347
1272.170375,8364.327145,-4589.276840,1608.800546
1272.170704,8512.368333,-5625.565159,919.314598
1272.171033,8216.285956,-5329.482782,1455.581446
1272.171362,8142.265362,-6143.709319,1455.581446
1272.171691,8142.265362,-7105.977043,1378.971896
1272.172020,7624.121203,-7328.038826,2068.457845
1272.172349,7105.977043,-7772.162391,2451.505594
1272.172678,5699.585753,-7254.018232,842.705048
1272.173007,4589.276840,-7476.080014,0.000000
1272.173336,4515.256246,-7920.203579,76.609550
1272.173665,4367.215058,-8290.306550,-153.219100
1272.173994,5033.400406,-7550.100608,-229.828649
1272.174323,6365.771101,-7698.141797,536.266849
1272.174652,7105.977043,-7846.182985,1149.143247
1272.174981,7254.018232,-6883.915261,1302.362347
1272.175310,6439.791695,-5107.421000,1532.190996
1272.175639,6809.894666,-5403.503377,995.924147
1272.175968,7920.203579,-5033.400406,1608.800546
1272.176297,8512.368333,-4515.256246,1608.800546
1272.176626,8956.491898,-4367.215058,1838.629195
1272.176955,9400.615463,-3552.988522,1378.971896
1272.177284,9178.553681,-5255.462188,1532.190996
1272.177613,8660.409521,-5847.626942,1532.190996
1272.177942,7328.038826,-7105.977043,1149.143247
1272.178271,6513.812290,-7254.018232,766.095498
1272.178600,5329.482782,-8290.306550,919.314598
1272.178929,4515.256246,-8364.327145,536.266849
1272.179258,4589.276840,-8142.265362,0.000000
1272.179587,5033.400406,-8142.265362,383.047749
1272.179916,5847.626942,-8216.285956,229.828649
1272.180245,5847.626942,-7328.038826,306.438199
1272.180574,6735.874072,-7105.977043,919.314598
1272.180903,7476.080014,-6513.812290,1149.143247
1272.181232,7772.162391,-5403.503377,1838.629195
1272.181561,7698.141797,-4737.318029,919.314598
1272.181890,7920.203579,-4515.256246,1455.581446
1272.182219,8438.347739,-4663.297435,1378.971896
1272.182548,7994.224174,-5403.503377,919.314598
1272.182877,8438.347739,-5773.606348,766.095498
1272.183206,7994.224174,-6217.729913,689.485948
1272.183535,7994.224174,-6735.874072,1072.533697
1272.183864,7550.100608,-7328.038826,1532.190996
1272.184193,7254.018232,-7105.977043,1455.581446
1272.184522,6513.812290,-7105.977043,1608.800546
1272.184851,5995.668130,-7031.956449,919.314598
1272.185180,5255.462188,-7254.018232,383.047749
1272.185509,4737.318029,-7105.977043,76.609550
1272.185838,5255.462188,-7846.182985,153.219100
1272.186167,5773.606348,-7550.100608,612.876398
1272.186496,6809.894666,-7920.203579,1149.143247
1272.186825,7031.956449,-6957.935855,1378.971896
1272.187154,7105.977043,-5995.668130,536.266849
1272.187483,6809.894666,-5995.668130,1532.190996
1272.187812,7402.059420,-5255.462188,1378.971896
1272.188141,7994.224174,-4737.318029,995.924147
1272.188470,8660.409521,-4293.194464,1302.362347
1272.188799,9104.533087,-4959.379811,1838.629195
1272.189128,9992.780217,-5995.668130,1608.800546
1272.189457,9104.533087,-6143.709319,1915.238745
1272.189786,7698.141797,-6735.874072,1532.190996
1272.190115,6365.771101,-7105.977043,1378.971896
1272.190444,5255.462188,-7550.100608,842.705048
1272.190773,4441.235652,-8290.306550,153.219100
1272.191102,4367.215058,-8142.265362,383.047749
1272.191431,4737.318029,-8142.265362,0.000000
1272.191760,5625.565159,-7846.182985,306.438199
1272.192089,6883.915261,-7179.997637,1072.533697
1272.192418,7179.997637,-7105.977043,995.924147
1272.192747,7772.162391,-5995.668130,1378.971896
1272.193076,7328.038826,-6069.688724,1608.800546
1272.193405,7328.038826,-5033.400406,1378.971896
1272.193734,7920.203579,-5033.400406,1455.581446
1272.194063,8290.306550,-4885.359217,1532.190996
1272.194392,8142.265362,-5477.523971,1532.190996
1272.194721,8142.265362,-6143.709319,1302.362347
1272.195050,8734.430116,-6217.729913,1532.190996
1272.195379,7698.141797,-7031.956449,1608.800546
1272.195708,7254.018232,-7179.997637,1608.800546
1272.196037,6069.688724,-6883.915261,1149.143247
1272.196366,5403.503377,-7105.977043,306.438199
1272.196695,5551.544565,-7476.080014,229.828649
1272.197024,5477.523971,-7254.018232,-76.609550
1272.197353,5773.606348,-7328.038826,76.609550
1272.197682,5625.565159,-7105.977043,153.219100
1272.198011,6661.853478,-7105.977043,689.485948
1272.198340,7179.997637,-7328.038826,1072.533697
1272.198669,7254.018232,-7031.956449,1532.190996
1272.198998,7031.956449,-6217.729913,2068.457845
1272.199327,7179.997637,-5329.482782,1455.581446
1272.199656,7402.059420,-4663.297435,2298.286494
1272.199985,8216.285956,-4293.194464,1685.410096
1272.200314,8882.471304,-4885.359217,1915.238745
1272.200643,8956.491898,-4811.338623,1685.410096
1272.200972,8586.388927,-5625.565159,1915.238745
1272.201301,7994.224174,-6439.791695,1762.019645
1272.201630,6957.935855,-7105.977043,1149.143247
1272.201959,5699.585753,-7994.224174,1149.143247
1272.202288,4959.379811,-8364.327145,383.047749
1272.202617,4737.318029,-8216.285956,383.047749
1272.202946,4663.297435,-8364.327145,76.609550
1272.203275,4885.359217,-8438.347739,0.000000
1272.203604,5773.606348,-8364.327145,229.828649
1272.203933,6735.874072,-7624.121203,766.095498
1272.204262,7476.080014,-7105.977043,842.705048
1272.204591,7698.141797,-6365.771101,1685.410096
1272.204920,7624.121203,-5403.503377,1225.752797
1272.205249,7402.059420,-5329.482782,842.705048
1272.205578,7328.038826,-4959.379811,1149.143247
1272.205907,8364.327145,-4737.318029,1532.190996
1272.206236,8734.430116,-4811.338623,2068.457845
1272.206565,8660.409521,-4885.359217,1608.800546
1272.206894,8290.306550,-6069.688724,919.314598
1272.207222,7476.080014,-6291.750507,995.924147
1272.207551,6735.874072,-7550.100608,1455.581446
1272.207880,6069.688724,-7772.162391,1149.143247
1272.208209,5255.462188,-7994.224174,842.705048
1272.208538,5255.462188,-7846.182985,995.924147
1272.208867,4959.379811,-8068.244768,306.438199
1272.209196,5551.544565,-7920.203579,229.828649
1272.209525,6217.729913,-7698.141797,536.266849
1272.209854,6587.832884,-7698.141797,536.266849
1272.210183,6883.915261,-7402.059420,1532.190996
1272.210512,7105.977043,-6069.688724,1302.362347
1272.210841,7402.059420,-5403.503377,1685.410096
1272.211170,8068.244768,-3997.112087,1608.800546
1272.211499,8512.368333,-3849.070898,1685.410096
1272.211828,9252.574275,-3997.112087,1838.629195
1272.212157,9844.739029,-4367.215058,1532.190996
1272.212486,9326.594869,-4737.318029,1608.800546
1272.212815,8290.306550,-5625.565159,1455.581446
1272.213144,7105.977043,-6957.935855,1685.410096
1272.213473,6809.894666,-7476.080014,1302.362347
1272.213802,5625.565159,-7402.059420,1149.143247
1272.214131,4811.338623,-7624.121203,612.876398
1272.214460,4663.297435,-7772.162391,76.609550
1272.214789,4737.318029,-7994.224174,229.828649
1272.215118,5033.400406,-8734.430116,536.266849
1272.215447,5847.626942,-8142.265362,689.485948
1272.215776,6661.853478,-7402.059420,1072.533697
1272.216105,6883.915261,-7031.956449,842.705048
1272.216434,7328.038826,-6143.709319,1532.190996
1272.216763,7402.059420,-5551.544565,1532.190996
1272.217092,8068.244768,-5255.462188,1455.581446
1272.217422,7994.224174,-5033.400406,1455.581446
1272.217751,8364.327145,-5255.462188,842.705048
1272.218080,8290.306550,-5403.503377,995.924147
1272.218409,7920.203579,-6439.791695,1072.533697
1272.218738,7624.121203,-6957.935855,1149.143247
1272.219067,7105.977043,-7105.977043,1225.752797
1272.219396,6587.832884,-7550.100608,919.314598
1272.219725,5847.626942,-7550.100608,306.438199
1272.220054,5551.544565,-7772.162391,842.705048
1272.220384,5329.482782,-7624.121203,766.095498
1272.220713,5625.565159,-7254.018232,1378.971896
1272.221042,6513.812290,-7476.080014,919.314598
1272.221371,6439.791695,-6957.935855,383.047749
1272.221700,6143.709319,-6735.874072,383.047749
1272.222029,6661.853478,-6809.894666,1378.971896
1272.222358,6809.894666,-6661.853478,1378.971896
1272.222687,6809.894666,-5403.503377,842.705048
1272.223017,7328.038826,-4811.338623,1302.362347
1272.223346,7994.224174,-4811.338623,1225.752797
1272.223675,8290.306550,-4737.318029,1838.629195
1272.224004,8882.471304,-5403.503377,1149.143247
1272.224333,8956.491898,-5329.482782,1532.190996
1272.224662,8660.409521,-5551.544565,1149.143247
1272.224991,7402.059420,-6735.874072,842.705048
1272.225320,6587.832884,-7624.121203,689.485948
1272.225650,6069.688724,-8290.306550,766.095498
1272.225979,5551.544565,-8290.306550,229.828649
1272.226308,4737.318029,-7920.203579,76.609550
1272.226637,4737.318029,-8068.244768,-383.047749
1272.226966,5847.626942,-8068.244768,153.219100
1272.227295,5847.626942,-8216.285956,229.828649
1272.227624,7031.956449,-7476.080014,919.314598
1272.227953,7698.141797,-6735.874072,1378.971896
1272.228283,8290.306550,-5847.626942,2145.067394
1272.228612,7624.121203,-5107.421000,1378.971896
1272.228941,7402.059420,-4663.297435,1149.143247
1272.229270,8068.244768,-4293.194464,1532.190996
1272.229599,8512.368333,-5403.503377,1378.971896
1272.229928,8364.327145,-5699.585753,1838.629195
1272.230257,8438.347739,-5921.647536,1685.410096
1272.230586,7920.203579,-6735.874072,1378.971896
1272.230915,7105.977043,-7031.956449,1149.143247
1272.231245,6069.688724,-7179.997637,1532.190996
1272.231574,5773.606348,-7402.059420,1225.752797
1272.231903,5255.462188,-7105.977043,689.485948
1272.232232,4959.379811,-7105.977043,229.828649
1272.232561,4811.338623,-7846.182985,0.000000
1272.232890,5477.523971,-8586.388927,-306.438199
1272.233219,5847.626942,-8216.285956,0.000000
1272.233548,6513.812290,-7994.224174,1149.143247
1272.233878,7550.100608,-6957.935855,1378.971896
1272.234207,7476.080014,-5921.647536,1149.143247
1272.234536,7846.182985,-5107.421000,1762.019645
1272.234865,7920.203579,-3997.112087,1149.143247
1272.235194,9104.533087,-3775.050304,1302.362347
1272.235523,9622.677246,-3775.050304,2145.067394
1272.235852,9326.594869,-4367.215058,2451.505594
1272.236181,8956.491898,-4737.318029,1685.410096
1272.236511,7698.141797,-6143.709319,1072.533697
1272.236840,6217.729913,-7402.059420,919.314598
1272.237169,5181.441594,-8290.306550,1072.533697
1272.237498,5255.462188,-8290.306550,383.047749
1272.237827,4885.359217,-8142.265362,76.609550
1272.238156,4737.318029,-8364.327145,-153.219100
1272.238485,5181.441594,-8364.327145,153.219100
1272.238814,5995.668130,-8512.368333,612.876398
1272.239143,6661.853478,-7254.018232,612.876398
1272.239473,7254.018232,-6217.729913,995.924147
1272.239802,7994.224174,-5773.606348,1225.752797
1272.240131,8142.265362,-5107.421000,1532.190996
1272.240460,7994.224174,-4885.359217,1302.362347
1272.240789,8438.347739,-4663.297435,1455.581446
1272.241118,8364.327145,-4515.256246,1302.362347
1272.241447,8586.388927,-5181.441594,1378.971896
1272.241776,8364.327145,-6143.709319,1838.629195
1272.242106,7994.224174,-6439.791695,842.705048
1272.242435,7254.018232,-7698.141797,1149.143247
1272.242764,6809.894666,-7476.080014,1532.190996
1272.243093,6809.894666,-7846.182985,1532.190996
1272.243422,6217.729913,-6957.935855,995.924147
1272.243751,5107.421000,-7698.141797,689.485948
1272.244080,4737.318029,-7920.203579,229.828649
1272.244409,4959.379811,-8068.244768,383.047749
1272.244739,5625.565159,-7698.141797,536.266849
1272.245068,6661.853478,-7254.018232,536.266849
1272.245397,6735.874072,-7179.997637,383.047749
1272.245726,7031.956449,-6661.853478,1455.581446
1272.246055,7624.121203,-6439.791695,1225.752797
1272.246384,7254.018232,-4885.359217,1455.581446
1272.246713,7846.182985,-4367.215058,1378.971896
1272.247042,8290.306550,-4663.297435,1532.190996
1272.247371,8956.491898,-5181.441594,1685.410096
1272.247701,8956.491898,-5625.565159,1532.190996
1272.248030,8956.491898,-6143.709319,1685.410096
1272.248359,7920.203579,-6143.709319,1302.362347
1272.248688,7031.956449,-6809.894666,1455.581446
1272.249017,6143.709319,-6587.832884,1072.533697
1272.249346,5477.523971,-7179.997637,919.314598
1272.249675,5477.523971,-7402.059420,766.095498
1272.250004,5255.462188,-6957.935855,689.485948
1272.250334,5625.565159,-7179.997637,383.047749
1272.250663,6291.750507,-7105.977043,76.609550
1272.250992,6661.853478,-7402.059420,1072.533697
1272.251321,6513.812290,-7328.038826,766.095498
1272.251650,6957.935855,-6957.935855,1302.362347
1272.251979,7402.059420,-5995.668130,1532.190996
1272.252308,7550.100608,-5477.523971,919.314598
1272.252637,7920.203579,-5329.482782,766.095498
1272.252967,7624.121203,-5699.585753,1608.800546
1272.253296,7846.182985,-5847.626942,842.705048
1272.253625,7994.224174,-5847.626942,1072.533697
1272.253954,8142.265362,-6143.709319,1225.752797
1272.254283,8364.327145,-6661.853478,1685.410096
1272.254612,7328.038826,-6883.915261,1532.190996
1272.254941,6439.791695,-7105.977043,842.705048
1272.255270,5773.606348,-7105.977043,766.095498
1272.255599,5995.668130,-7328.038826,842.705048
1272.255929,5255.462188,-7624.121203,229.828649
1272.256258,5329.482782,-8512.368333,383.047749
1272.256587,6069.688724,-8216.285956,459.657299
1272.256916,6365.771101,-8142.265362,689.485948
1272.257245,6291.750507,-7031.956449,689.485948
1272.257574,5921.647536,-6957.935855,459.657299
1272.257903,6291.750507,-5995.668130,842.705048
1272.258232,7105.977043,-5773.606348,1302.362347
1272.258562,8438.347739,-4737.318029,2298.286494
1272.258891,9548.656652,-4293.194464,2221.676944
1272.259220,9474.636058,-4219.173869,1991.848295
1272.259549,9030.512492,-4663.297435,1532.190996
1272.259878,8290.306550,-5255.462188,1225.752797
1272.260207,7698.141797,-6587.832884,1532.190996
1272.260536,6735.874072,-7254.018232,995.924147
1272.260865,6069.688724,-7550.100608,1149.143247
1272.261195,5181.441594,-7624.121203,536.266849
1272.261524,4737.318029,-7772.162391,612.876398
1272.261853,4885.359217,-8068.244768,229.828649
1272.262182,5329.482782,-7846.182985,-229.828649
1272.262511,6217.729913,-7920.203579,306.438199
1272.262840,7105.977043,-6587.832884,689.485948
1272.263169,8290.306550,-6439.791695,1225.752797
1272.263498,8290.306550,-5403.503377,1838.629195
1272.263828,8142.265362,-5033.400406,1532.190996
1272.264157,7920.203579,-4737.318029,1532.190996
1272.264486,7698.141797,-4737.318029,1685.410096
1272.264815,8216.285956,-5255.462188,766.095498
1272.265144,7920.203579,-5403.503377,689.485948
1272.265473,7920.203579,-6957.935855,919.314598
1272.265802,7698.141797,-7254.018232,1608.800546
1272.266131,7105.977043,-6809.894666,1302.362347
1272.266460,6365.771101,-7846.182985,1225.752797
1272.266790,5477.523971,-7624.121203,919.314598
1272.267119,4885.359217,-8216.285956,306.438199
1272.267448,4441.235652,-8438.347739,689.485948
1272.267777,4959.379811,-8364.327145,459.657299
1272.268106,6217.729913,-7920.203579,153.219100
1272.268435,6143.709319,-7179.997637,919.314598
1272.268764,6661.853478,-7550.100608,612.876398
1272.269093,7402.059420,-5773.606348,1378.971896
1272.269423,7698.141797,-6143.709319,1072.533697
1272.269752,7105.977043,-5403.503377,1225.752797
1272.270081,7179.997637,-4145.153275,1455.581446
1272.270410,8068.244768,-5255.462188,1149.143247
1272.270739,9326.594869,-4367.215058,2145.067394
1272.271068,9622.677246,-5329.482782,2068.457845
1272.271397,9696.697840,-4885.359217,1838.629195
1272.271726,9104.533087,-5551.544565,2374.896044
1272.272056,7698.141797,-6809.894666,1149.143247
1272.272385,6735.874072,-5995.668130,229.828649
1272.272714,4811.338623,-7179.997637,459.657299
1272.273043,4737.318029,-8216.285956,76.609550
1272.273372,4885.359217,-7402.059420,229.828649
1272.273701,5403.503377,-7772.162391,842.705048
1272.274030,6069.688724,-7772.162391,383.047749
1272.274359,5921.647536,-7846.182985,536.266849
1272.274688,6735.874072,-7105.977043,612.876398
1272.275018,6217.729913,-7550.100608,536.266849
1272.275347,7031.956449,-5403.503377,1608.800546
1272.275676,7179.997637,-5625.565159,536.266849
1272.276005,7624.121203,-5403.503377,1149.143247
1272.276334,8512.368333,-4885.359217,1762.019645
1272.276663,9104.533087,-5625.565159,1302.362347
1272.276992,8586.388927,-5329.482782,1149.143247
1272.277321,8364.327145,-5847.626942,995.924147
1272.277651,8216.285956,-6587.832884,1149.143247
1272.277980,7402.059420,-6587.832884,1455.581446
1272.278309,6587.832884,-7105.977043,2451.505594
1272.278638,6513.812290,-7402.059420,1455.581446
1272.278967,5847.626942,-7402.059420,766.095498
1272.279296,5255.462188,-7772.162391,995.924147
1272.279625,4959.379811,-8142.265362,1149.143247
1272.279954,5625.565159,-8142.265362,383.047749
1272.280284,5551.544565,-7994.224174,229.828649
1272.280613,5773.606348,-7254.018232,459.657299
1272.280942,6735.874072,-6809.894666,995.924147
1272.281271,7624.121203,-6217.729913,1608.800546
1272.281600,7624.121203,-5551.544565,1302.362347
1272.281929,7698.141797,-4885.359217,1762.019645
1272.282258,8216.285956,-4737.318029,1149.143247
1272.282587,8586.388927,-5329.482782,1762.019645
1272.282916,9326.594869,-5403.503377,1225.752797
1272.283246,8512.368333,-5625.565159,1149.143247
1272.283575,7994.224174,-6735.874072,1149.143247
1272.283904,7105.977043,-6957.935855,689.485948
1272.284233,6143.709319,-6883.915261,919.314598
1272.284562,5329.482782,-7031.956449,536.266849
1272.284891,5477.523971,-7476.080014,612.876398
1272.285220,5255.462188,-8142.265362,842.705048
1272.285549,5181.441594,-7624.121203,306.438199
1272.285879,5551.544565,-8068.244768,842.705048
1272.286208,6365.771101,-6809.894666,383.047749
1272.286537,6661.853478,-6439.791695,229.828649
1272.286866,7105.977043,-5625.565159,995.924147
1272.287195,7994.224174,-5847.626942,1608.800546
1272.287524,7994.224174,-5329.482782,1532.190996
1272.287853,7624.121203,-4737.318029,1225.752797
1272.288182,7698.141797,-4959.379811,1455.581446
1272.288512,7920.203579,-5847.626942,995.924147
1272.288841,7402.059420,-6587.832884,612.876398
1272.289170,7105.977043,-7031.956449,1378.971896
1272.289499,7846.182985,-6809.894666,1149.143247
1272.289828,7328.038826,-7179.997637,1685.410096
1272.290157,6587.832884,-7254.018232,1378.971896
1272.290486,5995.668130,-7179.997637,1072.533697
1272.290815,5921.647536,-7402.059420,689.485948
1272.291144,5181.441594,-7624.121203,-306.438199
1272.291474,4737.318029,-7772.162391,76.609550
1272.291803,5921.647536,-7402.059420,0.000000
1272.292132,6735.874072,-7994.224174,306.438199
1272.292461,6735.874072,-7698.141797,1149.143247
1272.292790,7105.977043,-5921.647536,919.314598
1272.293119,7550.100608,-5699.585753,919.314598
1272.293448,8216.285956,-5255.462188,1991.848295
1272.293777,7550.100608,-5329.482782,1225.752797
1272.294107,8068.244768,-5033.400406,1378.971896
1272.294436,8216.285956,-5551.544565,1532.190996
1272.294765,8364.327145,-6291.750507,1838.629195
1272.295094,8290.306550,-6217.729913,1532.190996
1272.295423,7994.224174,-6587.832884,1532.190996
1272.295752,7031.956449,-6957.935855,1072.533697
1272.296081,5847.626942,-7179.997637,842.705048
1272.296410,5329.482782,-7254.018232,1072.533697
1272.296740,5625.565159,-7698.141797,459.657299
1272.297069,5181.441594,-7846.182985,689.485948
1272.297398,5181.441594,-7698.141797,0.000000
1272.297727,5773.606348,-7476.080014,229.828649
1272.298056,6957.935855,-7105.977043,383.047749
1272.298385,7328.038826,-6217.729913,919.314598
1272.298714,7698.141797,-5403.503377,1608.800546
1272.299043,7772.162391,-4811.338623,1532.190996
1272.299373,7920.203579,-4515.256246,1455.581446
1272.299702,7994.224174,-4885.359217,1532.190996
1272.300031,8364.327145,-4959.379811,1608.800546
1272.300360,8734.430116,-5699.585753,1608.800546
1272.300689,9104.533087,-5625.565159,1762.019645
1272.301018,8512.368333,-6217.729913,2068.457845
1272.301347,7846.182985,-6587.832884,1455.581446
1272.301676,6957.935855,-6957.935855,1072.533697
1272.302005,6291.750507,-7846.182985,995.924147
1272.302335,5107.421000,-7179.997637,1378.971896
1272.302664,4811.338623,-8068.244768,459.657299
1272.302993,4663.297435,-8364.327145,-76.609550
1272.303322,4959.379811,-8068.244768,0.000000
1272.303651,5477.523971,-8364.327145,229.828649
1272.303980,6217.729913,-7698.141797,383.047749
1272.304309,6883.915261,-7105.977043,995.924147
1272.304638,6883.915261,-6661.853478,1455.581446
1272.304968,7031.956449,-6217.729913,1149.143247
1272.305297,7254.018232,-5773.606348,1225.752797
1272.305626,7624.121203,-4959.379811,1455.581446
1272.305955,8438.347739,-4959.379811,1762.019645
1272.306284,8882.471304,-4589.276840,1149.143247
1272.306613,9400.615463,-5181.441594,1378.971896
1272.306942,9474.636058,-5921.647536,2374.896044
1272.307271,8364.327145,-6217.729913,1455.581446
1272.307601,7105.977043,-6513.812290,1378.971896
1272.307930,5847.626942,-6809.894666,1072.533697
1272.308259,4737.318029,-7254.018232,383.047749
1272.308588,4441.235652,-8660.409521,0.000000
1272.308917,4663.297435,-7846.182985,383.047749
1272.309246,5255.462188,-8142.265362,229.828649
1272.309575,5995.668130,-7846.182985,76.609550
1272.309904,6809.894666,-6883.915261,1685.410096
1272.310233,7550.100608,-6365.771101,1378.971896
1272.310563,7550.100608,-6069.688724,1225.752797
1272.310892,7031.956449,-5699.585753,1149.143247
1272.311221,7698.141797,-4811.338623,995.924147
1272.311550,7920.203579,-4515.256246,1532.190996
1272.311879,8808.450710,-4885.359217,1762.019645
1272.312208,9252.574275,-5033.400406,1608.800546
1272.312537,9104.533087,-5107.421000,1072.533697
1272.312866,7920.203579,-6069.688724,995.924147
1272.313196,6661.853478,-7105.977043,1225.752797
1272.313525,6291.750507,-7994.224174,1225.752797
1272.313854,5773.606348,-8068.244768,1072.533697
1272.314183,4885.359217,-8734.430116,1072.533697
1272.314512,5107.421000,-7994.224174,1455.581446
1272.314841,5255.462188,-8586.388927,919.314598
1272.315170,5995.668130,-7920.203579,919.314598
1272.315499,6217.729913,-7328.038826,306.438199
1272.315829,6439.791695,-6439.791695,383.047749
1272.316158,6365.771101,-7105.977043,1149.143247
1272.316487,6587.832884,-6883.915261,1455.581446
1272.316816,6957.935855,-5847.626942,1225.752797
1272.317145,7105.977043,-5329.482782,1455.581446
1272.317474,8068.244768,-4663.297435,1225.752797
1272.317804,8290.306550,-4663.297435,995.924147
1272.318133,8734.430116,-5255.462188,1762.019645
1272.318462,9400.615463,-4959.379811,1838.629195
1272.318791,8734.430116,-5921.647536,1455.581446
1272.319120,7476.080014,-5625.565159,2145.067394
1272.319449,6883.915261,-6957.935855,1302.362347
1272.319779,6291.750507,-7772.162391,1072.533697
1272.320108,5551.544565,-7698.141797,459.657299
1272.320437,5033.400406,-8216.285956,919.314598
1272.320766,5329.482782,-7476.080014,306.438199
1272.321095,5551.544565,-7476.080014,-306.438199
1272.321424,5921.647536,-7994.224174,306.438199
1272.321754,6513.812290,-7402.059420,842.705048
1272.322083,7550.100608,-6957.935855,1685.410096
1272.322412,7624.121203,-5699.585753,1762.019645
1272.322741,7328.038826,-4959.379811,1149.143247
1272.323070,7550.100608,-4589.276840,919.314598
1272.323399,7698.141797,-4663.297435,1072.533697
1272.323729,8216.285956,-4959.379811,1455.581446
1272.324058,9030.512492,-5329.482782,1455.581446
1272.324387,8808.450710,-5773.606348,1685.410096
1272.324716,8438.347739,-6883.915261,1685.410096
1272.325045,7402.059420,-7920.203579,1838.629195
1272.325374,6365.771101,-8364.327145,1378.971896
1272.325704,5403.503377,-8364.327145,766.095498
1272.326033,5255.462188,-7772.162391,689.485948
1272.326362,5107.421000,-7772.162391,0.000000
1272.326691,4959.379811,-7031.956449,0.000000
1272.327020,5403.503377,-7550.100608,0.000000
1272.327349,5847.626942,-7994.224174,-229.828649
1272.327679,6661.853478,-7179.997637,459.657299
1272.328008,6513.812290,-6735.874072,536.266849
1272.328337,6957.935855,-6217.729913,1302.362347
1272.328666,7105.977043,-5773.606348,1762.019645
1272.328995,8142.265362,-4811.338623,1838.629195
1272.329324,9400.615463,-4219.173869,1838.629195
1272.329654,10140.821405,-3849.070898,2221.676944
1272.329983,9178.553681,-4663.297435,1685.410096
1272.330312,8734.430116,-5403.503377,1302.362347
1272.330641,7920.203579,-6661.853478,1532.190996
1272.330970,7179.997637,-7179.997637,1762.019645
1272.331299,6217.729913,-7031.956449,1378.971896
1272.331629,4959.379811,-7698.141797,766.095498
1272.331958,4589.276840,-7698.141797,229.828649
1272.332287,4293.194464,-7994.224174,0.000000
1272.332616,4885.359217,-8512.368333,612.876398
1272.332945,5995.668130,-8216.285956,76.609550
1272.333274,6735.874072,-7476.080014,995.924147
1272.333604,7550.100608,-6587.832884,919.314598
1272.333933,7846.182985,-6439.791695,1762.019645
1272.334262,8290.306550,-5033.400406,2451.505594
1272.334591,8290.306550,-4737.318029,1608.800546
1272.334920,7994.224174,-4737.318029,1915.238745
1272.335249,7698.141797,-4367.215058,1225.752797
1272.335579,8142.265362,-5403.503377,1302.362347
1272.335908,7920.203579,-5699.585753,1608.800546
1272.336237,7920.203579,-6069.688724,919.314598
1272.336566,7772.162391,-6735.874072,1532.190996
1272.336895,7550.100608,-6957.935855,1685.410096
1272.337224,6143.709319,-7328.038826,1149.143247
1272.337553,5477.523971,-7476.080014,1072.533697
1272.337883,4885.359217,-7550.100608,1072.533697
1272.338212,4663.297435,-7698.141797,76.609550
1272.338541,4663.297435,-7402.059420,0.000000
1272.338870,6069.688724,-7994.224174,612.876398
1272.339199,6661.853478,-7920.203579,766.095498
1272.339528,6883.915261,-7698.141797,995.924147
1272.339858,6883.915261,-7031.956449,1149.143247
1272.340187,6957.935855,-5847.626942,1455.581446
1272.340516,6735.874072,-5995.668130,1072.533697
1272.340845,7254.018232,-4959.379811,995.924147
1272.341174,8364.327145,-4811.338623,1149.143247
1272.341503,9474.636058,-4515.256246,1915.238745
1272.341833,9696.697840,-4441.235652,1608.800546
1272.342162,8956.491898,-5551.544565,1838.629195
1272.342491,8142.265362,-6291.750507,1225.752797
1272.342820,7179.997637,-6661.853478,1149.143247
1272.343149,6439.791695,-6883.915261,1378.971896
1272.343478,5995.668130,-6661.853478,842.705048
1272.343808,5847.626942,-7846.182985,536.266849
1272.344137,5033.400406,-7994.224174,153.219100
1272.344466,4811.338623,-8142.265362,0.000000
1272.344795,5255.462188,-8216.285956,76.609550
1272.345124,6143.709319,-8142.265362,919.314598
1272.345453,6661.853478,-8142.265362,1302.362347
1272.345783,7105.977043,-6439.791695,1302.362347
1272.346112,7328.038826,-5699.585753,1532.190996
1272.346441,8142.265362,-4515.256246,1149.143247
1272.346770,8364.327145,-4293.194464,1685.410096
1272.347099,8290.306550,-4589.276840,2068.457845
1272.347428,8660.409521,-4441.235652,1225.752797
1272.347758,9104.533087,-4811.338623,1149.143247
1272.348087,8586.388927,-5921.647536,1302.362347
1272.348416,8364.327145,-6587.832884,1838.629195
1272.348745,7624.121203,-7031.956449,1762.019645
1272.349074,6439.791695,-7624.121203,919.314598
1272.349403,4959.379811,-7772.162391,1149.143247
1272.349733,4737.318029,-7920.203579,76.609550
1272.350062,4071.132681,-8660.409521,-306.438199
1272.350391,4219.173869,-8660.409521,153.219100
1272.350720,5181.441594,-8216.285956,0.000000
1272.351049,6217.729913,-8216.285956,766.095498
1272.351378,6809.894666,-7402.059420,1378.971896
1272.351708,6809.894666,-6439.791695,1608.800546
1272.352037,7105.977043,-5255.462188,1225.752797
1272.352366,7550.100608,-4441.235652,1838.629195
1272.352695,7994.224174,-4663.297435,1762.019645
1272.353024,8438.347739,-3997.112087,1762.019645
1272.353353,9178.553681,-4589.276840,1762.019645
1272.353683,9474.636058,-4885.359217,1838.629195
1272.354012,9622.677246,-6513.812290,1455.581446
1272.354341,7920.203579,-7254.018232,1455.581446
1272.354670,6661.853478,-7698.141797,995.924147
1272.354999,4959.379811,-8142.265362,612.876398
1272.355328,4367.215058,-8216.285956,76.609550
1272.355658,3923.091493,-8142.265362,0.000000
1272.355987,4515.256246,-8068.244768,0.000000
1272.356316,5847.626942,-8142.265362,153.219100
1272.356645,6957.935855,-7328.038826,1072.533697
1272.356974,7402.059420,-5403.503377,1378.971896
1272.357303,8068.244768,-5699.585753,1532.190996
1272.357633,8364.327145,-5033.400406,2221.676944
1272.357962,8808.450710,-4293.194464,1838.629195
1272.358291,8290.306550,-3849.070898,2145.067394
1272.358620,8734.430116,-3849.070898,1762.019645
1272.358949,8808.450710,-4737.318029,1455.581446
1272.359278,8660.409521,-5181.441594,995.924147
1272.359608,7846.182985,-6365.771101,842.705048
1272.359937,7328.038826,-7328.038826,1072.533697
1272.360266,6587.832884,-7698.141797,919.314598
1272.360595,5551.544565,-8142.265362,1149.143247
1272.360924,5033.400406,-8142.265362,612.876398
1272.361253,5033.400406,-7624.121203,383.047749
1272.361583,4663.297435,-7402.059420,383.047749
1272.361912,4959.379811,-7698.141797,0.000000
1272.362241,5921.647536,-8068.244768,306.438199
1272.362570,6587.832884,-7550.100608,766.095498
1272.362899,7550.100608,-7698.141797,1915.238745
1272.363228,7179.997637,-6587.832884,1455.581446
1272.363558,6957.935855,-6365.771101,1072.533697
1272.363887,6957.935855,-5699.585753,1072.533697
1272.364216,7624.121203,-5107.421000,766.095498
1272.364545,8216.285956,-5033.400406,842.705048
1272.364874,8512.368333,-5033.400406,1685.410096
1272.365203,8734.430116,-5033.400406,1455.581446
1272.365533,9178.553681,-5477.523971,1762.019645
1272.365862,8808.450710,-5329.482782,2451.505594
1272.366191,7402.059420,-6439.791695,1225.752797
1272.366520,6513.812290,-6809.894666,1608.800546
1272.366849,5403.503377,-7550.100608,766.095498
1272.367178,4885.359217,-8438.347739,689.485948
1272.367508,4071.132681,-7698.141797,689.485948
1272.367837,4737.318029,-8216.285956,153.219100
1272.368166,5625.565159,-8290.306550,306.438199
1272.368495,6809.894666,-7846.182985,612.876398
1272.368824,7402.059420,-7254.018232,1072.533697
1272.369153,7698.141797,-6735.874072,766.095498
1272.369483,7105.977043,-5551.544565,1149.143247
1272.369812,7179.997637,-5033.400406,919.314598
1272.370141,7624.121203,-4515.256246,1302.362347
1272.370470,8734.430116,-4663.297435,1378.971896
1272.370799,9178.553681,-5255.462188,1915.238745
1272.371128,8882.471304,-4737.318029,1838.629195
1272.371458,8512.368333,-5329.482782,1149.143247
1272.371787,7772.162391,-6291.750507,1378.971896
1272.372116,7031.956449,-7105.977043,1608.800546
1272.372445,6661.853478,-7328.038826,1455.581446
1272.372774,5773.606348,-7105.977043,1149.143247
1272.373103,5255.462188,-7105.977043,1072.533697
1272.373433,4959.379811,-7994.224174,229.828649
1272.373762,5329.482782,-7994.224174,229.828649
1272.374091,5255.462188,-8438.347739,229.828649
1272.374420,5477.523971,-8364.327145,153.219100
1272.374749,5921.647536,-7624.121203,459.657299
1272.375078,5847.626942,-7402.059420,1149.143247
1272.375408,6513.812290,-7105.977043,995.924147
1272.375737,6809.894666,-5921.647536,1149.143247
1272.376066,7254.018232,-5181.441594,1378.971896
1272.376395,8290.306550,-4959.379811,1991.848295
1272.376724,8956.491898,-3997.112087,2145.067394
1272.377053,9400.615463,-4515.256246,1149.143247
1272.377383,8808.450710,-5033.400406,1378.971896
1272.377712,8142.265362,-5625.565159,1532.190996
1272.378041,7624.121203,-5995.668130,536.266849
1272.378370,6883.915261,-6661.853478,1838.629195
1272.378699,6143.709319,-7550.100608,306.438199
1272.379028,5403.503377,-7179.997637,-383.047749
1272.379358,4663.297435,-8142.265362,76.609550
1272.379687,4959.379811,-8956.491898,76.609550
1272.380016,5403.503377,-7846.182985,153.219100
1272.380345,6291.750507,-7698.141797,766.095498
1272.380674,7031.956449,-7402.059420,1149.143247
1272.381003,7476.080014,-5699.585753,1378.971896
1272.381333,7994.224174,-5403.503377,1149.143247
1272.381662,8216.285956,-5033.400406,1915.238745
1272.381991,7994.224174,-4737.318029,1915.238745
1272.382320,8364.327145,-4219.173869,1149.143247
1272.382649,8512.368333,-5329.482782,1225.752797
1272.382978,8290.306550,-5625.565159,689.485948
1272.383308,8512.368333,-7105.977043,1685.410096
1272.383637,8216.285956,-7105.977043,1838.629195
1272.383966,8068.244768,-5995.668130,1378.971896
1272.384295,7031.956449,-6587.832884,1685.410096
1272.384624,6069.688724,-6661.853478,1072.533697
1272.384953,4885.359217,-7772.162391,612.876398
1272.385283,4885.359217,-7254.018232,0.000000
1272.385612,4885.359217,-7328.038826,842.705048
1272.385941,5403.503377,-7994.224174,0.000000
1272.386270,5921.647536,-7846.182985,766.095498
1272.386599,6291.750507,-7772.162391,1072.533697
1272.386928,6809.894666,-6661.853478,1149.143247
1272.387258,7031.956449,-5625.565159,1608.800546
1272.387587,7550.100608,-5625.565159,1762.019645
1272.387916,7994.224174,-4811.338623,1455.581446
1272.388245,8438.347739,-5403.503377,1608.800546
1272.388574,8808.450710,-4663.297435,1915.238745
1272.388903,8290.306550,-5773.606348,1608.800546
1272.389232,8216.285956,-6217.729913,1455.581446
1272.389562,8216.285956,-6291.750507,1532.190996
1272.389891,6735.874072,-7105.977043,1455.581446
1272.390220,5847.626942,-7476.080014,536.266849
1272.390549,4515.256246,-7698.141797,76.609550
1272.390878,4071.132681,-8216.285956,0.000000
1272.391207,4441.235652,-7920.203579,-306.438199
1272.391537,5033.400406,-8660.409521,306.438199
1272.391866,6735.874072,-8734.430116,612.876398
1272.392195,7476.080014,-8068.244768,1302.362347
1272.392524,8068.244768,-6661.853478,1378.971896
1272.392853,8142.265362,-5477.523971,1455.581446
1272.393182,8290.306550,-4367.215058,919.314598
1272.393512,8364.327145,-4219.173869,995.924147
1272.393841,8290.306550,-4737.318029,1532.190996
1272.394170,8956.491898,-4737.318029,995.924147
1272.394499,8882.471304,-4959.379811,1149.143247
1272.394828,8216.285956,-5403.503377,2298.286494
1272.395157,7624.121203,-6809.894666,1225.752797
1272.395487,7328.038826,-6661.853478,1072.533697
1272.395816,6513.812290,-6883.915261,1455.581446
1272.396145,6143.709319,-7624.121203,1225.752797
1272.396474,5107.421000,-6587.832884,766.095498
1272.396803,5033.400406,-7476.080014,612.876398
1272.397132,5033.400406,-7105.977043,0.000000
1272.397462,5329.482782,-7920.203579,229.828649
1272.397791,6217.729913,-8586.388927,766.095498
1272.398120,7031.956449,-8512.368333,1149.143247
1272.398449,6735.874072,-7402.059420,766.095498
1272.398778,6365.771101,-7105.977043,689.485948
1272.399107,6513.812290,-6291.750507,1532.190996
1272.399437,6809.894666,-5847.626942,842.705048
1272.399766,7402.059420,-5625.565159,612.876398
1272.400095,7846.182985,-4811.338623,1072.533697
1272.400424,8882.471304,-4737.318029,1072.533697
1272.400753,9696.697840,-4885.359217,2068.457845
1272.401082,8956.491898,-5773.606348,2451.505594
1272.401412,7846.182985,-5921.647536,1378.971896
1272.401741,6735.874072,-6439.791695,1302.362347
1272.402070,5995.668130,-6661.853478,1225.752797
1272.402399,5329.482782,-7254.018232,536.266849
1272.402728,4737.318029,-7698.141797,153.219100
1272.403057,4441.235652,-8216.285956,0.000000
1272.403387,5033.400406,-8512.368333,76.609550
1272.403716,6217.729913,-8290.306550,1149.143247
1272.404045,6365.771101,-7402.059420,995.924147
1272.404374,6513.812290,-6883.915261,229.828649
1272.404703,6809.894666,-6291.750507,1225.752797
1272.405032,7328.038826,-5773.606348,1532.190996
1272.405362,8586.388927,-4811.338623,1915.238745
1272.405691,8956.491898,-4441.235652,1915.238745
1272.406020,8660.409521,-4515.256246,1302.362347
1272.406349,8734.430116,-4959.379811,1378.971896
1272.406678,8808.450710,-5773.606348,1378.971896
1272.407007,8808.450710,-5995.668130,689.485948
1272.407337,7550.100608,-6513.812290,1915.238745
1272.407666,6735.874072,-7031.956449,1149.143247
1272.407995,5995.668130,-7624.121203,995.924147
1272.408324,5033.400406,-7328.038826,995.924147
1272.408653,5033.400406,-7550.100608,306.438199
1272.408982,4959.379811,-7920.203579,-76.609550
1272.409312,5329.482782,-7402.059420,306.438199
1272.409641,5699.585753,-8216.285956,536.266849
1272.409970,6587.832884,-7179.997637,1149.143247
1272.410299,6513.812290,-7179.997637,1225.752797
1272.410628,6735.874072,-6883.915261,1378.971896
1272.410957,7105.977043,-5551.544565,1149.143247
1272.411287,7550.100608,-4663.297435,1378.971896
1272.411616,8512.368333,-4811.338623,1532.190996
1272.411945,9030.512492,-4515.256246,1608.800546
1272.412274,8882.471304,-4811.338623,1608.800546
1272.412603,8512.368333,-5773.606348,995.924147
1272.412932,8364.327145,-6513.812290,1455.581446
1272.413262,7402.059420,-7031.956449,919.314598
1272.413591,6587.832884,-7550.100608,1072.533697
1272.413920,5329.482782,-7920.203579,383.047749
1272.414249,4663.297435,-7698.141797,0.000000
1272.414578,4589.276840,-7846.182985,383.047749
1272.414907,4959.379811,-7846.182985,153.219100
1272.415237,5403.503377,-7698.141797,76.609550
1272.415566,6365.771101,-7328.038826,842.705048
1272.415895,7476.080014,-6883.915261,1378.971896
1272.416224,8068.244768,-6365.771101,1532.190996
1272.416553,7994.224174,-5403.503377,1838.629195
1272.416882,7920.203579,-4737.318029,1532.190996
1272.417212,7772.162391,-4441.235652,919.314598
1272.417541,7846.182985,-4737.318029,995.924147
1272.417870,7920.203579,-5995.668130,1378.971896
1272.418199,8216.285956,-5921.647536,1378.971896
1272.418528,8068.244768,-6291.750507,1455.581446
1272.418858,7772.162391,-7031.956449,1915.238745
1272.419187,7105.977043,-7031.956449,1225.752797
1272.419516,6439.791695,-7550.100608,1225.752797
1272.419845,6143.709319,-7179.997637,1225.752797
1272.420174,5403.503377,-7105.977043,766.095498
1272.420504,5995.668130,-6587.832884,689.485948
1272.420833,6217.729913,-6809.894666,612.876398
1272.421162,6217.729913,-7254.018232,306.438199
1272.421491,6439.791695,-7402.059420,-229.828649
1272.421820,6957.935855,-7846.182985,919.314598
1272.422150,6513.812290,-7105.977043,1072.533697
1272.422479,6957.935855,-6439.791695,536.266849
1272.422808,6735.874072,-6069.688724,1378.971896
1272.423137,7328.038826,-5255.462188,1225.752797
1272.423466,8364.327145,-5107.421000,2374.896044
1272.423796,9104.533087,-4367.215058,1685.410096
1272.424125,9252.574275,-4515.256246,1225.752797
1272.424454,8734.430116,-5033.400406,1302.362347
1272.424783,7920.203579,-5995.668130,1378.971896
1272.425112,6957.935855,-7402.059420,1455.581446
1272.425442,6439.791695,-7179.997637,1225.752797
1272.425771,5551.544565,-7402.059420,1072.533697
1272.426100,4737.318029,-7698.141797,459.657299
1272.426429,4737.318029,-8142.265362,306.438199
1272.426758,4441.235652,-8956.491898,306.438199
1272.427088,5329.482782,-8956.491898,-229.828649
1272.427417,6143.709319,-7772.162391,306.438199
1272.427746,6661.853478,-7550.100608,536.266849
1272.428075,7624.121203,-6513.812290,1378.971896
1272.428404,7550.100608,-5699.585753,1455.581446
1272.428734,8364.327145,-5107.421000,1225.752797
1272.429063,8808.450710,-4219.173869,1455.581446
1272.429392,8660.409521,-4515.256246,1302.362347
1272.429721,8734.430116,-4811.338623,1149.143247
1272.430050,8512.368333,-5773.606348,1455.581446
1272.430380,8512.368333,-6587.832884,1455.581446
1272.430709,7994.224174,-6291.750507,1685.410096
1272.431038,7031.956449,-6365.771101,1991.848295
1272.431367,6587.832884,-6735.874072,1302.362347
1272.431696,5625.565159,-7105.977043,919.314598
1272.432026,4885.359217,-7402.059420,842.705048
1272.432355,4811.338623,-7846.182985,-229.828649
1272.432684,4959.379811,-7476.080014,689.485948
1272.433013,5329.482782,-7772.162391,459.657299
1272.433343,6143.709319,-7772.162391,536.266849
1272.433672,6513.812290,-7402.059420,766.095498
1272.434001,7105.977043,-6439.791695,1225.752797
1272.434330,7105.977043,-5699.585753,612.876398
1272.434659,7328.038826,-4737.318029,1378.971896
1272.434989,8142.265362,-4367.215058,1302.362347
1272.435318,8956.491898,-5033.400406,1608.800546
1272.435647,8956.491898,-4589.276840,1608.800546
1272.435976,8734.430116,-5477.523971,1072.533697
1272.436305,8142.265362,-5625.565159,1302.362347
1272.436635,7550.100608,-7031.956449,919.314598
1272.436964,6513.812290,-7179.997637,612.876398
1272.437293,5921.647536,-7772.162391,1302.362347
1272.437622,5329.482782,-8068.244768,842.705048
1272.437951,4737.318029,-7846.182985,459.657299
1272.438281,4589.276840,-8142.265362,459.657299
1272.438610,4885.359217,-7846.182985,153.219100
1272.438939,5921.647536,-7772.162391,459.657299
1272.439268,6883.915261,-7105.977043,919.314598
1272.439597,7179.997637,-6661.853478,1225.752797
1272.439927,7550.100608,-5403.503377,1378.971896
1272.440256,7550.100608,-4663.297435,1302.362347
1272.440585,8068.244768,-4737.318029,1302.362347
1272.440914,8438.347739,-4885.359217,1608.800546
1272.441243,8956.491898,-5477.523971,1532.190996
1272.441573,9178.553681,-5995.668130,1608.800546
1272.441902,8438.347739,-6513.812290,1072.533697
1272.442231,7772.162391,-7105.977043,766.095498
1272.442560,7105.977043,-7105.977043,1072.533697
1272.442889,7105.977043,-6735.874072,919.314598
1272.443219,7476.080014,-7550.100608,689.485948
1272.443548,6661.853478,-6439.791695,1378.971896
1272.443877,5847.626942,-7254.018232,1149.143247
1272.444206,5477.523971,-7105.977043,383.047749
1272.444535,4737.318029,-7402.059420,536.266849
1272.444865,5181.441594,-7402.059420,-306.438199
1272.445194,5477.523971,-7698.141797,0.000000
1272.445523,5921.647536,-7402.059420,153.219100
1272.445852,6365.771101,-7031.956449,689.485948
1272.446181,7105.977043,-6365.771101,1149.143247
1272.446511,6957.935855,-5625.565159,1455.581446
1272.446840,7624.121203,-5477.523971,1762.019645
1272.447169,8882.471304,-5329.482782,2145.067394
1272.447498,9178.553681,-4885.359217,1915.238745
1272.447827,9252.574275,-5107.421000,1455.581446
1272.448157,8586.388927,-5107.421000,1532.190996
1272.448486,7846.182985,-5921.647536,1225.752797
1272.448815,6957.935855,-6587.832884,1149.143247
1272.449144,5551.544565,-6661.853478,1149.143247
1272.449473,5107.421000,-7550.100608,383.047749
1272.449803,4885.359217,-7698.141797,0.000000
1272.450132,4737.318029,-8290.306550,76.609550
1272.450461,5625.565159,-8586.388927,306.438199
1272.450790,6069.688724,-8142.265362,306.438199
1272.451120,5921.647536,-7476.080014,306.438199
1272.451449,6661.853478,-6661.853478,689.485948
1272.451778,7328.038826,-6069.688724,1685.410096
1272.452107,7624.121203,-4885.359217,1608.800546
1272.452436,9030.512492,-3923.091493,1991.848295
1272.452766,9326.594869,-4145.153275,2145.067394
1272.453095,9548.656652,-4663.297435,1762.019645
1272.453424,8808.450710,-4737.318029,1608.800546
1272.453753,8882.471304,-5329.482782,1608.800546
1272.454082,8290.306550,-6587.832884,1072.533697
1272.454412,7402.059420,-7179.997637,1455.581446
1272.454741,6439.791695,-7920.203579,1762.019645
1272.455070,5699.585753,-7624.121203,612.876398
1272.455399,4811.338623,-8216.285956,383.047749
1272.455728,4589.276840,-8216.285956,153.219100
1272.456058,4885.359217,-8586.388927,229.828649
1272.456387,5403.503377,-8438.347739,306.438199
1272.456716,5699.585753,-7994.224174,-229.828649
1272.457045,6069.688724,-7550.100608,459.657299
1272.457374,6883.915261,-6883.915261,1072.533697
1272.457704,7698.141797,-5995.668130,1149.143247
1272.458033,7920.203579,-4885.359217,2298.286494
1272.458362,8216.285956,-3552.988522,1302.362347
1272.458691,8734.430116,-4441.235652,1532.190996
1272.459020,9474.636058,-4589.276840,1685.410096
1272.459350,8956.491898,-5255.462188,1532.190996
1272.459679,8586.388927,-5625.565159,1915.238745
1272.460008,8216.285956,-6217.729913,1455.581446
1272.460337,7179.997637,-7402.059420,995.924147
1272.460666,5551.544565,-7402.059420,842.705048
1272.460996,4811.338623,-7846.182985,766.095498
1272.461325,4589.276840,-8068.244768,612.876398
