#time,accel_x,accel_y,accel_z
1451.722859,7402.059420,-7105.977043,536.266849
1451.723190,7328.038826,-6587.832884,1072.533697
1451.723520,7254.018232,-6143.709319,766.095498
1451.723850,7179.997637,-6661.853478,842.705048
1451.724181,6957.935855,-6587.832884,1225.752797
1451.724511,6883.915261,-6661.853478,1072.533697
1451.724841,6957.935855,-6513.812290,689.485948
1451.725172,7105.977043,-6069.688724,1149.143247
1451.725502,7254.018232,-6069.688724,1378.971896
1451.725832,7550.100608,-6513.812290,1072.533697
1451.726163,7179.997637,-6513.812290,1225.752797
1451.726493,7179.997637,-6291.750507,1072.533697
1451.726823,7031.956449,-6217.729913,1149.143247
1451.727154,7031.956449,-6513.812290,1225.752797
1451.727484,7105.977043,-6217.729913,1149.143247
1451.727814,7031.956449,-6661.853478,995.924147
1451.728145,6883.915261,-6439.791695,1225.752797
1451.728475,6735.874072,-6735.874072,842.705048
1451.728805,6809.894666,-6883.915261,1455.581446
1451.729136,6735.874072,-7105.977043,1225.752797
1451.729466,6587.832884,-6661.853478,689.485948
1451.729797,6661.853478,-6217.729913,995.924147
1451.730127,7105.977043,-6957.935855,919.314598
1451.730457,7105.977043,-6587.832884,919.314598
1451.730788,7328.038826,-6291.750507,1302.362347
1451.731118,6957.935855,-6365.771101,689.485948
1451.731448,7179.997637,-6587.832884,842.705048
1451.731779,7105.977043,-6735.874072,1455.581446
1451.732109,7105.977043,-6957.935855,612.876398
1451.732439,7105.977043,-6291.750507,1149.143247
1451.732770,7179.997637,-6291.750507,1225.752797
1451.733100,6883.915261,-6439.791695,1072.533697
1451.733430,6735.874072,-6735.874072,1302.362347
1451.733761,6809.894666,-6661.853478,1072.533697
1451.734091,7031.956449,-6513.812290,1378.971896
1451.734421,6809.894666,-6513.812290,1149.143247
1451.734752,6809.894666,-7179.997637,919.314598
1451.735082,6809.894666,-6809.894666,919.314598
1451.735412,6735.874072,-6883.915261,919.314598
1451.735743,6587.832884,-6809.894666,919.314598
1451.736073,6661.853478,-6883.915261,995.924147
1451.736403,6883.915261,-6513.812290,689.485948
1451.736734,6735.874072,-6883.915261,842.705048
1451.737064,6883.915261,-6513.812290,766.095498
1451.737394,6587.832884,-6883.915261,995.924147
1451.737725,7105.977043,-6809.894666,995.924147
1451.738055,7179.997637,-6439.791695,1302.362347
1451.738385,7105.977043,-6587.832884,1072.533697
1451.738716,7031.956449,-6513.812290,919.314598
1451.739046,7105.977043,-6587.832884,1072.533697
1451.739376,7254.018232,-6513.812290,1455.581446
1451.739707,7031.956449,-6365.771101,919.314598
1451.740037,7402.059420,-5847.626942,995.924147
1451.740368,7105.977043,-6587.832884,1149.143247
1451.740698,7179.997637,-6291.750507,1149.143247
1451.741028,7105.977043,-6217.729913,1225.752797
1451.741359,7550.100608,-6291.750507,842.705048
1451.741689,7031.956449,-6587.832884,689.485948
1451.742019,6661.853478,-6365.771101,842.705048
1451.742350,7105.977043,-7105.977043,1378.971896
1451.742680,7179.997637,-6513.812290,1685.410096
1451.743010,6735.874072,-6587.832884,1225.752797
1451.743341,6735.874072,-6809.894666,842.705048
1451.743671,7031.956449,-6883.915261,306.438199
1451.744001,7031.956449,-6809.894666,612.876398
1451.744332,6587.832884,-6883.915261,842.705048
1451.744662,6809.894666,-6661.853478,1072.533697
1451.744992,7105.977043,-6809.894666,1149.143247
1451.745323,7254.018232,-6513.812290,1302.362347
1451.745653,7402.059420,-6291.750507,1378.971896
1451.745983,6957.935855,-6143.709319,919.314598
1451.746314,7328.038826,-6735.874072,1225.752797
1451.746644,6957.935855,-6735.874072,1225.752797
1451.746974,7254.018232,-6513.812290,995.924147
1451.747305,7105.977043,-6587.832884,1149.143247
1451.747635,7328.038826,-6439.791695,1149.143247
1451.747965,6809.894666,-6439.791695,995.924147
1451.748296,6809.894666,-6513.812290,1302.362347
1451.748626,7328.038826,-6587.832884,919.314598
1451.748956,6957.935855,-6365.771101,1149.143247
1451.749287,6587.832884,-6587.832884,1149.143247
1451.749617,6587.832884,-6365.771101,1225.752797
1451.749947,7105.977043,-6439.791695,842.705048
1451.750278,6661.853478,-6513.812290,1149.143247
1451.750608,6809.894666,-6735.874072,995.924147
1451.750939,6883.915261,-7105.977043,1225.752797
1451.751269,6735.874072,-7105.977043,995.924147
1451.751599,7031.956449,-6809.894666,536.266849
1451.751930,6661.853478,-6587.832884,766.095498
1451.752260,6809.894666,-7105.977043,689.485948
1451.752590,7105.977043,-6883.915261,842.705048
1451.752921,7105.977043,-6143.709319,689.485948
1451.753251,7254.018232,-6735.874072,842.705048
1451.753581,7328.038826,-6217.729913,842.705048
1451.753912,7402.059420,-6291.750507,1302.362347
1451.754242,7105.977043,-6513.812290,689.485948
1451.754572,6883.915261,-6069.688724,1072.533697
1451.754903,7254.018232,-6587.832884,1225.752797
1451.755233,7179.997637,-6513.812290,919.314598
1451.755563,6883.915261,-6661.853478,1302.362347
1451.755894,7031.956449,-5995.668130,1455.581446
1451.756224,6809.894666,-5847.626942,995.924147
1451.756554,7105.977043,-6143.709319,995.924147
1451.756885,6809.894666,-6735.874072,1225.752797
1451.757215,7105.977043,-6957.935855,842.705048
1451.757545,7031.956449,-6143.709319,919.314598
1451.757876,7031.956449,-6661.853478,612.876398
1451.758206,6809.894666,-6957.935855,766.095498
1451.758536,6809.894666,-6661.853478,1378.971896
1451.758867,6883.915261,-7031.956449,919.314598
1451.759197,6661.853478,-6365.771101,536.266849
1451.759527,6809.894666,-6661.853478,919.314598
1451.759858,6809.894666,-7254.018232,842.705048
1451.760188,7031.956449,-6439.791695,1149.143247
1451.760518,6587.832884,-6143.709319,1072.533697
1451.760849,7254.018232,-6587.832884,1072.533697
1451.761179,7328.038826,-6661.853478,1225.752797
1451.761510,7179.997637,-6661.853478,842.705048
1451.761840,7105.977043,-6735.874072,919.314598
1451.762170,7846.182985,-6217.729913,842.705048
1451.762501,7105.977043,-6291.750507,766.095498
1451.762831,7031.956449,-6587.832884,1149.143247
1451.763161,7031.956449,-6735.874072,1378.971896
1451.763492,7105.977043,-6513.812290,1149.143247
1451.763822,6735.874072,-6217.729913,1532.190996
1451.764152,6439.791695,-6069.688724,1072.533697
1451.764483,6809.894666,-6809.894666,842.705048
1451.764813,6809.894666,-6809.894666,1149.143247
1451.765143,6661.853478,-6735.874072,459.657299
1451.765474,6883.915261,-6735.874072,1149.143247
1451.765804,6735.874072,-6957.935855,1455.581446
1451.766134,6661.853478,-7105.977043,1072.533697
1451.766465,6587.832884,-7031.956449,459.657299
1451.766795,6439.791695,-7105.977043,459.657299
1451.767125,6809.894666,-7105.977043,842.705048
1451.767456,7105.977043,-6735.874072,1072.533697
1451.767786,6661.853478,-6439.791695,1225.752797
1451.768116,7179.997637,-6069.688724,995.924147
1451.768447,7772.162391,-6291.750507,1302.362347
1451.768777,7105.977043,-6513.812290,1072.533697
1451.769107,7254.018232,-6217.729913,689.485948
1451.769438,7105.977043,-5847.626942,995.924147
1451.769768,7254.018232,-6365.771101,766.095498
1451.770098,6883.915261,-6365.771101,995.924147
1451.770429,6883.915261,-6809.894666,1225.752797
1451.770759,7031.956449,-6439.791695,842.705048
1451.771089,7105.977043,-6365.771101,689.485948
1451.771420,7105.977043,-6217.729913,1072.533697
1451.771750,6957.935855,-6513.812290,995.924147
1451.772081,7105.977043,-6291.750507,919.314598
1451.772411,7031.956449,-6291.750507,919.314598
1451.772741,7105.977043,-6217.729913,459.657299
1451.773072,6883.915261,-6587.832884,1149.143247
1451.773402,6957.935855,-7031.956449,689.485948
1451.773732,7105.977043,-6957.935855,536.266849
1451.774063,7105.977043,-6513.812290,919.314598
1451.774393,6957.935855,-6957.935855,689.485948
1451.774723,7031.956449,-6809.894666,842.705048
1451.775054,7105.977043,-6661.853478,1149.143247
1451.775384,7105.977043,-6809.894666,995.924147
1451.775714,7624.121203,-6143.709319,689.485948
1451.776045,7328.038826,-6587.832884,1455.581446
1451.776375,7105.977043,-6439.791695,919.314598
1451.776705,7105.977043,-6069.688724,995.924147
1451.777036,7179.997637,-5995.668130,1072.533697
1451.777366,7402.059420,-6661.853478,842.705048
1451.777696,7031.956449,-6513.812290,1225.752797
1451.778027,6957.935855,-6661.853478,995.924147
1451.778357,6809.894666,-6439.791695,995.924147
1451.778687,6587.832884,-6069.688724,766.095498
1451.779018,7031.956449,-6661.853478,689.485948
1451.779348,6735.874072,-6735.874072,1455.581446
1451.779678,6587.832884,-6661.853478,1455.581446
1451.780009,6587.832884,-6661.853478,1072.533697
1451.780339,6365.771101,-6809.894666,1225.752797
1451.780669,6439.791695,-6439.791695,1225.752797
1451.781000,6661.853478,-6883.915261,766.095498
1451.781330,6513.812290,-6809.894666,919.314598
1451.781661,6809.894666,-6883.915261,1225.752797
1451.781991,7031.956449,-7105.977043,1072.533697
1451.782321,6957.935855,-6735.874072,995.924147
1451.782652,7105.977043,-6513.812290,1225.752797
1451.782982,7254.018232,-6957.935855,1225.752797
1451.783312,6735.874072,-6143.709319,612.876398
1451.783643,7105.977043,-6809.894666,1072.533697
1451.783973,7105.977043,-6365.771101,1149.143247
1451.784303,7402.059420,-5847.626942,1302.362347
1451.784634,7254.018232,-6291.750507,1072.533697
1451.784964,7476.080014,-6513.812290,1378.971896
1451.785294,7031.956449,-6513.812290,1149.143247
1451.785625,7031.956449,-6513.812290,919.314598
1451.785955,6661.853478,-6809.894666,919.314598
1451.786285,6661.853478,-6143.709319,995.924147
1451.786616,7031.956449,-6883.915261,1072.533697
1451.786946,7105.977043,-6735.874072,995.924147
1451.787276,6809.894666,-6439.791695,842.705048
1451.787606,6957.935855,-6439.791695,995.924147
1451.787935,7254.018232,-6735.874072,995.924147
1451.788264,7105.977043,-6365.771101,1225.752797
1451.788593,6957.935855,-6661.853478,536.266849
1451.788923,6883.915261,-6513.812290,919.314598
1451.789252,6957.935855,-6661.853478,689.485948
1451.789581,6809.894666,-6217.729913,1302.362347
1451.789910,7179.997637,-6439.791695,1072.533697
1451.790240,7105.977043,-6587.832884,689.485948
1451.790569,7402.059420,-6439.791695,1072.533697
1451.790898,7031.956449,-6291.750507,1149.143247
1451.791227,7105.977043,-5995.668130,842.705048
1451.791557,7402.059420,-6365.771101,1149.143247
1451.791886,7254.018232,-6069.688724,1302.362347
1451.792215,7105.977043,-6217.729913,842.705048
1451.792544,7179.997637,-6809.894666,1302.362347
1451.792874,7328.038826,-6217.729913,1302.362347
1451.793203,7031.956449,-6661.853478,1072.533697
1451.793532,6513.812290,-6513.812290,1072.533697
1451.793861,6291.750507,-6809.894666,1225.752797
1451.794191,6809.894666,-6883.915261,919.314598
1451.794520,6587.832884,-6439.791695,1225.752797
1451.794849,6661.853478,-6809.894666,995.924147
1451.795179,6513.812290,-6883.915261,1302.362347
1451.795508,6291.750507,-6809.894666,1608.800546
1451.795837,6883.915261,-7179.997637,1072.533697
1451.796166,6735.874072,-6735.874072,919.314598
1451.796496,6587.832884,-7031.956449,689.485948
1451.796825,6957.935855,-6809.894666,1225.752797
1451.797154,7179.997637,-6217.729913,2374.896044
1451.797483,6883.915261,-6587.832884,919.314598
1451.797813,7105.977043,-6587.832884,536.266849
1451.798142,6883.915261,-6513.812290,842.705048
1451.798471,7105.977043,-6809.894666,842.705048
1451.798800,6883.915261,-6143.709319,995.924147
1451.799130,7105.977043,-6143.709319,1455.581446
1451.799459,7105.977043,-6439.791695,1072.533697
1451.799788,7105.977043,-5921.647536,689.485948
1451.800117,7179.997637,-6291.750507,1225.752797
1451.800447,7105.977043,-6217.729913,995.924147
1451.800776,6957.935855,-5995.668130,842.705048
1451.801105,6957.935855,-6587.832884,766.095498
1451.801434,6957.935855,-6883.915261,1302.362347
1451.801764,7179.997637,-6365.771101,689.485948
1451.802093,6883.915261,-6735.874072,919.314598
1451.802422,6661.853478,-6883.915261,612.876398
1451.802751,6735.874072,-6661.853478,1225.752797
1451.803081,7105.977043,-7179.997637,995.924147
1451.803410,7031.956449,-6883.915261,766.095498
1451.803739,6957.935855,-6291.750507,919.314598
1451.804068,6809.894666,-6735.874072,1072.533697
1451.804398,7105.977043,-6439.791695,1302.362347
1451.804727,7328.038826,-5403.503377,1072.533697
1451.805056,7254.018232,-6735.874072,842.705048
1451.805385,7105.977043,-6217.729913,1149.143247
1451.805715,7105.977043,-6291.750507,1149.143247
1451.806044,7105.977043,-6661.853478,1762.019645
1451.806373,7179.997637,-6291.750507,1149.143247
1451.806702,7179.997637,-6217.729913,1225.752797
1451.807032,6957.935855,-6291.750507,1225.752797
1451.807361,7105.977043,-6587.832884,919.314598
1451.807690,7105.977043,-6143.709319,919.314598
1451.808020,6957.935855,-6143.709319,1072.533697
1451.808349,6883.915261,-6439.791695,1225.752797
1451.808678,6809.894666,-6513.812290,919.314598
1451.809007,6735.874072,-6661.853478,1225.752797
1451.809337,6513.812290,-6587.832884,1608.800546
1451.809666,6661.853478,-6661.853478,842.705048
1451.809995,6587.832884,-6883.915261,1685.410096
1451.810324,6587.832884,-6957.935855,1302.362347
1451.810654,6809.894666,-7402.059420,459.657299
1451.810983,6513.812290,-6735.874072,1378.971896
1451.811312,6661.853478,-7105.977043,995.924147
1451.811641,7179.997637,-6957.935855,995.924147
1451.811971,7031.956449,-6661.853478,1532.190996
1451.812300,7402.059420,-6217.729913,766.095498
1451.812629,7105.977043,-6365.771101,1149.143247
1451.812958,6957.935855,-6735.874072,1072.533697
1451.813288,6809.894666,-6587.832884,689.485948
1451.813617,6957.935855,-6143.709319,1378.971896
1451.813946,6957.935855,-6439.791695,1149.143247
1451.814275,7105.977043,-6439.791695,995.924147
1451.814605,7105.977043,-6809.894666,1225.752797
1451.814934,7179.997637,-6735.874072,1149.143247
1451.815263,7105.977043,-6513.812290,1608.800546
1451.815592,6587.832884,-6513.812290,1072.533697
1451.815922,6587.832884,-6735.874072,1225.752797
1451.816251,6883.915261,-6883.915261,1072.533697
1451.816580,7105.977043,-6587.832884,1302.362347
1451.816909,6883.915261,-6143.709319,919.314598
1451.817239,6735.874072,-6513.812290,919.314598
1451.817568,6661.853478,-6439.791695,919.314598
1451.817897,6809.894666,-6957.935855,766.095498
1451.818226,6957.935855,-6439.791695,306.438199
1451.818556,6957.935855,-6809.894666,842.705048
1451.818885,7179.997637,-6957.935855,536.266849
1451.819214,7179.997637,-6365.771101,1149.143247
1451.819544,7105.977043,-6661.853478,689.485948
1451.819873,7328.038826,-5921.647536,1072.533697
1451.820202,7254.018232,-6587.832884,919.314598
1451.820531,7105.977043,-6661.853478,842.705048
1451.820861,7179.997637,-6217.729913,1072.533697
1451.821190,7476.080014,-5699.585753,383.047749
1451.821519,7105.977043,-6217.729913,995.924147
1451.821848,6809.894666,-6143.709319,842.705048
1451.822178,6883.915261,-6439.791695,1225.752797
1451.822507,6883.915261,-6143.709319,1149.143247
1451.822836,7031.956449,-6661.853478,919.314598
1451.823165,6809.894666,-6291.750507,1072.533697
1451.823495,6883.915261,-6883.915261,995.924147
1451.823824,7031.956449,-6883.915261,995.924147
1451.824153,6957.935855,-6809.894666,919.314598
1451.824482,6883.915261,-7031.956449,1302.362347
1451.824812,6587.832884,-7105.977043,1302.362347
1451.825141,6809.894666,-6957.935855,919.314598
1451.825470,6587.832884,-6883.915261,919.314598
1451.825799,6513.812290,-6439.791695,842.705048
1451.826129,6809.894666,-7031.956449,1149.143247
1451.826458,6957.935855,-6809.894666,1072.533697
1451.826787,6957.935855,-6439.791695,919.314598
1451.827116,7105.977043,-6735.874072,842.705048
1451.827446,6661.853478,-6291.750507,1608.800546
1451.827775,7105.977043,-6957.935855,1302.362347
1451.828104,7031.956449,-6661.853478,1072.533697
1451.828433,7179.997637,-6291.750507,1072.533697
1451.828763,7328.038826,-6365.771101,842.705048
1451.829092,7105.977043,-6809.894666,1378.971896
1451.829421,6809.894666,-6661.853478,1225.752797
1451.829750,6735.874072,-5921.647536,766.095498
1451.830080,7105.977043,-6069.688724,689.485948
1451.830409,6957.935855,-6439.791695,536.266849
1451.830738,6587.832884,-6587.832884,842.705048
1451.831067,7031.956449,-7031.956449,1302.362347
1451.831397,6883.915261,-6291.750507,1378.971896
1451.831726,6365.771101,-6439.791695,1149.143247
1451.832055,6809.894666,-7031.956449,1149.143247
1451.832385,6883.915261,-7105.977043,1072.533697
1451.832714,7105.977043,-7105.977043,689.485948
1451.833043,6957.935855,-6809.894666,995.924147
1451.833372,6883.915261,-6735.874072,919.314598
1451.833702,7105.977043,-6365.771101,995.924147
1451.834031,7179.997637,-6365.771101,1149.143247
1451.834360,7328.038826,-6513.812290,842.705048
1451.834689,7105.977043,-6217.729913,995.924147
1451.835019,7254.018232,-6217.729913,1225.752797
1451.835348,7179.997637,-6439.791695,842.705048
1451.835677,7476.080014,-6069.688724,689.485948
1451.836006,7402.059420,-6661.853478,1072.533697
1451.836336,7402.059420,-5847.626942,995.924147
1451.836665,7179.997637,-6291.750507,1072.533697
1451.836994,7254.018232,-6365.771101,995.924147
1451.837323,7105.977043,-6291.750507,919.314598
1451.837653,6809.894666,-6069.688724,842.705048
1451.837982,6439.791695,-6587.832884,1532.190996
1451.838311,6809.894666,-5921.647536,1225.752797
1451.838640,7105.977043,-5329.482782,1072.533697
1451.838970,7550.100608,-5033.400406,1378.971896
1451.839299,7550.100608,-5995.668130,1072.533697
1451.839628,7698.141797,-5921.647536,1225.752797
1451.839957,7105.977043,-6587.832884,612.876398
1451.840287,6217.729913,-7254.018232,0.000000
1451.840616,5699.585753,-7772.162391,229.828649
1451.840945,7105.977043,-7179.997637,229.828649
1451.841274,8068.244768,-6883.915261,1608.800546
1451.841604,8068.244768,-6217.729913,1532.190996
1451.841933,8512.368333,-5551.544565,1225.752797
1451.842262,8290.306550,-4737.318029,1302.362347
1451.842591,8660.409521,-5033.400406,919.314598
1451.842921,8068.244768,-4885.359217,1072.533697
1451.843250,8734.430116,-4145.153275,1225.752797
1451.843579,8734.430116,-4811.338623,1072.533697
1451.843908,8586.388927,-4589.276840,536.266849
1451.844238,7994.224174,-5625.565159,766.095498
1451.844567,8068.244768,-5107.421000,536.266849
1451.844896,8216.285956,-5921.647536,306.438199
1451.845226,8438.347739,-6587.832884,995.924147
1451.845555,8734.430116,-6069.688724,1149.143247
1451.845884,7994.224174,-5847.626942,612.876398
1451.846213,7698.141797,-4737.318029,1072.533697
1451.846543,7920.203579,-4885.359217,689.485948
1451.846872,8734.430116,-4441.235652,1532.190996
1451.847201,9104.533087,-3701.029710,1072.533697
1451.847530,8734.430116,-4441.235652,612.876398
1451.847860,8512.368333,-2516.700203,995.924147
1451.848189,9104.533087,-4145.153275,1072.533697
1451.848518,9918.759623,-3256.906145,2451.505594
1451.848847,10584.944971,-2294.638420,1838.629195
1451.849177,10214.842000,-3997.112087,1378.971896
1451.849506,10140.821405,-3108.864956,1455.581446
1451.849835,9622.677246,-4811.338623,1225.752797
1451.850164,9474.636058,-4663.297435,1762.019645
1451.850494,8882.471304,-4737.318029,1072.533697
1451.850823,7846.182985,-5329.482782,842.705048
1451.851152,7698.141797,-4737.318029,536.266849
1451.851481,7772.162391,-6365.771101,612.876398
1451.851811,8364.327145,-5847.626942,1455.581446
1451.852140,7994.224174,-5255.462188,919.314598
1451.852469,8142.265362,-4515.256246,1455.581446
1451.852798,8512.368333,-3775.050304,229.828649
1451.853128,9104.533087,-5033.400406,536.266849
1451.853457,9474.636058,-4219.173869,689.485948
1451.853786,9474.636058,-3775.050304,76.609550
1451.854115,10362.883188,-4293.194464,766.095498
1451.854445,10066.800811,-3701.029710,1915.238745
1451.854774,9548.656652,-4515.256246,229.828649
1451.855103,9474.636058,-4071.132681,306.438199
1451.855432,8734.430116,-5329.482782,612.876398
1451.855762,8882.471304,-5255.462188,1072.533697
1451.856091,8956.491898,-4219.173869,1838.629195
1451.856420,8586.388927,-4367.215058,1302.362347
1451.856750,8364.327145,-4589.276840,1149.143247
1451.857079,8586.388927,-4959.379811,1915.238745
1451.857408,8956.491898,-4737.318029,1991.848295
1451.857737,9548.656652,-3997.112087,1225.752797
1451.858067,9400.615463,-2516.700203,1149.143247
1451.858396,9400.615463,-3701.029710,842.705048
1451.858725,9400.615463,-4515.256246,1302.362347
1451.859054,9474.636058,-4071.132681,766.095498
1451.859384,9104.533087,-4441.235652,0.000000
1451.859713,8512.368333,-4367.215058,0.000000
1451.860042,8364.327145,-5033.400406,0.000000
1451.860371,8512.368333,-6365.771101,459.657299
1451.860701,8586.388927,-5995.668130,1608.800546
1451.861030,8808.450710,-6069.688724,919.314598
1451.861359,8512.368333,-5773.606348,1302.362347
1451.861688,8290.306550,-5699.585753,2068.457845
1451.862018,8808.450710,-5477.523971,1685.410096
1451.862347,8734.430116,-4885.359217,2068.457845
1451.862676,8882.471304,-3404.947333,1838.629195
1451.863005,9474.636058,-2516.700203,1685.410096
1451.863335,10362.883188,-1850.514855,1378.971896
1451.863664,10658.965565,-1554.432478,1149.143247
1451.863993,10066.800811,-1702.473667,0.000000
1451.864322,10140.821405,-2220.617826,0.000000
1451.864652,10214.842000,-3552.988522,-306.438199
1451.864981,10066.800811,-4737.318029,0.000000
1451.865310,9252.574275,-5995.668130,536.266849
1451.865639,8216.285956,-7624.121203,536.266849
1451.865969,7550.100608,-7476.080014,1149.143247
1451.866298,7031.956449,-8438.347739,1455.581446
1451.866627,6957.935855,-8068.244768,842.705048
1451.866956,6957.935855,-5773.606348,766.095498
1451.867286,7105.977043,-4737.318029,842.705048
1451.867615,7698.141797,-3108.864956,1532.190996
1451.867944,9252.574275,-2738.761985,1915.238745
1451.868273,10584.944971,-1628.453072,1225.752797
1451.868603,10066.800811,-592.164754,1225.752797
1451.868932,10436.903782,-592.164754,1225.752797
1451.869261,11251.130318,-444.123565,689.485948
1451.869591,11917.315666,-1110.308913,459.657299
1451.869920,11917.315666,-1924.535449,995.924147
1451.870249,11917.315666,-3775.050304,919.314598
1451.870578,10584.944971,-6883.915261,1915.238745
1451.870908,9030.512492,-5329.482782,1149.143247
1451.871237,7105.977043,-8882.471304,1302.362347
1451.871566,5403.503377,-8956.491898,612.876398
1451.871895,5255.462188,-7994.224174,-306.438199
1451.872225,5699.585753,-8142.265362,0.000000
1451.872554,6069.688724,-7031.956449,0.000000
1451.872883,6513.812290,-6587.832884,76.609550
1451.873212,8216.285956,-4885.359217,1378.971896
1451.873542,9178.553681,-2812.782580,842.705048
1451.873871,10584.944971,-2442.679609,1762.019645
1451.874200,11547.212695,-1258.350101,2374.896044
1451.874529,12731.542202,-370.102971,1608.800546
1451.874859,12879.583391,296.082377,1838.629195
1451.875188,12953.603985,-1110.308913,1991.848295
1451.875517,12361.439231,-2516.700203,2451.505594
1451.875846,11251.130318,-2664.741391,2068.457845
1451.876176,9548.656652,-5477.523971,2145.067394
1451.876505,7698.141797,-5625.565159,1608.800546
1451.876834,5847.626942,-7105.977043,383.047749
1451.877163,4663.297435,-7698.141797,-612.876398
1451.877493,4071.132681,-8068.244768,-306.438199
1451.877822,5477.523971,-7994.224174,0.000000
1451.878151,7402.059420,-5477.523971,0.000000
1451.878480,9326.594869,-4441.235652,153.219100
1451.878810,10510.924376,-2590.720797,306.438199
1451.879139,11399.171507,-2368.659014,1149.143247
1451.879468,11695.253884,-2442.679609,1608.800546
1451.879797,11621.233289,-2738.761985,1991.848295
1451.880127,10732.986159,-2960.823768,1608.800546
1451.880456,10288.862594,-3330.926739,1685.410096
1451.880785,8956.491898,-5107.421000,1225.752797
1451.881115,8290.306550,-6587.832884,1991.848295
1451.881444,8290.306550,-6883.915261,1991.848295
1451.881773,8142.265362,-6217.729913,1455.581446
1451.882102,7105.977043,-3997.112087,383.047749
1451.882432,7031.956449,-3256.906145,0.000000
1451.882761,8586.388927,-3182.885551,76.609550
1451.883090,9326.594869,-3997.112087,1072.533697
1451.883419,9918.759623,-3182.885551,1608.800546
1451.883749,10881.027347,-1850.514855,1685.410096
1451.884078,10881.027347,-1554.432478,383.047749
1451.884407,9844.739029,-4145.153275,842.705048
1451.884736,9474.636058,-6217.729913,1608.800546
1451.885066,8956.491898,-5847.626942,1378.971896
1451.885395,8068.244768,-5403.503377,229.828649
1451.885724,7624.121203,-5477.523971,383.047749
1451.886053,7920.203579,-5329.482782,76.609550
1451.886383,8734.430116,-7920.203579,1149.143247
1451.886712,7698.141797,-8364.327145,1991.848295
1451.887041,7550.100608,-6069.688724,766.095498
1451.887370,7328.038826,-4145.153275,-229.828649
1451.887700,7476.080014,-4589.276840,-229.828649
1451.888029,8216.285956,-5033.400406,1225.752797
1451.888358,9252.574275,-5107.421000,1378.971896
1451.888687,10140.821405,-2368.659014,1302.362347
1451.889017,10214.842000,-1184.329507,1149.143247
1451.889346,11177.109724,-296.082377,1378.971896
1451.889675,10584.944971,-2442.679609,689.485948
1451.890004,9326.594869,-4219.173869,1072.533697
1451.890333,9030.512492,-3923.091493,919.314598
1451.890662,9326.594869,-4515.256246,459.657299
1451.890991,10362.883188,-3923.091493,2757.943793
1451.891320,10584.944971,-5847.626942,2451.505594
1451.891649,9474.636058,-6513.812290,1532.190996
1451.891978,7328.038826,-4219.173869,536.266849
1451.892307,6735.874072,-5403.503377,383.047749
1451.892636,8660.409521,-5551.544565,1225.752797
1451.892965,9400.615463,-5033.400406,1532.190996
1451.893294,7772.162391,-4367.215058,-306.438199
1451.893623,7179.997637,-4441.235652,-459.657299
1451.893952,8586.388927,-5181.441594,766.095498
1451.894281,10214.842000,-4737.318029,1225.752797
1451.894610,9844.739029,-3330.926739,536.266849
1451.894939,9474.636058,-3182.885551,153.219100
1451.895268,9474.636058,-5477.523971,459.657299
1451.895597,9474.636058,-6809.894666,2221.676944
1451.895926,8734.430116,-6291.750507,2145.067394
1451.896255,9030.512492,-3182.885551,612.876398
1451.896584,9030.512492,-3034.844362,919.314598
1451.896913,9400.615463,-4589.276840,2145.067394
1451.897242,9770.718434,-3478.967927,2221.676944
1451.897571,10658.965565,-3552.988522,2604.724693
1451.897900,10881.027347,0.000000,1455.581446
1451.898229,9104.533087,-3330.926739,1532.190996
1451.898558,8216.285956,-4071.132681,995.924147
1451.898887,6809.894666,-5255.462188,153.219100
1451.899216,6809.894666,-7254.018232,-153.219100
1451.899545,7105.977043,-6587.832884,383.047749
1451.899874,7846.182985,-7994.224174,459.657299
1451.900203,7624.121203,-9548.656652,766.095498
1451.900532,6809.894666,-9474.636058,766.095498
1451.900862,6143.709319,-8734.430116,-229.828649
1451.901191,5255.462188,-8364.327145,0.000000
1451.901520,6143.709319,-6439.791695,153.219100
1451.901849,7846.182985,-5033.400406,689.485948
1451.902178,9178.553681,-3404.947333,1072.533697
1451.902507,9400.615463,-4515.256246,1762.019645
1451.902836,9770.718434,-2738.761985,2298.286494
1451.903165,10066.800811,-3849.070898,1532.190996
1451.903494,9474.636058,-3256.906145,1532.190996
1451.903823,8734.430116,-3923.091493,1532.190996
1451.904152,8216.285956,-4959.379811,1149.143247
1451.904481,8216.285956,-4737.318029,1532.190996
1451.904810,8142.265362,-6217.729913,1685.410096
1451.905139,8586.388927,-5107.421000,1149.143247
1451.905468,7476.080014,-6143.709319,229.828649
1451.905797,6439.791695,-6809.894666,1532.190996
1451.906126,5847.626942,-6809.894666,1302.362347
1451.906455,6217.729913,-6661.853478,-459.657299
1451.906784,5773.606348,-5699.585753,153.219100
1451.907113,5625.565159,-7105.977043,919.314598
1451.907442,7105.977043,-7476.080014,459.657299
1451.907771,6069.688724,-7179.997637,766.095498
1451.908100,6291.750507,-7846.182985,1225.752797
1451.908429,7698.141797,-6217.729913,76.609550
1451.908758,7994.224174,-7772.162391,1532.190996
1451.909087,8068.244768,-7179.997637,1455.581446
1451.909416,7254.018232,-7031.956449,1378.971896
1451.909745,7698.141797,-6439.791695,1149.143247
1451.910074,6217.729913,-7105.977043,1532.190996
1451.910403,5773.606348,-6809.894666,1378.971896
1451.910732,6809.894666,-4663.297435,1225.752797
1451.911061,6069.688724,-4885.359217,1225.752797
1451.911390,6439.791695,-5181.441594,1225.752797
1451.911719,6735.874072,-5329.482782,766.095498
1451.912048,7328.038826,-5181.441594,842.705048
1451.912377,6587.832884,-6069.688724,842.705048
1451.912706,5847.626942,-7031.956449,919.314598
1451.913035,6957.935855,-7846.182985,2374.896044
1451.913364,8956.491898,-7105.977043,2528.115143
1451.913693,9030.512492,-7179.997637,1608.800546
1451.914022,7476.080014,-6365.771101,1455.581446
1451.914351,6439.791695,-6735.874072,766.095498
1451.914680,5625.565159,-7402.059420,-766.095498
1451.915009,5033.400406,-7179.997637,383.047749
1451.915338,5181.441594,-7254.018232,383.047749
1451.915667,7254.018232,-6661.853478,306.438199
1451.915996,6439.791695,-6661.853478,229.828649
1451.916325,5921.647536,-8290.306550,612.876398
1451.916654,7031.956449,-7179.997637,536.266849
1451.916983,6735.874072,-5921.647536,306.438199
1451.917312,6439.791695,-7550.100608,766.095498
1451.917641,7328.038826,-7402.059420,2145.067394
1451.917970,9178.553681,-6291.750507,2145.067394
1451.918299,8438.347739,-5255.462188,1838.629195
1451.918628,7402.059420,-6069.688724,2604.724693
1451.918957,7476.080014,-4663.297435,1149.143247
1451.919286,7105.977043,-5181.441594,306.438199
1451.919615,6291.750507,-5477.523971,842.705048
1451.919944,6291.750507,-5477.523971,229.828649
1451.920274,7328.038826,-5107.421000,459.657299
1451.920603,7179.997637,-6069.688724,612.876398
1451.920932,7105.977043,-6587.832884,459.657299
1451.921261,7179.997637,-7550.100608,995.924147
1451.921590,7476.080014,-7624.121203,383.047749
1451.921919,6957.935855,-8586.388927,612.876398
1451.922248,7476.080014,-8216.285956,3217.601092
1451.922577,8734.430116,-5995.668130,536.266849
1451.922906,7328.038826,-7031.956449,229.828649
1451.923235,5773.606348,-6439.791695,1838.629195
1451.923564,5699.585753,-7402.059420,383.047749
1451.923893,5921.647536,-6365.771101,0.000000
1451.924222,5921.647536,-4959.379811,1149.143247
1451.924551,7402.059420,-4959.379811,229.828649
1451.924880,8734.430116,-5033.400406,689.485948
1451.925209,7254.018232,-6957.935855,995.924147
1451.925538,6661.853478,-7105.977043,842.705048
1451.925867,7402.059420,-6513.812290,-153.219100
1451.926196,6439.791695,-7624.121203,0.000000
1451.926525,5329.482782,-8512.368333,995.924147
1451.926854,7105.977043,-8142.265362,1608.800546
1451.927183,8216.285956,-7772.162391,1685.410096
1451.927512,7402.059420,-6809.894666,2145.067394
1451.927841,7402.059420,-6587.832884,2911.162892
1451.928170,6957.935855,-5625.565159,689.485948
1451.928499,5329.482782,-4737.318029,-153.219100
1451.928828,5107.421000,-4219.173869,1149.143247
1451.929157,7179.997637,-4367.215058,842.705048
1451.929486,8438.347739,-5107.421000,766.095498
1451.929815,7920.203579,-5181.441594,1762.019645
1451.930144,8364.327145,-7031.956449,1685.410096
1451.930473,7920.203579,-6661.853478,995.924147
1451.930802,5847.626942,-7772.162391,76.609550
1451.931131,5921.647536,-8142.265362,766.095498
1451.931460,7179.997637,-8364.327145,1455.581446
1451.931789,7031.956449,-8438.347739,1685.410096
1451.932118,6365.771101,-5921.647536,1378.971896
1451.932447,6217.729913,-6735.874072,1072.533697
1451.932776,6143.709319,-7105.977043,1378.971896
1451.933105,5699.585753,-6883.915261,2145.067394
1451.933434,6217.729913,-4959.379811,1685.410096
1451.933763,7179.997637,-4441.235652,1225.752797
1451.934092,6883.915261,-5699.585753,612.876398
1451.934421,6661.853478,-5329.482782,689.485948
1451.934750,7254.018232,-5773.606348,995.924147
1451.935079,7994.224174,-7328.038826,919.314598
1451.935408,7031.956449,-7846.182985,1149.143247
1451.935737,6365.771101,-9030.512492,1378.971896
1451.936066,6291.750507,-8438.347739,459.657299
1451.936395,5921.647536,-8068.244768,76.609550
1451.936724,6069.688724,-7920.203579,919.314598
1451.937053,6809.894666,-6809.894666,1302.362347
1451.937382,7476.080014,-6735.874072,1225.752797
1451.937711,6365.771101,-4663.297435,1302.362347
1451.938040,6365.771101,-4219.173869,919.314598
1451.938369,7920.203579,-4811.338623,612.876398
1451.938698,8290.306550,-5329.482782,1762.019645
1451.939027,8142.265362,-5625.565159,1685.410096
1451.939356,8142.265362,-6439.791695,1685.410096
1451.939686,7328.038826,-6217.729913,1149.143247
1451.940015,7254.018232,-7550.100608,919.314598
1451.940344,7772.162391,-7031.956449,1149.143247
1451.940673,7698.141797,-6809.894666,1378.971896
1451.941002,7550.100608,-6217.729913,842.705048
1451.941331,6809.894666,-6439.791695,1149.143247
1451.941660,6809.894666,-7105.977043,1149.143247
1451.941989,6883.915261,-5699.585753,229.828649
1451.942318,5847.626942,-6365.771101,229.828649
1451.942647,6439.791695,-4737.318029,766.095498
1451.942976,7698.141797,-5625.565159,1225.752797
1451.943305,7994.224174,-5921.647536,1685.410096
1451.943634,7624.121203,-4663.297435,1378.971896
1451.943963,8438.347739,-6439.791695,842.705048
1451.944292,7994.224174,-7476.080014,1225.752797
1451.944621,6143.709319,-7846.182985,229.828649
1451.944950,5773.606348,-7476.080014,153.219100
1451.945279,6513.812290,-8512.368333,766.095498
1451.945608,6587.832884,-8808.450710,536.266849
1451.945937,5847.626942,-8660.409521,766.095498
1451.946266,5403.503377,-7624.121203,306.438199
1451.946595,5625.565159,-6069.688724,0.000000
1451.946924,6143.709319,-5033.400406,153.219100
1451.947253,7476.080014,-5625.565159,2298.286494
1451.947582,9474.636058,-4515.256246,2374.896044
1451.947911,9178.553681,-5255.462188,1302.362347
1451.948240,7476.080014,-4145.153275,1532.190996
1451.948569,7476.080014,-8068.244768,1915.238745
1451.948898,7624.121203,-5847.626942,919.314598
1451.949227,6587.832884,-6735.874072,1225.752797
1451.949556,6957.935855,-7402.059420,1302.362347
1451.949885,7476.080014,-6513.812290,1225.752797
1451.950214,7105.977043,-7624.121203,1072.533697
1451.950543,5551.544565,-7105.977043,536.266849
1451.950872,4885.359217,-7328.038826,0.000000
1451.951201,4959.379811,-7031.956449,0.000000
1451.951530,5847.626942,-6069.688724,153.219100
1451.951859,7402.059420,-5551.544565,1762.019645
1451.952188,9030.512492,-4515.256246,1455.581446
1451.952517,8882.471304,-5329.482782,1072.533697
1451.952846,7772.162391,-4737.318029,1685.410096
1451.953175,7476.080014,-7031.956449,919.314598
1451.953504,7254.018232,-8290.306550,995.924147
1451.953833,6513.812290,-7254.018232,1532.190996
1451.954162,6957.935855,-8364.327145,1225.752797
1451.954491,7328.038826,-7105.977043,1302.362347
1451.954820,6217.729913,-7328.038826,1149.143247
1451.955149,5255.462188,-8068.244768,919.314598
1451.955478,5699.585753,-7328.038826,459.657299
1451.955807,5921.647536,-6217.729913,536.266849
1451.956136,5847.626942,-3627.009116,689.485948
1451.956465,7328.038826,-3849.070898,1608.800546
1451.956794,9104.533087,-3330.926739,1532.190996
1451.957123,9104.533087,-4737.318029,2451.505594
1451.957452,7624.121203,-6587.832884,2068.457845
1451.957781,5773.606348,-6809.894666,0.000000
1451.958110,5255.462188,-7476.080014,0.000000
1451.958439,4959.379811,-9178.553681,459.657299
1451.958768,5995.668130,-9400.615463,919.314598
1451.959098,7031.956449,-9548.656652,2604.724693
1451.959427,7254.018232,-8068.244768,1225.752797
1451.959756,6661.853478,-7994.224174,842.705048
1451.960085,5107.421000,-7328.038826,766.095498
1451.960414,5551.544565,-6735.874072,612.876398
1451.960743,6439.791695,-4515.256246,383.047749
1451.961072,7254.018232,-4293.194464,919.314598
1451.961401,7846.182985,-5107.421000,919.314598
1451.961730,8142.265362,-4811.338623,1838.629195
1451.962059,7254.018232,-5551.544565,1685.410096
1451.962388,7105.977043,-6217.729913,459.657299
1451.962717,6439.791695,-7402.059420,766.095498
1451.963046,6809.894666,-7476.080014,1302.362347
1451.963375,7328.038826,-8290.306550,1532.190996
1451.963704,7624.121203,-8734.430116,2374.896044
1451.964033,6883.915261,-6957.935855,766.095498
1451.964362,6143.709319,-7254.018232,689.485948
1451.964691,5255.462188,-7772.162391,766.095498
1451.965020,5773.606348,-5403.503377,153.219100
1451.965349,6809.894666,-4441.235652,766.095498
1451.965678,7402.059420,-3849.070898,766.095498
1451.966007,7624.121203,-5107.421000,1072.533697
1451.966336,7846.182985,-3923.091493,1302.362347
1451.966665,8882.471304,-4663.297435,919.314598
1451.966994,8586.388927,-5921.647536,1378.971896
1451.967323,7920.203579,-6809.894666,2068.457845
1451.967652,7550.100608,-7105.977043,1378.971896
1451.967981,7846.182985,-7994.224174,1838.629195
1451.968310,7402.059420,-8216.285956,1532.190996
1451.968639,6735.874072,-8364.327145,919.314598
1451.968968,5477.523971,-8068.244768,689.485948
1451.969297,4811.338623,-8142.265362,229.828649
1451.969626,5255.462188,-5477.523971,153.219100
1451.969955,6365.771101,-4589.276840,76.609550
1451.970284,7031.956449,-4737.318029,1149.143247
1451.970613,7476.080014,-4811.338623,766.095498
1451.970942,7402.059420,-6143.709319,1685.410096
1451.971271,7550.100608,-4737.318029,383.047749
1451.971600,7328.038826,-6957.935855,919.314598
1451.971929,7254.018232,-7402.059420,1378.971896
1451.972258,7402.059420,-8216.285956,1302.362347
1451.972587,8512.368333,-8364.327145,995.924147
1451.972916,7550.100608,-7254.018232,1302.362347
1451.973245,6883.915261,-9104.533087,612.876398
1451.973574,5847.626942,-8364.327145,842.705048
1451.973903,5625.565159,-7105.977043,229.828649
1451.974232,6069.688724,-5107.421000,76.609550
1451.974561,7105.977043,-4441.235652,995.924147
1451.974890,7476.080014,-4737.318029,689.485948
1451.975219,8216.285956,-3330.926739,536.266849
1451.975548,8734.430116,-4959.379811,383.047749
1451.975877,7994.224174,-6661.853478,536.266849
1451.976206,7328.038826,-6957.935855,1149.143247
1451.976535,7476.080014,-8068.244768,1685.410096
1451.976864,8142.265362,-7179.997637,1532.190996
1451.977193,7476.080014,-7994.224174,1915.238745
1451.977522,6735.874072,-7846.182985,1762.019645
1451.977851,6365.771101,-8364.327145,1225.752797
1451.978180,5699.585753,-8808.450710,612.876398
1451.978510,5181.441594,-6365.771101,766.095498
1451.978839,5255.462188,-5625.565159,0.000000
1451.979168,7402.059420,-6069.688724,1838.629195
1451.979497,8216.285956,-5181.441594,1762.019645
1451.979826,7402.059420,-3923.091493,919.314598
1451.980155,6587.832884,-3849.070898,689.485948
1451.980484,6957.935855,-5329.482782,766.095498
1451.980813,7328.038826,-6439.791695,383.047749
1451.981142,6957.935855,-7772.162391,1838.629195
1451.981471,7920.203579,-7772.162391,1532.190996
1451.981800,8512.368333,-7476.080014,1149.143247
1451.982129,7328.038826,-7402.059420,1685.410096
1451.982458,6217.729913,-8216.285956,1072.533697
1451.982787,4959.379811,-7920.203579,76.609550
1451.983116,4293.194464,-6957.935855,-229.828649
1451.983445,4959.379811,-6439.791695,459.657299
1451.983774,7624.121203,-5329.482782,1225.752797
1451.984103,9326.594869,-3775.050304,995.924147
1451.984432,8512.368333,-3775.050304,1455.581446
1451.984761,8068.244768,-4219.173869,1378.971896
1451.985090,7920.203579,-5773.606348,995.924147
1451.985419,7254.018232,-5847.626942,1685.410096
1451.985748,6439.791695,-6809.894666,1149.143247
1451.986077,7624.121203,-7179.997637,536.266849
1451.986406,6735.874072,-8216.285956,1072.533697
1451.986735,6957.935855,-8364.327145,2145.067394
1451.987064,6883.915261,-8734.430116,1149.143247
1451.987393,5551.544565,-7846.182985,0.000000
1451.987722,4589.276840,-7254.018232,383.047749
1451.988051,5181.441594,-7994.224174,383.047749
1451.988380,6439.791695,-6439.791695,689.485948
1451.988709,6809.894666,-5107.421000,383.047749
1451.989039,7476.080014,-5403.503377,1532.190996
1451.989368,8438.347739,-4811.338623,919.314598
1451.989697,7550.100608,-6217.729913,153.219100
1451.990026,7031.956449,-7476.080014,919.314598
1451.990355,7550.100608,-7846.182985,1685.410096
1451.990685,8364.327145,-6957.935855,1225.752797
1451.991014,6883.915261,-8216.285956,842.705048
1451.991343,5847.626942,-7476.080014,1302.362347
1451.991672,6291.750507,-7846.182985,306.438199
1451.992001,5995.668130,-8586.388927,229.828649
1451.992331,5181.441594,-5847.626942,1685.410096
1451.992660,6439.791695,-6291.750507,1225.752797
1451.992989,7105.977043,-4959.379811,1455.581446
1451.993318,5773.606348,-4071.132681,689.485948
1451.993647,6069.688724,-4737.318029,919.314598
1451.993976,7254.018232,-5329.482782,766.095498
1451.994306,7550.100608,-5255.462188,1072.533697
1451.994635,7254.018232,-5255.462188,1072.533697
1451.994964,8290.306550,-6069.688724,1762.019645
1451.995293,9178.553681,-7476.080014,2374.896044
1451.995622,8364.327145,-7772.162391,2221.676944
1451.995952,7328.038826,-6957.935855,1608.800546
1451.996281,6587.832884,-6365.771101,0.000000
1451.996610,5699.585753,-7254.018232,306.438199
1451.996939,5033.400406,-6735.874072,612.876398
1451.997268,7105.977043,-6365.771101,919.314598
1451.997598,7179.997637,-5551.544565,76.609550
1451.997927,6365.771101,-4885.359217,-153.219100
1451.998256,6439.791695,-5551.544565,842.705048
1451.998585,6809.894666,-6069.688724,536.266849
1451.998914,7179.997637,-7105.977043,689.485948
1451.999244,7031.956449,-7402.059420,1455.581446
1451.999573,8364.327145,-6661.853478,1838.629195
1451.999902,8438.347739,-7772.162391,1149.143247
1452.000231,6957.935855,-8956.491898,2221.676944
1452.000560,6661.853478,-6735.874072,1149.143247
1452.000890,6513.812290,-7772.162391,153.219100
1452.001219,5625.565159,-7476.080014,919.314598
1452.001548,6513.812290,-6365.771101,1455.581446
1452.001877,7698.141797,-6661.853478,1149.143247
1452.002206,6587.832884,-5255.462188,536.266849
1452.002535,5033.400406,-5773.606348,306.438199
1452.002865,6143.709319,-5847.626942,229.828649
1452.003194,7105.977043,-6217.729913,459.657299
1452.003523,6883.915261,-6883.915261,536.266849
1452.003852,7254.018232,-6809.894666,1455.581446
1452.004181,8808.450710,-7105.977043,1685.410096
1452.004511,8808.450710,-6957.935855,1762.019645
1452.004840,8068.244768,-6809.894666,2068.457845
1452.005169,7846.182985,-6291.750507,1225.752797
1452.005498,6957.935855,-6513.812290,689.485948
1452.005827,5551.544565,-6809.894666,842.705048
1452.006157,6217.729913,-5847.626942,919.314598
1452.006486,6365.771101,-5551.544565,0.000000
1452.006815,5625.565159,-6069.688724,766.095498
1452.007144,6069.688724,-5551.544565,536.266849
1452.007473,7698.141797,-5329.482782,842.705048
1452.007803,7550.100608,-5255.462188,1762.019645
1452.008132,7698.141797,-5995.668130,2068.457845
1452.008461,8364.327145,-5773.606348,1762.019645
1452.008790,8290.306550,-6365.771101,1762.019645
1452.009119,7031.956449,-8586.388927,1991.848295
1452.009449,7105.977043,-6587.832884,1762.019645
1452.009778,5625.565159,-8882.471304,919.314598
1452.010107,4959.379811,-7920.203579,383.047749
1452.010436,5847.626942,-6513.812290,1149.143247
1452.010765,7105.977043,-6365.771101,1685.410096
1452.011094,7328.038826,-6143.709319,1149.143247
1452.011424,6291.750507,-5921.647536,689.485948
1452.011753,5551.544565,-6291.750507,-153.219100
1452.012082,5181.441594,-6809.894666,-995.924147
1452.012411,5773.606348,-7402.059420,459.657299
1452.012740,7105.977043,-7846.182985,1532.190996
1452.013070,8290.306550,-7920.203579,2068.457845
1452.013399,7698.141797,-7476.080014,2911.162892
1452.013728,8364.327145,-6957.935855,1532.190996
1452.014057,8142.265362,-5625.565159,1455.581446
1452.014386,7698.141797,-6661.853478,842.705048
1452.014716,6513.812290,-7550.100608,995.924147
1452.015045,5773.606348,-5921.647536,1149.143247
1452.015374,6439.791695,-6069.688724,689.485948
1452.015703,6587.832884,-5625.565159,842.705048
1452.016032,5847.626942,-6439.791695,1072.533697
1452.016362,5995.668130,-6365.771101,612.876398
1452.016691,6291.750507,-6291.750507,76.609550
1452.017020,5995.668130,-5847.626942,536.266849
1452.017349,6809.894666,-5921.647536,1225.752797
1452.017678,7624.121203,-6365.771101,1378.971896
1452.018008,8734.430116,-6957.935855,1455.581446
1452.018337,8512.368333,-7105.977043,2221.676944
1452.018666,9252.574275,-5921.647536,2298.286494
1452.018995,8512.368333,-6809.894666,2145.067394
1452.019324,7402.059420,-6365.771101,612.876398
1452.019653,7179.997637,-4959.379811,842.705048
1452.019983,7772.162391,-4663.297435,536.266849
1452.020312,7550.100608,-5403.503377,536.266849
1452.020641,5625.565159,-6809.894666,919.314598
1452.020970,5403.503377,-6513.812290,919.314598
1452.021299,5773.606348,-6735.874072,0.000000
1452.021629,5181.441594,-7624.121203,153.219100
1452.021958,5847.626942,-7402.059420,766.095498
1452.022287,7476.080014,-7994.224174,1685.410096
1452.022616,8438.347739,-7328.038826,2068.457845
1452.022945,8068.244768,-5551.544565,2068.457845
1452.023275,7550.100608,-5773.606348,1685.410096
1452.023604,7179.997637,-7624.121203,1225.752797
1452.023933,6735.874072,-6439.791695,919.314598
1452.024262,6217.729913,-5699.585753,306.438199
1452.024591,6957.935855,-6587.832884,1072.533697
1452.024921,7105.977043,-7328.038826,1149.143247
1452.025250,5921.647536,-7476.080014,153.219100
1452.025579,5551.544565,-7846.182985,-229.828649
1452.025908,5403.503377,-6735.874072,-536.266849
1452.026237,5551.544565,-7698.141797,153.219100
1452.026567,6217.729913,-7846.182985,766.095498
1452.026896,7476.080014,-7402.059420,919.314598
1452.027225,8364.327145,-6291.750507,1378.971896
1452.027554,7846.182985,-6957.935855,1378.971896
1452.027883,7254.018232,-6809.894666,2145.067394
1452.028212,7550.100608,-6513.812290,1378.971896
1452.028542,7476.080014,-5699.585753,1685.410096
1452.028871,8290.306550,-3997.112087,1838.629195
1452.029200,8438.347739,-4219.173869,1455.581446
1452.029529,7698.141797,-5477.523971,995.924147
1452.029858,7105.977043,-6661.853478,1455.581446
1452.030188,6587.832884,-6439.791695,1149.143247
1452.030517,6513.812290,-6439.791695,459.657299
1452.030846,6217.729913,-7254.018232,1302.362347
1452.031175,6587.832884,-7105.977043,536.266849
1452.031504,6365.771101,-7402.059420,0.000000
1452.031834,6513.812290,-7105.977043,842.705048
1452.032163,7254.018232,-5699.585753,1302.362347
1452.032492,7698.141797,-6513.812290,1838.629195
1452.032821,7105.977043,-7105.977043,1225.752797
1452.033150,6143.709319,-4959.379811,995.924147
1452.033480,7476.080014,-6069.688724,1455.581446
1452.033809,8808.450710,-5551.544565,2298.286494
1452.034138,8216.285956,-5847.626942,1378.971896
1452.034467,6809.894666,-6661.853478,1532.190996
1452.034796,5625.565159,-6143.709319,-383.047749
1452.035126,5255.462188,-8438.347739,76.609550
1452.035455,5033.400406,-9326.594869,1149.143247
1452.035784,6735.874072,-7846.182985,1225.752797
1452.036113,7105.977043,-6365.771101,919.314598
1452.036442,6513.812290,-7328.038826,1608.800546
1452.036771,7179.997637,-6661.853478,1762.019645
1452.037101,7476.080014,-5921.647536,1378.971896
1452.037430,6883.915261,-5699.585753,1302.362347
1452.037759,7179.997637,-4441.235652,1302.362347
1452.038088,7920.203579,-4441.235652,1378.971896
1452.038417,8364.327145,-5773.606348,2221.676944
1452.038747,7846.182985,-7698.141797,1685.410096
1452.039076,7105.977043,-6069.688724,1225.752797
1452.039405,6439.791695,-6661.853478,76.609550
1452.039734,5699.585753,-8364.327145,536.266849
1452.040063,5403.503377,-7698.141797,612.876398
1452.040393,6217.729913,-9474.636058,1072.533697
1452.040722,6587.832884,-8586.388927,1378.971896
1452.041051,6587.832884,-6883.915261,689.485948
1452.041380,6735.874072,-6661.853478,995.924147
1452.041709,7105.977043,-5995.668130,842.705048
1452.042039,7105.977043,-5699.585753,0.000000
1452.042368,7105.977043,-4589.276840,995.924147
1452.042697,8882.471304,-3923.091493,1838.629195
1452.043026,9696.697840,-4071.132681,1378.971896
1452.043355,7994.224174,-5773.606348,1072.533697
1452.043685,6957.935855,-6439.791695,1225.752797
1452.044014,6809.894666,-7846.182985,536.266849
1452.044343,6217.729913,-8734.430116,536.266849
1452.044672,5403.503377,-8734.430116,1378.971896
1452.045001,5921.647536,-9400.615463,1072.533697
1452.045330,6069.688724,-7402.059420,383.047749
1452.045660,4811.338623,-6957.935855,306.438199
1452.045989,5551.544565,-6809.894666,1072.533697
1452.046318,6439.791695,-6513.812290,229.828649
1452.046647,6735.874072,-5921.647536,1149.143247
1452.046976,7550.100608,-4663.297435,1455.581446
1452.047306,9696.697840,-4219.173869,2374.896044
1452.047635,10066.800811,-4367.215058,1991.848295
1452.047964,8216.285956,-5107.421000,1378.971896
1452.048293,7772.162391,-5181.441594,383.047749
1452.048622,6809.894666,-7402.059420,0.000000
1452.048952,5847.626942,-8438.347739,229.828649
1452.049281,6069.688724,-9030.512492,689.485948
1452.049610,6217.729913,-8438.347739,1455.581446
1452.049939,6587.832884,-8068.244768,766.095498
1452.050268,5699.585753,-6883.915261,1225.752797
1452.050598,6143.709319,-6587.832884,536.266849
1452.050927,6587.832884,-6365.771101,766.095498
1452.051256,6365.771101,-4737.318029,766.095498
1452.051585,7179.997637,-4219.173869,1072.533697
1452.051914,8956.491898,-4663.297435,1838.629195
1452.052244,8956.491898,-4589.276840,1915.238745
1452.052573,8142.265362,-5477.523971,1685.410096
1452.052902,7920.203579,-5625.565159,1302.362347
1452.053231,7179.997637,-6883.915261,766.095498
1452.053560,6217.729913,-9104.533087,306.438199
1452.053889,5181.441594,-8660.409521,1302.362347
1452.054219,6143.709319,-8586.388927,76.609550
1452.054548,6143.709319,-8512.368333,919.314598
1452.054877,5699.585753,-8438.347739,1378.971896
1452.055206,5995.668130,-6587.832884,459.657299
1452.055535,5551.544565,-6365.771101,-766.095498
1452.055865,5995.668130,-5921.647536,536.266849
1452.056194,7846.182985,-3775.050304,1455.581446
1452.056523,10140.821405,-4293.194464,2221.676944
1452.056852,10214.842000,-3330.926739,2374.896044
1452.057181,8734.430116,-4145.153275,1762.019645
1452.057511,8660.409521,-5847.626942,2145.067394
1452.057840,7772.162391,-6883.915261,1302.362347
1452.058169,6661.853478,-8068.244768,1378.971896
1452.058498,5773.606348,-7550.100608,919.314598
1452.058827,5551.544565,-9474.636058,536.266849
1452.059157,4959.379811,-9622.677246,995.924147
1452.059486,4959.379811,-8290.306550,1072.533697
1452.059815,5625.565159,-8068.244768,842.705048
1452.060144,5477.523971,-5551.544565,0.000000
1452.060473,5847.626942,-4737.318029,689.485948
1452.060803,7550.100608,-4811.338623,1302.362347
1452.061132,8290.306550,-4293.194464,1838.629195
1452.061461,7105.977043,-5107.421000,1532.190996
1452.061790,7846.182985,-4663.297435,1762.019645
1452.062119,8216.285956,-5033.400406,1455.581446
1452.062448,7254.018232,-6439.791695,1149.143247
1452.062778,6809.894666,-8216.285956,1532.190996
1452.063107,7254.018232,-9030.512492,1685.410096
1452.063436,6809.894666,-7550.100608,1149.143247
1452.063765,6069.688724,-8882.471304,1532.190996
1452.064094,5921.647536,-7550.100608,919.314598
1452.064424,5551.544565,-7550.100608,0.000000
1452.064753,4811.338623,-6735.874072,842.705048
1452.065082,6809.894666,-5403.503377,1225.752797
1452.065411,8660.409521,-3997.112087,2145.067394
1452.065740,8512.368333,-3849.070898,1378.971896
1452.066070,6365.771101,-4737.318029,995.924147
1452.066399,7105.977043,-5921.647536,459.657299
1452.066728,7254.018232,-6587.832884,842.705048
1452.067057,6809.894666,-7179.997637,1072.533697
1452.067386,6735.874072,-7254.018232,1532.190996
1452.067716,7920.203579,-8512.368333,1225.752797
1452.068045,8068.244768,-8586.388927,1762.019645
1452.068374,6957.935855,-7920.203579,1302.362347
1452.068703,6513.812290,-8068.244768,766.095498
1452.069032,6661.853478,-7624.121203,536.266849
1452.069362,5403.503377,-6069.688724,-153.219100
1452.069691,5625.565159,-5033.400406,76.609550
1452.070020,7624.121203,-4885.359217,842.705048
1452.070349,7994.224174,-5033.400406,689.485948
1452.070678,7105.977043,-5033.400406,689.485948
1452.071007,7920.203579,-4959.379811,919.314598
1452.071337,8290.306550,-5773.606348,459.657299
1452.071666,6587.832884,-7698.141797,612.876398
1452.071995,6291.750507,-8216.285956,1149.143247
1452.072324,8216.285956,-8068.244768,1532.190996
1452.072653,9178.553681,-7105.977043,995.924147
1452.072983,7476.080014,-7920.203579,1915.238745
1452.073312,6439.791695,-7402.059420,1608.800546
1452.073641,5995.668130,-6661.853478,0.000000
1452.073970,4663.297435,-6291.750507,229.828649
1452.074299,5847.626942,-4367.215058,1072.533697
1452.074629,8290.306550,-4737.318029,766.095498
1452.074958,7920.203579,-4515.256246,995.924147
1452.075287,6291.750507,-5773.606348,1455.581446
1452.075616,7031.956449,-4811.338623,842.705048
1452.075945,7920.203579,-5995.668130,612.876398
1452.076275,6957.935855,-8512.368333,1378.971896
1452.076604,7031.956449,-7254.018232,1378.971896
1452.076933,7402.059420,-8660.409521,919.314598
1452.077262,7105.977043,-7920.203579,1149.143247
1452.077591,6587.832884,-7476.080014,995.924147
1452.077921,7105.977043,-7328.038826,1072.533697
1452.078250,6661.853478,-6661.853478,383.047749
1452.078579,6069.688724,-6439.791695,1072.533697
1452.078908,6513.812290,-4589.276840,766.095498
1452.079237,7105.977043,-4663.297435,689.485948
1452.079566,7254.018232,-4737.318029,1225.752797
1452.079896,7254.018232,-3034.844362,995.924147
1452.080225,7920.203579,-5847.626942,1149.143247
1452.080554,7328.038826,-6957.935855,919.314598
1452.080883,6735.874072,-8216.285956,1762.019645
1452.081212,7328.038826,-8216.285956,1915.238745
1452.081542,7254.018232,-7698.141797,1149.143247
1452.081871,6365.771101,-8586.388927,1455.581446
1452.082200,5995.668130,-8216.285956,1532.190996
1452.082529,6957.935855,-7772.162391,1302.362347
1452.082858,5773.606348,-7328.038826,0.000000
1452.083188,4737.318029,-5773.606348,0.000000
1452.083517,6365.771101,-4885.359217,383.047749
1452.083846,7994.224174,-5921.647536,766.095498
1452.084175,8068.244768,-4959.379811,2145.067394
1452.084504,8216.285956,-3701.029710,1685.410096
1452.084834,8290.306550,-5107.421000,766.095498
1452.085163,6809.894666,-5477.523971,995.924147
1452.085492,5921.647536,-6957.935855,842.705048
1452.085821,6587.832884,-8068.244768,612.876398
1452.086150,7105.977043,-7846.182985,2681.334243
1452.086480,7550.100608,-9474.636058,2068.457845
1452.086809,7994.224174,-6365.771101,995.924147
1452.087138,6957.935855,-7254.018232,1225.752797
1452.087467,6587.832884,-7328.038826,0.000000
1452.087796,6809.894666,-4367.215058,459.657299
1452.088125,6735.874072,-5107.421000,229.828649
1452.088455,6883.915261,-5403.503377,459.657299
1452.088784,6809.894666,-5847.626942,1225.752797
1452.089113,6735.874072,-6661.853478,229.828649
1452.089442,6217.729913,-6217.729913,1149.143247
1452.089771,6661.853478,-7328.038826,1532.190996
1452.090101,7476.080014,-6883.915261,1455.581446
1452.090430,7328.038826,-7698.141797,2068.457845
1452.090759,7105.977043,-8512.368333,1915.238745
1452.091088,7105.977043,-6513.812290,612.876398
1452.091417,6291.750507,-8068.244768,919.314598
1452.091746,6809.894666,-7550.100608,995.924147
1452.092075,6661.853478,-6513.812290,536.266849
1452.092404,6883.915261,-6365.771101,1378.971896
1452.092733,8216.285956,-5625.565159,1608.800546
1452.093062,8068.244768,-4885.359217,1225.752797
1452.093391,7328.038826,-4367.215058,1149.143247
1452.093720,6661.853478,-4219.173869,0.000000
1452.094050,6143.709319,-5329.482782,306.438199
1452.094379,5477.523971,-6883.915261,536.266849
1452.094708,6587.832884,-7772.162391,1608.800546
1452.095037,7920.203579,-8290.306550,1838.629195
1452.095366,6735.874072,-8068.244768,1762.019645
1452.095695,5477.523971,-8660.409521,1838.629195
1452.096024,5995.668130,-8068.244768,612.876398
1452.096353,6587.832884,-6587.832884,306.438199
1452.096682,6957.935855,-5699.585753,0.000000
1452.097011,8142.265362,-4219.173869,1455.581446
1452.097340,9030.512492,-3775.050304,1915.238745
1452.097669,9178.553681,-5107.421000,1455.581446
1452.097998,7550.100608,-4145.153275,1685.410096
1452.098328,7624.121203,-4737.318029,1455.581446
1452.098657,7031.956449,-6143.709319,459.657299
1452.098986,5921.647536,-6883.915261,919.314598
1452.099315,6069.688724,-7920.203579,1455.581446
1452.099644,7624.121203,-7624.121203,1532.190996
1452.099973,7105.977043,-8734.430116,1532.190996
1452.100302,6217.729913,-8882.471304,1608.800546
1452.100631,5699.585753,-8438.347739,383.047749
1452.100960,5699.585753,-7476.080014,-536.266849
1452.101289,6513.812290,-7031.956449,153.219100
1452.101618,7846.182985,-6439.791695,1762.019645
1452.101947,8882.471304,-4441.235652,1149.143247
1452.102276,7698.141797,-4811.338623,612.876398
1452.102606,7031.956449,-4737.318029,229.828649
1452.102935,6809.894666,-5551.544565,229.828649
1452.103264,6735.874072,-7179.997637,842.705048
1452.103593,6735.874072,-7254.018232,1915.238745
1452.103922,7846.182985,-7254.018232,2221.676944
1452.104251,7920.203579,-8734.430116,1762.019645
1452.104580,6069.688724,-8956.491898,2451.505594
1452.104909,5255.462188,-7994.224174,536.266849
1452.105238,5403.503377,-7846.182985,-766.095498
1452.105567,4737.318029,-7328.038826,-153.219100
1452.105896,6069.688724,-7031.956449,536.266849
1452.106225,8216.285956,-5551.544565,1608.800546
1452.106554,9030.512492,-4219.173869,689.485948
1452.106884,7550.100608,-4293.194464,306.438199
1452.107213,8660.409521,-3627.009116,689.485948
1452.107542,8660.409521,-4737.318029,919.314598
1452.107871,7550.100608,-6957.935855,1378.971896
1452.108200,6365.771101,-7105.977043,1991.848295
1452.108529,6883.915261,-7105.977043,1532.190996
1452.108858,7179.997637,-7328.038826,766.095498
1452.109187,5625.565159,-9030.512492,1991.848295
1452.109516,6513.812290,-8512.368333,1915.238745
1452.109845,6957.935855,-7550.100608,1532.190996
1452.110174,5181.441594,-6587.832884,536.266849
1452.110503,6069.688724,-4811.338623,766.095498
1452.110832,7920.203579,-5255.462188,1455.581446
1452.111162,7105.977043,-5625.565159,459.657299
1452.111491,5773.606348,-5773.606348,536.266849
1452.111820,7254.018232,-5477.523971,1378.971896
1452.112149,8216.285956,-5699.585753,766.095498
1452.112478,7254.018232,-6513.812290,1225.752797
1452.112807,6587.832884,-7105.977043,1838.629195
1452.113136,7624.121203,-8586.388927,1149.143247
1452.113465,6439.791695,-7105.977043,919.314598
1452.113794,5255.462188,-7179.997637,1915.238745
1452.114123,6735.874072,-8660.409521,1685.410096
1452.114452,6957.935855,-7698.141797,1072.533697
1452.114781,5699.585753,-7254.018232,1302.362347
1452.115110,6809.894666,-5995.668130,1608.800546
1452.115440,9992.780217,-4737.318029,1225.752797
1452.115769,8956.491898,-4885.359217,1225.752797
1452.116098,6809.894666,-3923.091493,459.657299
1452.116427,7698.141797,-4885.359217,383.047749
1452.116756,7846.182985,-5625.565159,0.000000
1452.117085,6439.791695,-7105.977043,766.095498
1452.117414,6587.832884,-7846.182985,1838.629195
1452.117743,7031.956449,-7476.080014,76.609550
1452.118072,5847.626942,-8586.388927,1072.533697
1452.118401,5773.606348,-8660.409521,1838.629195
1452.118730,7105.977043,-8364.327145,1685.410096
1452.119059,6291.750507,-7772.162391,612.876398
1452.119388,4885.359217,-7105.977043,536.266849
1452.119718,6661.853478,-5921.647536,383.047749
1452.120047,8364.327145,-4145.153275,995.924147
1452.120376,7179.997637,-6439.791695,1072.533697
1452.120705,6587.832884,-4293.194464,995.924147
1452.121034,8586.388927,-4071.132681,1225.752797
1452.121363,8734.430116,-4663.297435,153.219100
1452.121692,7254.018232,-6439.791695,459.657299
1452.122021,7550.100608,-6883.915261,2298.286494
1452.122350,7476.080014,-6587.832884,306.438199
1452.122679,5403.503377,-7920.203579,306.438199
1452.123008,5773.606348,-8142.265362,1455.581446
1452.123337,7772.162391,-7846.182985,1532.190996
1452.123666,6883.915261,-8290.306550,1149.143247
1452.123996,5033.400406,-7105.977043,1991.848295
1452.124325,7254.018232,-5329.482782,1149.143247
1452.124654,8808.450710,-4145.153275,919.314598
1452.124983,7105.977043,-4885.359217,1072.533697
1452.125312,7031.956449,-4515.256246,306.438199
1452.125641,8364.327145,-4071.132681,459.657299
1452.125970,7624.121203,-5699.585753,306.438199
1452.126299,6439.791695,-7179.997637,919.314598
1452.126628,7179.997637,-6513.812290,1072.533697
1452.126957,7254.018232,-9030.512492,612.876398
1452.127286,5477.523971,-8734.430116,536.266849
1452.127615,5403.503377,-8438.347739,1378.971896
1452.127944,6439.791695,-8956.491898,153.219100
1452.128274,5181.441594,-8882.471304,306.438199
1452.128603,4441.235652,-8142.265362,383.047749
1452.128932,7105.977043,-6661.853478,995.924147
1452.129261,8216.285956,-5847.626942,1149.143247
1452.129590,7254.018232,-6069.688724,1302.362347
1452.129919,7550.100608,-3627.009116,229.828649
1452.130248,8438.347739,-3849.070898,-383.047749
1452.130577,8290.306550,-4885.359217,842.705048
1452.130906,7994.224174,-5181.441594,1838.629195
1452.131235,8660.409521,-5847.626942,1838.629195
1452.131564,8660.409521,-7105.977043,1991.848295
1452.131893,6883.915261,-7920.203579,2298.286494
1452.132222,6883.915261,-7105.977043,1225.752797
1452.132552,6217.729913,-7476.080014,766.095498
1452.132881,5033.400406,-8512.368333,229.828649
1452.133210,5033.400406,-7550.100608,842.705048
1452.133539,6365.771101,-6365.771101,919.314598
1452.133868,6957.935855,-6439.791695,1455.581446
1452.134197,7031.956449,-6069.688724,612.876398
1452.134526,7624.121203,-4885.359217,1072.533697
1452.134855,7476.080014,-5403.503377,1378.971896
1452.135184,7254.018232,-5699.585753,842.705048
1452.135513,7550.100608,-5403.503377,1915.238745
1452.135842,8216.285956,-6661.853478,1072.533697
1452.136171,7698.141797,-7328.038826,1072.533697
1452.136500,6587.832884,-7550.100608,1378.971896
1452.136830,6661.853478,-7624.121203,1685.410096
1452.137159,7105.977043,-7550.100608,842.705048
1452.137488,6809.894666,-7328.038826,1225.752797
1452.137817,6587.832884,-6661.853478,1149.143247
1452.138146,6513.812290,-6809.894666,919.314598
1452.138475,6439.791695,-6809.894666,1225.752797
1452.138804,6143.709319,-6217.729913,766.095498
1452.139133,6957.935855,-5921.647536,1302.362347
1452.139462,6661.853478,-6439.791695,919.314598
1452.139791,5921.647536,-6439.791695,1149.143247
1452.140120,6513.812290,-6957.935855,1302.362347
1452.140449,7328.038826,-6365.771101,459.657299
1452.140778,7698.141797,-5255.462188,1685.410096
1452.141107,8734.430116,-6217.729913,2987.772442
1452.141437,8808.450710,-5921.647536,2068.457845
1452.141766,6365.771101,-7105.977043,1149.143247
1452.142095,4885.359217,-7624.121203,766.095498
1452.142424,5403.503377,-6587.832884,536.266849
1452.142753,6809.894666,-6587.832884,995.924147
1452.143082,6883.915261,-5699.585753,1915.238745
1452.143411,7994.224174,-5699.585753,1608.800546
1452.143740,8808.450710,-6143.709319,1685.410096
1452.144069,7550.100608,-5625.565159,1302.362347
1452.144398,6809.894666,-6291.750507,689.485948
1452.144727,5995.668130,-5699.585753,229.828649
1452.145056,6957.935855,-7105.977043,612.876398
1452.145385,7179.997637,-8216.285956,1455.581446
1452.145715,8068.244768,-6883.915261,1991.848295
1452.146044,8216.285956,-7105.977043,1378.971896
1452.146373,7105.977043,-7772.162391,919.314598
1452.146702,5477.523971,-7402.059420,919.314598
1452.147031,5477.523971,-6587.832884,76.609550
1452.147360,5921.647536,-7105.977043,306.438199
1452.147689,6217.729913,-6661.853478,1685.410096
1452.148018,7254.018232,-5773.606348,919.314598
1452.148347,7179.997637,-8216.285956,1149.143247
1452.148676,7105.977043,-4737.318029,842.705048
1452.149005,5847.626942,-8586.388927,995.924147
1452.149334,7105.977043,-6587.832884,229.828649
1452.149663,7179.997637,-3997.112087,1685.410096
1452.149993,8216.285956,-7772.162391,1455.581446
1452.150322,8512.368333,-4663.297435,1455.581446
1452.150651,7328.038826,-6143.709319,919.314598
1452.150980,6365.771101,-8216.285956,-306.438199
1452.151309,5847.626942,-6217.729913,459.657299
1452.151638,6661.853478,-8290.306550,612.876398
1452.151967,7105.977043,-5921.647536,919.314598
1452.152296,7550.100608,-6883.915261,1378.971896
1452.152625,8290.306550,-6735.874072,1072.533697
1452.152954,6957.935855,-4811.338623,536.266849
1452.153283,5551.544565,-7105.977043,306.438199
1452.153612,6439.791695,-6143.709319,229.828649
1452.153941,6587.832884,-6217.729913,0.000000
1452.154271,6735.874072,-8142.265362,995.924147
1452.154600,7698.141797,-6587.832884,1685.410096
1452.154929,7994.224174,-6883.915261,2145.067394
1452.155258,7846.182985,-6143.709319,1225.752797
1452.155587,6513.812290,-6513.812290,919.314598
1452.155916,6513.812290,-5699.585753,766.095498
1452.156245,7031.956449,-6661.853478,229.828649
1452.156574,7179.997637,-6513.812290,1072.533697
1452.156903,7105.977043,-6439.791695,1149.143247
1452.157232,8142.265362,-5921.647536,919.314598
1452.157561,7476.080014,-6883.915261,1149.143247
1452.157890,6735.874072,-6365.771101,1455.581446
1452.158219,6661.853478,-5921.647536,689.485948
1452.158549,7254.018232,-6809.894666,689.485948
1452.158878,7179.997637,-6883.915261,1302.362347
1452.159207,7698.141797,-6587.832884,2068.457845
1452.159536,7994.224174,-6143.709319,1378.971896
1452.159865,6365.771101,-6439.791695,459.657299
1452.160194,5773.606348,-7476.080014,612.876398
1452.160523,7031.956449,-5921.647536,612.876398
1452.160852,7994.224174,-6365.771101,1455.581446
1452.161181,7476.080014,-5995.668130,1378.971896
1452.161510,7105.977043,-6143.709319,536.266849
1452.161839,6957.935855,-7254.018232,1608.800546
1452.162168,6217.729913,-7179.997637,383.047749
1452.162497,5403.503377,-7624.121203,919.314598
1452.162827,5847.626942,-7476.080014,842.705048
1452.163156,6587.832884,-7328.038826,842.705048
1452.163485,5995.668130,-7550.100608,1225.752797
1452.163814,5625.565159,-6587.832884,0.000000
1452.164143,5921.647536,-6439.791695,459.657299
1452.164472,5329.482782,-7402.059420,612.876398
1452.164801,5181.441594,-6217.729913,0.000000
1452.165130,6883.915261,-5995.668130,1072.533697
1452.165459,8660.409521,-5107.421000,1532.190996
1452.165788,9918.759623,-4959.379811,2145.067394
1452.166117,9770.718434,-4663.297435,1302.362347
1452.166446,8660.409521,-4145.153275,2145.067394
1452.166775,8216.285956,-4515.256246,306.438199
1452.167105,7105.977043,-5995.668130,1302.362347
1452.167434,7105.977043,-6439.791695,1838.629195
1452.167763,7105.977043,-8734.430116,2145.067394
1452.168092,6069.688724,-6143.709319,766.095498
1452.168421,5255.462188,-7179.997637,842.705048
1452.168750,5625.565159,-7550.100608,1225.752797
1452.169079,5625.565159,-7402.059420,1149.143247
1452.169408,5921.647536,-7698.141797,1149.143247
1452.169737,7550.100608,-5625.565159,2145.067394
1452.170066,8364.327145,-6661.853478,1225.752797
1452.170395,7772.162391,-6069.688724,1302.362347
1452.170724,7254.018232,-5551.544565,1915.238745
1452.171053,8586.388927,-7031.956449,842.705048
1452.171383,7402.059420,-7105.977043,1072.533697
1452.171712,5551.544565,-7772.162391,1149.143247
1452.172041,5699.585753,-8660.409521,612.876398
1452.172370,5847.626942,-6883.915261,536.266849
1452.172699,5477.523971,-7476.080014,0.000000
1452.173028,5403.503377,-7476.080014,536.266849
1452.173357,6513.812290,-7328.038826,995.924147
1452.173686,7328.038826,-7402.059420,536.266849
1452.174015,7179.997637,-5995.668130,1455.581446
1452.174344,8290.306550,-4885.359217,1532.190996
1452.174673,8586.388927,-5107.421000,1685.410096
1452.175002,8216.285956,-5995.668130,1915.238745
1452.175331,8364.327145,-4959.379811,1762.019645
1452.175661,8142.265362,-4145.153275,842.705048
1452.175990,7254.018232,-5403.503377,1225.752797
1452.176319,5995.668130,-6957.935855,919.314598
1452.176648,6439.791695,-7550.100608,1378.971896
1452.176977,6513.812290,-7624.121203,1072.533697
1452.177306,6069.688724,-6735.874072,1225.752797
1452.177635,6439.791695,-7105.977043,1378.971896
1452.177964,6365.771101,-6883.915261,1149.143247
1452.178293,5921.647536,-7254.018232,919.314598
1452.178622,5773.606348,-5329.482782,689.485948
1452.178951,6957.935855,-5255.462188,766.095498
1452.179280,7920.203579,-5699.585753,766.095498
1452.179609,7994.224174,-5329.482782,1455.581446
1452.179939,8290.306550,-6217.729913,1302.362347
1452.180268,8586.388927,-6513.812290,1532.190996
1452.180597,7328.038826,-8438.347739,766.095498
1452.180926,4885.359217,-8882.471304,153.219100
1452.181255,4737.318029,-10732.986159,-229.828649
1452.181584,4515.256246,-10881.027347,0.000000
1452.181913,3775.050304,-11103.089130,0.000000
1452.182242,3997.112087,-10658.965565,306.438199
1452.182571,4959.379811,-9474.636058,306.438199
1452.182900,5329.482782,-8364.327145,0.000000
1452.183229,5699.585753,-5181.441594,76.609550
1452.183558,6735.874072,-4441.235652,689.485948
1452.183887,8586.388927,-6365.771101,1608.800546
1452.184217,7994.224174,-5699.585753,2374.896044
1452.184546,8438.347739,-4959.379811,2145.067394
1452.184875,7476.080014,-6513.812290,1685.410096
1452.185204,7105.977043,-7772.162391,3217.601092
1452.185533,5995.668130,-8216.285956,2298.286494
1452.185862,6735.874072,-7179.997637,1149.143247
1452.186191,6217.729913,-7772.162391,919.314598
1452.186520,5403.503377,-9252.574275,1149.143247
1452.186849,4589.276840,-10288.862594,1149.143247
1452.187178,3478.967927,-9178.553681,766.095498
1452.187507,2368.659014,-9400.615463,-766.095498
1452.187836,1998.556043,-8142.265362,306.438199
1452.188165,3552.988522,-8290.306550,1378.971896
1452.188495,5107.421000,-8142.265362,995.924147
1452.188824,5699.585753,-5477.523971,1378.971896
1452.189153,5329.482782,-6069.688724,1072.533697
1452.189482,6217.729913,-6883.915261,1072.533697
1452.189811,5625.565159,-9622.677246,1225.752797
1452.190140,4589.276840,-9844.739029,1685.410096
1452.190470,4293.194464,-9992.780217,842.705048
1452.190799,4589.276840,-10807.006753,1149.143247
1452.191128,4589.276840,-11843.295072,2145.067394
1452.191457,4959.379811,-11177.109724,2528.115143
1452.191786,5847.626942,-7698.141797,2068.457845
1452.192115,5847.626942,-5329.482782,1149.143247
1452.192445,5847.626942,-5847.626942,1915.238745
1452.192774,6069.688724,-5181.441594,1915.238745
1452.193103,5551.544565,-7105.977043,1838.629195
1452.193432,3775.050304,-6439.791695,612.876398
1452.193761,1998.556043,-8216.285956,-919.314598
1452.194091,2516.700203,-9252.574275,-612.876398
1452.194420,4219.173869,-11695.253884,1685.410096
1452.194749,5625.565159,-11991.336260,1532.190996
1452.195078,5551.544565,-12213.398043,2298.286494
1452.195407,5181.441594,-11621.233289,612.876398
1452.195737,4441.235652,-11399.171507,153.219100
1452.196066,4071.132681,-12657.521608,995.924147
1452.196395,4737.318029,-11473.192101,2298.286494
1452.196724,4441.235652,-8290.306550,766.095498
1452.197053,4811.338623,-7254.018232,1991.848295
1452.197382,6513.812290,-4219.173869,1991.848295
1452.197712,7624.121203,-3923.091493,1762.019645
1452.198041,6735.874072,-4293.194464,1532.190996
1452.198370,5699.585753,-3923.091493,919.314598
1452.198699,6365.771101,-3701.029710,153.219100
1452.199028,6513.812290,-6809.894666,1455.581446
1452.199358,5329.482782,-10807.006753,2604.724693
1452.199687,5107.421000,-10140.821405,1532.190996
1452.200016,4441.235652,-9770.718434,-229.828649
1452.200345,4737.318029,-12139.377449,1072.533697
1452.200674,5921.647536,-12361.439231,1455.581446
1452.201004,4811.338623,-12361.439231,842.705048
1452.201333,1998.556043,-11399.171507,-1532.190996
1452.201662,666.185348,-11029.068536,-1915.238745
1452.201991,1776.494261,-12065.356855,-995.924147
1452.202320,1998.556043,-11325.150913,306.438199
1452.202649,2072.576638,-8882.471304,1225.752797
1452.202979,4367.215058,-5995.668130,-383.047749
1452.203308,8660.409521,-2738.761985,2298.286494
1452.203637,11473.192101,-3404.947333,4213.525239
1452.203966,10807.006753,-3182.885551,4060.306139
1452.204295,7698.141797,-4293.194464,2145.067394
1452.204625,5403.503377,-5329.482782,-612.876398
1452.204954,3997.112087,-8882.471304,-689.485948
1452.205283,3997.112087,-14730.098246,2451.505594
1452.205612,5033.400406,-14211.954086,2987.772442
1452.205941,4293.194464,-10288.862594,306.438199
1452.206271,4367.215058,-8068.244768,-229.828649
1452.206600,5625.565159,-7920.203579,1149.143247
1452.206929,6217.729913,-8290.306550,1149.143247
1452.207258,3182.885551,-8364.327145,153.219100
1452.207587,1480.411884,-8216.285956,-1532.190996
1452.207917,1924.535449,-9400.615463,-2068.457845
1452.208246,2886.803174,-10807.006753,536.266849
1452.208575,4515.256246,-11843.295072,2987.772442
1452.208904,6291.750507,-10436.903782,2221.676944
1452.209233,5773.606348,-8290.306550,1838.629195
1452.209562,4959.379811,-7254.018232,1838.629195
1452.209892,6143.709319,-6365.771101,1685.410096
1452.210221,7031.956449,-6217.729913,1532.190996
1452.210550,5921.647536,-7920.203579,1225.752797
1452.210879,4885.359217,-9474.636058,2451.505594
1452.211208,5033.400406,-9252.574275,2604.724693
1452.211538,5477.523971,-8734.430116,919.314598
1452.211867,4367.215058,-8512.368333,612.876398
1452.212196,3478.967927,-8364.327145,0.000000
1452.212525,2738.761985,-10214.842000,-229.828649
1452.212854,2812.782580,-9696.697840,919.314598
1452.213184,4145.153275,-8586.388927,229.828649
1452.213513,5033.400406,-8216.285956,229.828649
1452.213842,4811.338623,-8512.368333,919.314598
1452.214171,5255.462188,-10214.842000,2068.457845
1452.214500,7105.977043,-8364.327145,2757.943793
1452.214829,7254.018232,-6735.874072,2068.457845
1452.215159,7105.977043,-7031.956449,1685.410096
1452.215488,5921.647536,-7920.203579,2068.457845
1452.215817,4885.359217,-10584.944971,1762.019645
1452.216146,3108.864956,-11399.171507,842.705048
1452.216475,1332.370696,-9992.780217,229.828649
1452.216805,2368.659014,-10214.842000,0.000000
1452.217134,3034.844362,-9770.718434,689.485948
1452.217463,4145.153275,-10140.821405,1302.362347
1452.217792,4663.297435,-9252.574275,842.705048
1452.218121,5181.441594,-6957.935855,1072.533697
1452.218451,5403.503377,-5403.503377,1455.581446
1452.218780,6439.791695,-5477.523971,612.876398
1452.219109,6661.853478,-5625.565159,1225.752797
1452.219438,6513.812290,-7105.977043,1302.362347
1452.219767,6735.874072,-8734.430116,1455.581446
1452.220096,6735.874072,-9474.636058,2068.457845
1452.220426,6439.791695,-9104.533087,1225.752797
1452.220755,4885.359217,-9474.636058,1991.848295
1452.221084,3627.009116,-10140.821405,612.876398
1452.221413,2738.761985,-10288.862594,-383.047749
1452.221742,2664.741391,-11177.109724,-919.314598
1452.222072,3108.864956,-10214.842000,-459.657299
1452.222401,3478.967927,-10510.924376,383.047749
1452.222730,3627.009116,-10362.883188,919.314598
1452.223059,3923.091493,-8512.368333,995.924147
1452.223388,5255.462188,-6883.915261,1225.752797
1452.223718,7550.100608,-4737.318029,2068.457845
1452.224047,8882.471304,-4293.194464,2834.553343
1452.224376,8882.471304,-4367.215058,2451.505594
1452.224705,7772.162391,-3997.112087,1378.971896
1452.225034,6809.894666,-6957.935855,306.438199
1452.225363,5921.647536,-8438.347739,459.657299
1452.225693,5773.606348,-10066.800811,1302.362347
1452.226022,5403.503377,-11029.068536,919.314598
1452.226351,4589.276840,-11177.109724,1149.143247
1452.226680,4589.276840,-10288.862594,612.876398
1452.227009,4071.132681,-9770.718434,0.000000
1452.227339,3034.844362,-9548.656652,153.219100
1452.227668,1924.535449,-10214.842000,0.000000
1452.227997,2072.576638,-10510.924376,76.609550
1452.228326,2442.679609,-10288.862594,766.095498
1452.228655,4219.173869,-8290.306550,2298.286494
1452.228985,5699.585753,-6809.894666,1455.581446
1452.229314,6513.812290,-5255.462188,1838.629195
1452.229643,6365.771101,-4811.338623,2221.676944
1452.229972,6365.771101,-5551.544565,1302.362347
1452.230301,5995.668130,-6957.935855,1762.019645
1452.230630,5255.462188,-10214.842000,1532.190996
1452.230960,4515.256246,-11917.315666,1608.800546
1452.231289,4589.276840,-11843.295072,2221.676944
1452.231618,4145.153275,-12361.439231,1455.581446
1452.231947,3997.112087,-11029.068536,1225.752797
1452.232276,3701.029710,-8660.409521,689.485948
1452.232606,3552.988522,-8586.388927,459.657299
1452.232935,3404.947333,-7254.018232,612.876398
1452.233264,3552.988522,-7179.997637,229.828649
1452.233593,3849.070898,-7328.038826,229.828649
1452.233922,4885.359217,-6661.853478,766.095498
1452.234252,6291.750507,-7476.080014,919.314598
1452.234581,6143.709319,-8068.244768,1378.971896
1452.234910,5921.647536,-9104.533087,1608.800546
1452.235239,6217.729913,-9696.697840,1685.410096
1452.235568,5403.503377,-9770.718434,1532.190996
1452.235897,4811.338623,-10732.986159,1838.629195
1452.236227,4589.276840,-10584.944971,2145.067394
1452.236556,4885.359217,-10214.842000,2451.505594
1452.236885,5255.462188,-9030.512492,2757.943793
1452.237214,6069.688724,-6809.894666,2604.724693
1452.237543,6217.729913,-5921.647536,2528.115143
1452.237873,5921.647536,-5995.668130,2221.676944
1452.238202,5255.462188,-6587.832884,1378.971896
1452.238531,4737.318029,-6291.750507,1455.581446
1452.238860,4959.379811,-7105.977043,153.219100
1452.239189,4885.359217,-8512.368333,1149.143247
1452.239519,4959.379811,-9326.594869,1991.848295
1452.239848,5699.585753,-11473.192101,2451.505594
1452.240177,5847.626942,-10362.883188,2757.943793
1452.240506,5551.544565,-9622.677246,3217.601092
1452.240835,6439.791695,-8734.430116,2987.772442
1452.241165,7402.059420,-6883.915261,4366.744339
1452.241494,7105.977043,-6143.709319,3907.087040
1452.241823,7476.080014,-4885.359217,3830.477490
1452.242152,7254.018232,-3997.112087,3677.258390
1452.242481,7105.977043,-4663.297435,3064.381992
1452.242810,6365.771101,-5699.585753,2451.505594
1452.243140,5551.544565,-6143.709319,2221.676944
1452.243469,5477.523971,-7254.018232,2145.067394
1452.243798,5847.626942,-8290.306550,3064.381992
1452.244127,6439.791695,-8068.244768,4060.306139
1452.244456,6513.812290,-7476.080014,3600.648841
1452.244786,5699.585753,-7698.141797,3447.429741
1452.245115,5403.503377,-8142.265362,3217.601092
1452.245444,6143.709319,-7698.141797,3677.258390
1452.245773,7031.956449,-6809.894666,4673.182538
1452.246102,7624.121203,-5773.606348,4749.792088
1452.246432,8438.347739,-4959.379811,4673.182538
1452.246761,8216.285956,-4737.318029,4903.011187
1452.247090,7772.162391,-4367.215058,4519.963438
1452.247419,7179.997637,-4885.359217,4060.306139
1452.247748,6365.771101,-5107.421000,3907.087040
1452.248077,6143.709319,-6809.894666,2987.772442
1452.248407,5847.626942,-8512.368333,3677.258390
1452.248736,5551.544565,-9844.739029,4136.915689
1452.249065,5699.585753,-10510.924376,4213.525239
1452.249394,5329.482782,-10066.800811,3907.087040
1452.249723,3775.050304,-9474.636058,2987.772442
1452.250053,4071.132681,-9400.615463,3907.087040
1452.250382,4737.318029,-9030.512492,3753.867940
1452.250711,5551.544565,-7698.141797,4826.401637
1452.251040,7550.100608,-6291.750507,5439.278036
1452.251369,8290.306550,-5255.462188,6281.983084
1452.251699,8586.388927,-4663.297435,6358.592633
1452.252028,8512.368333,-3552.988522,5592.497135
1452.252357,8956.491898,-2812.782580,5362.668486
1452.252686,9030.512492,-3478.967927,5745.716235
1452.253015,9400.615463,-3923.091493,5209.449386
1452.253344,9474.636058,-4515.256246,5132.839837
1452.253674,8512.368333,-5625.565159,3907.087040
1452.254003,7328.038826,-6661.853478,4136.915689
1452.254332,6291.750507,-8808.450710,3907.087040
1452.254661,5403.503377,-9030.512492,4136.915689
1452.254990,4737.318029,-9696.697840,3753.867940
1452.255320,4071.132681,-9622.677246,3370.820191
1452.255649,2664.741391,-9770.718434,3294.210641
1452.255978,2664.741391,-10436.903782,3677.258390
1452.256307,4885.359217,-7920.203579,3907.087040
1452.256636,6143.709319,-5921.647536,4290.134789
1452.256966,7846.182985,-4811.338623,4749.792088
1452.257295,9474.636058,-2886.803174,5745.716235
1452.257624,10510.924376,-2368.659014,6052.154434
1452.257953,10510.924376,-1702.473667,5056.230287
1452.258282,9474.636058,-2072.576638,4826.401637
1452.258611,8734.430116,-4441.235652,4366.744339
1452.258941,7550.100608,-6439.791695,3983.696590
1452.259270,6365.771101,-8438.347739,3217.601092
1452.259599,5551.544565,-8808.450710,2681.334243
1452.259928,4959.379811,-9474.636058,2911.162892
1452.260257,4959.379811,-9992.780217,2987.772442
1452.260587,4737.318029,-9104.533087,3370.820191
1452.260916,5181.441594,-7920.203579,2911.162892
1452.261245,6217.729913,-6587.832884,3600.648841
1452.261574,8142.265362,-5551.544565,4749.792088
1452.261903,9104.533087,-4959.379811,4596.572988
1452.262233,9178.553681,-4367.215058,3983.696590
1452.262562,8734.430116,-4367.215058,3064.381992
1452.262891,7698.141797,-4737.318029,2374.896044
1452.263220,7105.977043,-5995.668130,3294.210641
1452.263549,7105.977043,-7031.956449,3524.039291
1452.263878,6809.894666,-7402.059420,3983.696590
1452.264208,6661.853478,-7550.100608,3753.867940
1452.264537,6957.935855,-7624.121203,4443.353888
1452.264866,7624.121203,-7772.162391,4136.915689
1452.265195,7476.080014,-6883.915261,4366.744339
1452.265524,6957.935855,-5921.647536,3524.039291
1452.265854,7105.977043,-5921.647536,3447.429741
1452.266183,6809.894666,-4737.318029,3447.429741
1452.266512,7328.038826,-4367.215058,2757.943793
1452.266841,8438.347739,-4441.235652,3600.648841
1452.267170,8586.388927,-4663.297435,3907.087040
1452.267500,7624.121203,-6587.832884,4060.306139
1452.267829,7179.997637,-7994.224174,3677.258390
1452.268158,6365.771101,-9844.739029,3677.258390
1452.268487,5625.565159,-10584.944971,3677.258390
1452.268816,4589.276840,-9696.697840,3294.210641
1452.269145,4071.132681,-8660.409521,2911.162892
1452.269475,4737.318029,-6735.874072,2451.505594
1452.269804,5773.606348,-4441.235652,2604.724693
1452.270133,6735.874072,-4737.318029,3907.087040
1452.270462,8142.265362,-4145.153275,4903.011187
1452.270791,8808.450710,-4145.153275,5745.716235
1452.271121,9104.533087,-3849.070898,5592.497135
1452.271450,9474.636058,-3478.967927,5745.716235
1452.271779,10066.800811,-3552.988522,5286.058936
1452.272108,9918.759623,-5033.400406,3600.648841
1452.272437,7624.121203,-6217.729913,3677.258390
1452.272767,5847.626942,-8068.244768,2757.943793
1452.273096,4441.235652,-9844.739029,2145.067394
1452.273425,2960.823768,-10732.986159,3064.381992
1452.273754,2960.823768,-11991.336260,3524.039291
1452.274083,3478.967927,-10510.924376,3524.039291
1452.274413,3849.070898,-8734.430116,3600.648841
1452.274742,6069.688724,-6661.853478,4443.353888
1452.275071,8142.265362,-3923.091493,5439.278036
1452.275400,9844.739029,-3182.885551,5592.497135
1452.275729,9992.780217,-2368.659014,5209.449386
1452.276058,9548.656652,-1554.432478,4903.011187
1452.276388,9326.594869,-2516.700203,4749.792088
1452.276717,8808.450710,-4737.318029,4366.744339
1452.277046,7698.141797,-6957.935855,4979.620737
1452.277375,8216.285956,-9178.553681,4826.401637
1452.277704,8142.265362,-9548.656652,4519.963438
1452.278034,7031.956449,-9326.594869,4903.011187
1452.278363,5255.462188,-9474.636058,3447.429741
1452.278692,3997.112087,-7105.977043,2145.067394
1452.279021,3849.070898,-6661.853478,2604.724693
1452.279350,5329.482782,-6661.853478,3907.087040
1452.279680,7624.121203,-4885.359217,5439.278036
1452.280009,8068.244768,-4515.256246,5822.325785
1452.280338,7550.100608,-5477.523971,4979.620737
1452.280667,7698.141797,-5699.585753,5132.839837
1452.280996,8068.244768,-5551.544565,5132.839837
1452.281325,8512.368333,-5995.668130,4443.353888
1452.281655,7698.141797,-4737.318029,3907.087040
1452.281984,7105.977043,-6291.750507,3064.381992
1452.282313,6809.894666,-7994.224174,3677.258390
1452.282642,6439.791695,-8512.368333,4903.011187
1452.282971,6883.915261,-8808.450710,4290.134789
1452.283301,6069.688724,-8364.327145,3830.477490
1452.283630,4589.276840,-8216.285956,3524.039291
1452.283959,5107.421000,-8438.347739,3830.477490
1452.284288,6439.791695,-6069.688724,4519.963438
1452.284617,7254.018232,-4515.256246,4596.572988
1452.284947,7328.038826,-2738.761985,4136.915689
1452.285276,7105.977043,-2368.659014,3524.039291
1452.285605,7994.224174,-4293.194464,4213.525239
1452.285934,8438.347739,-5033.400406,4826.401637
1452.286263,8734.430116,-6291.750507,5362.668486
1452.286592,8808.450710,-7254.018232,4443.353888
1452.286922,7476.080014,-9178.553681,4443.353888
1452.287251,5033.400406,-9326.594869,4596.572988
1452.287580,5033.400406,-8586.388927,3370.820191
1452.287909,5773.606348,-7105.977043,3370.820191
1452.288238,6365.771101,-6217.729913,3064.381992
1452.288568,6587.832884,-6587.832884,3600.648841
1452.288897,6439.791695,-5921.647536,3753.867940
1452.289226,5921.647536,-5773.606348,3600.648841
1452.289555,5995.668130,-5403.503377,3064.381992
1452.289884,7031.956449,-6439.791695,3677.258390
1452.290214,8290.306550,-5477.523971,3677.258390
1452.290543,8512.368333,-4811.338623,3907.087040
1452.290872,7920.203579,-5699.585753,3600.648841
1452.291201,7624.121203,-7179.997637,2528.115143
1452.291530,7179.997637,-8808.450710,3294.210641
1452.291859,7105.977043,-7476.080014,3907.087040
1452.292188,7031.956449,-8586.388927,3753.867940
1452.292517,5847.626942,-9844.739029,4519.963438
1452.292846,5699.585753,-6883.915261,3677.258390
1452.293176,7254.018232,-4811.338623,2911.162892
1452.293505,9178.553681,-3701.029710,4366.744339
1452.293834,8512.368333,-4589.276840,4060.306139
1452.294163,6809.894666,-5181.441594,2757.943793
1452.294492,4737.318029,-3627.009116,1608.800546
1452.294821,4515.256246,-3627.009116,1225.752797
1452.295150,7031.956449,-6365.771101,1991.848295
1452.295479,8882.471304,-7328.038826,4366.744339
1452.295808,8808.450710,-8586.388927,3753.867940
1452.296137,7254.018232,-7179.997637,1915.238745
1452.296466,6809.894666,-7994.224174,2374.896044
1452.296796,6217.729913,-8586.388927,2374.896044
1452.297125,5107.421000,-8290.306550,1302.362347
1452.297454,3849.070898,-9696.697840,2451.505594
1452.297783,4885.359217,-7031.956449,2374.896044
1452.298112,6957.935855,-5181.441594,2451.505594
1452.298441,8068.244768,-6439.791695,4290.134789
1452.298770,8586.388927,-5181.441594,4903.011187
1452.299099,8956.491898,-3849.070898,3524.039291
1452.299428,8660.409521,-2664.741391,2068.457845
1452.299757,7698.141797,-2220.617826,1608.800546
1452.300087,8660.409521,-5551.544565,2374.896044
1452.300416,9622.677246,-5625.565159,1915.238745
1452.300745,8216.285956,-6661.853478,1685.410096
1452.301074,6587.832884,-7550.100608,383.047749
1452.301403,5773.606348,-9918.759623,306.438199
1452.301732,6069.688724,-12139.377449,1915.238745
1452.302061,5847.626942,-10658.965565,1915.238745
1452.302390,5181.441594,-10066.800811,2068.457845
1452.302719,4959.379811,-7698.141797,1838.629195
1452.303048,5107.421000,-6661.853478,1378.971896
1452.303377,6735.874072,-5551.544565,2604.724693
1452.303707,8068.244768,-3404.947333,2834.553343
1452.304036,8142.265362,-3330.926739,1532.190996
1452.304365,7550.100608,-3701.029710,1915.238745
1452.304694,8216.285956,-3849.070898,1915.238745
1452.305023,9326.594869,-4071.132681,1455.581446
1452.305352,8882.471304,-4959.379811,1608.800546
1452.305681,7698.141797,-7179.997637,842.705048
1452.306010,6217.729913,-8068.244768,153.219100
1452.306339,4737.318029,-8734.430116,-766.095498
1452.306668,4219.173869,-9918.759623,0.000000
1452.306997,4071.132681,-10658.965565,536.266849
1452.307327,4589.276840,-9400.615463,689.485948
1452.307656,5403.503377,-7402.059420,842.705048
1452.307985,7179.997637,-7105.977043,2451.505594
1452.308314,8068.244768,-4071.132681,2451.505594
1452.308643,7624.121203,-3627.009116,2298.286494
1452.308972,8216.285956,-3330.926739,2145.067394
1452.309301,8734.430116,-3256.906145,1532.190996
1452.309630,9326.594869,-3552.988522,1608.800546
1452.309959,8956.491898,-3256.906145,1225.752797
1452.310288,8512.368333,-5033.400406,459.657299
1452.310618,7402.059420,-7031.956449,-383.047749
1452.310947,5921.647536,-8364.327145,-1072.533697
1452.311276,5699.585753,-9992.780217,-306.438199
1452.311605,4959.379811,-12139.377449,153.219100
1452.311934,4367.215058,-11991.336260,766.095498
1452.312263,3923.091493,-10214.842000,383.047749
1452.312592,5403.503377,-9474.636058,1991.848295
1452.312921,7328.038826,-6587.832884,3294.210641
1452.313250,8512.368333,-5181.441594,2911.162892
1452.313579,7254.018232,-2220.617826,1532.190996
1452.313908,7402.059420,-592.164754,612.876398
1452.314238,8512.368333,-814.226536,459.657299
1452.314567,9474.636058,-1850.514855,1149.143247
1452.314896,9104.533087,-5033.400406,1532.190996
1452.315225,8956.491898,-5699.585753,1378.971896
1452.315554,7328.038826,-7994.224174,153.219100
1452.315883,5329.482782,-9992.780217,306.438199
1452.316212,3997.112087,-12213.398043,-229.828649
1452.316541,4441.235652,-11843.295072,0.000000
1452.316870,4885.359217,-8956.491898,-229.828649
1452.317199,5625.565159,-8660.409521,689.485948
1452.317528,7402.059420,-7402.059420,3064.381992
1452.317858,8734.430116,-5699.585753,2911.162892
1452.318187,8216.285956,-3404.947333,2145.067394
1452.318516,8068.244768,-1924.535449,2528.115143
1452.318845,9030.512492,-2368.659014,2068.457845
1452.319174,9252.574275,-1776.494261,536.266849
1452.319503,7994.224174,-3552.988522,0.000000
1452.319832,7328.038826,-4515.256246,-1915.238745
1452.320161,6661.853478,-5773.606348,-1378.971896
1452.320490,5847.626942,-10658.965565,-383.047749
1452.320819,5255.462188,-11547.212695,0.000000
1452.321148,4959.379811,-11399.171507,995.924147
1452.321478,5699.585753,-11917.315666,1225.752797
1452.321807,5181.441594,-10732.986159,1838.629195
1452.322136,5699.585753,-9178.553681,1685.410096
1452.322465,6883.915261,-5255.462188,1302.362347
1452.322794,7550.100608,-3923.091493,2068.457845
1452.323123,8512.368333,-1258.350101,2145.067394
1452.323452,9030.512492,0.000000,1762.019645
1452.323781,9326.594869,-2146.597232,995.924147
1452.324110,8660.409521,-2886.803174,1225.752797
1452.324439,7402.059420,-5255.462188,459.657299
1452.324769,7179.997637,-6883.915261,536.266849
1452.325098,6661.853478,-9918.759623,612.876398
1452.325427,4737.318029,-11621.233289,-306.438199
1452.325756,4293.194464,-10362.883188,-1302.362347
1452.326085,4663.297435,-12435.459826,383.047749
1452.326414,5181.441594,-11399.171507,1072.533697
1452.326743,4885.359217,-8734.430116,919.314598
1452.327072,5625.565159,-6735.874072,1455.581446
1452.327401,7550.100608,-4589.276840,1915.238745
1452.327730,9326.594869,-2960.823768,3217.601092
1452.328059,10066.800811,-1776.494261,3600.648841
1452.328389,10288.862594,-1406.391290,2068.457845
1452.328718,9104.533087,-740.205942,229.828649
1452.329047,7698.141797,-2516.700203,0.000000
1452.329376,6587.832884,-6513.812290,229.828649
1452.329705,5995.668130,-8586.388927,0.000000
1452.330034,4959.379811,-10140.821405,-459.657299
1452.330363,4959.379811,-10362.883188,76.609550
1452.330692,5773.606348,-12139.377449,1915.238745
1452.331021,6587.832884,-12435.459826,2834.553343
1452.331350,5773.606348,-8660.409521,1608.800546
1452.331679,5255.462188,-5033.400406,689.485948
1452.332009,5625.565159,-4071.132681,842.705048
1452.332338,7920.203579,-2886.803174,2451.505594
1452.332667,9622.677246,-740.205942,2681.334243
1452.332996,9474.636058,-1554.432478,1608.800546
1452.333325,8364.327145,-2072.576638,536.266849
1452.333654,7698.141797,-4663.297435,766.095498
1452.333983,8142.265362,-6735.874072,1455.581446
1452.334312,7476.080014,-8216.285956,0.000000
1452.334641,5625.565159,-9622.677246,-612.876398
1452.334970,5921.647536,-9844.739029,-383.047749
1452.335299,6217.729913,-11769.274478,612.876398
1452.335629,6513.812290,-11843.295072,2068.457845
1452.335958,5403.503377,-8068.244768,1149.143247
1452.336287,5329.482782,-6883.915261,612.876398
1452.336616,6217.729913,-5921.647536,1149.143247
1452.336945,8438.347739,-5033.400406,2834.553343
1452.337274,9770.718434,-3330.926739,2451.505594
1452.337603,9326.594869,-1776.494261,1072.533697
1452.337932,7920.203579,-1702.473667,306.438199
1452.338261,7624.121203,-4071.132681,0.000000
1452.338590,7402.059420,-6439.791695,306.438199
1452.338920,5921.647536,-8808.450710,76.609550
1452.339249,5329.482782,-9992.780217,229.828649
1452.339578,5847.626942,-9622.677246,229.828649
1452.339907,6217.729913,-11843.295072,1455.581446
1452.340236,5329.482782,-11177.109724,1838.629195
1452.340565,5403.503377,-9178.553681,919.314598
1452.340894,6069.688724,-6661.853478,842.705048
1452.341223,6143.709319,-4885.359217,306.438199
1452.341552,7624.121203,-2664.741391,1532.190996
1452.341881,8882.471304,-2368.659014,1455.581446
1452.342210,8882.471304,-2442.679609,995.924147
1452.342540,7476.080014,-2072.576638,1225.752797
1452.342869,7476.080014,-4219.173869,1149.143247
1452.343198,8512.368333,-5033.400406,1455.581446
1452.343527,7105.977043,-8438.347739,612.876398
1452.343856,6735.874072,-9400.615463,919.314598
1452.344185,6661.853478,-9474.636058,306.438199
1452.344514,6513.812290,-10214.842000,1302.362347
1452.344843,4885.359217,-8142.265362,459.657299
1452.345172,4515.256246,-7550.100608,459.657299
1452.345501,5477.523971,-6735.874072,1455.581446
1452.345830,6587.832884,-5995.668130,1455.581446
1452.346160,8290.306550,-3997.112087,2298.286494
1452.346489,9178.553681,-3997.112087,2145.067394
1452.346818,9474.636058,-3182.885551,1532.190996
1452.347147,7624.121203,-2812.782580,0.000000
1452.347476,6661.853478,-5921.647536,459.657299
1452.347805,7179.997637,-7328.038826,153.219100
1452.348134,6735.874072,-8586.388927,153.219100
1452.348463,6365.771101,-8364.327145,229.828649
1452.348792,6217.729913,-10066.800811,766.095498
1452.349121,7254.018232,-11621.233289,1532.190996
1452.349450,5699.585753,-9696.697840,1455.581446
1452.349780,5033.400406,-7105.977043,1302.362347
1452.350109,6513.812290,-7105.977043,1762.019645
1452.350438,8142.265362,-4885.359217,2374.896044
1452.350767,8290.306550,-3997.112087,1608.800546
1452.351096,7476.080014,-3330.926739,1378.971896
1452.351425,8216.285956,-1998.556043,842.705048
1452.351754,7698.141797,-3034.844362,-306.438199
1452.352083,7550.100608,-5107.421000,689.485948
1452.352412,7254.018232,-8364.327145,1991.848295
1452.352741,7476.080014,-9104.533087,1532.190996
1452.353071,6809.894666,-8660.409521,536.266849
1452.353400,6143.709319,-9474.636058,1762.019645
1452.353729,6365.771101,-9178.553681,1072.533697
1452.354058,6069.688724,-8882.471304,689.485948
1452.354387,5107.421000,-6661.853478,1072.533697
1452.354716,5995.668130,-5921.647536,0.000000
1452.355045,7550.100608,-4293.194464,842.705048
1452.355374,7624.121203,-3182.885551,1762.019645
1452.355703,8216.285956,-5255.462188,1225.752797
1452.356032,8364.327145,-3552.988522,1302.362347
1452.356361,7624.121203,-4885.359217,153.219100
1452.356691,7550.100608,-5995.668130,1072.533697
1452.357020,7179.997637,-7624.121203,842.705048
1452.357349,7105.977043,-7772.162391,229.828649
1452.357678,6365.771101,-6587.832884,0.000000
1452.358007,5921.647536,-8290.306550,842.705048
1452.358336,6809.894666,-7846.182985,1302.362347
1452.358665,6661.853478,-7179.997637,1762.019645
1452.358994,7105.977043,-6883.915261,2298.286494
1452.359323,7846.182985,-5995.668130,2068.457845
1452.359652,7402.059420,-5551.544565,2681.334243
1452.359981,7698.141797,-4367.215058,995.924147
1452.360311,7402.059420,-4367.215058,76.609550
1452.360640,6957.935855,-2886.803174,-612.876398
1452.360969,6217.729913,-4811.338623,-1378.971896
1452.361298,6069.688724,-8068.244768,1225.752797
1452.361627,7698.141797,-9030.512492,2145.067394
1452.361956,7476.080014,-8068.244768,1302.362347
1452.362285,6365.771101,-7624.121203,1149.143247
1452.362614,6661.853478,-9178.553681,1532.190996
1452.362943,6291.750507,-8142.265362,766.095498
1452.363272,6069.688724,-5995.668130,612.876398
1452.363601,6439.791695,-4737.318029,536.266849
1452.363931,7476.080014,-4515.256246,153.219100
1452.364260,7698.141797,-4737.318029,459.657299
1452.364589,7550.100608,-5477.523971,612.876398
1452.364918,7550.100608,-6291.750507,919.314598
1452.365247,7624.121203,-5329.482782,-229.828649
1452.365576,6809.894666,-6217.729913,229.828649
1452.365905,7328.038826,-8216.285956,919.314598
1452.366234,7328.038826,-8068.244768,842.705048
1452.366563,6587.832884,-7179.997637,766.095498
1452.366892,5995.668130,-6217.729913,306.438199
1452.367222,6883.915261,-8142.265362,1455.581446
1452.367551,7698.141797,-7105.977043,1915.238745
1452.367880,6957.935855,-5699.585753,1838.629195
1452.368209,7179.997637,-5699.585753,1302.362347
1452.368538,7698.141797,-6365.771101,689.485948
1452.368867,7254.018232,-4737.318029,1302.362347
1452.369196,6735.874072,-5403.503377,-153.219100
1452.369525,6365.771101,-5773.606348,-612.876398
1452.369854,5477.523971,-5329.482782,-1532.190996
1452.370183,5773.606348,-8142.265362,0.000000
1452.370512,6809.894666,-8512.368333,1149.143247
1452.370842,7624.121203,-8512.368333,2068.457845
1452.371171,7624.121203,-7846.182985,1532.190996
1452.371500,7105.977043,-7772.162391,1608.800546
1452.371829,6957.935855,-8142.265362,1532.190996
1452.372158,7105.977043,-6513.812290,919.314598
1452.372487,6883.915261,-4515.256246,766.095498
1452.372816,7105.977043,-4515.256246,919.314598
1452.373145,7846.182985,-5033.400406,842.705048
1452.373474,7772.162391,-5181.441594,1455.581446
1452.373803,7328.038826,-6513.812290,995.924147
1452.374132,7254.018232,-6735.874072,383.047749
1452.374462,6735.874072,-7476.080014,306.438199
1452.374791,6661.853478,-8586.388927,1838.629195
1452.375120,6661.853478,-8586.388927,1762.019645
1452.375449,5847.626942,-7105.977043,689.485948
1452.375778,5181.441594,-5403.503377,0.000000
1452.376107,6217.729913,-6957.935855,1838.629195
1452.376436,8068.244768,-7031.956449,2911.162892
1452.376765,7550.100608,-5181.441594,2145.067394
1452.377094,6809.894666,-5181.441594,2374.896044
1452.377423,7994.224174,-6069.688724,2298.286494
1452.377753,8216.285956,-6365.771101,2451.505594
1452.378082,7179.997637,-5329.482782,1225.752797
1452.378411,6735.874072,-5403.503377,0.000000
1452.378740,6661.853478,-6217.729913,-766.095498
1452.379069,6587.832884,-5551.544565,-459.657299
1452.379398,6883.915261,-8438.347739,689.485948
1452.379727,8734.430116,-9030.512492,2604.724693
1452.380056,7846.182985,-8290.306550,1685.410096
1452.380385,6069.688724,-7624.121203,1685.410096
1452.380714,5847.626942,-7105.977043,2451.505594
1452.381043,7328.038826,-5773.606348,2068.457845
1452.381373,7179.997637,-4293.194464,1532.190996
1452.381702,5921.647536,-4219.173869,1838.629195
1452.382031,7920.203579,-5107.421000,1991.848295
1452.382360,7920.203579,-4515.256246,1455.581446
1452.382689,6365.771101,-5255.462188,919.314598
1452.383018,6143.709319,-7031.956449,612.876398
1452.383347,6661.853478,-7624.121203,0.000000
1452.383676,6069.688724,-8290.306550,0.000000
1452.384005,6291.750507,-8660.409521,1302.362347
1452.384334,7105.977043,-8586.388927,1378.971896
1452.384663,6439.791695,-7402.059420,306.438199
1452.384993,4811.338623,-8068.244768,229.828649
1452.385322,5699.585753,-7624.121203,1838.629195
1452.385651,7920.203579,-6217.729913,1225.752797
1452.385980,7328.038826,-5255.462188,1838.629195
1452.386309,6513.812290,-4663.297435,1685.410096
1452.386638,7476.080014,-5033.400406,766.095498
1452.386967,8364.327145,-4663.297435,689.485948
1452.387296,7920.203579,-5403.503377,1225.752797
1452.387625,7624.121203,-7698.141797,612.876398
1452.387954,6735.874072,-6661.853478,-459.657299
1452.388283,5551.544565,-6291.750507,-536.266849
1452.388613,5921.647536,-7402.059420,766.095498
1452.388942,6513.812290,-8586.388927,995.924147
1452.389271,5995.668130,-9326.594869,766.095498
1452.389600,5625.565159,-8216.285956,1608.800546
1452.389931,6735.874072,-6217.729913,612.876398
1452.390260,7254.018232,-5921.647536,1302.362347
1452.390589,7105.977043,-5255.462188,1915.238745
1452.390918,7550.100608,-5403.503377,1762.019645
1452.391247,8438.347739,-3478.967927,919.314598
1452.391576,8290.306550,-4071.132681,612.876398
1452.391905,7846.182985,-6513.812290,689.485948
1452.392235,7772.162391,-7994.224174,229.828649
1452.392564,7105.977043,-8882.471304,0.000000
1452.392893,6291.750507,-7772.162391,-459.657299
1452.393222,5921.647536,-9770.718434,0.000000
1452.393551,6291.750507,-9770.718434,689.485948
1452.393880,5921.647536,-8068.244768,459.657299
1452.394209,5773.606348,-8142.265362,1072.533697
1452.394538,6513.812290,-5107.421000,689.485948
1452.394868,7105.977043,-4515.256246,1302.362347
1452.395197,7846.182985,-5033.400406,2221.676944
1452.395526,9474.636058,-3404.947333,2681.334243
1452.395855,9326.594869,-4145.153275,2298.286494
1452.396184,7994.224174,-4071.132681,1455.581446
1452.396513,7105.977043,-5181.441594,689.485948
1452.396842,6957.935855,-7254.018232,229.828649
1452.397171,6439.791695,-6883.915261,-306.438199
1452.397501,5625.565159,-7624.121203,0.000000
1452.397830,5329.482782,-10140.821405,689.485948
1452.398159,5255.462188,-11325.150913,1225.752797
1452.398488,5329.482782,-9474.636058,1302.362347
1452.398817,5181.441594,-7624.121203,919.314598
1452.399146,5699.585753,-5995.668130,1149.143247
1452.399475,6513.812290,-3997.112087,1608.800546
1452.399804,7772.162391,-3552.988522,2145.067394
1452.400134,9030.512492,-2664.741391,2145.067394
1452.400463,9548.656652,-1850.514855,1532.190996
1452.400792,9400.615463,-4737.318029,2145.067394
1452.401121,8734.430116,-6069.688724,1532.190996
1452.401450,7624.121203,-7328.038826,766.095498
1452.401779,6365.771101,-6587.832884,-306.438199
1452.402108,5847.626942,-8068.244768,1378.971896
1452.402437,5847.626942,-11029.068536,459.657299
1452.402767,5403.503377,-10140.821405,1072.533697
1452.403096,5107.421000,-9400.615463,766.095498
1452.403425,6069.688724,-8216.285956,1225.752797
1452.403754,5995.668130,-6069.688724,1455.581446
1452.404083,6291.750507,-5625.565159,1455.581446
1452.404412,8882.471304,-4663.297435,2681.334243
1452.404741,9992.780217,-2294.638420,2298.286494
1452.405070,8512.368333,-2072.576638,1685.410096
1452.405400,8216.285956,-4885.359217,1762.019645
1452.405729,8068.244768,-5181.441594,842.705048
1452.406058,6661.853478,-6661.853478,-919.314598
1452.406387,5477.523971,-8660.409521,153.219100
1452.406716,5995.668130,-9548.656652,842.705048
1452.407045,5551.544565,-11843.295072,153.219100
1452.407374,3923.091493,-9030.512492,383.047749
1452.407703,4071.132681,-8364.327145,-612.876398
1452.408033,6439.791695,-8586.388927,-306.438199
1452.408362,7031.956449,-5995.668130,1915.238745
1452.408691,7179.997637,-5477.523971,1532.190996
1452.409020,9400.615463,-3108.864956,2987.772442
1452.409349,9400.615463,-1998.556043,1838.629195
1452.409678,9104.533087,-3034.844362,2451.505594
1452.410007,9326.594869,-4219.173869,2451.505594
1452.410336,9474.636058,-5477.523971,1302.362347
1452.410666,7402.059420,-4737.318029,-612.876398
1452.410995,5403.503377,-6587.832884,-383.047749
1452.411324,5995.668130,-9252.574275,76.609550
1452.411653,5477.523971,-10881.027347,76.609550
1452.411982,4219.173869,-11843.295072,1225.752797
1452.412311,4885.359217,-9252.574275,612.876398
1452.412640,5625.565159,-8956.491898,1225.752797
1452.412969,6069.688724,-6291.750507,1608.800546
1452.413299,7254.018232,-4811.338623,1149.143247
1452.413628,9770.718434,-3552.988522,2911.162892
1452.413957,9918.759623,-1998.556043,1915.238745
1452.414286,9030.512492,-1628.453072,1149.143247
1452.414615,9178.553681,-3701.029710,1991.848295
1452.414944,9474.636058,-5033.400406,306.438199
1452.415273,6735.874072,-6883.915261,-689.485948
1452.415602,5329.482782,-8734.430116,76.609550
1452.415932,6069.688724,-10732.986159,0.000000
1452.416261,5699.585753,-11473.192101,-766.095498
1452.416590,4367.215058,-10658.965565,536.266849
1452.416919,5033.400406,-10436.903782,153.219100
1452.417248,5995.668130,-8660.409521,383.047749
1452.417577,5107.421000,-5921.647536,689.485948
1452.417906,6735.874072,-4663.297435,1455.581446
1452.418235,9474.636058,-3108.864956,3524.039291
1452.418565,10066.800811,-1406.391290,2451.505594
1452.418894,9178.553681,-1998.556043,1762.019645
1452.419223,8956.491898,-3034.844362,2374.896044
1452.419552,8512.368333,-4293.194464,536.266849
1452.419881,6439.791695,-5329.482782,-995.924147
1452.420210,5847.626942,-6735.874072,536.266849
1452.420539,7105.977043,-9622.677246,-383.047749
1452.420868,5847.626942,-11769.274478,-76.609550
1452.421198,3997.112087,-11029.068536,689.485948
1452.421527,5107.421000,-11843.295072,76.609550
1452.421856,6735.874072,-9400.615463,1532.190996
1452.422185,5107.421000,-7328.038826,1378.971896
1452.422514,7031.956449,-5699.585753,1838.629195
1452.422843,9326.594869,-3330.926739,2681.334243
1452.423172,9178.553681,-1258.350101,1455.581446
1452.423501,7920.203579,-1184.329507,1455.581446
1452.423831,8660.409521,-1110.308913,1762.019645
1452.424160,8956.491898,-2738.761985,-536.266849
1452.424489,7105.977043,-5255.462188,76.609550
1452.424818,7328.038826,-7772.162391,1532.190996
1452.425147,7402.059420,-10807.006753,995.924147
1452.425476,5847.626942,-11029.068536,766.095498
1452.425805,4367.215058,-11473.192101,1149.143247
1452.426134,5921.647536,-12287.418637,1225.752797
1452.426464,6069.688724,-9770.718434,612.876398
1452.426793,3997.112087,-6735.874072,229.828649
1452.427122,5847.626942,-5033.400406,536.266849
1452.427451,9104.533087,-2738.761985,2145.067394
1452.427780,9548.656652,-1184.329507,1991.848295
1452.428109,8438.347739,-3034.844362,1838.629195
1452.428438,8660.409521,-4367.215058,2757.943793
1452.428767,8216.285956,-5255.462188,459.657299
1452.429097,5847.626942,-6587.832884,-153.219100
1452.429426,5255.462188,-7698.141797,536.266849
1452.429755,6809.894666,-10214.842000,-536.266849
1452.430084,6143.709319,-11843.295072,689.485948
1452.430413,4811.338623,-9992.780217,459.657299
1452.430742,6365.771101,-11325.150913,1378.971896
1452.431071,6661.853478,-8956.491898,2911.162892
1452.431400,6069.688724,-6809.894666,1838.629195
1452.431730,6883.915261,-4885.359217,2834.553343
1452.432059,8364.327145,-2220.617826,2451.505594
1452.432388,8956.491898,0.000000,995.924147
1452.432717,8438.347739,-1036.288319,1608.800546
1452.433046,8512.368333,-2220.617826,766.095498
1452.433375,7698.141797,-3627.009116,-995.924147
1452.433704,6069.688724,-6883.915261,153.219100
1452.434033,6735.874072,-9178.553681,766.095498
1452.434363,6587.832884,-11769.274478,383.047749
1452.434692,5847.626942,-11843.295072,1532.190996
1452.435021,5255.462188,-11103.089130,1149.143247
1452.435350,6143.709319,-10658.965565,842.705048
1452.435679,5625.565159,-8068.244768,1072.533697
1452.436008,5477.523971,-6439.791695,689.485948
1452.436337,6883.915261,-4071.132681,1838.629195
1452.436666,7994.224174,-1110.308913,1532.190996
1452.436996,8512.368333,-370.102971,1608.800546
1452.437325,9326.594869,-1332.370696,1302.362347
1452.437654,9474.636058,-3108.864956,1455.581446
1452.437983,7772.162391,-5107.421000,0.000000
1452.438312,7031.956449,-7476.080014,229.828649
1452.438641,6809.894666,-9474.636058,229.828649
1452.438970,6439.791695,-11769.274478,-536.266849
1452.439299,4737.318029,-11843.295072,229.828649
1452.439629,5033.400406,-11399.171507,919.314598
1452.439958,6735.874072,-11325.150913,1149.143247
1452.440287,5921.647536,-7846.182985,1915.238745
1452.440616,5551.544565,-5107.421000,2145.067394
1452.440945,7105.977043,-4515.256246,1915.238745
1452.441274,8068.244768,-2664.741391,2374.896044
1452.441603,8438.347739,-740.205942,2145.067394
1452.441932,8734.430116,-1480.411884,1072.533697
1452.442262,8586.388927,-1184.329507,229.828649
1452.442591,7031.956449,-4737.318029,-689.485948
1452.442920,6291.750507,-7846.182985,76.609550
1452.443249,6883.915261,-11325.150913,1072.533697
1452.443578,6809.894666,-13175.665768,1225.752797
1452.443907,4811.338623,-10510.924376,383.047749
1452.444236,4737.318029,-11399.171507,536.266849
1452.444565,5995.668130,-10584.944971,919.314598
1452.444895,6069.688724,-6661.853478,842.705048
1452.445224,6143.709319,-5551.544565,1838.629195
1452.445553,7846.182985,-2812.782580,2757.943793
1452.445882,9548.656652,-1702.473667,2987.772442
1452.446211,8882.471304,-666.185348,2681.334243
1452.446540,7772.162391,-1480.411884,1302.362347
1452.446869,8216.285956,-3256.906145,383.047749
1452.447198,7624.121203,-5255.462188,689.485948
1452.447528,6883.915261,-6513.812290,1072.533697
1452.447857,6883.915261,-9918.759623,919.314598
1452.448186,6069.688724,-11769.274478,1378.971896
1452.448515,5107.421000,-11621.233289,842.705048
1452.448844,4959.379811,-11029.068536,689.485948
1452.449173,5477.523971,-9548.656652,1991.848295
1452.449502,6439.791695,-6069.688724,1302.362347
1452.449831,7105.977043,-4515.256246,1685.410096
1452.450161,7920.203579,-3627.009116,1991.848295
1452.450490,9030.512492,-1776.494261,1302.362347
1452.450819,8438.347739,-3108.864956,1302.362347
1452.451148,8660.409521,-2886.803174,383.047749
1452.451477,7846.182985,-2812.782580,-383.047749
1452.451806,7105.977043,-6883.915261,0.000000
1452.452135,7920.203579,-9178.553681,995.924147
1452.452464,7105.977043,-11843.295072,1072.533697
1452.452794,6661.853478,-11251.130318,1302.362347
1452.453123,6069.688724,-9844.739029,842.705048
1452.453452,6143.709319,-9548.656652,919.314598
1452.453781,5625.565159,-7402.059420,919.314598
1452.454110,5477.523971,-5773.606348,842.705048
1452.454439,7105.977043,-3552.988522,1455.581446
1452.454768,8364.327145,-2590.720797,2298.286494
1452.455097,9178.553681,-2368.659014,1838.629195
1452.455427,8364.327145,-3108.864956,1838.629195
1452.455756,7994.224174,-4589.276840,459.657299
1452.456085,7031.956449,-4737.318029,-842.705048
1452.456414,5921.647536,-5181.441594,-612.876398
1452.456743,6957.935855,-9104.533087,306.438199
1452.457072,7031.956449,-11399.171507,1149.143247
1452.457401,5329.482782,-11177.109724,1149.143247
1452.457730,4441.235652,-10214.842000,612.876398
1452.458060,5181.441594,-9770.718434,995.924147
1452.458389,5181.441594,-8512.368333,2068.457845
1452.458718,5551.544565,-6217.729913,1838.629195
1452.459047,6957.935855,-3627.009116,1532.190996
1452.459376,7476.080014,-2516.700203,1762.019645
1452.459705,7698.141797,-962.267725,1302.362347
1452.460034,8216.285956,-2516.700203,612.876398
1452.460363,8808.450710,-3775.050304,842.705048
1452.460693,8364.327145,-3627.009116,-306.438199
1452.461022,6439.791695,-7105.977043,842.705048
1452.461351,7698.141797,-9474.636058,1838.629195
1452.461680,7624.121203,-10658.965565,612.876398
1452.462009,6291.750507,-11177.109724,1608.800546
1452.462338,5773.606348,-11103.089130,1455.581446
1452.462667,5477.523971,-10140.821405,842.705048
1452.462996,3849.070898,-7624.121203,383.047749
1452.463326,4737.318029,-6661.853478,1532.190996
1452.463655,7698.141797,-4219.173869,1838.629195
1452.463984,8586.388927,-2442.679609,2374.896044
1452.464313,8290.306550,-2812.782580,2757.943793
1452.464642,9548.656652,-2664.741391,2604.724693
1452.464971,9400.615463,-3775.050304,919.314598
1452.465300,6809.894666,-3330.926739,-306.438199
1452.465629,6143.709319,-7031.956449,-995.924147
1452.465959,7105.977043,-9918.759623,76.609550
1452.466288,5995.668130,-10140.821405,-306.438199
1452.466617,4885.359217,-10584.944971,229.828649
1452.466946,6365.771101,-11621.233289,1762.019645
1452.467275,6661.853478,-11103.089130,1455.581446
1452.467604,5255.462188,-8512.368333,1762.019645
1452.467933,6513.812290,-5921.647536,2911.162892
1452.468262,8882.471304,-3923.091493,2374.896044
1452.468592,8734.430116,-1628.453072,1149.143247
1452.468921,7994.224174,-1258.350101,1532.190996
1452.469250,9030.512492,-1850.514855,1072.533697
1452.469579,8512.368333,-2442.679609,0.000000
1452.469908,6439.791695,-4737.318029,229.828649
1452.470237,6735.874072,-7254.018232,612.876398
1452.470566,7105.977043,-9548.656652,919.314598
1452.470895,5625.565159,-9548.656652,306.438199
1452.471225,4589.276840,-11029.068536,766.095498
1452.471554,6513.812290,-11251.130318,1991.848295
1452.471883,6661.853478,-8660.409521,1072.533697
1452.472212,5477.523971,-7550.100608,1685.410096
1452.472541,6365.771101,-4515.256246,1532.190996
1452.472870,7624.121203,-4515.256246,995.924147
1452.473199,8068.244768,-4219.173869,1762.019645
1452.473528,7920.203579,-2590.720797,1991.848295
1452.473858,8512.368333,-4145.153275,1149.143247
1452.474187,7994.224174,-3923.091493,0.000000
1452.474516,6365.771101,-5181.441594,-153.219100
1452.474845,7105.977043,-7920.203579,459.657299
1452.475174,7179.997637,-8364.327145,459.657299
1452.475503,5625.565159,-9474.636058,536.266849
1452.475832,5329.482782,-9548.656652,612.876398
1452.476161,6143.709319,-9696.697840,1149.143247
1452.476491,5921.647536,-9030.512492,1302.362347
1452.476820,5625.565159,-7772.162391,1838.629195
1452.477149,7105.977043,-6217.729913,2451.505594
1452.477478,8734.430116,-4811.338623,2145.067394
1452.477807,8364.327145,-3849.070898,2145.067394
1452.478136,7105.977043,-2664.741391,1378.971896
1452.478465,7179.997637,-3330.926739,-229.828649
1452.478794,6661.853478,-4589.276840,-919.314598
1452.479124,5625.565159,-6365.771101,0.000000
1452.479453,6661.853478,-8438.347739,766.095498
1452.479782,7105.977043,-9696.697840,1149.143247
1452.480111,5995.668130,-9548.656652,1608.800546
1452.480440,5699.585753,-10066.800811,1225.752797
1452.480769,6439.791695,-8956.491898,1225.752797
1452.481098,6661.853478,-7846.182985,995.924147
1452.481427,6291.750507,-6661.853478,1455.581446
1452.481757,7105.977043,-5255.462188,1455.581446
1452.482086,8438.347739,-4811.338623,1608.800546
1452.482415,8808.450710,-4441.235652,2528.115143
1452.482744,9696.697840,-4441.235652,2681.334243
1452.483073,8364.327145,-4145.153275,1072.533697
1452.483402,5625.565159,-3775.050304,-1532.190996
1452.483731,5181.441594,-5329.482782,-383.047749
1452.484060,6809.894666,-7031.956449,76.609550
1452.484390,6809.894666,-8216.285956,76.609550
1452.484719,5107.421000,-9548.656652,1149.143247
1452.485048,6069.688724,-9770.718434,1532.190996
1452.485377,7179.997637,-9474.636058,1762.019645
1452.485706,6217.729913,-7476.080014,1532.190996
1452.486035,6513.812290,-6365.771101,2451.505594
1452.486364,7698.141797,-5403.503377,1455.581446
1452.486693,7402.059420,-4367.215058,842.705048
1452.487023,7179.997637,-3849.070898,1225.752797
1452.487352,8364.327145,-4145.153275,1072.533697
1452.487681,8290.306550,-5625.565159,459.657299
1452.488010,5847.626942,-6217.729913,306.438199
1452.488339,5625.565159,-7402.059420,306.438199
1452.488668,7328.038826,-8586.388927,842.705048
1452.488997,6513.812290,-8660.409521,536.266849
1452.489326,5773.606348,-9030.512492,995.924147
1452.489656,7031.956449,-9400.615463,995.924147
1452.489985,7254.018232,-7254.018232,1149.143247
1452.490314,5995.668130,-6069.688724,1149.143247
1452.490643,6365.771101,-5033.400406,1378.971896
1452.490972,7920.203579,-4737.318029,1762.019645
1452.491301,9104.533087,-4959.379811,1149.143247
1452.491630,8660.409521,-4663.297435,3064.381992
1452.491959,8660.409521,-4441.235652,1762.019645
1452.492288,7624.121203,-5551.544565,0.000000
1452.492618,5995.668130,-7105.977043,0.000000
1452.492947,5773.606348,-6735.874072,76.609550
1452.493276,6439.791695,-8882.471304,0.000000
1452.493605,5403.503377,-9400.615463,1072.533697
1452.493934,5255.462188,-8586.388927,689.485948
1452.494263,6365.771101,-8808.450710,766.095498
1452.494592,7476.080014,-7254.018232,2145.067394
1452.494921,7328.038826,-6661.853478,2221.676944
1452.495250,7328.038826,-6883.915261,2374.896044
1452.495579,7328.038826,-4737.318029,1378.971896
1452.495908,7920.203579,-3108.864956,1149.143247
1452.496238,7550.100608,-3997.112087,689.485948
1452.496567,8068.244768,-4885.359217,842.705048
1452.496896,7105.977043,-6735.874072,153.219100
1452.497225,6365.771101,-6513.812290,459.657299
1452.497554,7105.977043,-7254.018232,919.314598
1452.497883,6513.812290,-9622.677246,919.314598
1452.498212,5773.606348,-9474.636058,1838.629195
1452.498541,5995.668130,-7920.203579,995.924147
1452.498870,6883.915261,-7031.956449,1225.752797
1452.499199,6587.832884,-5477.523971,1149.143247
1452.499528,6587.832884,-5625.565159,919.314598
1452.499857,8216.285956,-5921.647536,2221.676944
1452.500187,8216.285956,-5181.441594,2604.724693
1452.500516,7846.182985,-5107.421000,1608.800546
1452.500845,6957.935855,-4071.132681,459.657299
1452.501174,6587.832884,-6069.688724,0.000000
1452.501503,6809.894666,-6809.894666,-766.095498
1452.501832,6143.709319,-6661.853478,-306.438199
1452.502161,6809.894666,-8290.306550,229.828649
1452.502490,6957.935855,-9548.656652,1302.362347
1452.502819,6069.688724,-9252.574275,1838.629195
1452.503148,6217.729913,-7402.059420,1149.143247
1452.503477,6957.935855,-6661.853478,1302.362347
1452.503807,7105.977043,-5847.626942,1532.190996
1452.504136,7476.080014,-5921.647536,2145.067394
1452.504465,7920.203579,-4219.173869,1685.410096
1452.504794,8142.265362,-3034.844362,1302.362347
1452.505123,7920.203579,-4219.173869,766.095498
1452.505452,7698.141797,-5181.441594,689.485948
1452.505781,7920.203579,-7105.977043,612.876398
1452.506110,7476.080014,-6735.874072,306.438199
1452.506439,7179.997637,-6587.832884,229.828649
1452.506768,8068.244768,-9844.739029,1455.581446
1452.507097,7105.977043,-10288.862594,1532.190996
1452.507426,4959.379811,-8364.327145,766.095498
1452.507756,5033.400406,-7254.018232,229.828649
1452.508085,5773.606348,-5995.668130,766.095498
1452.508414,6513.812290,-5403.503377,1685.410096
1452.508743,7402.059420,-5329.482782,2451.505594
1452.509072,7994.224174,-4071.132681,2528.115143
1452.509401,8216.285956,-3552.988522,1378.971896
1452.509730,7624.121203,-3997.112087,1532.190996
1452.510059,7994.224174,-5477.523971,1455.581446
1452.510388,7550.100608,-5625.565159,0.000000
1452.510717,5477.523971,-6069.688724,-2451.505594
1452.511046,5921.647536,-7476.080014,-536.266849
1452.511376,7179.997637,-10362.883188,536.266849
1452.511705,6957.935855,-11029.068536,1608.800546
1452.512034,6069.688724,-8512.368333,1685.410096
1452.512363,6587.832884,-8438.347739,1991.848295
1452.512692,7402.059420,-7105.977043,2451.505594
1452.513021,6735.874072,-4959.379811,2068.457845
1452.513350,7328.038826,-3627.009116,2374.896044
1452.513679,8808.450710,-888.247130,919.314598
1452.514008,8438.347739,-1924.535449,1838.629195
1452.514337,7550.100608,-4145.153275,1378.971896
1452.514666,7920.203579,-6587.832884,919.314598
1452.514996,6883.915261,-6883.915261,-306.438199
1452.515325,4663.297435,-7105.977043,-1685.410096
1452.515654,4811.338623,-9474.636058,-383.047749
1452.515983,6217.729913,-11621.233289,306.438199
1452.516312,5625.565159,-10807.006753,306.438199
1452.516641,4737.318029,-9104.533087,459.657299
1452.516970,7328.038826,-8364.327145,1685.410096
1452.517299,8586.388927,-6587.832884,1915.238745
1452.517628,7550.100608,-5033.400406,2068.457845
1452.517957,7105.977043,-2220.617826,1455.581446
1452.518286,8660.409521,-2294.638420,229.828649
1452.518615,9178.553681,-1628.453072,766.095498
1452.518945,8364.327145,-4219.173869,842.705048
1452.519274,8882.471304,-6883.915261,1302.362347
1452.519603,7920.203579,-7328.038826,-383.047749
1452.519932,5847.626942,-8734.430116,-689.485948
1452.520261,5699.585753,-10436.903782,0.000000
1452.520590,6291.750507,-11029.068536,0.000000
1452.520919,5107.421000,-10436.903782,-153.219100
1452.521248,4441.235652,-8586.388927,-459.657299
1452.521577,6069.688724,-7402.059420,536.266849
1452.521906,7105.977043,-6439.791695,2221.676944
1452.522235,7550.100608,-3701.029710,3140.991542
1452.522565,8512.368333,-2664.741391,2528.115143
1452.522894,9178.553681,-1776.494261,2374.896044
1452.523223,8956.491898,-1554.432478,842.705048
1452.523552,7550.100608,-3997.112087,1072.533697
1452.523881,7920.203579,-5403.503377,842.705048
1452.524210,7105.977043,-6069.688724,-1532.190996
1452.524539,5625.565159,-7328.038826,-1302.362347
1452.524868,6069.688724,-10436.903782,612.876398
1452.525197,5995.668130,-11843.295072,383.047749
1452.525526,4959.379811,-11029.068536,842.705048
1452.525855,4737.318029,-9844.739029,766.095498
1452.526184,5847.626942,-7994.224174,689.485948
1452.526514,6809.894666,-6513.812290,1838.629195
1452.526843,7698.141797,-4071.132681,3370.820191
1452.527172,9104.533087,-2294.638420,3294.210641
1452.527501,9770.718434,-444.123565,2681.334243
1452.527830,8956.491898,962.267725,1532.190996
1452.528159,8290.306550,-1776.494261,1302.362347
1452.528488,8438.347739,-4737.318029,842.705048
1452.528817,7476.080014,-6513.812290,153.219100
1452.529146,6883.915261,-8956.491898,306.438199
1452.529475,7402.059420,-11177.109724,842.705048
1452.529804,5403.503377,-13323.706956,612.876398
1452.530134,3997.112087,-13175.665768,76.609550
1452.530463,3701.029710,-11251.130318,459.657299
1452.530792,4441.235652,-8956.491898,-229.828649
1452.531121,5403.503377,-6513.812290,995.924147
1452.531450,6957.935855,-4959.379811,2528.115143
1452.531779,9178.553681,-3923.091493,3600.648841
1452.532108,9770.718434,-2072.576638,4060.306139
1452.532437,9474.636058,-1776.494261,3064.381992
1452.532766,8734.430116,-1850.514855,2068.457845
1452.533095,7550.100608,-3627.009116,0.000000
1452.533424,5033.400406,-5477.523971,-766.095498
1452.533753,5255.462188,-7402.059420,-536.266849
1452.534083,6513.812290,-10955.047942,0.000000
1452.534412,5625.565159,-13027.624579,1685.410096
1452.534741,5403.503377,-12139.377449,1608.800546
1452.535070,5995.668130,-10584.944971,1072.533697
