#time,accel_x,accel_y,accel_z
1401.566551,6513.812290,-6883.915261,1149.143247
1401.566882,6513.812290,-6809.894666,919.314598
1401.567212,6587.832884,-6587.832884,306.438199
1401.567543,6661.853478,-6809.894666,919.314598
1401.567873,6661.853478,-7105.977043,919.314598
1401.568203,7105.977043,-7031.956449,842.705048
1401.568534,7328.038826,-6439.791695,1072.533697
1401.568864,7031.956449,-6513.812290,919.314598
1401.569195,7105.977043,-6513.812290,995.924147
1401.569525,7105.977043,-6587.832884,1149.143247
1401.569855,7031.956449,-6883.915261,766.095498
1401.570186,7179.997637,-6291.750507,995.924147
1401.570516,7105.977043,-6439.791695,1225.752797
1401.570847,7105.977043,-6439.791695,919.314598
1401.571177,6513.812290,-6735.874072,919.314598
1401.571507,6957.935855,-6143.709319,1072.533697
1401.571838,7179.997637,-6883.915261,1072.533697
1401.572168,6883.915261,-6661.853478,1072.533697
1401.572499,7031.956449,-6513.812290,1072.533697
1401.572829,6957.935855,-6661.853478,1149.143247
1401.573159,6809.894666,-6735.874072,1915.238745
1401.573490,6957.935855,-6735.874072,1149.143247
1401.573820,6661.853478,-6809.894666,1225.752797
1401.574151,6809.894666,-7105.977043,1149.143247
1401.574481,6587.832884,-7179.997637,766.095498
1401.574812,6735.874072,-6143.709319,612.876398
1401.575142,6587.832884,-6809.894666,995.924147
1401.575472,7105.977043,-6661.853478,842.705048
1401.575803,7179.997637,-6365.771101,1302.362347
1401.576133,7328.038826,-6291.750507,1149.143247
1401.576464,7328.038826,-5847.626942,1455.581446
1401.576794,7179.997637,-6365.771101,1149.143247
1401.577124,7328.038826,-6439.791695,995.924147
1401.577455,7254.018232,-6439.791695,1149.143247
1401.577785,7328.038826,-5625.565159,689.485948
1401.578116,7105.977043,-6291.750507,1072.533697
1401.578446,7105.977043,-6291.750507,1225.752797
1401.578776,7105.977043,-6587.832884,995.924147
1401.579107,6513.812290,-5847.626942,1378.971896
1401.579437,6809.894666,-6217.729913,1072.533697
1401.579768,6735.874072,-6365.771101,1072.533697
1401.580098,6661.853478,-6513.812290,1149.143247
1401.580428,6735.874072,-6513.812290,1149.143247
1401.580759,7254.018232,-6291.750507,1608.800546
1401.581089,6883.915261,-6439.791695,919.314598
1401.581420,6735.874072,-6735.874072,1225.752797
1401.581750,6661.853478,-7105.977043,689.485948
1401.582081,6439.791695,-7179.997637,612.876398
1401.582411,6957.935855,-7254.018232,1072.533697
1401.582741,6661.853478,-7105.977043,995.924147
1401.583072,7179.997637,-6587.832884,842.705048
1401.583402,6957.935855,-6439.791695,1225.752797
1401.583733,6957.935855,-6809.894666,995.924147
1401.584063,6809.894666,-6587.832884,842.705048
1401.584393,6957.935855,-6735.874072,995.924147
1401.584724,7031.956449,-6883.915261,766.095498
1401.585054,7105.977043,-6217.729913,1225.752797
1401.585385,7328.038826,-5773.606348,766.095498
1401.585715,7105.977043,-6883.915261,1225.752797
1401.586045,6883.915261,-6587.832884,995.924147
1401.586376,6883.915261,-6439.791695,995.924147
1401.586706,7179.997637,-6587.832884,306.438199
1401.587037,6587.832884,-6069.688724,842.705048
1401.587367,6439.791695,-6587.832884,842.705048
1401.587697,6957.935855,-6513.812290,1455.581446
1401.588028,6883.915261,-6069.688724,1302.362347
1401.588358,7105.977043,-6735.874072,1072.533697
1401.588689,6735.874072,-6661.853478,995.924147
1401.589019,6957.935855,-6735.874072,1225.752797
1401.589349,6661.853478,-6883.915261,689.485948
1401.589680,6661.853478,-6661.853478,995.924147
1401.590010,6883.915261,-6883.915261,919.314598
1401.590341,7105.977043,-6809.894666,919.314598
1401.590671,7105.977043,-6365.771101,1455.581446
1401.591002,7254.018232,-6365.771101,1072.533697
1401.591332,7402.059420,-5995.668130,1608.800546
1401.591662,7254.018232,-6587.832884,995.924147
1401.591993,7179.997637,-6365.771101,919.314598
1401.592323,7179.997637,-5995.668130,1072.533697
1401.592654,6957.935855,-5921.647536,995.924147
1401.592984,7476.080014,-5773.606348,842.705048
1401.593314,7254.018232,-6513.812290,1225.752797
1401.593645,6809.894666,-6365.771101,1149.143247
1401.593975,6883.915261,-5773.606348,919.314598
1401.594306,6661.853478,-6217.729913,1149.143247
1401.594636,6735.874072,-7105.977043,842.705048
1401.594966,7105.977043,-7105.977043,919.314598
1401.595297,6957.935855,-6661.853478,1302.362347
1401.595627,6735.874072,-6513.812290,919.314598
1401.595958,6661.853478,-6069.688724,842.705048
1401.596288,6513.812290,-6735.874072,1378.971896
1401.596618,6809.894666,-6587.832884,383.047749
1401.596949,6883.915261,-6809.894666,842.705048
1401.597279,6217.729913,-6957.935855,689.485948
1401.597610,6587.832884,-6735.874072,689.485948
1401.597940,7105.977043,-6587.832884,919.314598
1401.598271,6883.915261,-6735.874072,995.924147
1401.598601,7105.977043,-6957.935855,612.876398
1401.598931,7476.080014,-6661.853478,1455.581446
1401.599262,7179.997637,-6513.812290,842.705048
1401.599592,7105.977043,-6069.688724,919.314598
1401.599923,7105.977043,-6291.750507,1072.533697
1401.600253,7179.997637,-6439.791695,689.485948
1401.600583,7179.997637,-6069.688724,995.924147
1401.600914,6957.935855,-6661.853478,1072.533697
1401.601244,6883.915261,-6291.750507,1072.533697
1401.601575,6809.894666,-6365.771101,766.095498
1401.601905,6217.729913,-6661.853478,1149.143247
1401.602235,6735.874072,-6809.894666,766.095498
1401.602566,6957.935855,-6661.853478,1225.752797
1401.602896,6883.915261,-6661.853478,1149.143247
1401.603227,6809.894666,-6735.874072,1072.533697
1401.603557,7031.956449,-6439.791695,1455.581446
1401.603887,7031.956449,-6587.832884,919.314598
1401.604218,6661.853478,-6809.894666,612.876398
1401.604548,6735.874072,-6439.791695,766.095498
1401.604879,7105.977043,-7031.956449,919.314598
1401.605209,7105.977043,-6587.832884,1225.752797
1401.605540,7328.038826,-6513.812290,1149.143247
1401.605870,7328.038826,-6143.709319,842.705048
1401.606200,7254.018232,-6513.812290,1072.533697
1401.606531,7476.080014,-6587.832884,459.657299
1401.606861,7254.018232,-6069.688724,1455.581446
1401.607192,7402.059420,-5625.565159,1225.752797
1401.607522,7254.018232,-5921.647536,842.705048
1401.607852,7105.977043,-6291.750507,1532.190996
1401.608183,7105.977043,-6661.853478,842.705048
1401.608513,7328.038826,-6291.750507,689.485948
1401.608844,7031.956449,-6143.709319,919.314598
1401.609174,6661.853478,-6439.791695,842.705048
1401.609504,6439.791695,-6291.750507,612.876398
1401.609835,7179.997637,-6809.894666,766.095498
1401.610165,6883.915261,-6513.812290,995.924147
1401.610496,6809.894666,-6809.894666,689.485948
1401.610826,6735.874072,-6957.935855,1225.752797
1401.611156,6587.832884,-6365.771101,1072.533697
1401.611487,6735.874072,-6883.915261,689.485948
1401.611817,6661.853478,-6735.874072,919.314598
1401.612148,6809.894666,-6587.832884,995.924147
1401.612478,7328.038826,-7105.977043,1302.362347
1401.612809,7031.956449,-6513.812290,1072.533697
1401.613139,7031.956449,-6587.832884,995.924147
1401.613469,7105.977043,-6735.874072,1302.362347
1401.613800,6883.915261,-6883.915261,1072.533697
1401.614130,7105.977043,-6439.791695,1455.581446
1401.614461,7031.956449,-6291.750507,1149.143247
1401.614791,7105.977043,-6513.812290,919.314598
1401.615121,6883.915261,-6365.771101,995.924147
1401.615452,6957.935855,-6587.832884,1225.752797
1401.615782,7105.977043,-6365.771101,766.095498
1401.616113,7031.956449,-6217.729913,842.705048
1401.616443,6661.853478,-6365.771101,1072.533697
1401.616773,6735.874072,-6661.853478,919.314598
1401.617104,6587.832884,-6809.894666,1149.143247
1401.617434,7105.977043,-6661.853478,1302.362347
1401.617765,6735.874072,-6661.853478,919.314598
1401.618095,6957.935855,-6587.832884,995.924147
1401.618425,6809.894666,-6661.853478,1532.190996
1401.618756,6957.935855,-6809.894666,1225.752797
1401.619086,6883.915261,-6365.771101,919.314598
1401.619417,6661.853478,-6513.812290,842.705048
1401.619747,7105.977043,-6661.853478,919.314598
1401.620078,7254.018232,-6661.853478,1378.971896
1401.620408,7772.162391,-6809.894666,1225.752797
1401.620738,7254.018232,-5995.668130,1225.752797
1401.621069,7105.977043,-6439.791695,919.314598
1401.621399,7476.080014,-6439.791695,689.485948
1401.621730,7254.018232,-6809.894666,1225.752797
1401.622060,7476.080014,-6069.688724,1149.143247
1401.622390,7254.018232,-6365.771101,995.924147
1401.622721,7179.997637,-6439.791695,919.314598
1401.623051,7031.956449,-6587.832884,1149.143247
1401.623382,7105.977043,-6439.791695,919.314598
1401.623712,7105.977043,-6217.729913,919.314598
1401.624042,6513.812290,-6439.791695,842.705048
1401.624373,6587.832884,-6587.832884,919.314598
1401.624703,6957.935855,-7105.977043,1149.143247
1401.625034,6661.853478,-6809.894666,1225.752797
1401.625364,6735.874072,-6661.853478,1072.533697
1401.625694,6883.915261,-6587.832884,995.924147
1401.626025,6883.915261,-7031.956449,1072.533697
1401.626355,6735.874072,-6883.915261,919.314598
1401.626686,6661.853478,-7402.059420,1149.143247
1401.627016,6957.935855,-6957.935855,536.266849
1401.627347,7179.997637,-6809.894666,1378.971896
1401.627677,7105.977043,-6513.812290,995.924147
1401.628007,7328.038826,-6217.729913,919.314598
1401.628338,7105.977043,-6661.853478,1378.971896
1401.628668,6957.935855,-6365.771101,76.609550
1401.628999,7031.956449,-6513.812290,995.924147
1401.629329,7105.977043,-5699.585753,1072.533697
1401.629659,7031.956449,-6291.750507,995.924147
1401.629990,7031.956449,-6217.729913,1072.533697
1401.630320,7105.977043,-6661.853478,1378.971896
1401.630651,7105.977043,-6217.729913,612.876398
1401.630981,6735.874072,-6217.729913,1378.971896
1401.631311,6513.812290,-6587.832884,766.095498
1401.631642,6587.832884,-6957.935855,919.314598
1401.631972,6883.915261,-6957.935855,995.924147
1401.632302,6957.935855,-7105.977043,536.266849
1401.632631,6735.874072,-6735.874072,995.924147
1401.632961,6735.874072,-6661.853478,1302.362347
1401.633291,7105.977043,-6809.894666,919.314598
1401.633621,6661.853478,-6809.894666,919.314598
1401.633951,6661.853478,-6439.791695,1915.238745
1401.634281,7105.977043,-6957.935855,919.314598
1401.634611,7105.977043,-6513.812290,1072.533697
1401.634941,7105.977043,-6513.812290,1149.143247
1401.635270,7476.080014,-6809.894666,1149.143247
1401.635600,7476.080014,-6217.729913,1149.143247
1401.635930,7328.038826,-6957.935855,1225.752797
1401.636260,7105.977043,-6513.812290,995.924147
1401.636590,7105.977043,-6291.750507,1225.752797
1401.636920,7402.059420,-6439.791695,1685.410096
1401.637250,7105.977043,-6217.729913,766.095498
1401.637579,6587.832884,-5921.647536,1149.143247
1401.637909,7105.977043,-6217.729913,919.314598
1401.638239,7179.997637,-6217.729913,995.924147
1401.638569,7624.121203,-6587.832884,1225.752797
1401.638899,6587.832884,-6587.832884,995.924147
1401.639229,6735.874072,-6735.874072,842.705048
1401.639559,6883.915261,-6587.832884,1072.533697
1401.639889,6587.832884,-6735.874072,1149.143247
1401.640218,6587.832884,-6957.935855,1378.971896
1401.640548,6735.874072,-6661.853478,1225.752797
1401.640878,6587.832884,-7105.977043,1072.533697
1401.641208,7031.956449,-6587.832884,766.095498
1401.641538,6883.915261,-6809.894666,766.095498
1401.641868,7105.977043,-6809.894666,1072.533697
1401.642198,7105.977043,-6439.791695,1225.752797
1401.642528,7254.018232,-6513.812290,842.705048
1401.642857,7550.100608,-6143.709319,383.047749
1401.643187,7031.956449,-6735.874072,919.314598
1401.643517,6291.750507,-6735.874072,766.095498
1401.643847,6883.915261,-6735.874072,842.705048
1401.644177,7254.018232,-5921.647536,1225.752797
1401.644507,7179.997637,-6587.832884,1455.581446
1401.644837,7105.977043,-6735.874072,1302.362347
1401.645166,6957.935855,-6291.750507,995.924147
1401.645496,6957.935855,-6365.771101,842.705048
1401.645826,6513.812290,-6217.729913,919.314598
1401.646156,6735.874072,-6439.791695,919.314598
1401.646486,6809.894666,-6957.935855,1149.143247
1401.646816,7031.956449,-6587.832884,1532.190996
1401.647146,6809.894666,-6513.812290,919.314598
1401.647476,6957.935855,-6291.750507,1149.143247
1401.647805,6513.812290,-6883.915261,1225.752797
1401.648135,6735.874072,-7105.977043,919.314598
1401.648465,6735.874072,-6809.894666,842.705048
1401.648795,6439.791695,-6809.894666,995.924147
1401.649125,7476.080014,-6735.874072,995.924147
1401.649455,7328.038826,-6661.853478,1302.362347
1401.649785,7179.997637,-6365.771101,1302.362347
1401.650115,7550.100608,-6291.750507,689.485948
1401.650444,6809.894666,-6291.750507,1685.410096
1401.650774,7328.038826,-6439.791695,1072.533697
1401.651104,7179.997637,-6587.832884,842.705048
1401.651434,7402.059420,-6439.791695,1072.533697
1401.651764,7328.038826,-6365.771101,842.705048
1401.652094,7698.141797,-6439.791695,1455.581446
1401.652424,7105.977043,-6661.853478,1225.752797
1401.652753,7179.997637,-5995.668130,612.876398
1401.653083,7105.977043,-6365.771101,919.314598
1401.653413,6661.853478,-5921.647536,536.266849
1401.653743,7105.977043,-6513.812290,919.314598
1401.654073,7031.956449,-6661.853478,1149.143247
1401.654403,6883.915261,-6587.832884,1072.533697
1401.654733,6809.894666,-6291.750507,2068.457845
1401.655063,6587.832884,-6809.894666,1608.800546
1401.655392,6809.894666,-7031.956449,1072.533697
1401.655722,6661.853478,-6957.935855,689.485948
1401.656052,6587.832884,-6735.874072,919.314598
1401.656382,6809.894666,-7105.977043,919.314598
1401.656712,6809.894666,-5995.668130,766.095498
1401.657042,7254.018232,-6513.812290,1378.971896
1401.657372,6957.935855,-6217.729913,995.924147
1401.657702,7105.977043,-6217.729913,1149.143247
1401.658031,7105.977043,-6735.874072,612.876398
1401.658361,6957.935855,-6735.874072,1225.752797
1401.658691,7105.977043,-6291.750507,919.314598
1401.659021,7031.956449,-6735.874072,995.924147
1401.659351,6957.935855,-6587.832884,1149.143247
1401.659681,6661.853478,-6883.915261,1149.143247
1401.660011,6883.915261,-6587.832884,842.705048
1401.660340,6809.894666,-6513.812290,1149.143247
1401.660670,6809.894666,-6217.729913,995.924147
1401.661000,6809.894666,-6809.894666,995.924147
1401.661330,6957.935855,-6735.874072,1072.533697
1401.661660,7105.977043,-6587.832884,1225.752797
1401.661990,6735.874072,-6439.791695,919.314598
1401.662320,6809.894666,-6957.935855,919.314598
1401.662650,6883.915261,-6735.874072,1378.971896
1401.662979,6735.874072,-6957.935855,536.266849
1401.663309,6587.832884,-6587.832884,766.095498
1401.663639,6587.832884,-6809.894666,842.705048
1401.663969,7031.956449,-7031.956449,689.485948
1401.664299,7105.977043,-6217.729913,689.485948
1401.664629,7328.038826,-6735.874072,1072.533697
1401.664959,7624.121203,-6439.791695,1225.752797
1401.665289,7402.059420,-6513.812290,1072.533697
1401.665618,7179.997637,-6217.729913,1072.533697
1401.665948,7105.977043,-6587.832884,995.924147
1401.666278,7179.997637,-6291.750507,919.314598
1401.666608,7328.038826,-6291.750507,842.705048
1401.666938,7179.997637,-6217.729913,1378.971896
1401.667268,7846.182985,-6365.771101,1532.190996
1401.667598,7179.997637,-6365.771101,995.924147
1401.667927,6809.894666,-6661.853478,842.705048
1401.668257,6587.832884,-6513.812290,766.095498
1401.668587,7031.956449,-6735.874072,766.095498
1401.668917,7328.038826,-7105.977043,1302.362347
1401.669247,7031.956449,-6439.791695,919.314598
1401.669577,6661.853478,-6661.853478,689.485948
1401.669907,6957.935855,-6365.771101,919.314598
1401.670237,6513.812290,-6439.791695,919.314598
1401.670566,6661.853478,-6513.812290,995.924147
1401.670896,6735.874072,-7105.977043,766.095498
1401.671226,7105.977043,-6735.874072,919.314598
1401.671556,7254.018232,-6735.874072,1378.971896
1401.671886,7772.162391,-6883.915261,766.095498
1401.672216,7254.018232,-6513.812290,919.314598
1401.672546,6883.915261,-6735.874072,766.095498
1401.672876,7105.977043,-6809.894666,766.095498
1401.673205,6883.915261,-6513.812290,1225.752797
1401.673535,7254.018232,-6069.688724,919.314598
1401.673865,6957.935855,-6217.729913,766.095498
1401.674195,7031.956449,-5995.668130,1072.533697
1401.674525,6587.832884,-6735.874072,1455.581446
1401.674855,6957.935855,-6513.812290,1378.971896
1401.675185,6661.853478,-6587.832884,1072.533697
1401.675514,6587.832884,-6439.791695,995.924147
1401.675844,6883.915261,-6883.915261,995.924147
1401.676174,6587.832884,-6661.853478,1378.971896
1401.676504,6735.874072,-6587.832884,995.924147
1401.676834,6809.894666,-6735.874072,1225.752797
1401.677164,6735.874072,-6735.874072,1302.362347
1401.677494,6439.791695,-6957.935855,766.095498
1401.677824,6513.812290,-6069.688724,1378.971896
1401.678153,6809.894666,-6883.915261,1149.143247
1401.678483,6957.935855,-6883.915261,766.095498
1401.678813,7105.977043,-6439.791695,1072.533697
1401.679143,7105.977043,-6143.709319,1072.533697
1401.679473,7550.100608,-6291.750507,1762.019645
1401.679803,7402.059420,-6291.750507,1455.581446
1401.680133,7328.038826,-6735.874072,842.705048
1401.680463,7105.977043,-6439.791695,689.485948
1401.680792,7328.038826,-5847.626942,919.314598
1401.681122,7476.080014,-6513.812290,919.314598
1401.681452,7105.977043,-6439.791695,1072.533697
1401.681782,7031.956449,-5995.668130,1149.143247
1401.682112,7402.059420,-5329.482782,995.924147
1401.682442,7772.162391,-4811.338623,919.314598
1401.682772,8142.265362,-5329.482782,1149.143247
1401.683101,8142.265362,-5995.668130,1149.143247
1401.683431,7994.224174,-6069.688724,995.924147
1401.683761,6883.915261,-6661.853478,612.876398
1401.684091,5625.565159,-7179.997637,0.000000
1401.684421,6217.729913,-7105.977043,536.266849
1401.684751,7179.997637,-6883.915261,919.314598
1401.685081,7846.182985,-6809.894666,1378.971896
1401.685411,8438.347739,-5847.626942,1685.410096
1401.685740,8142.265362,-4663.297435,1608.800546
1401.686070,8290.306550,-4441.235652,1149.143247
1401.686400,7846.182985,-4737.318029,1072.533697
1401.686730,7920.203579,-4515.256246,689.485948
1401.687060,8882.471304,-4737.318029,612.876398
1401.687390,8512.368333,-4885.359217,842.705048
1401.687720,8142.265362,-5329.482782,459.657299
1401.688050,8142.265362,-5477.523971,612.876398
1401.688379,7994.224174,-4367.215058,919.314598
1401.688709,8512.368333,-6291.750507,1225.752797
1401.689039,8438.347739,-5847.626942,1378.971896
1401.689369,8068.244768,-5699.585753,536.266849
1401.689699,7624.121203,-5255.462188,842.705048
1401.690029,7698.141797,-3997.112087,383.047749
1401.690359,7994.224174,-4589.276840,995.924147
1401.690688,8808.450710,-4219.173869,1608.800546
1401.691018,9178.553681,-4589.276840,1532.190996
1401.691348,9400.615463,-3330.926739,1838.629195
1401.691678,8808.450710,-3552.988522,1608.800546
1401.692008,9030.512492,-3849.070898,1532.190996
1401.692338,9400.615463,-3552.988522,995.924147
1401.692668,9178.553681,-4367.215058,1225.752797
1401.692998,9474.636058,-3997.112087,1762.019645
1401.693327,9178.553681,-4367.215058,995.924147
1401.693657,9474.636058,-5329.482782,1532.190996
1401.693987,9252.574275,-4811.338623,1455.581446
1401.694317,8808.450710,-5551.544565,1532.190996
1401.694647,8660.409521,-4663.297435,1378.971896
1401.694977,7994.224174,-5107.421000,766.095498
1401.695307,8364.327145,-4737.318029,1225.752797
1401.695637,8956.491898,-4071.132681,1149.143247
1401.695966,9400.615463,-4071.132681,1225.752797
1401.696296,8882.471304,-3997.112087,995.924147
1401.696626,8660.409521,-4441.235652,842.705048
1401.696956,8956.491898,-4589.276840,612.876398
1401.697286,9178.553681,-5255.462188,766.095498
1401.697616,8660.409521,-5033.400406,1149.143247
1401.697946,8660.409521,-5625.565159,229.828649
1401.698275,8364.327145,-5699.585753,459.657299
1401.698605,8586.388927,-5181.441594,229.828649
1401.698935,9030.512492,-5477.523971,689.485948
1401.699265,9252.574275,-4663.297435,1225.752797
1401.699595,9844.739029,-4071.132681,1302.362347
1401.699925,9326.594869,-3627.009116,1225.752797
1401.700255,8882.471304,-3256.906145,1991.848295
1401.700585,8956.491898,-4145.153275,1072.533697
1401.700914,9104.533087,-4293.194464,1455.581446
1401.701244,8808.450710,-4071.132681,1378.971896
1401.701574,9104.533087,-3923.091493,1455.581446
1401.701904,9474.636058,-3923.091493,1225.752797
1401.702234,9770.718434,-4145.153275,1149.143247
1401.702564,9030.512492,-4145.153275,766.095498
1401.702894,8290.306550,-3182.885551,536.266849
1401.703224,8956.491898,-3923.091493,-306.438199
1401.703553,8882.471304,-4441.235652,459.657299
1401.703883,8808.450710,-5329.482782,536.266849
1401.704213,9474.636058,-5403.503377,459.657299
1401.704543,9474.636058,-5255.462188,842.705048
1401.704873,8808.450710,-5625.565159,1455.581446
1401.705203,8290.306550,-5699.585753,1762.019645
1401.705533,8882.471304,-5625.565159,2298.286494
1401.705862,8882.471304,-5329.482782,2451.505594
1401.706192,8808.450710,-4367.215058,2374.896044
1401.706522,8956.491898,-3330.926739,2451.505594
1401.706852,8882.471304,-1998.556043,1225.752797
1401.707182,9104.533087,-2516.700203,459.657299
1401.707512,9400.615463,-2294.638420,536.266849
1401.707842,10066.800811,-2738.761985,229.828649
1401.708172,10288.862594,-2738.761985,459.657299
1401.708501,9844.739029,-2960.823768,306.438199
1401.708831,9400.615463,-4737.318029,383.047749
1401.709161,9030.512492,-6661.853478,536.266849
1401.709491,8364.327145,-8142.265362,1608.800546
1401.709821,8290.306550,-8216.285956,1149.143247
1401.710151,7328.038826,-7402.059420,689.485948
1401.710481,7031.956449,-7476.080014,153.219100
1401.710811,7105.977043,-6513.812290,766.095498
1401.711140,7772.162391,-5033.400406,995.924147
1401.711470,8438.347739,-3923.091493,1378.971896
1401.711800,9474.636058,-2072.576638,1378.971896
1401.712130,9992.780217,-814.226536,1225.752797
1401.712460,10066.800811,-666.185348,1149.143247
1401.712790,10288.862594,-1036.288319,1608.800546
1401.713120,11399.171507,-296.082377,1072.533697
1401.713449,11843.295072,-814.226536,612.876398
1401.713779,12065.356855,-2368.659014,1608.800546
1401.714109,12139.377449,-3478.967927,2068.457845
1401.714439,11029.068536,-5921.647536,1838.629195
1401.714769,9178.553681,-7179.997637,2298.286494
1401.715099,7105.977043,-7772.162391,1455.581446
1401.715429,4737.318029,-9104.533087,-536.266849
1401.715759,3182.885551,-8512.368333,-995.924147
1401.716088,3701.029710,-8586.388927,-1072.533697
1401.716418,5699.585753,-7624.121203,-76.609550
1401.716748,8290.306550,-6661.853478,995.924147
1401.717078,9622.677246,-4441.235652,1915.238745
1401.717408,10955.047942,-2146.597232,2298.286494
1401.717738,10807.006753,-962.267725,1685.410096
1401.718068,10732.986159,0.000000,612.876398
1401.718398,10881.027347,0.000000,612.876398
1401.718727,11917.315666,370.102971,1455.581446
1401.719057,13249.686362,-444.123565,1838.629195
1401.719387,14211.954086,-2072.576638,3140.991542
1401.719717,12805.562797,-3404.947333,2834.553343
1401.720047,9696.697840,-5255.462188,1762.019645
1401.720377,7698.141797,-6513.812290,536.266849
1401.720707,5107.421000,-7994.224174,229.828649
1401.721036,3923.091493,-8660.409521,-919.314598
1401.721366,3330.926739,-8956.491898,-1072.533697
1401.721696,4293.194464,-7846.182985,229.828649
1401.722026,6883.915261,-4885.359217,-766.095498
1401.722356,9178.553681,-3701.029710,-536.266849
1401.722686,11029.068536,-3256.906145,995.924147
1401.723016,12287.418637,-1924.535449,2068.457845
1401.723346,12657.521608,-1554.432478,2145.067394
1401.723675,11251.130318,-2072.576638,2374.896044
1401.724005,10955.047942,-2072.576638,1302.362347
1401.724335,10288.862594,-4737.318029,1072.533697
1401.724665,8956.491898,-5773.606348,1302.362347
1401.724995,8586.388927,-7624.121203,1762.019645
1401.725325,8660.409521,-7105.977043,1685.410096
1401.725655,7772.162391,-6143.709319,1149.143247
1401.725985,6217.729913,-4737.318029,153.219100
1401.726314,7105.977043,-3997.112087,0.000000
1401.726644,7624.121203,-4441.235652,-383.047749
1401.726974,7920.203579,-3330.926739,612.876398
1401.727304,8734.430116,-3034.844362,612.876398
1401.727634,10436.903782,-2072.576638,1072.533697
1401.727964,11769.274478,-2146.597232,766.095498
1401.728294,11251.130318,-4071.132681,2145.067394
1401.728623,11399.171507,-5107.421000,2911.162892
1401.728953,10881.027347,-5033.400406,2604.724693
1401.729283,9326.594869,-4145.153275,459.657299
1401.729613,7105.977043,-3627.009116,0.000000
1401.729943,6291.750507,-7031.956449,919.314598
1401.730273,6809.894666,-9622.677246,1225.752797
1401.730603,6439.791695,-8808.450710,1225.752797
1401.730933,5181.441594,-7476.080014,0.000000
1401.731262,4589.276840,-6809.894666,-1072.533697
1401.731592,5181.441594,-6809.894666,0.000000
1401.731922,6439.791695,-8216.285956,919.314598
1401.732252,8068.244768,-5921.647536,1302.362347
1401.732582,9770.718434,-2886.803174,689.485948
1401.732912,9548.656652,-1184.329507,919.314598
1401.733242,9844.739029,-2960.823768,689.485948
1401.733571,10436.903782,-3478.967927,1838.629195
1401.733901,8734.430116,-5921.647536,1455.581446
1401.734231,9178.553681,-4885.359217,1455.581446
1401.734560,9474.636058,-3849.070898,2145.067394
1401.734890,10066.800811,-6587.832884,1915.238745
1401.735219,8808.450710,-5329.482782,2374.896044
1401.735549,5255.462188,-7846.182985,1072.533697
1401.735878,4293.194464,-6069.688724,-1225.752797
1401.736208,5033.400406,-6809.894666,0.000000
1401.736537,6439.791695,-8808.450710,1225.752797
1401.736867,6883.915261,-7105.977043,1532.190996
1401.737196,5551.544565,-8068.244768,1072.533697
1401.737526,5847.626942,-6587.832884,-383.047749
1401.737855,6587.832884,-5625.565159,1072.533697
1401.738185,8660.409521,-6957.935855,1915.238745
1401.738514,9474.636058,-4293.194464,995.924147
1401.738844,7994.224174,-5033.400406,1149.143247
1401.739173,7920.203579,-5699.585753,766.095498
1401.739503,8512.368333,-7031.956449,1915.238745
1401.739832,8586.388927,-7105.977043,2221.676944
1401.740162,7254.018232,-6513.812290,1149.143247
1401.740491,6217.729913,-6217.729913,459.657299
1401.740821,6513.812290,-6217.729913,1149.143247
1401.741150,7624.121203,-7550.100608,2451.505594
1401.741480,8660.409521,-4071.132681,1378.971896
1401.741809,7624.121203,-2072.576638,459.657299
1401.742139,8216.285956,-3775.050304,1378.971896
1401.742468,8068.244768,-5921.647536,2451.505594
1401.742798,7624.121203,-7031.956449,2298.286494
1401.743127,5699.585753,-6587.832884,459.657299
1401.743457,4737.318029,-6883.915261,-612.876398
1401.743786,5477.523971,-9474.636058,995.924147
1401.744116,7179.997637,-10140.821405,2221.676944
1401.744445,7476.080014,-8956.491898,2451.505594
1401.744775,6957.935855,-6957.935855,612.876398
1401.745104,5403.503377,-6957.935855,612.876398
1401.745434,4959.379811,-8068.244768,995.924147
1401.745763,5255.462188,-8290.306550,1838.629195
1401.746093,5255.462188,-5255.462188,842.705048
1401.746422,6143.709319,-4219.173869,306.438199
1401.746752,7920.203579,-5033.400406,1838.629195
1401.747081,8808.450710,-5477.523971,2451.505594
1401.747411,8734.430116,-5329.482782,1838.629195
1401.747740,9178.553681,-2812.782580,766.095498
1401.748070,8216.285956,-5403.503377,1455.581446
1401.748399,7105.977043,-8216.285956,2068.457845
1401.748729,5847.626942,-8660.409521,1149.143247
1401.749058,5477.523971,-7105.977043,0.000000
1401.749388,5477.523971,-6883.915261,-383.047749
1401.749717,6587.832884,-8586.388927,2068.457845
1401.750047,7476.080014,-8586.388927,3140.991542
1401.750376,7772.162391,-5477.523971,766.095498
1401.750706,7031.956449,-4515.256246,842.705048
1401.751035,6809.894666,-5255.462188,689.485948
1401.751365,6513.812290,-8142.265362,919.314598
1401.751694,5625.565159,-6365.771101,689.485948
1401.752024,5995.668130,-5847.626942,-995.924147
1401.752353,7179.997637,-5995.668130,229.828649
1401.752683,9030.512492,-7328.038826,2145.067394
1401.753012,9400.615463,-8586.388927,2528.115143
1401.753342,9400.615463,-5995.668130,842.705048
1401.753671,8438.347739,-5403.503377,306.438199
1401.754001,7550.100608,-7550.100608,766.095498
1401.754330,6661.853478,-8438.347739,1532.190996
1401.754660,4959.379811,-8068.244768,0.000000
1401.754990,3330.926739,-6809.894666,-1302.362347
1401.755319,4811.338623,-5995.668130,0.000000
1401.755649,7179.997637,-6661.853478,2068.457845
1401.755978,8290.306550,-6217.729913,2068.457845
1401.756308,7994.224174,-4515.256246,689.485948
1401.756637,7772.162391,-4367.215058,0.000000
1401.756967,7328.038826,-7254.018232,1455.581446
1401.757296,6439.791695,-7105.977043,1149.143247
1401.757626,6143.709319,-5625.565159,0.000000
1401.757955,6439.791695,-6365.771101,229.828649
1401.758285,7476.080014,-6809.894666,1225.752797
1401.758614,7846.182985,-7846.182985,2374.896044
1401.758944,8068.244768,-5551.544565,995.924147
1401.759273,8956.491898,-4737.318029,766.095498
1401.759603,8586.388927,-6883.915261,1838.629195
1401.759932,6513.812290,-7846.182985,2528.115143
1401.760262,4737.318029,-7624.121203,842.705048
1401.760591,3997.112087,-6291.750507,-1915.238745
1401.760921,5329.482782,-5551.544565,-383.047749
1401.761250,7328.038826,-7846.182985,1455.581446
1401.761580,8808.450710,-7920.203579,2451.505594
1401.761909,8438.347739,-5847.626942,1225.752797
1401.762239,7179.997637,-5477.523971,76.609550
1401.762568,6809.894666,-6587.832884,1149.143247
1401.762898,6291.750507,-7698.141797,1225.752797
1401.763227,5329.482782,-7254.018232,1072.533697
1401.763557,5921.647536,-6217.729913,153.219100
1401.763886,7254.018232,-5477.523971,1378.971896
1401.764216,7846.182985,-6661.853478,3140.991542
1401.764545,8142.265362,-5921.647536,2681.334243
1401.764875,8438.347739,-3997.112087,383.047749
1401.765204,7846.182985,-5477.523971,842.705048
1401.765534,7179.997637,-7772.162391,2145.067394
1401.765863,6143.709319,-8734.430116,2145.067394
1401.766193,5107.421000,-6291.750507,-612.876398
1401.766522,5255.462188,-5995.668130,-306.438199
1401.766852,6809.894666,-8438.347739,1915.238745
1401.767181,7772.162391,-7328.038826,3294.210641
1401.767511,7179.997637,-6069.688724,1608.800546
1401.767840,6661.853478,-4663.297435,-383.047749
1401.768170,6291.750507,-5625.565159,0.000000
1401.768499,5773.606348,-8660.409521,1532.190996
1401.768829,5995.668130,-7476.080014,1532.190996
1401.769158,6957.935855,-5255.462188,-76.609550
1401.769488,7624.121203,-6217.729913,995.924147
1401.769817,8586.388927,-6439.791695,1915.238745
1401.770147,8734.430116,-6439.791695,2221.676944
1401.770476,8586.388927,-5773.606348,1455.581446
1401.770806,7994.224174,-5625.565159,153.219100
1401.771135,7031.956449,-5847.626942,766.095498
1401.771465,5921.647536,-7920.203579,1455.581446
1401.771794,5625.565159,-8142.265362,1149.143247
1401.772124,5921.647536,-6439.791695,383.047749
1401.772453,6217.729913,-7105.977043,383.047749
1401.772783,6365.771101,-6587.832884,1991.848295
1401.773112,7179.997637,-5921.647536,1685.410096
1401.773442,7550.100608,-5403.503377,229.828649
1401.773771,7031.956449,-5551.544565,306.438199
1401.774101,6735.874072,-7105.977043,536.266849
1401.774430,6365.771101,-7402.059420,1455.581446
1401.774760,6143.709319,-7179.997637,76.609550
1401.775089,7254.018232,-7105.977043,-612.876398
1401.775419,7402.059420,-7698.141797,766.095498
1401.775748,7105.977043,-8438.347739,919.314598
1401.776078,6957.935855,-6291.750507,766.095498
1401.776407,7254.018232,-4959.379811,536.266849
1401.776737,7920.203579,-5403.503377,612.876398
1401.777066,7698.141797,-7105.977043,2145.067394
1401.777396,6217.729913,-7994.224174,1838.629195
1401.777725,5921.647536,-5477.523971,536.266849
1401.778055,6365.771101,-5403.503377,0.000000
1401.778384,6809.894666,-6291.750507,1225.752797
1401.778714,7846.182985,-5625.565159,2604.724693
1401.779043,9548.656652,-4589.276840,1378.971896
1401.779373,10066.800811,-4071.132681,689.485948
1401.779702,8290.306550,-4515.256246,995.924147
1401.780032,7105.977043,-7105.977043,1608.800546
1401.780361,6439.791695,-6735.874072,689.485948
1401.780691,6291.750507,-7254.018232,-306.438199
1401.781020,6365.771101,-7698.141797,766.095498
1401.781350,6809.894666,-7920.203579,1608.800546
1401.781679,6883.915261,-7550.100608,1378.971896
1401.782009,6883.915261,-5699.585753,919.314598
1401.782338,7550.100608,-6587.832884,76.609550
1401.782668,7328.038826,-7179.997637,995.924147
1401.782997,5921.647536,-9622.677246,1991.848295
1401.783327,4589.276840,-7994.224174,0.000000
1401.783656,4737.318029,-6291.750507,-766.095498
1401.783986,7105.977043,-7402.059420,766.095498
1401.784315,9030.512492,-7105.977043,2145.067394
1401.784645,9326.594869,-6513.812290,2374.896044
1401.784974,8216.285956,-4811.338623,1225.752797
1401.785304,7105.977043,-5403.503377,76.609550
1401.785633,7105.977043,-6291.750507,1149.143247
1401.785963,5847.626942,-7105.977043,1225.752797
1401.786292,5699.585753,-7105.977043,612.876398
1401.786622,6957.935855,-5773.606348,1302.362347
1401.786951,7179.997637,-6809.894666,2451.505594
1401.787281,6957.935855,-6143.709319,2451.505594
1401.787610,7105.977043,-4811.338623,1685.410096
1401.787940,7105.977043,-5255.462188,612.876398
1401.788269,5995.668130,-6587.832884,459.657299
1401.788599,5625.565159,-7846.182985,1685.410096
1401.788928,5255.462188,-8290.306550,536.266849
1401.789258,6069.688724,-6365.771101,0.000000
1401.789587,7105.977043,-7624.121203,919.314598
1401.789917,7920.203579,-8142.265362,1378.971896
1401.790246,7550.100608,-6809.894666,1378.971896
1401.790576,7105.977043,-5107.421000,229.828649
1401.790905,7254.018232,-5181.441594,0.000000
1401.791235,8216.285956,-6513.812290,1072.533697
1401.791564,7105.977043,-7402.059420,2145.067394
1401.791894,6439.791695,-6735.874072,1378.971896
1401.792223,7031.956449,-5847.626942,459.657299
1401.792553,7402.059420,-6587.832884,1302.362347
1401.792882,7328.038826,-6439.791695,2451.505594
1401.793212,7105.977043,-5329.482782,1455.581446
1401.793541,6883.915261,-5847.626942,0.000000
1401.793871,6809.894666,-7105.977043,1225.752797
1401.794200,6587.832884,-7772.162391,1378.971896
1401.794530,5847.626942,-8142.265362,919.314598
1401.794859,5403.503377,-6587.832884,612.876398
1401.795189,6809.894666,-7031.956449,229.828649
1401.795518,7698.141797,-6587.832884,1225.752797
1401.795848,7328.038826,-5995.668130,2374.896044
1401.796177,7846.182985,-4441.235652,766.095498
1401.796507,8290.306550,-4589.276840,536.266849
1401.796836,8882.471304,-3923.091493,995.924147
1401.797166,8882.471304,-6587.832884,2451.505594
1401.797495,7772.162391,-5625.565159,2528.115143
1401.797825,7105.977043,-4145.153275,536.266849
1401.798154,7920.203579,-5699.585753,842.705048
1401.798484,7994.224174,-6661.853478,2298.286494
1401.798813,7328.038826,-7254.018232,1762.019645
1401.799143,6069.688724,-5551.544565,306.438199
1401.799472,5625.565159,-6809.894666,306.438199
1401.799802,5477.523971,-8882.471304,612.876398
1401.800131,4441.235652,-9030.512492,1608.800546
1401.800461,3182.885551,-7402.059420,-689.485948
1401.800790,3775.050304,-7328.038826,-1072.533697
1401.801120,6587.832884,-8364.327145,1149.143247
1401.801449,8438.347739,-7550.100608,2221.676944
1401.801779,8216.285956,-5181.441594,1685.410096
1401.802108,8216.285956,-4293.194464,1072.533697
1401.802438,8660.409521,-5181.441594,842.705048
1401.802767,7328.038826,-7105.977043,1378.971896
1401.803097,5551.544565,-7772.162391,1915.238745
1401.803426,5773.606348,-7105.977043,0.000000
1401.803756,5773.606348,-8882.471304,0.000000
1401.804085,7031.956449,-5699.585753,1302.362347
1401.804415,7179.997637,-9770.718434,2528.115143
1401.804744,7476.080014,-6735.874072,1149.143247
1401.805074,6513.812290,-3775.050304,536.266849
1401.805403,5921.647536,-9178.553681,536.266849
1401.805733,5403.503377,-7328.038826,306.438199
1401.806062,4071.132681,-8142.265362,306.438199
1401.806392,4589.276840,-7624.121203,-383.047749
1401.806721,6883.915261,-5403.503377,76.609550
1401.807051,9622.677246,-6883.915261,3064.381992
1401.807380,10510.924376,-4959.379811,3447.429741
1401.807710,10288.862594,-1998.556043,1991.848295
1401.808039,8882.471304,-2146.597232,383.047749
1401.808369,7920.203579,-3478.967927,153.219100
1401.808698,6883.915261,-6513.812290,2068.457845
1401.809028,6883.915261,-6069.688724,1455.581446
1401.809357,7550.100608,-6291.750507,766.095498
1401.809687,6069.688724,-7179.997637,1762.019645
1401.810016,5625.565159,-7550.100608,1378.971896
1401.810346,5921.647536,-7624.121203,1225.752797
1401.810675,7402.059420,-6365.771101,383.047749
1401.811005,7402.059420,-7105.977043,1149.143247
1401.811334,6291.750507,-7254.018232,995.924147
1401.811664,4663.297435,-8364.327145,229.828649
1401.811993,4515.256246,-6809.894666,-459.657299
1401.812323,5403.503377,-7624.121203,0.000000
1401.812652,7179.997637,-7254.018232,1532.190996
1401.812982,8808.450710,-6587.832884,2451.505594
1401.813311,9030.512492,-5477.523971,1991.848295
1401.813641,8882.471304,-4145.153275,536.266849
1401.813970,8290.306550,-5329.482782,612.876398
1401.814300,7328.038826,-6735.874072,1838.629195
1401.814629,6587.832884,-7031.956449,995.924147
1401.814959,6735.874072,-6291.750507,-76.609550
1401.815288,6217.729913,-6883.915261,0.000000
1401.815618,7031.956449,-9326.594869,1608.800546
1401.815947,7476.080014,-7328.038826,2298.286494
1401.816277,7105.977043,-6513.812290,1455.581446
1401.816606,6809.894666,-6069.688724,153.219100
1401.816936,5773.606348,-7031.956449,919.314598
1401.817265,5107.421000,-7920.203579,1455.581446
1401.817595,4663.297435,-7179.997637,383.047749
1401.817924,5403.503377,-6143.709319,-229.828649
1401.818254,6809.894666,-6439.791695,229.828649
1401.818583,7698.141797,-7476.080014,2145.067394
1401.818913,8808.450710,-6291.750507,3370.820191
1401.819242,8660.409521,-5255.462188,766.095498
1401.819572,7846.182985,-5329.482782,153.219100
1401.819901,6883.915261,-6143.709319,995.924147
1401.820231,6661.853478,-6957.935855,1915.238745
1401.820560,6661.853478,-5625.565159,459.657299
1401.820890,7105.977043,-6439.791695,612.876398
1401.821219,7624.121203,-6143.709319,1991.848295
1401.821549,8142.265362,-6365.771101,2911.162892
1401.821878,8364.327145,-4515.256246,2221.676944
1401.822208,7846.182985,-3997.112087,919.314598
1401.822537,6661.853478,-5847.626942,0.000000
1401.822867,5255.462188,-7920.203579,1149.143247
1401.823196,4959.379811,-7920.203579,1302.362347
1401.823526,5773.606348,-7328.038826,0.000000
1401.823855,6587.832884,-7031.956449,383.047749
1401.824185,7105.977043,-8808.450710,2451.505594
1401.824514,7550.100608,-7254.018232,2451.505594
1401.824844,8512.368333,-5181.441594,536.266849
1401.825173,7698.141797,-4293.194464,-229.828649
1401.825503,6883.915261,-6291.750507,842.705048
1401.825832,6513.812290,-7846.182985,1532.190996
1401.826162,6143.709319,-7402.059420,1378.971896
1401.826491,6735.874072,-5477.523971,229.828649
1401.826821,7179.997637,-7105.977043,1225.752797
1401.827150,7476.080014,-7476.080014,1991.848295
1401.827480,7105.977043,-6217.729913,1762.019645
1401.827809,7846.182985,-4737.318029,689.485948
1401.828139,8290.306550,-5625.565159,766.095498
1401.828468,7402.059420,-7624.121203,1455.581446
1401.828798,5699.585753,-9178.553681,1532.190996
1401.829127,5403.503377,-7550.100608,383.047749
1401.829457,5255.462188,-7031.956449,-153.219100
1401.829786,5625.565159,-7550.100608,689.485948
1401.830116,6513.812290,-6809.894666,1532.190996
1401.830445,7698.141797,-6217.729913,1455.581446
1401.830775,7920.203579,-5107.421000,689.485948
1401.831104,6513.812290,-5773.606348,306.438199
1401.831434,5847.626942,-7179.997637,1532.190996
1401.831763,5551.544565,-7105.977043,1225.752797
1401.832093,6365.771101,-6069.688724,153.219100
1401.832422,7550.100608,-5847.626942,1072.533697
1401.832752,8068.244768,-7698.141797,2221.676944
1401.833082,8882.471304,-7179.997637,2604.724693
1401.833411,8956.491898,-5625.565159,2145.067394
1401.833741,9030.512492,-5477.523971,995.924147
1401.834070,7402.059420,-6143.709319,306.438199
1401.834400,5847.626942,-7994.224174,1378.971896
1401.834729,4811.338623,-7179.997637,0.000000
1401.835059,4811.338623,-6217.729913,-1149.143247
1401.835388,5551.544565,-5921.647536,919.314598
1401.835718,6809.894666,-7105.977043,1685.410096
1401.836047,7920.203579,-5847.626942,1762.019645
1401.836376,8364.327145,-4071.132681,995.924147
1401.836706,8438.347739,-4589.276840,536.266849
1401.837035,8364.327145,-5107.421000,1915.238745
1401.837364,7328.038826,-6513.812290,1915.238745
1401.837694,6883.915261,-6217.729913,612.876398
1401.838023,7105.977043,-5625.565159,306.438199
1401.838353,7846.182985,-7846.182985,1072.533697
1401.838682,8290.306550,-8290.306550,2374.896044
1401.839011,9178.553681,-6217.729913,3140.991542
1401.839341,8364.327145,-4589.276840,229.828649
1401.839670,6143.709319,-6439.791695,76.609550
1401.839999,4589.276840,-7772.162391,1532.190996
1401.840329,3997.112087,-8290.306550,0.000000
1401.840658,4071.132681,-7846.182985,-612.876398
1401.840987,5255.462188,-7846.182985,306.438199
1401.841317,6957.935855,-8290.306550,612.876398
1401.841646,7105.977043,-6883.915261,1149.143247
1401.841975,7550.100608,-6069.688724,995.924147
1401.842305,8290.306550,-5107.421000,842.705048
1401.842634,8142.265362,-5699.585753,612.876398
1401.842964,6735.874072,-6587.832884,1455.581446
1401.843293,6439.791695,-7031.956449,995.924147
1401.843622,7476.080014,-5699.585753,919.314598
1401.843952,8364.327145,-7328.038826,1378.971896
1401.844281,8142.265362,-7031.956449,2681.334243
1401.844610,8068.244768,-5403.503377,2068.457845
1401.844940,8142.265362,-3997.112087,383.047749
1401.845269,6957.935855,-5477.523971,153.219100
1401.845598,5995.668130,-8068.244768,995.924147
1401.845928,5551.544565,-7994.224174,1532.190996
1401.846257,4959.379811,-7105.977043,0.000000
1401.846586,4959.379811,-7105.977043,0.000000
1401.846916,5847.626942,-8364.327145,1225.752797
1401.847245,7402.059420,-7550.100608,2451.505594
1401.847575,8290.306550,-5773.606348,2068.457845
1401.847904,8364.327145,-4737.318029,612.876398
1401.848233,8438.347739,-4737.318029,1072.533697
1401.848563,7624.121203,-5625.565159,1302.362347
1401.848892,6809.894666,-7846.182985,1532.190996
1401.849221,6957.935855,-4663.297435,689.485948
1401.849551,6809.894666,-5847.626942,0.000000
1401.849880,7550.100608,-7105.977043,1685.410096
1401.850209,8142.265362,-5847.626942,2604.724693
1401.850539,8734.430116,-4959.379811,1532.190996
1401.850868,8660.409521,-3923.091493,919.314598
1401.851197,7179.997637,-6217.729913,1149.143247
1401.851527,6143.709319,-7994.224174,919.314598
1401.851856,4441.235652,-7105.977043,0.000000
1401.852186,4589.276840,-8438.347739,-842.705048
1401.852515,6143.709319,-8438.347739,689.485948
1401.852844,7994.224174,-7698.141797,2374.896044
1401.853174,7920.203579,-7328.038826,2221.676944
1401.853503,7328.038826,-4811.338623,995.924147
1401.853832,7846.182985,-4737.318029,0.000000
1401.854162,6883.915261,-6661.853478,229.828649
1401.854491,5403.503377,-6809.894666,1149.143247
1401.854820,5921.647536,-7105.977043,459.657299
1401.855150,7402.059420,-6365.771101,0.000000
1401.855479,7772.162391,-7105.977043,1915.238745
1401.855808,7994.224174,-7105.977043,2451.505594
1401.856138,8068.244768,-6291.750507,1762.019645
1401.856467,7179.997637,-5551.544565,0.000000
1401.856797,7031.956449,-6069.688724,-76.609550
1401.857126,6439.791695,-7624.121203,842.705048
1401.857455,5625.565159,-8660.409521,842.705048
1401.857785,5551.544565,-7476.080014,76.609550
1401.858114,6513.812290,-7254.018232,766.095498
1401.858443,7179.997637,-7698.141797,1149.143247
1401.858773,6957.935855,-7254.018232,1838.629195
1401.859102,6883.915261,-6069.688724,1302.362347
1401.859431,7105.977043,-5107.421000,306.438199
1401.859761,6883.915261,-5921.647536,1225.752797
1401.860090,6365.771101,-7105.977043,1455.581446
1401.860419,6439.791695,-6291.750507,1455.581446
1401.860749,7254.018232,-5995.668130,766.095498
1401.861078,8290.306550,-6217.729913,2145.067394
1401.861408,8068.244768,-5625.565159,2451.505594
1401.861737,8216.285956,-4737.318029,1838.629195
1401.862066,7846.182985,-3849.070898,536.266849
1401.862396,7402.059420,-4885.359217,0.000000
1401.862725,6661.853478,-6883.915261,842.705048
1401.863054,4885.359217,-7772.162391,995.924147
1401.863384,5625.565159,-8734.430116,766.095498
1401.863713,5625.565159,-7624.121203,306.438199
1401.864042,5995.668130,-8290.306550,1225.752797
1401.864372,6957.935855,-7698.141797,1762.019645
1401.864701,8068.244768,-5921.647536,1302.362347
1401.865030,7550.100608,-5255.462188,536.266849
1401.865360,7624.121203,-4737.318029,689.485948
1401.865689,7772.162391,-5921.647536,1225.752797
1401.866019,7476.080014,-7105.977043,1685.410096
1401.866348,7550.100608,-5921.647536,1072.533697
1401.866677,7624.121203,-5773.606348,1149.143247
1401.867007,7328.038826,-6143.709319,536.266849
1401.867336,6217.729913,-6513.812290,1838.629195
1401.867665,6735.874072,-5847.626942,1072.533697
1401.867995,6957.935855,-5921.647536,0.000000
1401.868324,6735.874072,-7402.059420,1072.533697
1401.868653,6513.812290,-8882.471304,2374.896044
1401.868983,5773.606348,-8956.491898,842.705048
1401.869312,5107.421000,-7772.162391,229.828649
1401.869641,5329.482782,-8068.244768,0.000000
1401.869971,6661.853478,-7402.059420,1225.752797
1401.870300,7920.203579,-6735.874072,1302.362347
1401.870630,8216.285956,-5255.462188,459.657299
1401.870959,7624.121203,-4811.338623,153.219100
1401.871288,7105.977043,-5921.647536,383.047749
1401.871618,6883.915261,-6883.915261,612.876398
1401.871947,6513.812290,-5995.668130,-76.609550
1401.872276,7105.977043,-6439.791695,459.657299
1401.872606,7476.080014,-7698.141797,842.705048
1401.872935,6809.894666,-8142.265362,2451.505594
1401.873264,6809.894666,-6809.894666,995.924147
1401.873594,7476.080014,-4737.318029,383.047749
1401.873923,7920.203579,-5403.503377,612.876398
1401.874252,7402.059420,-7179.997637,1991.848295
1401.874582,7031.956449,-7772.162391,2451.505594
1401.874911,6587.832884,-6217.729913,1915.238745
1401.875241,6513.812290,-5699.585753,76.609550
1401.875570,6957.935855,-6883.915261,1455.581446
1401.875899,7254.018232,-6439.791695,2145.067394
1401.876229,7254.018232,-6069.688724,536.266849
1401.876558,6365.771101,-4737.318029,306.438199
1401.876887,6809.894666,-6217.729913,306.438199
1401.877217,6513.812290,-7994.224174,1225.752797
1401.877546,5625.565159,-7105.977043,1072.533697
1401.877875,5921.647536,-6883.915261,-383.047749
1401.878205,7476.080014,-6809.894666,766.095498
1401.878534,8512.368333,-7254.018232,2604.724693
1401.878863,8956.491898,-6291.750507,2451.505594
1401.879193,9030.512492,-3849.070898,1149.143247
1401.879522,8882.471304,-3330.926739,689.485948
1401.879851,7772.162391,-6513.812290,1072.533697
1401.880181,6069.688724,-7698.141797,2068.457845
1401.880510,5329.482782,-7624.121203,919.314598
1401.880840,5329.482782,-5921.647536,0.000000
1401.881169,6217.729913,-7105.977043,842.705048
1401.881498,6957.935855,-7328.038826,2068.457845
1401.881828,7402.059420,-5995.668130,1455.581446
1401.882157,8142.265362,-4441.235652,1072.533697
1401.882486,8068.244768,-4663.297435,842.705048
1401.882816,6735.874072,-7031.956449,1225.752797
1401.883145,5477.523971,-8216.285956,919.314598
1401.883474,4811.338623,-7920.203579,0.000000
1401.883804,5847.626942,-7624.121203,383.047749
1401.884133,6957.935855,-7920.203579,1762.019645
1401.884462,7846.182985,-7476.080014,2145.067394
1401.884792,8290.306550,-5995.668130,2145.067394
1401.885121,8586.388927,-4293.194464,766.095498
1401.885451,7328.038826,-5625.565159,76.609550
1401.885780,5995.668130,-8364.327145,1149.143247
1401.886109,5033.400406,-8438.347739,459.657299
1401.886439,5625.565159,-7698.141797,229.828649
1401.886768,6439.791695,-7328.038826,612.876398
1401.887097,6661.853478,-8068.244768,1225.752797
1401.887427,7105.977043,-6809.894666,2298.286494
1401.887756,7105.977043,-5255.462188,306.438199
1401.888085,7179.997637,-4663.297435,76.609550
1401.888415,7105.977043,-5329.482782,1072.533697
1401.888744,6069.688724,-7550.100608,1302.362347
1401.889073,6143.709319,-7179.997637,842.705048
1401.889403,6809.894666,-6439.791695,842.705048
1401.889732,8438.347739,-7105.977043,1532.190996
1401.890062,9104.533087,-6957.935855,3600.648841
1401.890391,8586.388927,-5847.626942,2681.334243
1401.890720,8290.306550,-4441.235652,919.314598
1401.891050,7624.121203,-4811.338623,0.000000
1401.891379,6217.729913,-7031.956449,459.657299
1401.891708,5255.462188,-7920.203579,766.095498
1401.892038,5033.400406,-8068.244768,612.876398
1401.892367,5625.565159,-6809.894666,689.485948
1401.892696,6883.915261,-6735.874072,766.095498
1401.893026,7328.038826,-6439.791695,2451.505594
1401.893355,7624.121203,-5181.441594,995.924147
1401.893684,7772.162391,-4663.297435,153.219100
1401.894014,7402.059420,-4071.132681,689.485948
1401.894343,6809.894666,-5921.647536,1302.362347
1401.894673,7624.121203,-5921.647536,1302.362347
1401.895002,7846.182985,-6217.729913,1532.190996
1401.895331,8512.368333,-6809.894666,1685.410096
1401.895661,8142.265362,-6957.935855,2068.457845
1401.895990,7476.080014,-5773.606348,1455.581446
1401.896319,6735.874072,-4663.297435,689.485948
1401.896649,6957.935855,-5255.462188,153.219100
1401.896978,6587.832884,-6809.894666,919.314598
1401.897307,5625.565159,-8438.347739,1685.410096
1401.897637,5181.441594,-7920.203579,1991.848295
1401.897966,5329.482782,-7179.997637,0.000000
1401.898295,5403.503377,-7994.224174,0.000000
1401.898625,6217.729913,-8068.244768,1762.019645
1401.898954,8142.265362,-6883.915261,1225.752797
1401.899284,8290.306550,-5921.647536,1149.143247
1401.899613,7550.100608,-5551.544565,689.485948
1401.899942,7105.977043,-6883.915261,459.657299
1401.900272,6143.709319,-7772.162391,1149.143247
1401.900601,6143.709319,-7476.080014,0.000000
1401.900930,6513.812290,-7476.080014,0.000000
1401.901260,7105.977043,-7698.141797,1225.752797
1401.901589,7179.997637,-7105.977043,1455.581446
1401.901918,7476.080014,-5403.503377,1072.533697
1401.902248,7698.141797,-4737.318029,383.047749
1401.902577,7179.997637,-6587.832884,612.876398
1401.902906,5995.668130,-8068.244768,919.314598
1401.903236,5033.400406,-7698.141797,766.095498
1401.903565,5921.647536,-6439.791695,-306.438199
1401.903895,6735.874072,-7920.203579,383.047749
1401.904224,7550.100608,-7254.018232,2681.334243
1401.904553,7920.203579,-6513.812290,1991.848295
1401.904883,8882.471304,-3775.050304,1225.752797
1401.905212,8586.388927,-3256.906145,919.314598
1401.905541,7476.080014,-5551.544565,919.314598
1401.905871,7105.977043,-6735.874072,1991.848295
1401.906200,5847.626942,-7031.956449,459.657299
1401.906529,6587.832884,-5403.503377,0.000000
1401.906859,6883.915261,-6883.915261,1072.533697
1401.907188,7105.977043,-7179.997637,1838.629195
1401.907517,7846.182985,-6365.771101,1838.629195
1401.907847,8290.306550,-5033.400406,689.485948
1401.908176,8216.285956,-4959.379811,153.219100
1401.908506,6957.935855,-6957.935855,919.314598
1401.908835,5995.668130,-7920.203579,1685.410096
1401.909164,6069.688724,-7105.977043,76.609550
1401.909494,6883.915261,-6661.853478,919.314598
1401.909823,7402.059420,-6661.853478,2374.896044
1401.910152,7994.224174,-7105.977043,2528.115143
1401.910482,7105.977043,-5107.421000,1149.143247
1401.910811,6513.812290,-4811.338623,153.219100
1401.911140,6365.771101,-5033.400406,306.438199
1401.911470,5995.668130,-6883.915261,612.876398
1401.911799,5255.462188,-7550.100608,1072.533697
1401.912128,6513.812290,-7105.977043,306.438199
1401.912458,7624.121203,-7105.977043,1302.362347
1401.912787,7328.038826,-7698.141797,1915.238745
1401.913117,6957.935855,-7550.100608,1608.800546
1401.913446,7476.080014,-5403.503377,919.314598
1401.913775,7772.162391,-5773.606348,0.000000
1401.914105,6587.832884,-6883.915261,1302.362347
1401.914434,6069.688724,-7476.080014,1532.190996
1401.914763,5921.647536,-7846.182985,1149.143247
1401.915093,6661.853478,-6291.750507,536.266849
1401.915422,6365.771101,-7105.977043,612.876398
1401.915751,6809.894666,-7254.018232,1608.800546
1401.916081,7402.059420,-7031.956449,1455.581446
1401.916410,7698.141797,-5033.400406,842.705048
1401.916739,7254.018232,-5107.421000,0.000000
1401.917069,6735.874072,-6809.894666,842.705048
1401.917398,5847.626942,-7328.038826,842.705048
1401.917728,5625.565159,-7254.018232,153.219100
1401.918057,6291.750507,-7179.997637,0.000000
1401.918386,7031.956449,-7105.977043,1762.019645
1401.918716,8290.306550,-6883.915261,1455.581446
1401.919045,8216.285956,-5625.565159,2374.896044
1401.919374,8216.285956,-4811.338623,1225.752797
1401.919704,7476.080014,-6291.750507,2068.457845
1401.920033,6809.894666,-6069.688724,2145.067394
1401.920362,5699.585753,-6143.709319,76.609550
1401.920692,5921.647536,-6439.791695,536.266849
1401.921021,6365.771101,-7031.956449,1072.533697
1401.921350,7624.121203,-7624.121203,1685.410096
1401.921680,7994.224174,-5403.503377,2451.505594
1401.922009,8512.368333,-4663.297435,612.876398
1401.922339,7920.203579,-3775.050304,-306.438199
1401.922668,6513.812290,-6365.771101,919.314598
1401.922997,6365.771101,-7846.182985,1302.362347
1401.923327,6439.791695,-6883.915261,1072.533697
1401.923656,6883.915261,-6217.729913,306.438199
1401.923985,7031.956449,-7698.141797,1225.752797
1401.924315,7328.038826,-7698.141797,2145.067394
1401.924644,7920.203579,-6513.812290,3140.991542
1401.924973,8586.388927,-5107.421000,1149.143247
1401.925303,8068.244768,-4367.215058,1532.190996
1401.925632,7179.997637,-6069.688724,1225.752797
1401.925961,5773.606348,-7254.018232,1685.410096
1401.926291,5329.482782,-7476.080014,229.828649
1401.926620,5329.482782,-7402.059420,229.828649
1401.926950,5255.462188,-8808.450710,1072.533697
1401.927279,5995.668130,-7772.162391,2374.896044
1401.927608,6957.935855,-6439.791695,229.828649
1401.927938,6513.812290,-4663.297435,-1149.143247
1401.928267,5477.523971,-6439.791695,0.000000
1401.928596,6365.771101,-8512.368333,1072.533697
1401.928926,7254.018232,-7698.141797,1915.238745
1401.929255,7624.121203,-6661.853478,842.705048
1401.929584,7476.080014,-6883.915261,766.095498
1401.929914,7476.080014,-7624.121203,1685.410096
1401.930243,7772.162391,-7624.121203,2068.457845
1401.930572,8068.244768,-5329.482782,919.314598
1401.930902,7994.224174,-4737.318029,842.705048
1401.931231,7031.956449,-7476.080014,766.095498
1401.931561,5329.482782,-8438.347739,1149.143247
1401.931890,4663.297435,-7698.141797,689.485948
1401.932219,5625.565159,-7179.997637,76.609550
1401.932549,6365.771101,-6439.791695,536.266849
1401.932878,7105.977043,-6587.832884,1838.629195
1401.933207,7846.182985,-5995.668130,2681.334243
1401.933537,8364.327145,-3182.885551,383.047749
1401.933866,8142.265362,-4293.194464,306.438199
1401.934195,7994.224174,-6365.771101,1915.238745
1401.934525,8438.347739,-6291.750507,2528.115143
1401.934854,7772.162391,-5995.668130,612.876398
1401.935183,6735.874072,-5625.565159,306.438199
1401.935512,6661.853478,-7402.059420,1532.190996
1401.935842,7624.121203,-7550.100608,1762.019645
1401.936171,7624.121203,-5773.606348,1685.410096
1401.936500,7328.038826,-5107.421000,383.047749
1401.936829,6957.935855,-6439.791695,689.485948
1401.937158,5551.544565,-8512.368333,1149.143247
1401.937487,4737.318029,-8660.409521,842.705048
1401.937816,5329.482782,-6513.812290,-766.095498
1401.938146,6217.729913,-6217.729913,0.000000
1401.938475,7179.997637,-7624.121203,1455.581446
1401.938804,8216.285956,-6809.894666,2451.505594
1401.939133,8512.368333,-4959.379811,1302.362347
1401.939462,8512.368333,-3923.091493,76.609550
1401.939791,8364.327145,-5847.626942,1455.581446
1401.940120,7402.059420,-6217.729913,2221.676944
1401.940450,6809.894666,-7254.018232,1225.752797
1401.940779,6513.812290,-6883.915261,612.876398
1401.941108,7105.977043,-6883.915261,919.314598
1401.941437,6957.935855,-8216.285956,1225.752797
1401.941766,6809.894666,-7698.141797,2145.067394
1401.942095,7031.956449,-5551.544565,76.609550
1401.942425,6661.853478,-6439.791695,-459.657299
1401.942754,5847.626942,-7254.018232,1149.143247
1401.943083,5625.565159,-9252.574275,1532.190996
1401.943412,5329.482782,-8216.285956,153.219100
1401.943741,5625.565159,-7105.977043,0.000000
1401.944070,6513.812290,-7698.141797,1149.143247
1401.944399,7920.203579,-6661.853478,1762.019645
1401.944729,8290.306550,-5403.503377,1838.629195
1401.945058,8808.450710,-3849.070898,459.657299
1401.945387,8734.430116,-4293.194464,766.095498
1401.945716,7772.162391,-5625.565159,1762.019645
1401.946045,6735.874072,-6661.853478,2068.457845
1401.946374,7328.038826,-5699.585753,1149.143247
1401.946703,7772.162391,-6587.832884,1455.581446
1401.947033,7402.059420,-8068.244768,2145.067394
1401.947362,6587.832884,-6883.915261,1915.238745
1401.947691,6587.832884,-6439.791695,383.047749
1401.948020,5699.585753,-5847.626942,-306.438199
1401.948349,4959.379811,-8882.471304,612.876398
1401.948678,5033.400406,-8660.409521,766.095498
1401.949007,4589.276840,-8068.244768,1685.410096
1401.949337,4737.318029,-8216.285956,0.000000
1401.949666,6365.771101,-5847.626942,153.219100
1401.949995,7476.080014,-6513.812290,2221.676944
1401.950324,8882.471304,-5477.523971,2604.724693
1401.950653,9326.594869,-3849.070898,689.485948
1401.950982,8808.450710,-3627.009116,1455.581446
1401.951312,8660.409521,-4219.173869,1455.581446
1401.951641,8364.327145,-6217.729913,2221.676944
1401.951970,7476.080014,-5477.523971,2068.457845
1401.952299,7105.977043,-5921.647536,689.485948
1401.952628,7031.956449,-7328.038826,612.876398
1401.952957,6735.874072,-6291.750507,1685.410096
1401.953286,6587.832884,-6883.915261,1225.752797
1401.953616,7254.018232,-6587.832884,536.266849
1401.953945,6439.791695,-7105.977043,0.000000
1401.954274,4737.318029,-8586.388927,995.924147
1401.954603,4441.235652,-8364.327145,689.485948
1401.954932,5181.441594,-7772.162391,153.219100
1401.955261,6143.709319,-7105.977043,306.438199
1401.955590,7402.059420,-7179.997637,2145.067394
1401.955920,8734.430116,-5773.606348,2451.505594
1401.956249,9474.636058,-4071.132681,1915.238745
1401.956578,8660.409521,-3108.864956,1378.971896
1401.956907,8068.244768,-4145.153275,842.705048
1401.957236,7624.121203,-6143.709319,1762.019645
1401.957565,6365.771101,-7254.018232,1072.533697
1401.957894,6513.812290,-6661.853478,306.438199
1401.958224,6587.832884,-7328.038826,459.657299
1401.958553,6809.894666,-7994.224174,1149.143247
1401.958882,6365.771101,-8438.347739,1225.752797
1401.959211,6217.729913,-6809.894666,229.828649
1401.959540,5847.626942,-6957.935855,-612.876398
1401.959869,5329.482782,-8808.450710,612.876398
1401.960199,5181.441594,-9326.594869,1532.190996
1401.960528,5773.606348,-7920.203579,383.047749
1401.960857,5847.626942,-6735.874072,0.000000
1401.961186,6883.915261,-6587.832884,1455.581446
1401.961515,8660.409521,-6365.771101,2068.457845
1401.961844,9696.697840,-4515.256246,2451.505594
1401.962173,8882.471304,-3404.947333,1149.143247
1401.962503,8290.306550,-4589.276840,919.314598
1401.962832,7179.997637,-5551.544565,1762.019645
1401.963161,6809.894666,-6439.791695,1762.019645
1401.963490,7105.977043,-5847.626942,842.705048
1401.963819,7846.182985,-5847.626942,842.705048
1401.964148,8068.244768,-6291.750507,995.924147
1401.964477,7254.018232,-6439.791695,1991.848295
1401.964807,6957.935855,-6587.832884,1378.971896
1401.965136,6809.894666,-5551.544565,76.609550
1401.965465,5995.668130,-7254.018232,229.828649
1401.965794,5255.462188,-8808.450710,1608.800546
1401.966123,4811.338623,-8438.347739,229.828649
1401.966452,6143.709319,-7624.121203,536.266849
1401.966782,7031.956449,-7328.038826,842.705048
1401.967111,8142.265362,-7328.038826,1838.629195
1401.967440,8290.306550,-6439.791695,1762.019645
1401.967769,7328.038826,-4145.153275,383.047749
1401.968098,6957.935855,-4515.256246,-459.657299
1401.968427,7105.977043,-5255.462188,306.438199
1401.968756,7846.182985,-6365.771101,1378.971896
1401.969086,6957.935855,-6809.894666,1302.362347
1401.969415,7920.203579,-5181.441594,689.485948
1401.969744,7402.059420,-7105.977043,1455.581446
1401.970073,6217.729913,-7179.997637,1762.019645
1401.970402,6143.709319,-6069.688724,1378.971896
1401.970731,7031.956449,-6143.709319,459.657299
1401.971060,7698.141797,-7624.121203,1455.581446
1401.971390,7402.059420,-8290.306550,2834.553343
1401.971719,6809.894666,-9178.553681,2068.457845
1401.972048,5255.462188,-7105.977043,536.266849
1401.972377,4811.338623,-7402.059420,-536.266849
1401.972706,6143.709319,-7550.100608,842.705048
1401.973035,7328.038826,-6069.688724,1302.362347
1401.973364,8068.244768,-5403.503377,689.485948
1401.973694,7772.162391,-3923.091493,-229.828649
1401.974023,7624.121203,-5255.462188,229.828649
1401.974352,7105.977043,-6883.915261,1455.581446
1401.974681,7031.956449,-7402.059420,1685.410096
1401.975010,7179.997637,-6217.729913,536.266849
1401.975339,7105.977043,-5773.606348,766.095498
1401.975669,7402.059420,-7328.038826,2451.505594
1401.975998,8586.388927,-6957.935855,2528.115143
1401.976327,7994.224174,-5255.462188,2221.676944
1401.976656,6735.874072,-5181.441594,612.876398
1401.976985,5551.544565,-7624.121203,1072.533697
1401.977314,4737.318029,-8512.368333,1072.533697
1401.977643,4293.194464,-7402.059420,842.705048
1401.977973,4959.379811,-7031.956449,0.000000
1401.978302,6291.750507,-7550.100608,842.705048
1401.978631,6661.853478,-6735.874072,1838.629195
1401.978960,7550.100608,-5921.647536,1838.629195
1401.979289,8512.368333,-3997.112087,306.438199
1401.979618,8364.327145,-4071.132681,612.876398
1401.979947,8438.347739,-6735.874072,1302.362347
1401.980277,8364.327145,-6661.853478,2604.724693
1401.980606,7846.182985,-4367.215058,1608.800546
1401.980935,8068.244768,-5255.462188,76.609550
1401.981264,7624.121203,-6365.771101,1762.019645
1401.981593,7550.100608,-7105.977043,2451.505594
1401.981922,7105.977043,-6735.874072,1455.581446
1401.982251,6217.729913,-4959.379811,842.705048
1401.982581,5403.503377,-7624.121203,459.657299
1401.982910,4663.297435,-7994.224174,459.657299
1401.983239,3923.091493,-9252.574275,536.266849
1401.983568,4663.297435,-8660.409521,-383.047749
1401.983897,6365.771101,-7698.141797,689.485948
1401.984226,7328.038826,-7772.162391,2068.457845
1401.984556,8438.347739,-7105.977043,2374.896044
1401.984885,9104.533087,-5181.441594,1838.629195
1401.985214,8660.409521,-4219.173869,1072.533697
1401.985543,7994.224174,-5181.441594,1072.533697
1401.985872,7328.038826,-6439.791695,2374.896044
1401.986201,7254.018232,-6735.874072,1532.190996
1401.986530,6809.894666,-5921.647536,689.485948
1401.986860,6217.729913,-6883.915261,76.609550
1401.987189,6069.688724,-8216.285956,1302.362347
1401.987518,6439.791695,-6809.894666,766.095498
1401.987847,6661.853478,-6217.729913,383.047749
1401.988176,6957.935855,-7105.977043,229.828649
1401.988505,6587.832884,-8660.409521,459.657299
1401.988834,5255.462188,-9696.697840,1225.752797
1401.989164,5255.462188,-8882.471304,0.000000
1401.989493,6365.771101,-6735.874072,-306.438199
1401.989822,6513.812290,-6365.771101,229.828649
1401.990151,7624.121203,-6217.729913,2068.457845
1401.990480,9252.574275,-4219.173869,1455.581446
1401.990809,9696.697840,-3034.844362,919.314598
1401.991138,8808.450710,-3701.029710,1072.533697
1401.991468,7476.080014,-5403.503377,1532.190996
1401.991797,6883.915261,-6143.709319,1072.533697
1401.992126,6809.894666,-6143.709319,383.047749
1401.992455,7179.997637,-6143.709319,842.705048
1401.992784,7402.059420,-6883.915261,1991.848295
1401.993113,8290.306550,-6809.894666,2681.334243
1401.993443,8068.244768,-5625.565159,1302.362347
1401.993772,7698.141797,-5921.647536,766.095498
1401.994101,6439.791695,-7105.977043,536.266849
1401.994430,4959.379811,-8956.491898,1225.752797
1401.994759,4293.194464,-9178.553681,306.438199
1401.995088,5625.565159,-6957.935855,536.266849
1401.995417,7105.977043,-7105.977043,842.705048
1401.995747,7698.141797,-6661.853478,2298.286494
1401.996076,7772.162391,-4811.338623,1532.190996
1401.996405,8512.368333,-3923.091493,0.000000
1401.996734,7994.224174,-4663.297435,76.609550
1401.997063,6439.791695,-7031.956449,1225.752797
1401.997392,6365.771101,-7994.224174,1302.362347
1401.997721,6143.709319,-6809.894666,689.485948
1401.998051,6365.771101,-6587.832884,0.000000
1401.998380,6661.853478,-8586.388927,1302.362347
1401.998709,7698.141797,-7550.100608,2451.505594
1401.999038,8068.244768,-6069.688724,2221.676944
1401.999367,7402.059420,-5699.585753,306.438199
1401.999696,6513.812290,-5255.462188,306.438199
1402.000025,5255.462188,-9696.697840,1378.971896
1402.000355,4737.318029,-7994.224174,306.438199
1402.000684,4589.276840,-7254.018232,76.609550
1402.001013,5995.668130,-7846.182985,229.828649
1402.001342,7254.018232,-6661.853478,1455.581446
1402.001671,8068.244768,-7254.018232,2681.334243
1402.002000,7994.224174,-4885.359217,1532.190996
1402.002330,7328.038826,-4589.276840,-306.438199
1402.002659,6735.874072,-5625.565159,536.266849
1402.002988,6291.750507,-7254.018232,842.705048
1402.003317,7105.977043,-7994.224174,1838.629195
1402.003646,7846.182985,-6439.791695,1149.143247
1402.003975,7994.224174,-7179.997637,1532.190996
1402.004304,7994.224174,-6661.853478,2451.505594
1402.004634,7772.162391,-4959.379811,1685.410096
1402.004963,8142.265362,-4515.256246,306.438199
1402.005292,7402.059420,-4737.318029,536.266849
1402.005621,6069.688724,-7772.162391,1149.143247
1402.005950,5107.421000,-8956.491898,1302.362347
1402.006279,4885.359217,-8068.244768,689.485948
1402.006608,5625.565159,-7031.956449,306.438199
1402.006938,6735.874072,-7698.141797,1762.019645
1402.007267,7846.182985,-7624.121203,2681.334243
1402.007596,8364.327145,-5329.482782,1225.752797
1402.007925,7254.018232,-4515.256246,229.828649
1402.008254,6439.791695,-5107.421000,-536.266849
1402.008583,5477.523971,-7550.100608,995.924147
1402.008912,5551.544565,-8290.306550,1532.190996
1402.009242,6439.791695,-7031.956449,536.266849
1402.009571,7476.080014,-5773.606348,919.314598
1402.009900,8512.368333,-6069.688724,2451.505594
1402.010229,9104.533087,-5847.626942,2451.505594
1402.010558,8808.450710,-4737.318029,1455.581446
1402.010887,7920.203579,-4367.215058,459.657299
1402.011217,5995.668130,-7254.018232,689.485948
1402.011546,5625.565159,-8142.265362,1378.971896
1402.011875,5625.565159,-8734.430116,1225.752797
1402.012204,6365.771101,-7920.203579,1225.752797
1402.012533,7179.997637,-7105.977043,1455.581446
1402.012862,7772.162391,-6587.832884,2068.457845
1402.013191,7476.080014,-5033.400406,1225.752797
1402.013521,7105.977043,-4293.194464,76.609550
1402.013850,6735.874072,-4441.235652,-459.657299
1402.014179,6143.709319,-7402.059420,612.876398
1402.014508,5699.585753,-8882.471304,1608.800546
1402.014837,6069.688724,-8364.327145,995.924147
1402.015166,6809.894666,-7105.977043,919.314598
1402.015495,7328.038826,-7550.100608,1225.752797
1402.015825,7550.100608,-7105.977043,1608.800546
1402.016154,7476.080014,-6587.832884,1608.800546
1402.016483,7476.080014,-5625.565159,229.828649
1402.016812,7698.141797,-5255.462188,229.828649
1402.017141,6439.791695,-6661.853478,1762.019645
1402.017470,6439.791695,-7920.203579,1072.533697
1402.017799,6143.709319,-7402.059420,612.876398
1402.018129,6143.709319,-6587.832884,383.047749
1402.018458,6661.853478,-6587.832884,1072.533697
1402.018787,7772.162391,-5551.544565,1991.848295
1402.019116,8216.285956,-4885.359217,459.657299
1402.019445,6809.894666,-4885.359217,-383.047749
1402.019774,5995.668130,-6809.894666,766.095498
1402.020104,7105.977043,-7031.956449,995.924147
1402.020433,6587.832884,-7550.100608,1378.971896
1402.020762,7105.977043,-6365.771101,995.924147
1402.021091,8290.306550,-6365.771101,1072.533697
1402.021420,8956.491898,-6143.709319,2145.067394
1402.021749,8808.450710,-4811.338623,2221.676944
1402.022078,8660.409521,-4071.132681,1149.143247
1402.022408,8290.306550,-4367.215058,1302.362347
1402.022737,7031.956449,-5921.647536,1532.190996
1402.023066,5403.503377,-7846.182985,1608.800546
1402.023395,4293.194464,-7476.080014,306.438199
1402.023724,4515.256246,-7179.997637,-153.219100
1402.024053,5551.544565,-7698.141797,229.828649
1402.024382,7105.977043,-6439.791695,2068.457845
1402.024712,8290.306550,-6291.750507,1225.752797
1402.025041,7698.141797,-4811.338623,0.000000
1402.025370,7105.977043,-6439.791695,0.000000
1402.025699,7105.977043,-7105.977043,1072.533697
1402.026028,7402.059420,-7031.956449,1302.362347
1402.026357,7031.956449,-6439.791695,689.485948
1402.026686,6957.935855,-5921.647536,153.219100
1402.027016,7624.121203,-7254.018232,1378.971896
1402.027345,8142.265362,-6661.853478,2068.457845
1402.027674,8808.450710,-5477.523971,1532.190996
1402.028003,8068.244768,-5255.462188,919.314598
1402.028332,6957.935855,-6217.729913,1149.143247
1402.028661,5181.441594,-7698.141797,919.314598
1402.028991,4959.379811,-7179.997637,1149.143247
1402.029320,5921.647536,-6365.771101,306.438199
1402.029649,7105.977043,-6957.935855,842.705048
1402.029978,7846.182985,-6513.812290,2528.115143
1402.030307,7624.121203,-6661.853478,1915.238745
1402.030636,6957.935855,-4885.359217,459.657299
1402.030965,5699.585753,-5699.585753,-383.047749
1402.031295,6365.771101,-7179.997637,76.609550
1402.031624,6513.812290,-8808.450710,1608.800546
1402.031953,6365.771101,-7994.224174,1532.190996
1402.032282,6735.874072,-7254.018232,383.047749
1402.032611,7179.997637,-7105.977043,919.314598
1402.032940,7179.997637,-7402.059420,1302.362347
1402.033269,7476.080014,-5921.647536,1455.581446
1402.033599,8216.285956,-5329.482782,1378.971896
1402.033928,7254.018232,-6291.750507,995.924147
1402.034257,6661.853478,-7105.977043,1149.143247
1402.034586,5551.544565,-7994.224174,1378.971896
1402.034915,6365.771101,-7179.997637,842.705048
1402.035244,6735.874072,-6587.832884,842.705048
1402.035573,6587.832884,-6217.729913,1455.581446
1402.035903,6957.935855,-5847.626942,2068.457845
1402.036232,7179.997637,-5403.503377,1378.971896
1402.036561,7402.059420,-4589.276840,229.828649
1402.036890,7402.059420,-5921.647536,842.705048
1402.037219,7105.977043,-6809.894666,1915.238745
1402.037548,6957.935855,-7105.977043,1225.752797
1402.037877,6957.935855,-6217.729913,919.314598
1402.038206,7402.059420,-5255.462188,1072.533697
1402.038535,7846.182985,-6957.935855,1455.581446
1402.038864,7476.080014,-6069.688724,1532.190996
1402.039193,6735.874072,-4737.318029,536.266849
1402.039522,7476.080014,-5699.585753,76.609550
1402.039851,7105.977043,-7105.977043,2145.067394
1402.040180,5403.503377,-8660.409521,1225.752797
1402.040509,5181.441594,-7846.182985,153.219100
1402.040838,5995.668130,-6661.853478,-383.047749
1402.041167,7772.162391,-6735.874072,612.876398
1402.041496,8734.430116,-5847.626942,2374.896044
1402.041825,8512.368333,-4885.359217,1149.143247
1402.042154,8364.327145,-4515.256246,153.219100
1402.042483,7254.018232,-5551.544565,76.609550
1402.042812,6587.832884,-6587.832884,842.705048
1402.043141,6143.709319,-7920.203579,1685.410096
1402.043470,6069.688724,-7402.059420,919.314598
1402.043799,5995.668130,-6365.771101,153.219100
1402.044128,6217.729913,-8364.327145,766.095498
1402.044457,7179.997637,-7920.203579,1838.629195
1402.044785,8290.306550,-6365.771101,1838.629195
1402.045114,7994.224174,-5107.421000,153.219100
1402.045443,7105.977043,-6661.853478,919.314598
1402.045772,5921.647536,-8364.327145,919.314598
1402.046101,4959.379811,-8290.306550,383.047749
1402.046430,5551.544565,-7550.100608,0.000000
1402.046759,7550.100608,-7179.997637,919.314598
1402.047088,8660.409521,-7105.977043,2221.676944
1402.047417,8068.244768,-5995.668130,1838.629195
1402.047746,7550.100608,-4737.318029,536.266849
1402.048075,7105.977043,-5107.421000,-229.828649
1402.048404,6365.771101,-5773.606348,153.219100
1402.048733,5255.462188,-7031.956449,1225.752797
1402.049062,5847.626942,-7328.038826,459.657299
1402.049391,7105.977043,-7031.956449,612.876398
1402.049720,7031.956449,-7179.997637,1378.971896
1402.050049,7624.121203,-6439.791695,1838.629195
1402.050378,7772.162391,-5255.462188,2298.286494
1402.050707,8290.306550,-3923.091493,766.095498
1402.051036,7698.141797,-5921.647536,1378.971896
1402.051365,7328.038826,-6883.915261,1532.190996
1402.051694,6513.812290,-8290.306550,2451.505594
1402.052023,5699.585753,-5995.668130,766.095498
1402.052352,6143.709319,-6291.750507,459.657299
1402.052681,7105.977043,-6883.915261,1762.019645
1402.053010,7402.059420,-6291.750507,1915.238745
1402.053339,7772.162391,-5551.544565,536.266849
1402.053668,7031.956449,-4515.256246,306.438199
1402.053997,6735.874072,-5181.441594,0.000000
1402.054326,6513.812290,-7772.162391,689.485948
1402.054655,6069.688724,-8142.265362,1838.629195
1402.054984,6883.915261,-7105.977043,1149.143247
1402.055313,7476.080014,-6809.894666,766.095498
1402.055642,6957.935855,-7476.080014,1532.190996
1402.055971,7105.977043,-6957.935855,1532.190996
1402.056300,7698.141797,-4663.297435,1225.752797
1402.056629,7846.182985,-5699.585753,842.705048
1402.056958,7328.038826,-7031.956449,1685.410096
1402.057287,6513.812290,-8142.265362,1532.190996
1402.057616,5329.482782,-7105.977043,612.876398
1402.057944,5403.503377,-6809.894666,-153.219100
1402.058273,6439.791695,-7476.080014,1762.019645
1402.058602,8290.306550,-6735.874072,2068.457845
1402.058931,8142.265362,-6069.688724,1378.971896
1402.059260,7105.977043,-4367.215058,383.047749
1402.059589,6587.832884,-5329.482782,-459.657299
1402.059918,5921.647536,-7031.956449,383.047749
1402.060247,4885.359217,-8660.409521,1225.752797
1402.060576,5625.565159,-8068.244768,536.266849
1402.060905,6735.874072,-7698.141797,0.000000
1402.061234,6735.874072,-8290.306550,1455.581446
1402.061563,6957.935855,-8290.306550,1685.410096
1402.061892,7846.182985,-5255.462188,1455.581446
1402.062221,8956.491898,-4811.338623,1302.362347
1402.062550,8586.388927,-6069.688724,2221.676944
1402.062879,7328.038826,-5847.626942,1838.629195
1402.063208,5847.626942,-7105.977043,995.924147
1402.063537,5921.647536,-6439.791695,306.438199
1402.063866,7328.038826,-6661.853478,1302.362347
1402.064195,7402.059420,-7254.018232,1915.238745
1402.064524,7105.977043,-5699.585753,2145.067394
1402.064853,6809.894666,-4885.359217,153.219100
1402.065182,6291.750507,-4885.359217,-306.438199
1402.065511,6069.688724,-6365.771101,459.657299
1402.065840,6217.729913,-7846.182985,1915.238745
1402.066169,6883.915261,-7402.059420,1302.362347
1402.066498,7105.977043,-6883.915261,766.095498
1402.066827,7772.162391,-7328.038826,2374.896044
1402.067156,8142.265362,-7328.038826,2298.286494
1402.067485,8068.244768,-5921.647536,2221.676944
1402.067814,7846.182985,-4885.359217,919.314598
1402.068143,7402.059420,-5477.523971,229.828649
1402.068472,6513.812290,-7254.018232,995.924147
1402.068801,5181.441594,-7994.224174,842.705048
1402.069130,5329.482782,-7105.977043,76.609550
1402.069459,6439.791695,-6883.915261,0.000000
1402.069788,6883.915261,-6883.915261,919.314598
1402.070117,7031.956449,-6809.894666,1685.410096
1402.070446,7328.038826,-5773.606348,612.876398
1402.070775,7328.038826,-4885.359217,-229.828649
1402.071103,6735.874072,-6513.812290,153.219100
1402.071432,6439.791695,-7550.100608,1532.190996
1402.071761,6661.853478,-8068.244768,1225.752797
1402.072090,6883.915261,-7254.018232,919.314598
1402.072419,7476.080014,-6587.832884,306.438199
1402.072748,7328.038826,-7254.018232,1225.752797
1402.073077,7772.162391,-6365.771101,2528.115143
1402.073406,8216.285956,-5477.523971,1225.752797
1402.073735,8142.265362,-4737.318029,995.924147
1402.074064,7105.977043,-5699.585753,1072.533697
1402.074393,5181.441594,-7772.162391,689.485948
1402.074722,4145.153275,-7402.059420,0.000000
1402.075051,4663.297435,-7328.038826,-306.438199
1402.075380,7402.059420,-7179.997637,459.657299
1402.075709,8586.388927,-6513.812290,2145.067394
1402.076038,8808.450710,-5847.626942,1915.238745
1402.076367,8142.265362,-4885.359217,383.047749
1402.076696,7402.059420,-4737.318029,0.000000
1402.077025,6809.894666,-6587.832884,766.095498
1402.077354,7105.977043,-7550.100608,1532.190996
1402.077683,7550.100608,-7031.956449,1149.143247
1402.078012,7846.182985,-6809.894666,1072.533697
1402.078341,7105.977043,-7105.977043,1302.362347
1402.078670,7328.038826,-6513.812290,1685.410096
1402.078999,7994.224174,-4737.318029,1838.629195
1402.079328,7772.162391,-4145.153275,919.314598
1402.079657,7105.977043,-5329.482782,306.438199
1402.079986,5847.626942,-7476.080014,1225.752797
1402.080315,4811.338623,-9326.594869,1149.143247
1402.080644,6587.832884,-7624.121203,383.047749
1402.080973,7105.977043,-7105.977043,536.266849
1402.081302,7476.080014,-7254.018232,2451.505594
1402.081631,7772.162391,-5921.647536,1838.629195
1402.081960,7624.121203,-5033.400406,766.095498
1402.082289,7402.059420,-4663.297435,229.828649
1402.082618,7402.059420,-6661.853478,612.876398
1402.082947,6439.791695,-7476.080014,1532.190996
1402.083276,5477.523971,-7920.203579,1302.362347
1402.083605,6735.874072,-7105.977043,766.095498
1402.083934,6809.894666,-6883.915261,919.314598
1402.084262,7328.038826,-7105.977043,1608.800546
1402.084591,7920.203579,-5995.668130,1991.848295
1402.084920,7994.224174,-3849.070898,995.924147
1402.085249,7402.059420,-4737.318029,306.438199
1402.085578,6439.791695,-7254.018232,1072.533697
1402.085907,5625.565159,-8734.430116,1685.410096
1402.086236,5773.606348,-7772.162391,459.657299
1402.086565,6661.853478,-7476.080014,995.924147
1402.086894,6957.935855,-6883.915261,1378.971896
1402.087223,7328.038826,-6513.812290,1532.190996
1402.087552,7624.121203,-5477.523971,1685.410096
1402.087881,8142.265362,-4219.173869,612.876398
1402.088210,7772.162391,-4219.173869,536.266849
1402.088539,7105.977043,-6735.874072,2068.457845
1402.088868,6587.832884,-7846.182985,1915.238745
1402.089197,6957.935855,-6291.750507,689.485948
1402.089526,7179.997637,-6735.874072,689.485948
1402.089855,7698.141797,-7772.162391,1608.800546
1402.090184,7920.203579,-6661.853478,1991.848295
1402.090513,7698.141797,-6143.709319,1072.533697
1402.090842,7105.977043,-6143.709319,0.000000
1402.091171,6217.729913,-7476.080014,1149.143247
1402.091500,4441.235652,-9104.533087,76.609550
1402.091829,2960.823768,-9252.574275,-689.485948
1402.092158,4367.215058,-8438.347739,0.000000
1402.092487,6735.874072,-7994.224174,766.095498
1402.092816,8068.244768,-6513.812290,2681.334243
1402.093145,8512.368333,-4737.318029,2911.162892
1402.093474,9474.636058,-3256.906145,766.095498
1402.093803,9030.512492,-2738.761985,0.000000
1402.094132,8142.265362,-4219.173869,1685.410096
1402.094461,7920.203579,-7105.977043,2451.505594
1402.094790,7772.162391,-6513.812290,2068.457845
1402.095119,7254.018232,-5477.523971,842.705048
1402.095448,7105.977043,-6587.832884,689.485948
1402.095777,7698.141797,-7105.977043,2374.896044
1402.096106,7328.038826,-6957.935855,1991.848295
1402.096435,6217.729913,-6217.729913,153.219100
1402.096764,4515.256246,-6661.853478,153.219100
1402.097093,3330.926739,-7846.182985,-842.705048
1402.097421,2960.823768,-9918.759623,0.000000
1402.097750,4589.276840,-8586.388927,459.657299
1402.098079,6735.874072,-8068.244768,459.657299
1402.098408,8216.285956,-7254.018232,1991.848295
1402.098737,8364.327145,-5551.544565,2528.115143
1402.099066,9178.553681,-4145.153275,459.657299
1402.099395,9178.553681,-3627.009116,306.438199
1402.099724,8290.306550,-5329.482782,1072.533697
1402.100053,7846.182985,-6661.853478,2374.896044
1402.100382,6883.915261,-6587.832884,1685.410096
1402.100711,6957.935855,-6217.729913,612.876398
1402.101040,6513.812290,-7550.100608,919.314598
1402.101369,6069.688724,-7550.100608,995.924147
1402.101698,6883.915261,-7698.141797,1991.848295
1402.102027,7476.080014,-6069.688724,1149.143247
1402.102356,7328.038826,-5255.462188,612.876398
1402.102685,5847.626942,-6883.915261,536.266849
1402.103014,4959.379811,-8438.347739,1149.143247
1402.103343,6143.709319,-7994.224174,612.876398
1402.103672,7179.997637,-7328.038826,459.657299
1402.104001,7772.162391,-7254.018232,1685.410096
1402.104330,7550.100608,-6661.853478,1838.629195
1402.104659,7550.100608,-5107.421000,1072.533697
1402.104988,7846.182985,-4515.256246,306.438199
1402.105317,8438.347739,-4737.318029,536.266849
1402.105646,8068.244768,-5995.668130,1838.629195
1402.105975,6513.812290,-6661.853478,1762.019645
1402.106304,6069.688724,-5551.544565,0.000000
1402.106633,6809.894666,-5847.626942,306.438199
1402.106962,6957.935855,-7105.977043,1762.019645
1402.107291,7328.038826,-7031.956449,1838.629195
1402.107620,8216.285956,-4959.379811,919.314598
1402.107949,7994.224174,-4737.318029,995.924147
1402.108278,7550.100608,-6069.688724,995.924147
1402.108607,5921.647536,-7698.141797,1532.190996
1402.108936,4737.318029,-8586.388927,383.047749
1402.109265,5625.565159,-8142.265362,-612.876398
1402.109594,5921.647536,-7624.121203,383.047749
1402.109923,6809.894666,-7698.141797,1838.629195
1402.110252,7402.059420,-6957.935855,1762.019645
1402.110580,7254.018232,-5403.503377,919.314598
1402.110909,7179.997637,-5329.482782,0.000000
1402.111238,6661.853478,-6661.853478,1072.533697
1402.111567,5773.606348,-8586.388927,1532.190996
1402.111896,5255.462188,-9030.512492,306.438199
1402.112225,5403.503377,-8438.347739,842.705048
1402.112554,5995.668130,-8216.285956,612.876398
1402.112883,6365.771101,-8808.450710,1302.362347
1402.113212,7031.956449,-7698.141797,1762.019645
1402.113541,7328.038826,-6809.894666,1149.143247
1402.113870,6957.935855,-6513.812290,536.266849
1402.114199,5551.544565,-7994.224174,1149.143247
1402.114528,3775.050304,-9104.533087,229.828649
1402.114857,3775.050304,-9548.656652,-459.657299
1402.115186,5255.462188,-8216.285956,766.095498
1402.115515,6291.750507,-7994.224174,3217.601092
1402.115844,7624.121203,-6217.729913,2987.772442
1402.116173,7846.182985,-3478.967927,2374.896044
1402.116502,8586.388927,-2294.638420,1762.019645
1402.116831,8882.471304,-4663.297435,1991.848295
1402.117160,6957.935855,-6513.812290,2834.553343
1402.117489,5181.441594,-7254.018232,1532.190996
1402.117818,4663.297435,-7105.977043,-766.095498
1402.118147,4145.153275,-10140.821405,-153.219100
1402.118476,3552.988522,-13545.768739,1915.238745
1402.118805,3627.009116,-13027.624579,1608.800546
1402.119134,4145.153275,-9770.718434,-153.219100
1402.119463,3849.070898,-8586.388927,-1378.971896
1402.119792,4145.153275,-10362.883188,766.095498
1402.120121,3849.070898,-11991.336260,1608.800546
1402.120450,3404.947333,-11103.089130,1225.752797
1402.120779,3108.864956,-7846.182985,-229.828649
1402.121108,4293.194464,-7550.100608,1302.362347
1402.121437,5921.647536,-8364.327145,3370.820191
1402.121766,6513.812290,-7179.997637,3907.087040
1402.122095,6439.791695,-4737.318029,1455.581446
1402.122424,5847.626942,-2812.782580,0.000000
1402.122753,6143.709319,-5033.400406,1838.629195
1402.123082,5995.668130,-9178.553681,3217.601092
1402.123411,5847.626942,-9474.636058,2068.457845
1402.123739,4367.215058,-9548.656652,-459.657299
1402.124068,3182.885551,-10214.842000,-995.924147
1402.124397,4293.194464,-10362.883188,995.924147
1402.124726,6513.812290,-11843.295072,2451.505594
1402.125055,6365.771101,-9770.718434,1149.143247
1402.125384,4071.132681,-7402.059420,-383.047749
1402.125713,3404.947333,-7624.121203,-766.095498
1402.126042,4219.173869,-9326.594869,536.266849
1402.126371,5477.523971,-10214.842000,1149.143247
1402.126700,5699.585753,-9252.574275,995.924147
1402.127029,3997.112087,-8586.388927,842.705048
1402.127358,3997.112087,-9030.512492,1838.629195
1402.127687,5921.647536,-8734.430116,2068.457845
1402.128016,6291.750507,-8142.265362,1685.410096
1402.128345,5625.565159,-6809.894666,1838.629195
1402.128674,4959.379811,-7624.121203,2298.286494
1402.129003,6365.771101,-5403.503377,2757.943793
1402.129332,7550.100608,-4441.235652,1225.752797
1402.129661,7254.018232,-5551.544565,1378.971896
1402.129990,6809.894666,-6587.832884,1532.190996
1402.130319,5033.400406,-9178.553681,1455.581446
1402.130648,3997.112087,-10066.800811,1608.800546
1402.130977,3182.885551,-8586.388927,0.000000
1402.131306,2516.700203,-8586.388927,-1225.752797
1402.131635,2146.597232,-11251.130318,-459.657299
1402.131964,3775.050304,-13471.748144,1455.581446
1402.132293,6365.771101,-12213.398043,1685.410096
1402.132622,6143.709319,-9992.780217,1685.410096
1402.132951,5033.400406,-8364.327145,1225.752797
1402.133280,4441.235652,-8068.244768,153.219100
1402.133609,3849.070898,-9548.656652,76.609550
1402.133938,4441.235652,-7179.997637,536.266849
1402.134267,5773.606348,-7328.038826,1915.238745
1402.134596,6957.935855,-5329.482782,2528.115143
1402.134925,7328.038826,-6439.791695,2528.115143
1402.135254,6661.853478,-7772.162391,2068.457845
1402.135583,4441.235652,-9178.553681,1072.533697
1402.135912,2368.659014,-9844.739029,-229.828649
1402.136241,2368.659014,-9474.636058,229.828649
1402.136570,3108.864956,-10881.027347,76.609550
1402.136899,4071.132681,-11917.315666,1685.410096
1402.137228,3997.112087,-10881.027347,2068.457845
1402.137557,4589.276840,-9474.636058,1225.752797
1402.137886,4885.359217,-6957.935855,1991.848295
1402.138215,6069.688724,-5255.462188,842.705048
1402.138545,6809.894666,-5403.503377,1225.752797
1402.138874,6809.894666,-5699.585753,1302.362347
1402.139203,5551.544565,-7698.141797,1072.533697
1402.139532,4441.235652,-8512.368333,612.876398
1402.139861,3849.070898,-9622.677246,842.705048
1402.140190,3404.947333,-11251.130318,612.876398
1402.140519,2368.659014,-12139.377449,306.438199
1402.140848,1776.494261,-12953.603985,76.609550
1402.141177,2516.700203,-14211.954086,-995.924147
1402.141507,2960.823768,-12509.480420,536.266849
1402.141836,4145.153275,-10066.800811,1149.143247
1402.142165,5033.400406,-8882.471304,1991.848295
1402.142494,6439.791695,-5625.565159,2374.896044
1402.142823,6513.812290,-4811.338623,2604.724693
1402.143152,7328.038826,-3627.009116,2681.334243
1402.143481,8512.368333,-2442.679609,2911.162892
1402.143810,8068.244768,-3552.988522,2145.067394
1402.144139,6809.894666,-4441.235652,536.266849
1402.144469,5921.647536,-6809.894666,76.609550
1402.144798,5699.585753,-9400.615463,536.266849
1402.145127,4959.379811,-10955.047942,0.000000
1402.145456,4737.318029,-11473.192101,1149.143247
1402.145785,4959.379811,-11695.253884,842.705048
1402.146114,4959.379811,-11843.295072,919.314598
1402.146443,3849.070898,-11769.274478,1532.190996
1402.146772,2220.617826,-11769.274478,0.000000
1402.147101,1850.514855,-10955.047942,-995.924147
1402.147431,1702.473667,-10066.800811,-459.657299
1402.147760,2960.823768,-10584.944971,919.314598
1402.148089,4737.318029,-9178.553681,1838.629195
1402.148418,5329.482782,-6957.935855,1455.581446
1402.148747,5699.585753,-5477.523971,842.705048
1402.149076,7328.038826,-1998.556043,1378.971896
1402.149405,8586.388927,-2590.720797,1762.019645
1402.149734,9400.615463,-4885.359217,2757.943793
1402.150063,8586.388927,-7550.100608,4060.306139
1402.150393,7476.080014,-8734.430116,2298.286494
1402.150722,5033.400406,-10436.903782,1762.019645
1402.151051,3330.926739,-11917.315666,1991.848295
1402.151380,2960.823768,-11991.336260,1378.971896
1402.151709,3182.885551,-10214.842000,612.876398
1402.152038,2590.720797,-10214.842000,919.314598
1402.152367,2960.823768,-7772.162391,76.609550
1402.152696,3182.885551,-7846.182985,-229.828649
1402.153025,3182.885551,-7254.018232,-383.047749
1402.153355,4367.215058,-6735.874072,-306.438199
1402.153684,5773.606348,-6735.874072,1455.581446
1402.154013,7105.977043,-8290.306550,2374.896044
1402.154342,7994.224174,-8586.388927,2604.724693
1402.154671,7105.977043,-7846.182985,1915.238745
1402.155000,4811.338623,-9400.615463,0.000000
1402.155329,4071.132681,-10658.965565,995.924147
1402.155658,3923.091493,-11621.233289,2068.457845
1402.155987,4293.194464,-11621.233289,2298.286494
1402.156317,4811.338623,-9400.615463,2145.067394
1402.156646,5033.400406,-8438.347739,2604.724693
1402.156975,5773.606348,-8512.368333,2604.724693
1402.157304,5921.647536,-6439.791695,2451.505594
1402.157633,5107.421000,-5625.565159,2757.943793
1402.157962,4885.359217,-4885.359217,1149.143247
1402.158291,5181.441594,-6291.750507,1149.143247
1402.158620,5403.503377,-7994.224174,1685.410096
1402.158949,5033.400406,-9622.677246,1762.019645
1402.159279,5033.400406,-9474.636058,2451.505594
1402.159608,4885.359217,-10066.800811,2221.676944
1402.159937,4515.256246,-10732.986159,2834.553343
1402.160266,4959.379811,-10066.800811,2987.772442
1402.160595,5625.565159,-9252.574275,3677.258390
1402.160924,6513.812290,-7402.059420,3677.258390
1402.161253,6217.729913,-6069.688724,3294.210641
1402.161582,7476.080014,-5329.482782,3217.601092
1402.161911,7179.997637,-4811.338623,3217.601092
1402.162240,6957.935855,-5329.482782,2145.067394
1402.162570,6143.709319,-5995.668130,2068.457845
1402.162899,6069.688724,-6883.915261,2374.896044
1402.163228,6069.688724,-8438.347739,2528.115143
1402.163557,5773.606348,-7920.203579,3370.820191
1402.163886,5477.523971,-7624.121203,3140.991542
1402.164215,5699.585753,-8068.244768,2987.772442
1402.164544,6217.729913,-7994.224174,4136.915689
1402.164873,7105.977043,-6809.894666,4519.963438
1402.165202,8660.409521,-5107.421000,4979.620737
1402.165532,8512.368333,-3775.050304,4903.011187
1402.165861,8438.347739,-3923.091493,4290.134789
1402.166190,8290.306550,-3849.070898,4673.182538
1402.166519,8734.430116,-3775.050304,4749.792088
1402.166848,8438.347739,-4589.276840,4673.182538
1402.167177,8364.327145,-4811.338623,4443.353888
1402.167506,7402.059420,-6439.791695,4213.525239
1402.167835,6735.874072,-7772.162391,3983.696590
1402.168164,5699.585753,-9474.636058,4366.744339
1402.168494,4219.173869,-9548.656652,3370.820191
1402.168823,3478.967927,-10510.924376,2987.772442
1402.169152,3478.967927,-10955.047942,3677.258390
1402.169481,3997.112087,-10658.965565,4060.306139
1402.169810,4441.235652,-9696.697840,3983.696590
1402.170139,4737.318029,-8142.265362,4443.353888
1402.170468,5995.668130,-6661.853478,4290.134789
1402.170797,7920.203579,-5773.606348,5362.668486
1402.171126,9474.636058,-3701.029710,6435.202183
1402.171456,10140.821405,-3330.926739,6358.592633
1402.171785,9770.718434,-2442.679609,5132.839837
1402.172114,8882.471304,-3330.926739,5056.230287
1402.172443,8808.450710,-3849.070898,4826.401637
1402.172772,8290.306550,-4737.318029,5209.449386
1402.173101,7328.038826,-5477.523971,4596.572988
1402.173430,6883.915261,-6587.832884,4136.915689
1402.173759,6809.894666,-8882.471304,4826.401637
1402.174088,6069.688724,-9400.615463,4749.792088
1402.174418,5551.544565,-10066.800811,4903.011187
1402.174747,3775.050304,-10066.800811,3830.477490
1402.175076,2368.659014,-9474.636058,2834.553343
1402.175405,1998.556043,-9474.636058,3140.991542
1402.175734,3997.112087,-7920.203579,3524.039291
1402.176063,5995.668130,-6883.915261,4596.572988
1402.176392,8068.244768,-4811.338623,5592.497135
1402.176721,9400.615463,-2886.803174,5898.935335
1402.177050,10362.883188,-2294.638420,6128.763984
1402.177380,9770.718434,-1258.350101,5439.278036
1402.177709,9178.553681,-2812.782580,4136.915689
1402.178038,8290.306550,-4441.235652,3524.039291
1402.178367,7476.080014,-6661.853478,3677.258390
1402.178696,7254.018232,-7994.224174,3217.601092
1402.179025,6365.771101,-9252.574275,3370.820191
1402.179354,5699.585753,-10881.027347,3217.601092
1402.179683,5625.565159,-9992.780217,3524.039291
1402.180012,5403.503377,-9252.574275,3830.477490
1402.180342,5403.503377,-7476.080014,3830.477490
1402.180671,6291.750507,-5625.565159,3677.258390
1402.181000,8068.244768,-4367.215058,4213.525239
1402.181329,8660.409521,-3849.070898,4366.744339
1402.181658,8956.491898,-4293.194464,4213.525239
1402.181987,9326.594869,-3997.112087,3447.429741
1402.182316,7846.182985,-4885.359217,2604.724693
1402.182645,6735.874072,-6439.791695,2911.162892
1402.182974,6143.709319,-7179.997637,2604.724693
1402.183304,5995.668130,-8068.244768,2528.115143
1402.183633,5921.647536,-8660.409521,3370.820191
1402.183962,6809.894666,-8586.388927,4673.182538
1402.184291,7698.141797,-8142.265362,4749.792088
1402.184620,7698.141797,-7254.018232,4290.134789
1402.184949,7179.997637,-6143.709319,3677.258390
1402.185278,6883.915261,-5403.503377,3064.381992
1402.185607,6957.935855,-4885.359217,3524.039291
1402.185936,7254.018232,-3108.864956,2834.553343
1402.186266,8586.388927,-2960.823768,3217.601092
1402.186595,9104.533087,-4737.318029,4290.134789
1402.186924,8586.388927,-5625.565159,4213.525239
1402.187253,7105.977043,-7254.018232,3370.820191
1402.187582,5773.606348,-8882.471304,2987.772442
1402.187911,4589.276840,-10214.842000,3217.601092
1402.188240,3775.050304,-10658.965565,2681.334243
1402.188569,3849.070898,-9474.636058,3370.820191
1402.188898,4959.379811,-7846.182985,3524.039291
1402.189228,5995.668130,-6291.750507,3753.867940
1402.189557,6735.874072,-5995.668130,3983.696590
1402.189886,7476.080014,-5773.606348,4903.011187
1402.190215,8808.450710,-4293.194464,5362.668486
1402.190544,8586.388927,-4293.194464,5515.887586
1402.190873,9178.553681,-2368.659014,4519.963438
1402.191202,10214.842000,-2590.720797,4749.792088
1402.191531,10584.944971,-3034.844362,4443.353888
1402.191860,9400.615463,-4885.359217,3753.867940
1402.192189,7105.977043,-7402.059420,3064.381992
1402.192519,5403.503377,-9178.553681,2374.896044
1402.192848,4367.215058,-11843.295072,2757.943793
1402.193177,3775.050304,-11917.315666,3677.258390
1402.193506,3701.029710,-11695.253884,3524.039291
1402.193835,4145.153275,-9474.636058,3447.429741
1402.194164,4811.338623,-6217.729913,3447.429741
1402.194493,6957.935855,-4737.318029,4290.134789
1402.194822,9326.594869,-3701.029710,5592.497135
1402.195151,10436.903782,-3330.926739,5975.544884
1402.195481,10362.883188,-2516.700203,4979.620737
1402.195810,9252.574275,-2368.659014,5439.278036
1402.196139,8956.491898,-3997.112087,4903.011187
1402.196468,7550.100608,-5921.647536,5209.449386
1402.196797,6587.832884,-7846.182985,5286.058936
1402.197126,7550.100608,-8438.347739,4366.744339
1402.197455,6439.791695,-8882.471304,3830.477490
1402.197784,4811.338623,-8808.450710,3294.210641
1402.198113,3997.112087,-7920.203579,2834.553343
1402.198443,4367.215058,-7772.162391,3064.381992
1402.198772,5403.503377,-6735.874072,4596.572988
1402.199101,7105.977043,-5921.647536,4903.011187
1402.199430,7772.162391,-4663.297435,5132.839837
1402.199759,7105.977043,-4515.256246,4136.915689
1402.200088,7328.038826,-6069.688724,3907.087040
1402.200417,7624.121203,-5921.647536,4366.744339
1402.200746,8216.285956,-5181.441594,3907.087040
1402.201075,8216.285956,-5329.482782,3907.087040
1402.201405,7846.182985,-5625.565159,3983.696590
1402.201734,7476.080014,-8438.347739,3677.258390
1402.202063,7031.956449,-8808.450710,4290.134789
1402.202392,6365.771101,-7328.038826,2911.162892
1402.202721,5773.606348,-7328.038826,2221.676944
1402.203050,4663.297435,-6735.874072,1762.019645
1402.203379,5181.441594,-7105.977043,1915.238745
1402.203708,6513.812290,-7846.182985,3677.258390
1402.204037,7476.080014,-5995.668130,4443.353888
1402.204367,7254.018232,-4367.215058,3294.210641
1402.204696,7105.977043,-3182.885551,2451.505594
1402.205025,7179.997637,-4737.318029,1991.848295
1402.205354,7920.203579,-5699.585753,2298.286494
1402.205683,8660.409521,-6883.915261,3140.991542
1402.206012,9030.512492,-7624.121203,2681.334243
1402.206341,7402.059420,-7031.956449,1225.752797
1402.206670,4811.338623,-9474.636058,766.095498
1402.206999,4145.153275,-10658.965565,1072.533697
1402.207329,5329.482782,-9474.636058,1532.190996
1402.207658,7402.059420,-6217.729913,1608.800546
1402.207987,8734.430116,-4737.318029,2374.896044
1402.208316,8956.491898,-5403.503377,2681.334243
1402.208645,8290.306550,-4145.153275,2221.676944
1402.208974,6957.935855,-3997.112087,1685.410096
1402.209303,6661.853478,-4663.297435,842.705048
1402.209632,7328.038826,-4737.318029,1378.971896
1402.209961,7772.162391,-7031.956449,1302.362347
1402.210291,7994.224174,-6587.832884,1608.800546
1402.210620,7254.018232,-7179.997637,1149.143247
1402.210949,6883.915261,-8438.347739,612.876398
1402.211278,6143.709319,-8290.306550,0.000000
1402.211607,5921.647536,-8142.265362,459.657299
1402.211936,5847.626942,-8808.450710,766.095498
1402.212265,5625.565159,-8956.491898,1225.752797
1402.212594,4737.318029,-8660.409521,995.924147
1402.212923,5107.421000,-7031.956449,1149.143247
1402.213253,6143.709319,-3775.050304,1225.752797
1402.213582,7328.038826,-2886.803174,1608.800546
1402.213911,7920.203579,-4071.132681,1378.971896
1402.214240,8364.327145,-3775.050304,1225.752797
1402.214569,9178.553681,-4219.173869,1225.752797
1402.214898,9326.594869,-3849.070898,1072.533697
1402.215227,8660.409521,-5329.482782,1302.362347
1402.215556,7031.956449,-9622.677246,766.095498
1402.215885,6735.874072,-10140.821405,459.657299
1402.216215,5329.482782,-8512.368333,0.000000
1402.216544,4959.379811,-7772.162391,-1225.752797
1402.216873,5033.400406,-8734.430116,0.000000
1402.217202,5551.544565,-8586.388927,536.266849
1402.217531,6069.688724,-6809.894666,536.266849
1402.217860,6587.832884,-4885.359217,1149.143247
1402.218189,7624.121203,-5847.626942,1991.848295
1402.218518,7550.100608,-7402.059420,1915.238745
1402.218847,7476.080014,-5995.668130,2374.896044
1402.219177,8734.430116,-3182.885551,2145.067394
1402.219506,10288.862594,-2516.700203,1532.190996
1402.219835,9622.677246,-5107.421000,2451.505594
1402.220164,8290.306550,-7179.997637,1915.238745
1402.220493,7254.018232,-7920.203579,1532.190996
1402.220822,6439.791695,-7179.997637,536.266849
1402.221151,4737.318029,-9326.594869,229.828649
1402.221480,4219.173869,-11547.212695,1225.752797
1402.221809,5699.585753,-9696.697840,1225.752797
1402.222138,6217.729913,-6143.709319,0.000000
1402.222468,6291.750507,-3849.070898,0.000000
1402.222797,6883.915261,-5847.626942,689.485948
1402.223126,7772.162391,-6365.771101,1532.190996
1402.223455,7698.141797,-5181.441594,1762.019645
1402.223784,8142.265362,-5403.503377,2068.457845
1402.224113,8438.347739,-5995.668130,1608.800546
1402.224442,6957.935855,-8364.327145,2528.115143
1402.224771,6883.915261,-7476.080014,2757.943793
1402.225100,8142.265362,-4367.215058,2298.286494
1402.225430,8438.347739,-4959.379811,1608.800546
1402.225759,6069.688724,-7105.977043,2068.457845
1402.226088,4737.318029,-7031.956449,1225.752797
1402.226417,5403.503377,-5921.647536,459.657299
1402.226746,5773.606348,-6143.709319,76.609550
1402.227075,5551.544565,-7179.997637,1225.752797
1402.227404,6587.832884,-7476.080014,1532.190996
1402.227733,7698.141797,-6513.812290,1455.581446
1402.228062,7105.977043,-3923.091493,995.924147
1402.228392,6735.874072,-4589.276840,0.000000
1402.228721,6735.874072,-6439.791695,1072.533697
1402.229050,6217.729913,-7402.059420,1915.238745
1402.229379,6143.709319,-7772.162391,1149.143247
1402.229708,6513.812290,-7698.141797,1532.190996
1402.230037,7179.997637,-9252.574275,2451.505594
1402.230366,8438.347739,-9104.533087,2604.724693
1402.230695,8512.368333,-5033.400406,1991.848295
1402.231024,7476.080014,-3478.967927,-536.266849
1402.231354,7031.956449,-5033.400406,-766.095498
1402.231683,7031.956449,-5329.482782,306.438199
1402.232012,7328.038826,-6069.688724,0.000000
1402.232341,7179.997637,-6365.771101,153.219100
1402.232670,7179.997637,-7179.997637,766.095498
1402.232999,7402.059420,-9548.656652,1149.143247
1402.233328,7476.080014,-7476.080014,1532.190996
1402.233657,7105.977043,-5551.544565,383.047749
1402.233986,6883.915261,-5773.606348,-842.705048
1402.234316,6735.874072,-6587.832884,-536.266849
1402.234645,6439.791695,-8216.285956,612.876398
1402.234974,7105.977043,-8142.265362,1991.848295
1402.235303,6587.832884,-6365.771101,1072.533697
1402.235632,5773.606348,-7550.100608,306.438199
1402.235961,5699.585753,-8216.285956,1608.800546
1402.236290,7698.141797,-6217.729913,2604.724693
1402.236619,8808.450710,-4441.235652,689.485948
1402.236948,8068.244768,-4293.194464,76.609550
1402.237278,6069.688724,-6217.729913,383.047749
1402.237607,5995.668130,-6883.915261,766.095498
1402.237936,6143.709319,-5699.585753,0.000000
1402.238265,4959.379811,-5699.585753,-689.485948
1402.238594,5181.441594,-8068.244768,229.828649
1402.238923,6587.832884,-8068.244768,1532.190996
1402.239253,7772.162391,-5995.668130,1608.800546
1402.239582,8290.306550,-4737.318029,612.876398
1402.239911,8364.327145,-5995.668130,919.314598
1402.240240,7698.141797,-6883.915261,1225.752797
1402.240569,6513.812290,-6735.874072,1302.362347
1402.240898,5921.647536,-4959.379811,306.438199
1402.241228,5995.668130,-7105.977043,229.828649
1402.241557,6291.750507,-7846.182985,1225.752797
1402.241886,7031.956449,-6661.853478,2145.067394
1402.242215,8808.450710,-5477.523971,1762.019645
1402.242544,9104.533087,-4737.318029,1532.190996
1402.242873,7476.080014,-6291.750507,995.924147
1402.243203,5995.668130,-7031.956449,612.876398
1402.243532,5995.668130,-6513.812290,536.266849
1402.243861,6883.915261,-6143.709319,-383.047749
1402.244190,6809.894666,-7402.059420,0.000000
1402.244519,7179.997637,-7920.203579,1378.971896
1402.244849,8660.409521,-6883.915261,1608.800546
1402.245178,9104.533087,-6069.688724,766.095498
1402.245507,7920.203579,-6513.812290,995.924147
1402.245836,7105.977043,-7920.203579,842.705048
1402.246165,7031.956449,-8216.285956,1072.533697
1402.246494,5921.647536,-6587.832884,1225.752797
1402.246824,5699.585753,-6069.688724,612.876398
1402.247153,5995.668130,-7994.224174,1685.410096
1402.247482,6661.853478,-7328.038826,2604.724693
1402.247811,7328.038826,-5847.626942,2834.553343
1402.248140,7920.203579,-3923.091493,1915.238745
1402.248469,7476.080014,-5107.421000,1608.800546
1402.248799,6365.771101,-6217.729913,1455.581446
1402.249128,5995.668130,-5403.503377,2068.457845
1402.249457,6809.894666,-5625.565159,919.314598
1402.249786,6661.853478,-6513.812290,459.657299
1402.250115,5847.626942,-7920.203579,1302.362347
1402.250445,6513.812290,-8364.327145,1532.190996
1402.250774,6513.812290,-5699.585753,229.828649
1402.251103,6143.709319,-5921.647536,0.000000
1402.251432,6957.935855,-9326.594869,229.828649
1402.251761,6957.935855,-8956.491898,2528.115143
1402.252090,7328.038826,-8290.306550,2374.896044
1402.252420,6957.935855,-6883.915261,1455.581446
1402.252749,5181.441594,-6291.750507,1072.533697
1402.253078,4959.379811,-6883.915261,459.657299
1402.253407,6217.729913,-4959.379811,1225.752797
1402.253736,8512.368333,-2960.823768,1762.019645
1402.254065,9696.697840,-3627.009116,1302.362347
1402.254395,8216.285956,-5403.503377,1915.238745
1402.254724,7994.224174,-6957.935855,2834.553343
1402.255053,8290.306550,-5847.626942,1608.800546
1402.255382,7105.977043,-5625.565159,-229.828649
1402.255711,5477.523971,-7772.162391,-689.485948
1402.256041,5773.606348,-7846.182985,76.609550
1402.256370,7328.038826,-6365.771101,229.828649
1402.256699,7402.059420,-5773.606348,229.828649
1402.257028,7105.977043,-7772.162391,612.876398
1402.257357,7550.100608,-9252.574275,1838.629195
1402.257686,6735.874072,-8142.265362,1915.238745
1402.258016,5847.626942,-6883.915261,1532.190996
1402.258345,6513.812290,-5699.585753,842.705048
1402.258674,7179.997637,-6587.832884,842.705048
1402.259003,7550.100608,-6217.729913,2528.115143
1402.259332,8586.388927,-2442.679609,1532.190996
1402.259661,8734.430116,-2368.659014,0.000000
1402.259991,7105.977043,-5033.400406,-383.047749
1402.260320,5773.606348,-8364.327145,612.876398
1402.260649,6883.915261,-7994.224174,842.705048
1402.260978,7328.038826,-7402.059420,-612.876398
1402.261307,6587.832884,-9474.636058,76.609550
1402.261637,6513.812290,-9844.739029,1149.143247
1402.261966,7402.059420,-8364.327145,1378.971896
1402.262295,7105.977043,-4959.379811,0.000000
1402.262624,6291.750507,-4515.256246,-1225.752797
1402.262953,6069.688724,-6735.874072,0.000000
1402.263282,6587.832884,-7254.018232,1608.800546
1402.263612,7328.038826,-6735.874072,2068.457845
1402.263941,7402.059420,-4737.318029,1532.190996
1402.264270,6957.935855,-6957.935855,1302.362347
1402.264599,6439.791695,-7624.121203,2451.505594
1402.264928,7476.080014,-5921.647536,2374.896044
1402.265257,7624.121203,-4663.297435,0.000000
1402.265587,6365.771101,-4737.318029,-1225.752797
1402.265916,5107.421000,-7624.121203,-612.876398
1402.266245,5477.523971,-8216.285956,76.609550
1402.266574,6513.812290,-7550.100608,689.485948
1402.266903,6661.853478,-8068.244768,153.219100
1402.267233,6957.935855,-9252.574275,1455.581446
1402.267562,7402.059420,-7772.162391,1838.629195
1402.267891,7920.203579,-4885.359217,1072.533697
1402.268220,7994.224174,-2442.679609,306.438199
1402.268549,7698.141797,-4145.153275,229.828649
1402.268878,7254.018232,-5921.647536,1685.410096
1402.269208,7105.977043,-6069.688724,2298.286494
1402.269537,7476.080014,-5181.441594,1532.190996
1402.269866,6957.935855,-7105.977043,919.314598
1402.270195,6291.750507,-8882.471304,2068.457845
1402.270524,7105.977043,-7846.182985,2757.943793
1402.270853,8142.265362,-5625.565159,1455.581446
1402.271183,7402.059420,-3701.029710,459.657299
1402.271512,6069.688724,-6661.853478,153.219100
1402.271841,5995.668130,-7994.224174,1685.410096
1402.272170,6143.709319,-6809.894666,766.095498
1402.272499,5847.626942,-5847.626942,-612.876398
1402.272829,5773.606348,-6809.894666,919.314598
1402.273158,7698.141797,-7624.121203,2451.505594
1402.273487,9844.739029,-5995.668130,2298.286494
1402.273816,8956.491898,-4737.318029,1991.848295
1402.274145,8808.450710,-5329.482782,1762.019645
1402.274474,7920.203579,-7772.162391,1455.581446
1402.274804,6291.750507,-7920.203579,1532.190996
1402.275133,5181.441594,-6883.915261,76.609550
1402.275462,4959.379811,-6809.894666,-459.657299
1402.275791,6291.750507,-8438.347739,1378.971896
1402.276120,7105.977043,-8438.347739,3140.991542
1402.276449,8512.368333,-6069.688724,3677.258390
1402.276779,9474.636058,-4441.235652,2604.724693
1402.277108,7179.997637,-5699.585753,2374.896044
1402.277437,5107.421000,-6365.771101,1455.581446
1402.277766,5255.462188,-5551.544565,766.095498
1402.278095,5847.626942,-4959.379811,153.219100
1402.278424,5551.544565,-5403.503377,229.828649
1402.278754,6513.812290,-6735.874072,766.095498
1402.279083,7994.224174,-8216.285956,2145.067394
1402.279412,8882.471304,-5699.585753,2145.067394
1402.279741,7772.162391,-6883.915261,689.485948
1402.280070,6883.915261,-8734.430116,1072.533697
1402.280400,6661.853478,-8586.388927,1685.410096
1402.280729,6809.894666,-8216.285956,766.095498
1402.281058,6513.812290,-5995.668130,306.438199
1402.281387,5773.606348,-7550.100608,0.000000
1402.281716,6587.832884,-7476.080014,689.485948
1402.282045,6957.935855,-4589.276840,1608.800546
1402.282375,7328.038826,-3182.885551,766.095498
1402.282704,7624.121203,-4145.153275,229.828649
1402.283033,7402.059420,-5921.647536,1608.800546
1402.283362,7179.997637,-6513.812290,2068.457845
1402.283691,7179.997637,-5181.441594,842.705048
1402.284020,6809.894666,-6883.915261,383.047749
1402.284350,6735.874072,-7698.141797,153.219100
1402.284679,7179.997637,-7772.162391,919.314598
1402.285008,7772.162391,-6439.791695,1149.143247
1402.285337,7476.080014,-5107.421000,76.609550
1402.285666,7328.038826,-7105.977043,459.657299
1402.285996,7105.977043,-7179.997637,995.924147
1402.286325,7328.038826,-8068.244768,995.924147
1402.286654,7179.997637,-6513.812290,842.705048
1402.286983,6735.874072,-7105.977043,0.000000
1402.287312,5551.544565,-8734.430116,76.609550
1402.287641,6809.894666,-6291.750507,1838.629195
1402.287971,8438.347739,-4441.235652,842.705048
1402.288300,8142.265362,-4885.359217,76.609550
1402.288629,6735.874072,-5847.626942,766.095498
1402.288958,6439.791695,-8068.244768,1072.533697
1402.289287,7254.018232,-6735.874072,1378.971896
1402.289616,6809.894666,-5625.565159,76.609550
1402.289946,6809.894666,-7550.100608,76.609550
1402.290275,7550.100608,-6883.915261,1225.752797
1402.290604,7402.059420,-6217.729913,1685.410096
1402.290933,7624.121203,-4219.173869,-76.609550
1402.291262,7105.977043,-5255.462188,-306.438199
1402.291592,6809.894666,-7328.038826,0.000000
1402.291921,6587.832884,-8068.244768,1455.581446
1402.292250,6957.935855,-7624.121203,995.924147
1402.292579,6365.771101,-7402.059420,229.828649
1402.292908,5847.626942,-8512.368333,459.657299
1402.293237,6365.771101,-7846.182985,2374.896044
1402.293567,7772.162391,-5329.482782,1991.848295
1402.293896,8216.285956,-4663.297435,1838.629195
1402.294225,6883.915261,-5477.523971,1378.971896
1402.294554,5699.585753,-6143.709319,919.314598
1402.294883,6143.709319,-5033.400406,689.485948
1402.295212,6735.874072,-4441.235652,459.657299
1402.295542,6957.935855,-6513.812290,306.438199
1402.295871,7105.977043,-7846.182985,1072.533697
1402.296200,7624.121203,-8142.265362,1915.238745
1402.296529,8512.368333,-5921.647536,0.000000
1402.296858,7550.100608,-4811.338623,-612.876398
1402.297188,6587.832884,-7846.182985,0.000000
1402.297517,6513.812290,-9030.512492,766.095498
1402.297846,7031.956449,-7328.038826,1685.410096
1402.298175,7105.977043,-5773.606348,1225.752797
1402.298504,7105.977043,-8142.265362,1532.190996
1402.298833,7476.080014,-7920.203579,3064.381992
1402.299163,7994.224174,-5551.544565,3370.820191
1402.299492,8068.244768,-2664.741391,995.924147
1402.299821,7031.956449,-1924.535449,76.609550
1402.300150,7179.997637,-4737.318029,919.314598
1402.300479,7328.038826,-5921.647536,1532.190996
1402.300808,7254.018232,-5847.626942,1302.362347
1402.301138,6365.771101,-6439.791695,-153.219100
1402.301467,6069.688724,-8882.471304,-76.609550
1402.301796,6513.812290,-9918.759623,1225.752797
1402.302125,7328.038826,-9104.533087,1838.629195
1402.302454,7476.080014,-6735.874072,0.000000
1402.302784,6587.832884,-7476.080014,536.266849
1402.303113,5995.668130,-7994.224174,1838.629195
1402.303442,6957.935855,-7328.038826,1378.971896
1402.303771,6735.874072,-5033.400406,1532.190996
1402.304100,6217.729913,-5477.523971,1149.143247
1402.304429,5921.647536,-6957.935855,1762.019645
1402.304759,7254.018232,-5699.585753,2757.943793
1402.305088,9252.574275,-3775.050304,2681.334243
1402.305417,9992.780217,-4589.276840,1302.362347
1402.305746,7624.121203,-6291.750507,1302.362347
1402.306075,4959.379811,-7402.059420,306.438199
1402.306404,4515.256246,-6957.935855,0.000000
1402.306734,4737.318029,-6513.812290,-995.924147
1402.307063,4515.256246,-8956.491898,-459.657299
1402.307392,6291.750507,-9696.697840,2451.505594
1402.307721,7698.141797,-8660.409521,2604.724693
1402.308050,8512.368333,-5107.421000,1762.019645
1402.308380,7179.997637,-4293.194464,229.828649
1402.308709,7105.977043,-6735.874072,766.095498
1402.309038,7031.956449,-6587.832884,1302.362347
1402.309367,5995.668130,-5699.585753,842.705048
1402.309696,6291.750507,-5329.482782,0.000000
1402.310025,6809.894666,-6957.935855,536.266849
1402.310355,7254.018232,-8956.491898,1915.238745
1402.310684,8364.327145,-7105.977043,2681.334243
1402.311013,8882.471304,-5847.626942,842.705048
1402.311342,7920.203579,-6365.771101,536.266849
1402.311671,6143.709319,-7402.059420,153.219100
1402.312000,5995.668130,-6587.832884,-153.219100
1402.312330,6217.729913,-4959.379811,-76.609550
1402.312659,5921.647536,-5995.668130,-1149.143247
1402.312988,6143.709319,-7328.038826,383.047749
1402.313317,7920.203579,-6957.935855,2757.943793
1402.313646,9474.636058,-5181.441594,1608.800546
1402.313976,8734.430116,-4219.173869,842.705048
1402.314305,7550.100608,-6291.750507,689.485948
1402.314634,7179.997637,-7994.224174,1149.143247
1402.314963,6809.894666,-7031.956449,1532.190996
1402.315292,6143.709319,-5551.544565,229.828649
1402.315621,5699.585753,-7846.182985,0.000000
1402.315951,6069.688724,-9030.512492,1762.019645
1402.316280,7031.956449,-6957.935855,2451.505594
1402.316609,8586.388927,-5329.482782,1149.143247
1402.316938,7550.100608,-4367.215058,612.876398
1402.317267,6291.750507,-6809.894666,383.047749
1402.317596,5699.585753,-6957.935855,766.095498
1402.317926,5773.606348,-5107.421000,229.828649
1402.318255,6069.688724,-5921.647536,-383.047749
1402.318584,6809.894666,-7624.121203,383.047749
1402.318913,7846.182985,-8216.285956,2681.334243
1402.319242,8734.430116,-6291.750507,1455.581446
1402.319572,7772.162391,-4071.132681,0.000000
1402.319901,5921.647536,-5847.626942,0.000000
1402.320230,6439.791695,-7920.203579,536.266849
1402.320559,7105.977043,-7846.182985,2451.505594
1402.320888,7328.038826,-6809.894666,2604.724693
1402.321217,6661.853478,-7105.977043,1378.971896
1402.321547,5921.647536,-8068.244768,2221.676944
1402.321876,6217.729913,-7031.956449,2374.896044
1402.322205,7105.977043,-3256.906145,612.876398
1402.322534,8290.306550,-3849.070898,229.828649
1402.322863,7846.182985,-5847.626942,612.876398
1402.323192,7550.100608,-7031.956449,1225.752797
1402.323522,6957.935855,-7402.059420,2298.286494
1402.323851,6883.915261,-6587.832884,229.828649
1402.324180,5551.544565,-8660.409521,-383.047749
1402.324509,5107.421000,-9696.697840,1378.971896
1402.324838,7105.977043,-8956.491898,1762.019645
1402.325168,9178.553681,-4737.318029,1225.752797
1402.325497,7772.162391,-5033.400406,689.485948
1402.325826,6809.894666,-6587.832884,536.266849
1402.326155,6957.935855,-7846.182985,1991.848295
1402.326484,6809.894666,-5921.647536,1532.190996
1402.326813,5699.585753,-5255.462188,536.266849
1402.327143,5847.626942,-6439.791695,1915.238745
1402.327472,7328.038826,-7328.038826,2451.505594
1402.327801,8586.388927,-5477.523971,2604.724693
1402.328130,9178.553681,-4071.132681,1991.848295
1402.328459,8512.368333,-5551.544565,842.705048
1402.328788,6661.853478,-6809.894666,689.485948
1402.329118,5255.462188,-7105.977043,689.485948
1402.329447,5699.585753,-6217.729913,-306.438199
1402.329776,5551.544565,-7105.977043,0.000000
1402.330105,5921.647536,-8660.409521,1225.752797
1402.330434,6883.915261,-8216.285956,2221.676944
1402.330763,8364.327145,-5995.668130,1991.848295
1402.331093,7920.203579,-5329.482782,995.924147
1402.331422,5921.647536,-6661.853478,1149.143247
1402.331751,5477.523971,-7031.956449,229.828649
1402.332080,6143.709319,-6661.853478,689.485948
1402.332409,6439.791695,-5329.482782,459.657299
1402.332739,6957.935855,-5995.668130,919.314598
1402.333068,7698.141797,-7772.162391,2145.067394
1402.333397,7994.224174,-7254.018232,2757.943793
1402.333726,8512.368333,-4441.235652,1455.581446
1402.334055,7994.224174,-5625.565159,1225.752797
1402.334384,7402.059420,-6661.853478,1532.190996
1402.334714,6809.894666,-6735.874072,536.266849
1402.335043,5773.606348,-5403.503377,612.876398
1402.335372,5699.585753,-5551.544565,-459.657299
1402.335701,6365.771101,-8142.265362,306.438199
1402.336030,6883.915261,-8586.388927,2068.457845
1402.336359,7698.141797,-6587.832884,1455.581446
1402.336687,7920.203579,-5551.544565,766.095498
1402.337016,6957.935855,-6069.688724,306.438199
1402.337346,6365.771101,-7994.224174,1685.410096
1402.337675,6883.915261,-7402.059420,1302.362347
1402.338004,7031.956449,-5699.585753,919.314598
1402.338333,6069.688724,-6513.812290,766.095498
1402.338662,6513.812290,-8216.285956,1685.410096
1402.338991,6883.915261,-6809.894666,1762.019645
1402.339320,7846.182985,-4737.318029,1072.533697
1402.339649,8216.285956,-4145.153275,459.657299
1402.339978,8142.265362,-5403.503377,1149.143247
1402.340307,7476.080014,-7402.059420,1532.190996
1402.340636,6809.894666,-6365.771101,612.876398
1402.340965,5699.585753,-6217.729913,-1378.971896
1402.341294,5773.606348,-7698.141797,-612.876398
1402.341623,6069.688724,-8808.450710,612.876398
1402.341952,7920.203579,-7402.059420,1685.410096
1402.342281,7994.224174,-4737.318029,306.438199
1402.342610,6883.915261,-5107.421000,153.219100
1402.342939,7105.977043,-7698.141797,1608.800546
1402.343268,7402.059420,-7105.977043,1915.238745
1402.343597,6957.935855,-6217.729913,1302.362347
1402.343926,6513.812290,-5107.421000,1455.581446
1402.344255,6957.935855,-7846.182985,1225.752797
1402.344584,7179.997637,-7105.977043,2221.676944
1402.344914,7105.977043,-4737.318029,842.705048
1402.345243,8142.265362,-3256.906145,229.828649
1402.345572,7772.162391,-4737.318029,229.828649
1402.345901,6661.853478,-7254.018232,306.438199
1402.346230,6735.874072,-8364.327145,1302.362347
1402.346559,6365.771101,-7031.956449,383.047749
1402.346888,5255.462188,-7994.224174,-536.266849
1402.347217,5403.503377,-9326.594869,766.095498
1402.347546,7254.018232,-8808.450710,1608.800546
1402.347875,8142.265362,-6069.688724,1149.143247
1402.348204,6957.935855,-4441.235652,689.485948
1402.348533,5995.668130,-5699.585753,0.000000
1402.348862,6513.812290,-6883.915261,1378.971896
1402.349191,7179.997637,-6365.771101,1991.848295
1402.349520,6439.791695,-4885.359217,842.705048
1402.349849,6365.771101,-6587.832884,1378.971896
1402.350178,6957.935855,-7698.141797,1991.848295
1402.350507,7920.203579,-6143.709319,2681.334243
1402.350836,9030.512492,-4811.338623,1608.800546
1402.351165,8808.450710,-4959.379811,1225.752797
1402.351494,7254.018232,-7328.038826,229.828649
1402.351823,6439.791695,-7994.224174,919.314598
1402.352152,5773.606348,-6217.729913,0.000000
1402.352482,5033.400406,-6735.874072,-689.485948
1402.352811,5699.585753,-7698.141797,-536.266849
1402.353140,6809.894666,-9178.553681,1455.581446
1402.353469,7772.162391,-6809.894666,1455.581446
1402.353798,7772.162391,-4885.359217,766.095498
1402.354127,7105.977043,-5995.668130,459.657299
1402.354456,7624.121203,-6513.812290,2068.457845
1402.354785,7624.121203,-6661.853478,1685.410096
1402.355114,6883.915261,-5477.523971,1532.190996
1402.355443,6957.935855,-5699.585753,1225.752797
1402.355772,6809.894666,-7920.203579,1838.629195
1402.356101,7550.100608,-6735.874072,2451.505594
1402.356430,8438.347739,-5107.421000,1838.629195
1402.356759,9104.533087,-4885.359217,1455.581446
1402.357088,7476.080014,-6217.729913,1302.362347
1402.357417,6143.709319,-7179.997637,919.314598
1402.357746,5699.585753,-6143.709319,459.657299
1402.358075,5847.626942,-5995.668130,-153.219100
1402.358404,5773.606348,-7105.977043,0.000000
1402.358733,6513.812290,-8512.368333,1072.533697
1402.359062,7624.121203,-7402.059420,2374.896044
1402.359391,8142.265362,-4737.318029,1455.581446
1402.359720,7550.100608,-4737.318029,1072.533697
1402.360050,7105.977043,-6735.874072,1915.238745
1402.360379,7328.038826,-7624.121203,1838.629195
1402.360708,5995.668130,-6957.935855,1225.752797
1402.361037,5403.503377,-6513.812290,612.876398
1402.361366,5921.647536,-8438.347739,689.485948
1402.361695,6143.709319,-8068.244768,1532.190996
1402.362024,7105.977043,-6735.874072,2221.676944
1402.362353,8512.368333,-4885.359217,536.266849
1402.362682,7994.224174,-5181.441594,1072.533697
1402.363011,6365.771101,-7105.977043,1072.533697
1402.363340,6365.771101,-7550.100608,1149.143247
1402.363669,7105.977043,-6069.688724,536.266849
1402.363998,6735.874072,-7105.977043,0.000000
1402.364327,7031.956449,-8512.368333,1072.533697
1402.364656,7550.100608,-8216.285956,1991.848295
1402.364985,8586.388927,-5699.585753,1225.752797
1402.365314,7402.059420,-4515.256246,0.000000
1402.365643,6439.791695,-7105.977043,689.485948
1402.365972,6143.709319,-8142.265362,1072.533697
1402.366301,5181.441594,-6883.915261,919.314598
1402.366630,5329.482782,-5995.668130,842.705048
1402.366959,6661.853478,-7550.100608,1455.581446
1402.367288,7402.059420,-8068.244768,2298.286494
1402.367618,7105.977043,-6365.771101,2374.896044
1402.367947,7328.038826,-4145.153275,1225.752797
1402.368276,8290.306550,-3775.050304,0.000000
1402.368605,7772.162391,-6069.688724,459.657299
1402.368934,6661.853478,-6143.709319,919.314598
1402.369263,6883.915261,-5403.503377,689.485948
1402.369592,7254.018232,-5921.647536,-689.485948
1402.369921,6957.935855,-8142.265362,612.876398
1402.370250,7772.162391,-9178.553681,1915.238745
1402.370579,8512.368333,-7402.059420,1302.362347
1402.370908,7550.100608,-4071.132681,-306.438199
1402.371237,6957.935855,-5329.482782,0.000000
1402.371566,6957.935855,-7031.956449,766.095498
1402.371895,7328.038826,-6883.915261,1838.629195
1402.372224,6661.853478,-5699.585753,1378.971896
1402.372553,6587.832884,-5329.482782,1072.533697
1402.372882,6883.915261,-7698.141797,1838.629195
1402.373211,7031.956449,-6365.771101,2221.676944
1402.373540,8290.306550,-5329.482782,2145.067394
1402.373869,9474.636058,-3997.112087,1915.238745
1402.374198,8068.244768,-5033.400406,-229.828649
1402.374527,5921.647536,-7698.141797,766.095498
1402.374856,5625.565159,-7328.038826,1225.752797
1402.375186,5995.668130,-6365.771101,-1302.362347
1402.375515,5107.421000,-7328.038826,-1225.752797
1402.375844,5403.503377,-9918.759623,1072.533697
1402.376173,7846.182985,-8882.471304,1532.190996
1402.376502,8290.306550,-6587.832884,1455.581446
1402.376831,6809.894666,-5551.544565,306.438199
1402.377160,6513.812290,-6291.750507,383.047749
1402.377489,7031.956449,-7772.162391,1838.629195
1402.377818,6291.750507,-6809.894666,1685.410096
1402.378147,6143.709319,-5551.544565,995.924147
1402.378476,6957.935855,-6291.750507,842.705048
1402.378805,6957.935855,-7179.997637,1838.629195
1402.379134,7624.121203,-6217.729913,2528.115143
1402.379463,8734.430116,-4811.338623,1532.190996
1402.379792,8142.265362,-5181.441594,383.047749
1402.380121,5403.503377,-6587.832884,1149.143247
1402.380450,4811.338623,-7031.956449,919.314598
