#time,accel_x,accel_y,accel_z
1413.189325,6735.874072,-7254.018232,919.314598
1413.189655,6513.812290,-6883.915261,1149.143247
1413.189985,6735.874072,-6957.935855,612.876398
1413.190315,7031.956449,-6735.874072,919.314598
1413.190645,6661.853478,-5995.668130,1455.581446
1413.190975,6957.935855,-6291.750507,919.314598
1413.191305,6957.935855,-6069.688724,1378.971896
1413.191635,7105.977043,-6587.832884,766.095498
1413.191965,7105.977043,-6661.853478,689.485948
1413.192295,7105.977043,-6513.812290,1225.752797
1413.192625,7550.100608,-6809.894666,766.095498
1413.192955,7105.977043,-6439.791695,919.314598
1413.193285,6513.812290,-6513.812290,1149.143247
1413.193615,7105.977043,-6291.750507,1072.533697
1413.193945,6883.915261,-6439.791695,1532.190996
1413.194275,6957.935855,-6735.874072,1608.800546
1413.194605,6883.915261,-6143.709319,612.876398
1413.194935,6809.894666,-6809.894666,919.314598
1413.195265,6587.832884,-6587.832884,1149.143247
1413.195595,6809.894666,-6661.853478,842.705048
1413.195925,6513.812290,-5921.647536,1378.971896
1413.196255,6957.935855,-7031.956449,919.314598
1413.196585,7105.977043,-7031.956449,1149.143247
1413.196915,6883.915261,-6957.935855,1149.143247
1413.197245,6957.935855,-6883.915261,306.438199
1413.197575,7031.956449,-6365.771101,536.266849
1413.197905,7179.997637,-6513.812290,919.314598
1413.198235,7254.018232,-6883.915261,995.924147
1413.198565,7550.100608,-5995.668130,919.314598
1413.198895,7179.997637,-6365.771101,1072.533697
1413.199225,7105.977043,-6291.750507,842.705048
1413.199555,7105.977043,-5995.668130,1072.533697
1413.199885,7328.038826,-6439.791695,1072.533697
1413.200215,7328.038826,-6143.709319,1225.752797
1413.200545,7550.100608,-6291.750507,919.314598
1413.200875,7105.977043,-6069.688724,536.266849
1413.201205,7105.977043,-6661.853478,1302.362347
1413.201535,6883.915261,-6217.729913,1225.752797
1413.201865,6291.750507,-6291.750507,995.924147
1413.202195,6735.874072,-7179.997637,919.314598
1413.202525,6735.874072,-7031.956449,1378.971896
1413.202855,6809.894666,-6735.874072,1072.533697
1413.203185,6661.853478,-6587.832884,1302.362347
1413.203515,6957.935855,-6439.791695,1302.362347
1413.203845,6735.874072,-6735.874072,842.705048
1413.204175,6587.832884,-6735.874072,919.314598
1413.204505,6513.812290,-6883.915261,842.705048
1413.204835,6661.853478,-6957.935855,1072.533697
1413.205165,7328.038826,-6883.915261,995.924147
1413.205495,7105.977043,-6735.874072,995.924147
1413.205825,7105.977043,-7254.018232,842.705048
1413.206155,7179.997637,-6883.915261,1072.533697
1413.206485,7105.977043,-6809.894666,1072.533697
1413.206815,6957.935855,-6809.894666,1302.362347
1413.207145,7031.956449,-6143.709319,842.705048
1413.207475,7031.956449,-6365.771101,766.095498
1413.207805,7031.956449,-6365.771101,1072.533697
1413.208135,6809.894666,-5847.626942,1915.238745
1413.208465,7179.997637,-6143.709319,919.314598
1413.208795,7031.956449,-6439.791695,1072.533697
1413.209125,6957.935855,-6513.812290,1072.533697
1413.209455,6809.894666,-6957.935855,1225.752797
1413.209785,6809.894666,-6809.894666,1149.143247
1413.210115,6957.935855,-6957.935855,536.266849
1413.210445,7105.977043,-6809.894666,995.924147
1413.210775,7031.956449,-7031.956449,1302.362347
1413.211105,7254.018232,-6809.894666,383.047749
1413.211435,6883.915261,-6883.915261,1072.533697
1413.211765,6513.812290,-6439.791695,612.876398
1413.212095,6957.935855,-6513.812290,612.876398
1413.212425,7105.977043,-6291.750507,1149.143247
1413.212755,7772.162391,-6439.791695,842.705048
1413.213085,7402.059420,-6439.791695,766.095498
1413.213415,7624.121203,-6365.771101,1149.143247
1413.213745,6809.894666,-6883.915261,1149.143247
1413.214075,7328.038826,-5921.647536,1149.143247
1413.214405,7179.997637,-6587.832884,1072.533697
1413.214735,7105.977043,-7254.018232,1149.143247
1413.215065,7105.977043,-6587.832884,1149.143247
1413.215395,7031.956449,-6217.729913,1072.533697
1413.215725,7624.121203,-5773.606348,995.924147
1413.216055,7031.956449,-5921.647536,1149.143247
1413.216385,6883.915261,-6217.729913,1072.533697
1413.216715,6587.832884,-5995.668130,0.000000
1413.217045,7031.956449,-6661.853478,1149.143247
1413.217375,6513.812290,-6735.874072,1455.581446
1413.217705,6735.874072,-6513.812290,919.314598
1413.218035,6809.894666,-6587.832884,1455.581446
1413.218365,6809.894666,-7179.997637,919.314598
1413.218695,7476.080014,-7328.038826,842.705048
1413.219025,6883.915261,-7031.956449,1072.533697
1413.219355,6661.853478,-7402.059420,1149.143247
1413.219685,6957.935855,-6661.853478,1072.533697
1413.220015,6957.935855,-6809.894666,1685.410096
1413.220345,6661.853478,-6439.791695,1149.143247
1413.220675,7476.080014,-6217.729913,1149.143247
1413.221005,7179.997637,-6587.832884,1149.143247
1413.221335,7105.977043,-6513.812290,1149.143247
1413.221665,7105.977043,-6217.729913,689.485948
1413.221995,7105.977043,-6513.812290,919.314598
1413.222325,7105.977043,-6809.894666,842.705048
1413.222655,7031.956449,-6439.791695,1225.752797
1413.222985,7105.977043,-6439.791695,1225.752797
1413.223315,7254.018232,-6587.832884,1225.752797
1413.223645,6809.894666,-6587.832884,1149.143247
1413.223975,6661.853478,-6883.915261,842.705048
1413.224305,6365.771101,-6735.874072,766.095498
1413.224635,7105.977043,-6513.812290,1302.362347
1413.224965,6735.874072,-6365.771101,1378.971896
1413.225294,6809.894666,-6365.771101,919.314598
1413.225624,6883.915261,-6365.771101,1225.752797
1413.225954,7105.977043,-6957.935855,995.924147
1413.226284,7105.977043,-6883.915261,766.095498
1413.226614,6513.812290,-6809.894666,919.314598
1413.226944,7105.977043,-6735.874072,612.876398
1413.227274,7105.977043,-6217.729913,1072.533697
1413.227604,7328.038826,-6661.853478,919.314598
1413.227934,7105.977043,-6661.853478,919.314598
1413.228264,7179.997637,-5995.668130,1225.752797
1413.228594,7105.977043,-6513.812290,919.314598
1413.228924,6883.915261,-6291.750507,1072.533697
1413.229254,6735.874072,-5847.626942,1838.629195
1413.229584,7476.080014,-6143.709319,1072.533697
1413.229914,7105.977043,-6069.688724,1072.533697
1413.230244,6883.915261,-5921.647536,1225.752797
1413.230574,7105.977043,-6143.709319,919.314598
1413.230904,6957.935855,-5921.647536,1225.752797
1413.231234,6735.874072,-6291.750507,842.705048
1413.231564,6809.894666,-6439.791695,689.485948
1413.231894,6957.935855,-7105.977043,1302.362347
1413.232224,6883.915261,-6809.894666,919.314598
1413.232554,6735.874072,-6661.853478,1302.362347
1413.232884,6661.853478,-6883.915261,1302.362347
1413.233214,7031.956449,-6661.853478,842.705048
1413.233544,6735.874072,-7031.956449,766.095498
1413.233874,6513.812290,-6513.812290,689.485948
1413.234204,6513.812290,-7105.977043,842.705048
1413.234534,6883.915261,-6587.832884,919.314598
1413.234864,7031.956449,-6439.791695,919.314598
1413.235194,7328.038826,-6735.874072,842.705048
1413.235524,7105.977043,-6661.853478,1532.190996
1413.235854,7179.997637,-7105.977043,1149.143247
1413.236184,7105.977043,-6587.832884,842.705048
1413.236514,6809.894666,-6291.750507,1149.143247
1413.236844,7105.977043,-6587.832884,536.266849
1413.237174,7179.997637,-6513.812290,1225.752797
1413.237504,7105.977043,-6143.709319,1608.800546
1413.237834,7031.956449,-6143.709319,919.314598
1413.238164,7031.956449,-6661.853478,1225.752797
1413.238494,7179.997637,-6365.771101,1072.533697
1413.238824,6735.874072,-6439.791695,995.924147
1413.239154,6735.874072,-6513.812290,766.095498
1413.239484,6809.894666,-6883.915261,919.314598
1413.239814,7105.977043,-6661.853478,1302.362347
1413.240144,7254.018232,-6661.853478,1072.533697
1413.240474,6957.935855,-6735.874072,995.924147
1413.240804,6735.874072,-7105.977043,919.314598
1413.241134,6661.853478,-6957.935855,995.924147
1413.241464,6439.791695,-6587.832884,1149.143247
1413.241794,7254.018232,-6661.853478,995.924147
1413.242124,7402.059420,-6217.729913,1302.362347
1413.242454,7328.038826,-6809.894666,1149.143247
1413.242784,7328.038826,-5995.668130,1072.533697
1413.243114,7105.977043,-6143.709319,995.924147
1413.243444,7105.977043,-6661.853478,766.095498
1413.243774,7105.977043,-6291.750507,995.924147
1413.244104,7179.997637,-6143.709319,1072.533697
1413.244434,7550.100608,-6069.688724,536.266849
1413.244764,6513.812290,-6513.812290,1149.143247
1413.245094,6957.935855,-6291.750507,1072.533697
1413.245424,6957.935855,-6661.853478,1072.533697
1413.245754,7105.977043,-6291.750507,1378.971896
1413.246084,6957.935855,-6587.832884,689.485948
1413.246414,6513.812290,-7031.956449,995.924147
1413.246744,6809.894666,-6513.812290,766.095498
1413.247074,6735.874072,-6883.915261,1072.533697
1413.247404,6957.935855,-6291.750507,536.266849
1413.247734,6735.874072,-6661.853478,1225.752797
1413.248064,6587.832884,-6883.915261,842.705048
1413.248394,6587.832884,-6883.915261,919.314598
1413.248724,6661.853478,-6735.874072,919.314598
1413.249054,6883.915261,-6661.853478,1608.800546
1413.249384,7031.956449,-6735.874072,1149.143247
1413.249714,7031.956449,-6661.853478,842.705048
1413.250044,7105.977043,-6883.915261,995.924147
1413.250374,7105.977043,-6661.853478,842.705048
1413.250704,7179.997637,-6735.874072,842.705048
1413.251034,7179.997637,-6661.853478,995.924147
1413.251364,6957.935855,-6587.832884,766.095498
1413.251694,6957.935855,-6661.853478,689.485948
1413.252024,7105.977043,-6735.874072,1532.190996
1413.252354,7179.997637,-6291.750507,1072.533697
1413.252684,7105.977043,-6661.853478,842.705048
1413.253014,6809.894666,-6217.729913,1149.143247
1413.253344,6735.874072,-6217.729913,995.924147
1413.253674,6957.935855,-6365.771101,1072.533697
1413.254004,6661.853478,-6809.894666,1302.362347
1413.254334,6809.894666,-6809.894666,1072.533697
1413.254664,7031.956449,-6587.832884,1378.971896
1413.254994,6735.874072,-6661.853478,1762.019645
1413.255324,6957.935855,-7031.956449,919.314598
1413.255654,6957.935855,-7179.997637,995.924147
1413.255984,6809.894666,-6809.894666,995.924147
1413.256314,6809.894666,-7031.956449,766.095498
1413.256644,6809.894666,-5995.668130,689.485948
1413.256974,6957.935855,-6365.771101,995.924147
1413.257304,7254.018232,-6217.729913,1149.143247
1413.257634,7402.059420,-6217.729913,1149.143247
1413.257964,7328.038826,-6069.688724,919.314598
1413.258293,7031.956449,-6217.729913,842.705048
1413.258623,6735.874072,-5847.626942,842.705048
1413.258953,6883.915261,-6587.832884,919.314598
1413.259282,7328.038826,-6291.750507,995.924147
1413.259612,7105.977043,-6439.791695,995.924147
1413.259941,7254.018232,-6513.812290,1149.143247
1413.260271,7031.956449,-6661.853478,1149.143247
1413.260600,6513.812290,-6513.812290,1072.533697
1413.260930,6587.832884,-6365.771101,689.485948
1413.261259,6513.812290,-6439.791695,766.095498
1413.261589,6661.853478,-6735.874072,1378.971896
1413.261918,6883.915261,-6661.853478,689.485948
1413.262248,6735.874072,-6735.874072,1302.362347
1413.262578,6735.874072,-6883.915261,842.705048
1413.262907,6661.853478,-6883.915261,919.314598
1413.263237,6809.894666,-7105.977043,766.095498
1413.263566,6661.853478,-7254.018232,1072.533697
1413.263896,6735.874072,-7105.977043,459.657299
1413.264225,7105.977043,-6291.750507,919.314598
1413.264555,7328.038826,-6809.894666,766.095498
1413.264884,7254.018232,-6365.771101,1302.362347
1413.265214,7179.997637,-6513.812290,995.924147
1413.265543,6883.915261,-6587.832884,689.485948
1413.265873,7105.977043,-6365.771101,1149.143247
1413.266203,6957.935855,-6143.709319,1225.752797
1413.266532,7105.977043,-6439.791695,995.924147
1413.266862,6809.894666,-6143.709319,1302.362347
1413.267191,7254.018232,-6513.812290,919.314598
1413.267521,6957.935855,-6291.750507,1072.533697
1413.267850,6957.935855,-6513.812290,1225.752797
1413.268180,6957.935855,-6513.812290,919.314598
1413.268509,6735.874072,-6957.935855,995.924147
1413.268839,6809.894666,-6883.915261,1072.533697
1413.269168,7031.956449,-6587.832884,1149.143247
1413.269498,6957.935855,-6809.894666,1072.533697
1413.269828,6661.853478,-6587.832884,919.314598
1413.270157,7105.977043,-6217.729913,76.609550
1413.270487,6587.832884,-6809.894666,1225.752797
1413.270816,6143.709319,-6365.771101,536.266849
1413.271146,7031.956449,-6513.812290,766.095498
1413.271475,7105.977043,-6439.791695,919.314598
1413.271805,7846.182985,-6513.812290,919.314598
1413.272134,7550.100608,-6809.894666,1149.143247
1413.272464,7550.100608,-6587.832884,995.924147
1413.272793,7105.977043,-7624.121203,1072.533697
1413.273123,7179.997637,-6217.729913,1225.752797
1413.273453,7031.956449,-6661.853478,995.924147
1413.273782,7105.977043,-6439.791695,1072.533697
1413.274112,6957.935855,-5921.647536,842.705048
1413.274441,7031.956449,-6291.750507,1455.581446
1413.274771,6809.894666,-5773.606348,1455.581446
1413.275100,7105.977043,-6513.812290,1072.533697
1413.275430,6513.812290,-6291.750507,919.314598
1413.275759,6365.771101,-6217.729913,766.095498
1413.276089,6587.832884,-6587.832884,1685.410096
1413.276419,6957.935855,-7031.956449,919.314598
1413.276748,7031.956449,-6809.894666,919.314598
1413.277078,6809.894666,-6883.915261,1532.190996
1413.277407,6809.894666,-7105.977043,1072.533697
1413.277737,7105.977043,-6809.894666,842.705048
1413.278066,6587.832884,-6883.915261,1225.752797
1413.278396,6587.832884,-7105.977043,766.095498
1413.278725,7031.956449,-6587.832884,919.314598
1413.279055,7105.977043,-6587.832884,995.924147
1413.279384,7105.977043,-6587.832884,919.314598
1413.279714,7105.977043,-6513.812290,1149.143247
1413.280044,6809.894666,-6661.853478,766.095498
1413.280373,7105.977043,-6439.791695,842.705048
1413.280703,6883.915261,-6143.709319,766.095498
1413.281032,7328.038826,-6587.832884,612.876398
1413.281362,7105.977043,-6587.832884,995.924147
1413.281691,7105.977043,-6587.832884,1225.752797
1413.282021,7105.977043,-6439.791695,919.314598
1413.282350,7105.977043,-6365.771101,1072.533697
1413.282680,7105.977043,-6439.791695,1149.143247
1413.283009,6809.894666,-6365.771101,842.705048
1413.283339,6661.853478,-6809.894666,842.705048
1413.283669,6735.874072,-6883.915261,1149.143247
1413.283998,6661.853478,-6809.894666,995.924147
1413.284328,6883.915261,-6587.832884,1149.143247
1413.284657,7105.977043,-6513.812290,1149.143247
1413.284987,6957.935855,-6957.935855,919.314598
1413.285316,7179.997637,-6957.935855,1455.581446
1413.285646,7105.977043,-7031.956449,766.095498
1413.285975,7031.956449,-6587.832884,842.705048
1413.286305,7179.997637,-6439.791695,766.095498
1413.286634,7105.977043,-6587.832884,1072.533697
1413.286964,7179.997637,-6587.832884,1378.971896
1413.287294,7254.018232,-6365.771101,919.314598
1413.287623,7105.977043,-6587.832884,766.095498
1413.287953,6735.874072,-6143.709319,1072.533697
1413.288282,6957.935855,-6143.709319,1225.752797
1413.288612,7105.977043,-6143.709319,995.924147
1413.288941,7254.018232,-6291.750507,995.924147
1413.289271,6809.894666,-6143.709319,1302.362347
1413.289600,7105.977043,-6291.750507,1149.143247
1413.289930,6661.853478,-5921.647536,1608.800546
1413.290259,6883.915261,-6439.791695,842.705048
1413.290589,6513.812290,-6883.915261,766.095498
1413.290919,6735.874072,-7105.977043,995.924147
1413.291248,6957.935855,-7328.038826,1608.800546
1413.291578,6957.935855,-6883.915261,612.876398
1413.291907,6735.874072,-6661.853478,1225.752797
1413.292237,6809.894666,-6957.935855,842.705048
1413.292566,6735.874072,-6957.935855,1149.143247
1413.292896,6513.812290,-6587.832884,1532.190996
1413.293225,7105.977043,-6661.853478,919.314598
1413.293555,7105.977043,-6439.791695,1149.143247
1413.293884,6661.853478,-6735.874072,995.924147
1413.294214,7031.956449,-6809.894666,1072.533697
1413.294544,7031.956449,-6735.874072,1149.143247
1413.294873,6883.915261,-7031.956449,1072.533697
1413.295203,6957.935855,-6513.812290,1149.143247
1413.295532,6957.935855,-6365.771101,919.314598
1413.295862,7031.956449,-6217.729913,1378.971896
1413.296191,7105.977043,-5921.647536,1378.971896
1413.296521,6883.915261,-5995.668130,1149.143247
1413.296850,7328.038826,-5699.585753,766.095498
1413.297180,7254.018232,-6069.688724,1302.362347
1413.297510,7105.977043,-6291.750507,1149.143247
1413.297839,6883.915261,-6439.791695,766.095498
1413.298169,6809.894666,-6883.915261,995.924147
1413.298498,6809.894666,-7105.977043,995.924147
1413.298828,7031.956449,-6587.832884,612.876398
1413.299157,6587.832884,-6809.894666,1302.362347
1413.299487,6735.874072,-7105.977043,1072.533697
1413.299816,7031.956449,-6957.935855,766.095498
1413.300146,6957.935855,-6809.894666,1149.143247
1413.300475,6957.935855,-7105.977043,842.705048
1413.300805,7105.977043,-6143.709319,1455.581446
1413.301135,7105.977043,-6291.750507,1225.752797
1413.301464,7105.977043,-6439.791695,919.314598
1413.301794,7402.059420,-6439.791695,1302.362347
1413.302123,7105.977043,-6069.688724,536.266849
1413.302453,7179.997637,-6439.791695,842.705048
1413.302782,6809.894666,-6291.750507,1149.143247
1413.303112,7254.018232,-5995.668130,919.314598
1413.303441,7624.121203,-4959.379811,1225.752797
1413.303771,7994.224174,-5107.421000,1608.800546
1413.304100,8364.327145,-5255.462188,1455.581446
1413.304430,8290.306550,-5699.585753,1378.971896
1413.304760,7402.059420,-5995.668130,766.095498
1413.305089,6291.750507,-6809.894666,689.485948
1413.305419,5255.462188,-7772.162391,153.219100
1413.305748,6291.750507,-7031.956449,689.485948
1413.306078,7476.080014,-6883.915261,1455.581446
1413.306407,7920.203579,-6143.709319,2145.067394
1413.306737,8364.327145,-5403.503377,1838.629195
1413.307066,8364.327145,-4515.256246,842.705048
1413.307396,7624.121203,-5107.421000,1149.143247
1413.307725,7550.100608,-5107.421000,1225.752797
1413.308055,8586.388927,-4589.276840,1072.533697
1413.308385,8660.409521,-4811.338623,1072.533697
1413.308714,8216.285956,-4515.256246,536.266849
1413.309044,7920.203579,-5921.647536,612.876398
1413.309373,8290.306550,-4811.338623,459.657299
1413.309703,8364.327145,-5847.626942,306.438199
1413.310032,7846.182985,-5847.626942,1072.533697
1413.310362,8142.265362,-5255.462188,612.876398
1413.310691,8068.244768,-5921.647536,306.438199
1413.311021,8364.327145,-4885.359217,2374.896044
1413.311350,8438.347739,-4959.379811,1149.143247
1413.311680,9326.594869,-4219.173869,1455.581446
1413.312010,9474.636058,-4071.132681,1991.848295
1413.312339,9326.594869,-4293.194464,1455.581446
1413.312669,9178.553681,-3182.885551,1915.238745
1413.312998,8512.368333,-3330.926739,1455.581446
1413.313328,9178.553681,-2738.761985,1302.362347
1413.313657,9696.697840,-2812.782580,1225.752797
1413.313987,10288.862594,-3404.947333,2451.505594
1413.314316,10288.862594,-3478.967927,1302.362347
1413.314646,9474.636058,-4071.132681,1455.581446
1413.314975,9104.533087,-4441.235652,1225.752797
1413.315305,8956.491898,-5477.523971,1225.752797
1413.315635,8734.430116,-5107.421000,1072.533697
1413.315964,8216.285956,-5181.441594,536.266849
1413.316294,7698.141797,-5773.606348,1149.143247
1413.316623,8586.388927,-4367.215058,1225.752797
1413.316953,8882.471304,-4885.359217,842.705048
1413.317282,8734.430116,-5033.400406,1455.581446
1413.317612,8216.285956,-5699.585753,919.314598
1413.317941,7624.121203,-5477.523971,229.828649
1413.318271,8068.244768,-4885.359217,0.000000
1413.318600,8734.430116,-5477.523971,0.000000
1413.318930,9252.574275,-4737.318029,536.266849
1413.319260,9992.780217,-5255.462188,919.314598
1413.319589,10214.842000,-4293.194464,1149.143247
1413.319919,10140.821405,-3627.009116,995.924147
1413.320248,9844.739029,-3775.050304,995.924147
1413.320578,9474.636058,-3997.112087,1532.190996
1413.320907,9178.553681,-4219.173869,1302.362347
1413.321237,8956.491898,-3849.070898,1455.581446
1413.321566,8142.265362,-3552.988522,2145.067394
1413.321896,8956.491898,-4737.318029,1991.848295
1413.322226,9030.512492,-4219.173869,2298.286494
1413.322555,8882.471304,-4293.194464,1455.581446
1413.322885,8882.471304,-4071.132681,1455.581446
1413.323214,8808.450710,-3034.844362,1149.143247
1413.323544,8808.450710,-4219.173869,459.657299
1413.323873,8882.471304,-4219.173869,306.438199
1413.324203,9326.594869,-4589.276840,0.000000
1413.324532,9178.553681,-4737.318029,-459.657299
1413.324862,8808.450710,-5403.503377,0.000000
1413.325191,9030.512492,-6069.688724,306.438199
1413.325521,9030.512492,-5625.565159,1072.533697
1413.325851,8364.327145,-6143.709319,1302.362347
1413.326180,8290.306550,-5551.544565,1991.848295
1413.326510,8364.327145,-5181.441594,1915.238745
1413.326839,8734.430116,-3849.070898,1915.238745
1413.327169,8956.491898,-3552.988522,1762.019645
1413.327498,9178.553681,-3849.070898,2298.286494
1413.327828,9474.636058,-2516.700203,2451.505594
1413.328157,10066.800811,-2072.576638,1455.581446
1413.328487,9992.780217,-1332.370696,766.095498
1413.328816,10140.821405,-1184.329507,306.438199
1413.329146,10362.883188,-2960.823768,306.438199
1413.329476,10362.883188,-3775.050304,459.657299
1413.329805,9326.594869,-5403.503377,0.000000
1413.330135,8364.327145,-6587.832884,153.219100
1413.330464,7772.162391,-8142.265362,153.219100
1413.330794,6735.874072,-9326.594869,-306.438199
1413.331123,6291.750507,-9030.512492,306.438199
1413.331453,6143.709319,-8586.388927,536.266849
1413.331782,6809.894666,-7105.977043,459.657299
1413.332112,7328.038826,-5477.523971,1072.533697
1413.332441,8956.491898,-3552.988522,1838.629195
1413.332771,10362.883188,-1850.514855,1838.629195
1413.333101,10658.965565,-814.226536,2221.676944
1413.333430,10955.047942,148.041188,2221.676944
1413.333760,11547.212695,74.020594,1685.410096
1413.334089,11695.253884,222.061783,1378.971896
1413.334419,11843.295072,-444.123565,1072.533697
1413.334748,12435.459826,-1332.370696,1302.362347
1413.335078,11769.274478,-3330.926739,1608.800546
1413.335407,10584.944971,-5847.626942,1608.800546
1413.335737,8216.285956,-6883.915261,1455.581446
1413.336066,6143.709319,-7994.224174,0.000000
1413.336396,4737.318029,-9474.636058,-306.438199
1413.336726,4071.132681,-10140.821405,0.000000
1413.337055,4811.338623,-9178.553681,-229.828649
1413.337385,6291.750507,-7624.121203,0.000000
1413.337714,7550.100608,-6143.709319,1149.143247
1413.338044,9400.615463,-4441.235652,1455.581446
1413.338373,10436.903782,-3034.844362,1608.800546
1413.338703,10584.944971,-740.205942,1762.019645
1413.339032,10658.965565,0.000000,842.705048
1413.339362,11029.068536,0.000000,383.047749
1413.339691,11917.315666,-148.041188,1608.800546
1413.340021,13693.809927,-1480.411884,2221.676944
1413.340351,13545.768739,-2738.761985,2987.772442
1413.340680,12435.459826,-3256.906145,2451.505594
1413.341010,9770.718434,-5329.482782,2145.067394
1413.341339,7550.100608,-6587.832884,1685.410096
1413.341669,5773.606348,-6587.832884,0.000000
1413.341998,4293.194464,-7550.100608,-1149.143247
1413.342328,3997.112087,-8586.388927,-612.876398
1413.342657,5329.482782,-7402.059420,306.438199
1413.342987,7846.182985,-5033.400406,459.657299
1413.343316,9326.594869,-2960.823768,383.047749
1413.343646,10955.047942,-1998.556043,1455.581446
1413.343976,11991.336260,-1480.411884,1302.362347
1413.344305,11769.274478,-1184.329507,1149.143247
1413.344635,11251.130318,-2590.720797,1762.019645
1413.344964,10732.986159,-3404.947333,1378.971896
1413.345294,10362.883188,-5107.421000,1532.190996
1413.345623,8882.471304,-6439.791695,1378.971896
1413.345953,8142.265362,-8068.244768,1149.143247
1413.346282,7031.956449,-8290.306550,1455.581446
1413.346612,6957.935855,-7402.059420,995.924147
1413.346942,7179.997637,-3923.091493,0.000000
1413.347271,7624.121203,-2442.679609,-766.095498
1413.347601,8512.368333,-3701.029710,459.657299
1413.347930,9104.533087,-3330.926739,842.705048
1413.348260,9178.553681,-2590.720797,1302.362347
1413.348589,10066.800811,-518.144159,1149.143247
1413.348919,11177.109724,-1776.494261,1378.971896
1413.349248,11843.295072,-2442.679609,1991.848295
1413.349578,11325.150913,-4737.318029,1991.848295
1413.349907,10066.800811,-6957.935855,2451.505594
1413.350237,8808.450710,-5181.441594,919.314598
1413.350567,8068.244768,-5181.441594,-306.438199
1413.350896,6735.874072,-5033.400406,76.609550
1413.351226,6513.812290,-8956.491898,459.657299
1413.351555,6809.894666,-9474.636058,1225.752797
1413.351885,6587.832884,-6957.935855,1072.533697
1413.352214,5995.668130,-6217.729913,-459.657299
1413.352544,6365.771101,-4663.297435,0.000000
1413.352873,7772.162391,-5699.585753,459.657299
1413.353203,9474.636058,-6069.688724,1455.581446
1413.353532,9770.718434,-2442.679609,1838.629195
1413.353862,10362.883188,-1184.329507,1149.143247
1413.354192,11029.068536,-740.205942,1072.533697
1413.354521,10955.047942,-2590.720797,1532.190996
1413.354851,10584.944971,-4071.132681,1302.362347
1413.355180,9178.553681,-5329.482782,612.876398
1413.355510,7846.182985,-5181.441594,842.705048
1413.355839,9104.533087,-5773.606348,1762.019645
1413.356169,9696.697840,-5477.523971,1762.019645
1413.356498,8512.368333,-5403.503377,1455.581446
1413.356828,6587.832884,-5477.523971,0.000000
1413.357157,7402.059420,-4737.318029,689.485948
1413.357487,8956.491898,-5995.668130,1685.410096
1413.357817,7698.141797,-6661.853478,1608.800546
1413.358146,5403.503377,-6809.894666,383.047749
1413.358476,4071.132681,-6883.915261,-919.314598
1413.358805,4885.359217,-7772.162391,0.000000
1413.359135,7031.956449,-8660.409521,2221.676944
1413.359464,8290.306550,-6661.853478,1302.362347
1413.359794,8290.306550,-5107.421000,76.609550
1413.360123,7031.956449,-6661.853478,459.657299
1413.360455,7328.038826,-7846.182985,1149.143247
1413.360784,7476.080014,-7846.182985,1225.752797
1413.361114,7105.977043,-4959.379811,229.828649
1413.361443,6439.791695,-5847.626942,-536.266849
1413.361772,7624.121203,-6513.812290,1378.971896
1413.362102,8364.327145,-7698.141797,2451.505594
1413.362431,9030.512492,-4367.215058,2068.457845
1413.362761,9326.594869,-1924.535449,1455.581446
1413.363090,8882.471304,-3182.885551,1532.190996
1413.363419,7920.203579,-5551.544565,2298.286494
1413.363749,6365.771101,-5995.668130,1532.190996
1413.364078,5403.503377,-4071.132681,-766.095498
1413.364407,5625.565159,-5477.523971,0.000000
1413.364737,7698.141797,-7105.977043,2145.067394
1413.365066,9696.697840,-7846.182985,2987.772442
1413.365396,9696.697840,-4737.318029,1915.238745
1413.365725,8216.285956,-5699.585753,1455.581446
1413.366054,6735.874072,-7550.100608,1072.533697
1413.366384,5181.441594,-7920.203579,1455.581446
1413.366713,4737.318029,-8216.285956,536.266849
1413.367042,4959.379811,-6439.791695,306.438199
1413.367372,5551.544565,-6809.894666,459.657299
1413.367701,5625.565159,-7476.080014,1915.238745
1413.368031,6365.771101,-7402.059420,1915.238745
1413.368360,7402.059420,-7105.977043,2145.067394
1413.368689,7920.203579,-5625.565159,1225.752797
1413.369019,6143.709319,-7105.977043,1225.752797
1413.369348,4959.379811,-7105.977043,1149.143247
1413.369678,5551.544565,-6883.915261,612.876398
1413.370007,7550.100608,-6291.750507,1302.362347
1413.370336,9178.553681,-4589.276840,1991.848295
1413.370666,8808.450710,-6957.935855,2451.505594
1413.370995,8068.244768,-5921.647536,2145.067394
1413.371324,7476.080014,-6661.853478,919.314598
1413.371654,6365.771101,-6661.853478,612.876398
1413.371983,5477.523971,-6809.894666,689.485948
1413.372313,5551.544565,-7179.997637,612.876398
1413.372642,6439.791695,-5847.626942,612.876398
1413.372971,7105.977043,-6143.709319,689.485948
1413.373301,7994.224174,-5551.544565,1149.143247
1413.373630,8216.285956,-6069.688724,1838.629195
1413.373959,8512.368333,-7179.997637,1225.752797
1413.374289,7698.141797,-7624.121203,536.266849
1413.374618,6217.729913,-7920.203579,76.609550
1413.374948,5033.400406,-7550.100608,153.219100
1413.375277,6809.894666,-8512.368333,1072.533697
1413.375606,8216.285956,-7550.100608,1455.581446
1413.375936,8438.347739,-6439.791695,919.314598
1413.376265,7105.977043,-5773.606348,536.266849
1413.376594,6513.812290,-5403.503377,76.609550
1413.376924,6217.729913,-7550.100608,612.876398
1413.377253,5625.565159,-6661.853478,-229.828649
1413.377583,4737.318029,-6365.771101,0.000000
1413.377912,5773.606348,-6513.812290,536.266849
1413.378241,7179.997637,-6661.853478,1532.190996
1413.378571,8142.265362,-5625.565159,995.924147
1413.378900,7772.162391,-4737.318029,459.657299
1413.379230,8290.306550,-5699.585753,1302.362347
1413.379559,8882.471304,-7031.956449,1762.019645
1413.379888,7105.977043,-7772.162391,842.705048
1413.380218,4959.379811,-8290.306550,536.266849
1413.380547,5773.606348,-6069.688724,459.657299
1413.380876,7476.080014,-7920.203579,1225.752797
1413.381206,7994.224174,-6735.874072,2068.457845
1413.381535,7624.121203,-5625.565159,1302.362347
1413.381865,7105.977043,-5551.544565,153.219100
1413.382194,6809.894666,-4071.132681,76.609550
1413.382523,6143.709319,-6439.791695,536.266849
1413.382853,6513.812290,-6217.729913,306.438199
1413.383182,6069.688724,-5773.606348,0.000000
1413.383511,6957.935855,-6883.915261,689.485948
1413.383841,7402.059420,-5847.626942,1378.971896
1413.384170,8808.450710,-6587.832884,1762.019645
1413.384500,10214.842000,-6069.688724,2451.505594
1413.384829,9844.739029,-6513.812290,2451.505594
1413.385158,7328.038826,-7920.203579,1149.143247
1413.385488,4367.215058,-7920.203579,536.266849
1413.385817,3330.926739,-6809.894666,-612.876398
1413.386146,4737.318029,-7994.224174,612.876398
1413.386476,7179.997637,-7105.977043,2528.115143
1413.386805,8660.409521,-5847.626942,2451.505594
1413.387135,8290.306550,-4811.338623,1915.238745
1413.387464,6217.729913,-4959.379811,1072.533697
1413.387793,5995.668130,-5773.606348,766.095498
1413.388123,6143.709319,-5921.647536,76.609550
1413.388452,5477.523971,-5773.606348,153.219100
1413.388781,6365.771101,-7254.018232,766.095498
1413.389111,7179.997637,-7994.224174,1685.410096
1413.389440,8142.265362,-6217.729913,1608.800546
1413.389770,8660.409521,-7105.977043,1455.581446
1413.390099,8068.244768,-7328.038826,1762.019645
1413.390428,7105.977043,-8660.409521,1685.410096
1413.390758,4737.318029,-8290.306550,306.438199
1413.391087,3256.906145,-7920.203579,153.219100
1413.391417,4811.338623,-6883.915261,0.000000
1413.391746,7328.038826,-7179.997637,1378.971896
1413.392075,8438.347739,-6069.688724,1991.848295
1413.392405,8142.265362,-4071.132681,1762.019645
1413.392734,9030.512492,-3478.967927,1149.143247
1413.393063,8438.347739,-4737.318029,1072.533697
1413.393393,7105.977043,-5625.565159,612.876398
1413.393722,5995.668130,-6735.874072,459.657299
1413.394052,6439.791695,-7105.977043,459.657299
1413.394381,6957.935855,-8660.409521,1532.190996
1413.394710,7254.018232,-7624.121203,1378.971896
1413.395040,7846.182985,-5995.668130,1685.410096
1413.395369,8142.265362,-6439.791695,1532.190996
1413.395698,7254.018232,-7624.121203,1302.362347
1413.396028,5625.565159,-7179.997637,689.485948
1413.396357,3404.947333,-7476.080014,-995.924147
1413.396687,3478.967927,-7105.977043,-229.828649
1413.397016,6217.729913,-7179.997637,1149.143247
1413.397345,8808.450710,-5921.647536,2451.505594
1413.397675,9474.636058,-5625.565159,1838.629195
1413.398004,9030.512492,-4589.276840,1608.800546
1413.398333,7920.203579,-4737.318029,612.876398
1413.398663,6957.935855,-5625.565159,153.219100
1413.398992,5995.668130,-5847.626942,306.438199
1413.399322,6661.853478,-5773.606348,76.609550
1413.399651,7698.141797,-7328.038826,1378.971896
1413.399980,8068.244768,-7254.018232,2145.067394
1413.400310,8068.244768,-6365.771101,2528.115143
1413.400639,7846.182985,-6069.688724,1455.581446
1413.400968,7179.997637,-6513.812290,1149.143247
1413.401298,5921.647536,-7550.100608,1302.362347
1413.401627,4515.256246,-7328.038826,0.000000
1413.401957,4145.153275,-6809.894666,766.095498
1413.402286,5033.400406,-6809.894666,536.266849
1413.402615,7179.997637,-5847.626942,1149.143247
1413.402945,7328.038826,-6735.874072,1149.143247
1413.403274,8290.306550,-5107.421000,1455.581446
1413.403604,8290.306550,-5625.565159,612.876398
1413.403933,7994.224174,-6513.812290,995.924147
1413.404262,7179.997637,-5551.544565,383.047749
1413.404592,6587.832884,-6661.853478,306.438199
1413.404921,6217.729913,-7179.997637,-612.876398
1413.405250,6217.729913,-8290.306550,995.924147
1413.405580,6957.935855,-7994.224174,536.266849
1413.405909,7105.977043,-7328.038826,1532.190996
1413.406239,7476.080014,-7476.080014,1455.581446
1413.406568,7179.997637,-7105.977043,1072.533697
1413.406897,5551.544565,-7328.038826,0.000000
1413.407227,4663.297435,-7105.977043,0.000000
1413.407556,4885.359217,-6957.935855,536.266849
1413.407885,5995.668130,-6217.729913,536.266849
1413.408215,7105.977043,-6069.688724,1072.533697
1413.408544,8290.306550,-5477.523971,2145.067394
1413.408874,9030.512492,-4515.256246,1532.190996
1413.409203,8438.347739,-5551.544565,2451.505594
1413.409532,8586.388927,-4737.318029,2451.505594
1413.409862,7328.038826,-4737.318029,612.876398
1413.410191,6439.791695,-6439.791695,459.657299
1413.410520,6365.771101,-7624.121203,1072.533697
1413.410850,7476.080014,-7920.203579,1378.971896
1413.411179,8216.285956,-7476.080014,1378.971896
1413.411509,7550.100608,-5995.668130,1532.190996
1413.411838,7550.100608,-6957.935855,1455.581446
1413.412167,7105.977043,-6661.853478,612.876398
1413.412497,5551.544565,-7698.141797,76.609550
1413.412826,4441.235652,-7105.977043,-229.828649
1413.413155,5921.647536,-6587.832884,229.828649
1413.413485,7698.141797,-7031.956449,1378.971896
1413.413814,7698.141797,-5699.585753,1149.143247
1413.414144,7698.141797,-5107.421000,995.924147
1413.414473,8438.347739,-5033.400406,1225.752797
1413.414802,8142.265362,-6217.729913,1608.800546
1413.415132,7550.100608,-5847.626942,1532.190996
1413.415461,7105.977043,-5699.585753,689.485948
1413.415791,6365.771101,-6143.709319,689.485948
1413.416120,6365.771101,-7846.182985,1302.362347
1413.416449,6883.915261,-7698.141797,1455.581446
1413.416779,7920.203579,-5625.565159,1302.362347
1413.417108,8216.285956,-6735.874072,2145.067394
1413.417437,7328.038826,-7254.018232,1225.752797
1413.417767,4811.338623,-7846.182985,383.047749
1413.418096,3330.926739,-6957.935855,-995.924147
1413.418426,4071.132681,-7920.203579,0.000000
1413.418755,6957.935855,-7179.997637,2068.457845
1413.419084,8364.327145,-6735.874072,1762.019645
1413.419414,8512.368333,-5773.606348,1762.019645
1413.419743,8660.409521,-5477.523971,1762.019645
1413.420072,9178.553681,-5625.565159,1532.190996
1413.420402,7550.100608,-6587.832884,689.485948
1413.420731,5847.626942,-6513.812290,766.095498
1413.421061,6587.832884,-6587.832884,229.828649
1413.421390,7254.018232,-6957.935855,689.485948
1413.421719,7254.018232,-7698.141797,2528.115143
1413.422049,7994.224174,-5773.606348,1302.362347
1413.422378,7772.162391,-5847.626942,1455.581446
1413.422707,6883.915261,-6735.874072,919.314598
1413.423037,5255.462188,-7402.059420,76.609550
1413.423366,3775.050304,-8438.347739,-383.047749
1413.423696,3182.885551,-8512.368333,-229.828649
1413.424025,4959.379811,-8438.347739,612.876398
1413.424354,7476.080014,-7105.977043,2068.457845
1413.424684,9104.533087,-5477.523971,1838.629195
1413.425013,9844.739029,-5329.482782,2528.115143
1413.425342,9326.594869,-4885.359217,2451.505594
1413.425672,8586.388927,-5403.503377,1378.971896
1413.426001,6809.894666,-4441.235652,1225.752797
1413.426331,6883.915261,-4367.215058,76.609550
1413.426660,7105.977043,-5921.647536,919.314598
1413.426989,7994.224174,-6217.729913,2298.286494
1413.427319,7550.100608,-6143.709319,1455.581446
1413.427648,7402.059420,-5329.482782,995.924147
1413.427978,6143.709319,-7031.956449,1378.971896
1413.428307,5403.503377,-8290.306550,306.438199
1413.428636,4293.194464,-8364.327145,0.000000
1413.428966,3478.967927,-8882.471304,-536.266849
1413.429295,4663.297435,-7920.203579,383.047749
1413.429624,7105.977043,-8734.430116,1915.238745
1413.429954,8660.409521,-6809.894666,1915.238745
1413.430283,8586.388927,-5107.421000,1762.019645
1413.430613,9400.615463,-5921.647536,2604.724693
1413.430942,8660.409521,-5181.441594,1762.019645
1413.431271,6661.853478,-5699.585753,536.266849
1413.431601,5329.482782,-5329.482782,0.000000
1413.431930,6661.853478,-5403.503377,306.438199
1413.432259,7328.038826,-7476.080014,919.314598
1413.432589,7105.977043,-8068.244768,1991.848295
1413.432918,6883.915261,-7105.977043,2068.457845
1413.433248,7031.956449,-7476.080014,536.266849
1413.433577,5847.626942,-7105.977043,1225.752797
1413.433906,5107.421000,-8734.430116,459.657299
1413.434236,5107.421000,-8290.306550,0.000000
1413.434565,5625.565159,-7402.059420,153.219100
1413.434894,6883.915261,-8216.285956,1378.971896
1413.435224,7846.182985,-5477.523971,1608.800546
1413.435553,8438.347739,-5329.482782,1455.581446
1413.435883,8512.368333,-4737.318029,1225.752797
1413.436212,8142.265362,-5033.400406,1149.143247
1413.436541,8290.306550,-5329.482782,1532.190996
1413.436871,7550.100608,-4293.194464,1608.800546
1413.437200,7105.977043,-5329.482782,1532.190996
1413.437529,6809.894666,-6069.688724,1072.533697
1413.437859,6143.709319,-6587.832884,766.095498
1413.438188,6365.771101,-6069.688724,766.095498
1413.438518,7476.080014,-6143.709319,1838.629195
1413.438847,8290.306550,-7179.997637,2451.505594
1413.439176,7179.997637,-7105.977043,1762.019645
1413.439506,5403.503377,-6735.874072,459.657299
1413.439835,4219.173869,-6735.874072,0.000000
1413.440165,4959.379811,-7920.203579,383.047749
1413.440494,6735.874072,-8068.244768,1225.752797
1413.440823,7920.203579,-5847.626942,1455.581446
1413.441153,8734.430116,-4737.318029,995.924147
1413.441482,8956.491898,-5329.482782,1149.143247
1413.441811,8734.430116,-5329.482782,1608.800546
1413.442141,7994.224174,-5107.421000,536.266849
1413.442470,6365.771101,-5699.585753,0.000000
1413.442800,5847.626942,-6661.853478,459.657299
1413.443129,6809.894666,-7476.080014,842.705048
1413.443458,7476.080014,-7402.059420,1455.581446
1413.443788,7920.203579,-7402.059420,1762.019645
1413.444117,8290.306550,-6957.935855,2145.067394
1413.444446,7328.038826,-7550.100608,1685.410096
1413.444776,4959.379811,-7402.059420,536.266849
1413.445105,3552.988522,-7254.018232,-766.095498
1413.445435,3997.112087,-8216.285956,-536.266849
1413.445764,6291.750507,-8364.327145,919.314598
1413.446093,7476.080014,-6587.832884,1532.190996
1413.446423,7476.080014,-6069.688724,1378.971896
1413.446752,8068.244768,-5551.544565,1302.362347
1413.447081,7772.162391,-5773.606348,919.314598
1413.447411,7105.977043,-6883.915261,689.485948
1413.447740,6069.688724,-6513.812290,76.609550
1413.448070,6217.729913,-6587.832884,306.438199
1413.448399,7105.977043,-6809.894666,1149.143247
1413.448728,8142.265362,-6217.729913,2298.286494
1413.449058,9326.594869,-6217.729913,2451.505594
1413.449387,8882.471304,-6069.688724,2221.676944
1413.449716,8290.306550,-5995.668130,1378.971896
1413.450046,6883.915261,-6661.853478,995.924147
1413.450375,4811.338623,-7105.977043,383.047749
1413.450705,4737.318029,-7105.977043,0.000000
1413.451034,5477.523971,-7031.956449,153.219100
1413.451363,6217.729913,-5995.668130,1072.533697
1413.451693,7328.038826,-5699.585753,1149.143247
1413.452022,8586.388927,-4515.256246,1455.581446
1413.452352,9030.512492,-4737.318029,1838.629195
1413.452681,8956.491898,-5181.441594,1378.971896
1413.453010,7254.018232,-5255.462188,995.924147
1413.453340,5847.626942,-5255.462188,76.609550
1413.453669,7031.956449,-6587.832884,689.485948
1413.453998,8290.306550,-6513.812290,2451.505594
1413.454328,8512.368333,-6439.791695,1915.238745
1413.454657,7920.203579,-6217.729913,1991.848295
1413.454987,7994.224174,-6661.853478,1225.752797
1413.455316,7550.100608,-8290.306550,1838.629195
1413.455645,5255.462188,-7105.977043,689.485948
1413.455975,3552.988522,-7328.038826,-306.438199
1413.456304,4515.256246,-8512.368333,0.000000
1413.456633,5403.503377,-7920.203579,612.876398
1413.456963,6291.750507,-7698.141797,919.314598
1413.457292,6957.935855,-5033.400406,383.047749
1413.457622,7772.162391,-5181.441594,383.047749
1413.457951,7698.141797,-6439.791695,1302.362347
1413.458280,6291.750507,-7550.100608,919.314598
1413.458610,5773.606348,-6809.894666,306.438199
1413.458939,7105.977043,-6365.771101,459.657299
1413.459268,8438.347739,-6957.935855,2834.553343
1413.459597,8882.471304,-6587.832884,2298.286494
1413.459927,9104.533087,-6513.812290,1991.848295
1413.460256,7846.182985,-6143.709319,1915.238745
1413.460585,7105.977043,-7105.977043,1378.971896
1413.460914,5255.462188,-7846.182985,536.266849
1413.461243,4071.132681,-7105.977043,0.000000
1413.461573,3849.070898,-8364.327145,-76.609550
1413.461902,4959.379811,-8438.347739,689.485948
1413.462231,6439.791695,-7105.977043,1608.800546
1413.462560,7402.059420,-5921.647536,842.705048
1413.462889,7624.121203,-4515.256246,842.705048
1413.463219,7772.162391,-5995.668130,995.924147
1413.463548,8290.306550,-5995.668130,919.314598
1413.463877,7698.141797,-5625.565159,842.705048
1413.464206,7179.997637,-5551.544565,766.095498
1413.464535,8734.430116,-6069.688724,1608.800546
1413.464865,9104.533087,-5921.647536,1225.752797
1413.465194,8290.306550,-5403.503377,1685.410096
1413.465523,8142.265362,-5847.626942,2221.676944
1413.465852,8734.430116,-6069.688724,2145.067394
1413.466181,7550.100608,-5477.523971,1302.362347
1413.466511,5107.421000,-7031.956449,766.095498
1413.466840,4145.153275,-6365.771101,-76.609550
1413.467169,4737.318029,-6957.935855,-612.876398
1413.467498,6069.688724,-8216.285956,1225.752797
1413.467827,7476.080014,-6217.729913,1685.410096
1413.468157,8216.285956,-4589.276840,1455.581446
1413.468486,8216.285956,-5847.626942,766.095498
1413.468815,7846.182985,-5625.565159,1608.800546
1413.469144,7476.080014,-5625.565159,612.876398
1413.469473,5847.626942,-6587.832884,0.000000
1413.469803,6513.812290,-6365.771101,612.876398
1413.470132,7994.224174,-8142.265362,2221.676944
1413.470461,8512.368333,-7105.977043,1608.800546
1413.470790,7254.018232,-6587.832884,1302.362347
1413.471119,7254.018232,-6513.812290,1072.533697
1413.471449,7254.018232,-6883.915261,383.047749
1413.471778,5551.544565,-8142.265362,612.876398
1413.472107,3923.091493,-8142.265362,-306.438199
1413.472436,4293.194464,-8882.471304,0.000000
1413.472765,5329.482782,-9400.615463,919.314598
1413.473095,6217.729913,-7624.121203,1532.190996
1413.473424,6513.812290,-7105.977043,459.657299
1413.473753,7402.059420,-5477.523971,919.314598
1413.474082,7846.182985,-6217.729913,459.657299
1413.474411,7772.162391,-6439.791695,1378.971896
1413.474741,7105.977043,-6365.771101,919.314598
1413.475070,7105.977043,-6217.729913,1225.752797
1413.475399,7402.059420,-6957.935855,1762.019645
1413.475728,7994.224174,-7105.977043,1532.190996
1413.476057,7920.203579,-4663.297435,1455.581446
1413.476387,8290.306550,-5033.400406,1455.581446
1413.476716,8290.306550,-5329.482782,1762.019645
1413.477045,7105.977043,-6365.771101,1608.800546
1413.477374,5477.523971,-6365.771101,229.828649
1413.477703,5107.421000,-6217.729913,459.657299
1413.478032,5625.565159,-7476.080014,1455.581446
1413.478362,8068.244768,-6735.874072,1915.238745
1413.478691,8364.327145,-5773.606348,1149.143247
1413.479020,8068.244768,-5181.441594,1991.848295
1413.479349,8586.388927,-5255.462188,1302.362347
1413.479678,8142.265362,-5699.585753,1302.362347
1413.480008,6439.791695,-6217.729913,612.876398
1413.480337,5625.565159,-5699.585753,76.609550
1413.480666,6957.935855,-5847.626942,1072.533697
1413.480995,8290.306550,-6587.832884,1532.190996
1413.481324,8068.244768,-5625.565159,2145.067394
1413.481654,7846.182985,-4219.173869,1838.629195
1413.481983,7624.121203,-4737.318029,919.314598
1413.482312,6735.874072,-6809.894666,1532.190996
1413.482641,5181.441594,-7698.141797,842.705048
1413.482970,4293.194464,-8734.430116,76.609550
1413.483300,4441.235652,-9030.512492,306.438199
1413.483629,5477.523971,-9400.615463,1838.629195
1413.483958,6513.812290,-7846.182985,1225.752797
1413.484287,7328.038826,-6883.915261,1378.971896
1413.484616,7179.997637,-6957.935855,766.095498
1413.484946,7105.977043,-6883.915261,766.095498
1413.485275,6735.874072,-7254.018232,536.266849
1413.485604,5773.606348,-6365.771101,-383.047749
1413.485933,5773.606348,-6291.750507,0.000000
1413.486262,6957.935855,-7105.977043,1302.362347
1413.486592,8142.265362,-6439.791695,2145.067394
1413.486921,8660.409521,-3849.070898,1762.019645
1413.487250,8882.471304,-5181.441594,1302.362347
1413.487579,8512.368333,-7179.997637,1991.848295
1413.487908,6735.874072,-8808.450710,1838.629195
1413.488238,3849.070898,-8290.306550,0.000000
1413.488567,3701.029710,-8290.306550,153.219100
1413.488896,5255.462188,-8660.409521,1378.971896
1413.489225,7179.997637,-7920.203579,1608.800546
1413.489554,8142.265362,-6291.750507,1915.238745
1413.489884,7846.182985,-4885.359217,1302.362347
1413.490213,7476.080014,-4811.338623,995.924147
1413.490542,7105.977043,-5107.421000,1302.362347
1413.490871,6809.894666,-4589.276840,842.705048
1413.491200,7105.977043,-5329.482782,153.219100
1413.491530,6883.915261,-6217.729913,1225.752797
1413.491859,7772.162391,-6661.853478,1838.629195
1413.492188,8438.347739,-5995.668130,1455.581446
1413.492517,9474.636058,-4811.338623,2298.286494
1413.492846,10214.842000,-5921.647536,1991.848295
1413.493176,9104.533087,-6439.791695,2145.067394
1413.493505,6439.791695,-7031.956449,1225.752797
1413.493834,5033.400406,-7254.018232,0.000000
1413.494163,4515.256246,-7179.997637,153.219100
1413.494492,5403.503377,-7846.182985,459.657299
1413.494822,6513.812290,-6809.894666,766.095498
1413.495151,6809.894666,-5551.544565,689.485948
1413.495480,7698.141797,-5773.606348,919.314598
1413.495809,8068.244768,-5625.565159,1378.971896
1413.496138,7105.977043,-5847.626942,689.485948
1413.496468,5403.503377,-5625.565159,-612.876398
1413.496797,5699.585753,-7846.182985,76.609550
1413.497126,7624.121203,-7402.059420,1915.238745
1413.497455,9030.512492,-7254.018232,1762.019645
1413.497784,8512.368333,-6587.832884,1762.019645
1413.498113,8586.388927,-5847.626942,1608.800546
1413.498443,7846.182985,-7179.997637,1302.362347
1413.498772,6217.729913,-7179.997637,459.657299
1413.499101,3997.112087,-7328.038826,-383.047749
1413.499430,4219.173869,-8142.265362,-306.438199
1413.499759,5181.441594,-8660.409521,229.828649
1413.500089,5921.647536,-7550.100608,995.924147
1413.500418,7624.121203,-6217.729913,919.314598
1413.500747,8142.265362,-5773.606348,995.924147
1413.501076,8290.306550,-6439.791695,1149.143247
1413.501405,7254.018232,-6587.832884,995.924147
1413.501735,6957.935855,-6513.812290,153.219100
1413.502064,6143.709319,-6809.894666,-383.047749
1413.502393,6883.915261,-7402.059420,919.314598
1413.502722,8068.244768,-7031.956449,1378.971896
1413.503051,8956.491898,-6513.812290,2374.896044
1413.503381,9030.512492,-6291.750507,2757.943793
1413.503710,8808.450710,-4885.359217,1991.848295
1413.504039,6735.874072,-6365.771101,842.705048
1413.504368,4145.153275,-5921.647536,306.438199
1413.504697,3552.988522,-7328.038826,306.438199
1413.505027,4663.297435,-6809.894666,306.438199
1413.505356,6957.935855,-7031.956449,1991.848295
1413.505685,8290.306550,-5921.647536,2451.505594
1413.506014,9918.759623,-4071.132681,1915.238745
1413.506343,9474.636058,-4663.297435,1685.410096
1413.506673,7994.224174,-5329.482782,1455.581446
1413.507002,6439.791695,-5699.585753,0.000000
1413.507331,5107.421000,-6069.688724,153.219100
1413.507660,6587.832884,-6957.935855,383.047749
1413.507989,8142.265362,-7698.141797,1762.019645
1413.508319,8290.306550,-7179.997637,1915.238745
1413.508648,8364.327145,-5773.606348,1532.190996
1413.508977,7105.977043,-5921.647536,1685.410096
1413.509306,6809.894666,-6217.729913,1378.971896
1413.509635,4811.338623,-6439.791695,0.000000
1413.509965,3034.844362,-7105.977043,-229.828649
1413.510294,4071.132681,-7772.162391,-459.657299
1413.510623,6439.791695,-8142.265362,1455.581446
1413.510952,8364.327145,-7402.059420,3294.210641
1413.511281,9696.697840,-4885.359217,2145.067394
1413.511611,9030.512492,-5033.400406,1915.238745
1413.511940,7402.059420,-5995.668130,1149.143247
1413.512269,5921.647536,-6661.853478,306.438199
1413.512598,4367.215058,-7031.956449,-306.438199
1413.512927,4737.318029,-7550.100608,0.000000
1413.513257,6513.812290,-8660.409521,1225.752797
1413.513586,6883.915261,-7846.182985,2068.457845
1413.513915,7402.059420,-7550.100608,1532.190996
1413.514244,7476.080014,-6809.894666,1532.190996
1413.514573,7698.141797,-6439.791695,1608.800546
1413.514903,6661.853478,-6809.894666,306.438199
1413.515232,4441.235652,-6661.853478,0.000000
1413.515561,4515.256246,-7550.100608,-459.657299
1413.515890,6587.832884,-7624.121203,919.314598
1413.516219,8068.244768,-7624.121203,2374.896044
1413.516549,9104.533087,-5847.626942,2221.676944
1413.516878,9104.533087,-4441.235652,1915.238745
1413.517207,8586.388927,-4737.318029,995.924147
1413.517536,7624.121203,-5921.647536,1455.581446
1413.517865,6069.688724,-6439.791695,612.876398
1413.518194,5329.482782,-5255.462188,229.828649
1413.518524,5551.544565,-7031.956449,0.000000
1413.518853,6069.688724,-7772.162391,1838.629195
1413.519182,7402.059420,-6883.915261,2068.457845
1413.519511,7846.182985,-6735.874072,1915.238745
1413.519840,7846.182985,-4811.338623,2298.286494
1413.520170,7994.224174,-5699.585753,2145.067394
1413.520499,6809.894666,-5995.668130,689.485948
1413.520828,4737.318029,-5921.647536,306.438199
1413.521157,5329.482782,-6957.935855,766.095498
1413.521486,7846.182985,-6143.709319,1302.362347
1413.521816,9178.553681,-6217.729913,1915.238745
1413.522145,8882.471304,-5255.462188,1762.019645
1413.522474,8290.306550,-5773.606348,842.705048
1413.522803,7920.203579,-7402.059420,1225.752797
1413.523132,5255.462188,-6365.771101,-306.438199
1413.523462,4885.359217,-5921.647536,-612.876398
1413.523791,5477.523971,-7624.121203,0.000000
1413.524120,6291.750507,-8586.388927,995.924147
1413.524449,6957.935855,-7550.100608,459.657299
1413.524778,6735.874072,-6439.791695,842.705048
1413.525108,7994.224174,-5921.647536,842.705048
1413.525437,9252.574275,-6883.915261,1991.848295
1413.525766,7920.203579,-6661.853478,1608.800546
1413.526095,5995.668130,-6143.709319,689.485948
1413.526424,5329.482782,-7105.977043,0.000000
1413.526754,6291.750507,-7846.182985,995.924147
1413.527083,8068.244768,-7031.956449,1838.629195
1413.527412,8956.491898,-5255.462188,1608.800546
1413.527741,8290.306550,-5403.503377,842.705048
1413.528070,7254.018232,-6143.709319,919.314598
1413.528400,6439.791695,-6069.688724,689.485948
1413.528729,5995.668130,-6291.750507,-459.657299
1413.529058,5551.544565,-6217.729913,229.828649
1413.529387,5403.503377,-7402.059420,76.609550
1413.529716,6661.853478,-8734.430116,842.705048
1413.530046,7402.059420,-7402.059420,1608.800546
1413.530375,8512.368333,-6217.729913,1685.410096
1413.530704,8808.450710,-5625.565159,1762.019645
1413.531033,8216.285956,-6069.688724,1838.629195
1413.531362,6365.771101,-6957.935855,229.828649
1413.531692,5033.400406,-7031.956449,76.609550
1413.532021,5921.647536,-7476.080014,1149.143247
1413.532350,7994.224174,-6217.729913,1608.800546
1413.532679,8660.409521,-5847.626942,1762.019645
1413.533008,8142.265362,-4663.297435,1991.848295
1413.533338,7920.203579,-3997.112087,919.314598
1413.533667,7402.059420,-5255.462188,995.924147
1413.533996,6217.729913,-5477.523971,383.047749
1413.534325,5625.565159,-6439.791695,76.609550
1413.534654,5921.647536,-7179.997637,383.047749
1413.534984,6143.709319,-8216.285956,919.314598
1413.535313,6735.874072,-8660.409521,1762.019645
1413.535642,7772.162391,-6513.812290,1685.410096
1413.535971,8364.327145,-6365.771101,1915.238745
1413.536300,7772.162391,-7402.059420,1915.238745
1413.536630,6587.832884,-7402.059420,919.314598
1413.536959,4737.318029,-7179.997637,-689.485948
1413.537288,4737.318029,-7476.080014,306.438199
1413.537617,6513.812290,-6957.935855,1455.581446
1413.537946,8438.347739,-7105.977043,2451.505594
1413.538275,8216.285956,-5107.421000,1455.581446
1413.538605,6735.874072,-5255.462188,689.485948
1413.538934,6513.812290,-6291.750507,842.705048
1413.539263,6513.812290,-5921.647536,536.266849
1413.539592,6217.729913,-5773.606348,229.828649
1413.539921,6809.894666,-6069.688724,459.657299
1413.540251,7328.038826,-7476.080014,1532.190996
1413.540580,8142.265362,-8068.244768,2374.896044
1413.540909,7846.182985,-6439.791695,1838.629195
1413.541238,7698.141797,-5921.647536,1991.848295
1413.541567,7179.997637,-7031.956449,1685.410096
1413.541897,5847.626942,-7698.141797,1225.752797
1413.542226,3923.091493,-7772.162391,306.438199
1413.542555,4071.132681,-7179.997637,-612.876398
1413.542884,5403.503377,-7179.997637,689.485948
1413.543213,7105.977043,-7550.100608,1915.238745
1413.543543,8216.285956,-6735.874072,2221.676944
1413.543872,8216.285956,-4219.173869,1302.362347
1413.544201,8364.327145,-4737.318029,1302.362347
1413.544530,7698.141797,-5329.482782,842.705048
1413.544859,6735.874072,-5403.503377,842.705048
1413.545189,6587.832884,-6661.853478,306.438199
1413.545518,7402.059420,-6735.874072,995.924147
1413.545847,7920.203579,-6809.894666,2068.457845
1413.546176,8364.327145,-6661.853478,1838.629195
1413.546505,8660.409521,-5921.647536,2145.067394
1413.546835,8290.306550,-5847.626942,2068.457845
1413.547164,7994.224174,-6069.688724,919.314598
1413.547493,4959.379811,-6809.894666,459.657299
1413.547822,3256.906145,-7476.080014,0.000000
1413.548151,3478.967927,-8216.285956,-383.047749
1413.548481,5477.523971,-7772.162391,919.314598
1413.548810,7105.977043,-7402.059420,1225.752797
1413.549139,8438.347739,-5329.482782,1991.848295
1413.549468,9104.533087,-5329.482782,1915.238745
1413.549797,9326.594869,-5403.503377,1991.848295
1413.550127,8438.347739,-4737.318029,536.266849
1413.550456,6957.935855,-5625.565159,459.657299
1413.550785,6809.894666,-6217.729913,0.000000
1413.551114,7105.977043,-7994.224174,1225.752797
1413.551443,8068.244768,-7846.182985,1762.019645
1413.551773,7772.162391,-7846.182985,1378.971896
1413.552102,7179.997637,-7476.080014,1302.362347
1413.552431,6735.874072,-8068.244768,459.657299
1413.552760,5033.400406,-8142.265362,0.000000
1413.553089,3997.112087,-8364.327145,-383.047749
1413.553419,4663.297435,-8290.306550,0.000000
1413.553748,5773.606348,-8734.430116,536.266849
1413.554077,7031.956449,-7550.100608,1455.581446
1413.554406,7698.141797,-5847.626942,689.485948
1413.554735,8586.388927,-3997.112087,536.266849
1413.555065,9252.574275,-4219.173869,1072.533697
1413.555394,9178.553681,-4293.194464,1608.800546
1413.555723,8290.306550,-4737.318029,1149.143247
1413.556052,7772.162391,-4145.153275,1149.143247
1413.556381,7624.121203,-5921.647536,1072.533697
1413.556711,7698.141797,-7550.100608,1762.019645
1413.557040,7105.977043,-6439.791695,2068.457845
1413.557369,7105.977043,-6661.853478,1225.752797
1413.557698,7328.038826,-6439.791695,1915.238745
1413.558027,6365.771101,-7698.141797,766.095498
1413.558356,4811.338623,-7402.059420,76.609550
1413.558686,3997.112087,-7105.977043,-383.047749
1413.559015,5181.441594,-7402.059420,689.485948
1413.559344,6809.894666,-6587.832884,995.924147
1413.559673,7476.080014,-6439.791695,1225.752797
1413.560002,8364.327145,-4737.318029,842.705048
1413.560332,8882.471304,-4219.173869,1149.143247
1413.560661,9326.594869,-4959.379811,1455.581446
1413.560990,8216.285956,-5995.668130,1608.800546
1413.561319,7402.059420,-6143.709319,1302.362347
1413.561649,7105.977043,-6143.709319,1149.143247
1413.561978,7031.956449,-7624.121203,1455.581446
1413.562307,7105.977043,-7328.038826,1762.019645
1413.562636,7179.997637,-6735.874072,1378.971896
1413.562966,7031.956449,-6291.750507,1072.533697
1413.563295,6365.771101,-7994.224174,1302.362347
1413.563624,4959.379811,-8216.285956,842.705048
1413.563953,4367.215058,-7920.203579,-995.924147
1413.564283,4441.235652,-7920.203579,0.000000
1413.564612,6365.771101,-7254.018232,766.095498
1413.564941,7476.080014,-7254.018232,2221.676944
1413.565270,8142.265362,-5329.482782,2145.067394
1413.565600,8216.285956,-4737.318029,919.314598
1413.565929,7994.224174,-4737.318029,1225.752797
1413.566258,8142.265362,-5477.523971,1072.533697
1413.566587,7328.038826,-6439.791695,1149.143247
1413.566917,6661.853478,-6217.729913,1991.848295
1413.567246,6957.935855,-7105.977043,1149.143247
1413.567575,7550.100608,-7254.018232,2068.457845
1413.567904,7328.038826,-5995.668130,1455.581446
1413.568234,7550.100608,-6217.729913,1302.362347
1413.568563,7105.977043,-7105.977043,1455.581446
1413.568892,6069.688724,-8364.327145,1455.581446
1413.569221,4367.215058,-8142.265362,229.828649
1413.569551,3256.906145,-7994.224174,-383.047749
1413.569880,4515.256246,-8364.327145,-306.438199
1413.570209,6217.729913,-7698.141797,383.047749
1413.570538,7624.121203,-6883.915261,2145.067394
1413.570868,8438.347739,-4811.338623,1915.238745
1413.571197,8882.471304,-4737.318029,1685.410096
1413.571526,8438.347739,-3923.091493,1302.362347
1413.571855,6883.915261,-5477.523971,612.876398
1413.572185,6587.832884,-5921.647536,689.485948
1413.572514,7105.977043,-5995.668130,1532.190996
1413.572843,7846.182985,-7476.080014,2145.067394
1413.573172,8142.265362,-5625.565159,2298.286494
1413.573502,7698.141797,-5995.668130,1378.971896
1413.573831,8216.285956,-6587.832884,1225.752797
1413.574160,7624.121203,-5995.668130,1762.019645
1413.574489,5921.647536,-8216.285956,153.219100
1413.574819,4885.359217,-5773.606348,-612.876398
1413.575148,4811.338623,-7328.038826,0.000000
1413.575477,5921.647536,-9104.533087,459.657299
1413.575806,6661.853478,-7031.956449,1302.362347
1413.576136,7402.059420,-6439.791695,1225.752797
1413.576465,8290.306550,-4737.318029,919.314598
1413.576794,8290.306550,-5551.544565,842.705048
1413.577123,7698.141797,-5995.668130,1072.533697
1413.577453,7031.956449,-5107.421000,229.828649
1413.577782,6661.853478,-7179.997637,383.047749
1413.578111,7328.038826,-7179.997637,1378.971896
1413.578440,8142.265362,-7105.977043,1838.629195
1413.578770,8364.327145,-6217.729913,2145.067394
1413.579099,8290.306550,-5773.606348,1225.752797
1413.579428,7328.038826,-7772.162391,1762.019645
1413.579757,6143.709319,-7476.080014,1302.362347
1413.580087,4515.256246,-7402.059420,0.000000
1413.580416,3923.091493,-6809.894666,-536.266849
1413.580745,4737.318029,-7920.203579,76.609550
1413.581074,6661.853478,-7772.162391,919.314598
1413.581404,8142.265362,-6661.853478,1608.800546
1413.581733,8882.471304,-4885.359217,1225.752797
1413.582062,9474.636058,-3775.050304,1149.143247
1413.582391,8512.368333,-5033.400406,766.095498
1413.582721,7402.059420,-5329.482782,536.266849
1413.583050,6439.791695,-5995.668130,0.000000
1413.583379,7031.956449,-5921.647536,76.609550
1413.583708,8586.388927,-7254.018232,1838.629195
1413.584038,8586.388927,-6587.832884,2221.676944
1413.584367,7624.121203,-6661.853478,1685.410096
1413.584696,6735.874072,-6883.915261,1378.971896
1413.585025,5995.668130,-6661.853478,689.485948
1413.585355,4737.318029,-7772.162391,995.924147
1413.585684,4663.297435,-7476.080014,0.000000
1413.586013,4959.379811,-7254.018232,383.047749
1413.586342,5847.626942,-8660.409521,1608.800546
1413.586672,6069.688724,-7105.977043,919.314598
1413.587001,7031.956449,-5403.503377,1072.533697
1413.587330,7920.203579,-5033.400406,1378.971896
1413.587659,8586.388927,-5329.482782,1378.971896
1413.587989,8734.430116,-5329.482782,1455.581446
1413.588318,7179.997637,-4737.318029,459.657299
1413.588647,7254.018232,-5625.565159,766.095498
1413.588976,8216.285956,-5403.503377,1378.971896
1413.589306,8512.368333,-6217.729913,1991.848295
1413.589635,8808.450710,-6661.853478,2604.724693
1413.589964,8808.450710,-5773.606348,2298.286494
1413.590293,7846.182985,-7179.997637,1455.581446
1413.590623,5625.565159,-7550.100608,766.095498
1413.590952,3182.885551,-7179.997637,306.438199
1413.591281,3775.050304,-8068.244768,-842.705048
1413.591610,4515.256246,-9252.574275,536.266849
1413.591940,6143.709319,-8808.450710,1149.143247
1413.592269,7105.977043,-6661.853478,1149.143247
1413.592598,7920.203579,-4959.379811,842.705048
1413.592928,7920.203579,-5477.523971,919.314598
1413.593257,7920.203579,-5181.441594,1532.190996
1413.593586,7328.038826,-5255.462188,689.485948
1413.593915,7328.038826,-4737.318029,995.924147
1413.594245,7772.162391,-6661.853478,1455.581446
1413.594574,8512.368333,-6809.894666,2221.676944
1413.594903,8216.285956,-6883.915261,2068.457845
1413.595232,6883.915261,-6143.709319,1608.800546
1413.595562,7031.956449,-6587.832884,1378.971896
1413.595891,6587.832884,-8142.265362,689.485948
1413.596220,5329.482782,-8142.265362,153.219100
1413.596549,4071.132681,-8438.347739,459.657299
1413.596879,4737.318029,-8734.430116,383.047749
1413.597208,6143.709319,-7550.100608,995.924147
1413.597537,7105.977043,-6365.771101,1302.362347
1413.597866,7698.141797,-4663.297435,1149.143247
1413.598196,7920.203579,-4885.359217,1149.143247
1413.598525,7772.162391,-5625.565159,1532.190996
1413.598854,7105.977043,-5181.441594,842.705048
1413.599183,7254.018232,-4737.318029,689.485948
1413.599513,7624.121203,-5329.482782,1378.971896
1413.599842,7254.018232,-7254.018232,1991.848295
1413.600171,7846.182985,-6735.874072,1455.581446
1413.600500,8142.265362,-4885.359217,1455.581446
1413.600830,8364.327145,-6439.791695,2451.505594
1413.601159,8512.368333,-6809.894666,2374.896044
1413.601488,6661.853478,-7031.956449,1302.362347
1413.601817,4145.153275,-7105.977043,-306.438199
1413.602147,3404.947333,-7772.162391,-306.438199
1413.602476,5255.462188,-8586.388927,536.266849
1413.602805,6587.832884,-7550.100608,1072.533697
1413.603134,7328.038826,-6513.812290,1225.752797
1413.603464,7698.141797,-5551.544565,1072.533697
1413.603793,7920.203579,-5625.565159,689.485948
1413.604122,7624.121203,-7105.977043,995.924147
1413.604451,7105.977043,-5921.647536,689.485948
1413.604781,7105.977043,-5033.400406,0.000000
1413.605110,7624.121203,-6587.832884,1149.143247
1413.605439,8586.388927,-6069.688724,2374.896044
1413.605768,8660.409521,-7179.997637,2451.505594
1413.606098,8808.450710,-5625.565159,1838.629195
1413.606427,7105.977043,-6143.709319,1302.362347
1413.606756,5477.523971,-6513.812290,306.438199
1413.607085,3923.091493,-8290.306550,0.000000
1413.607415,3478.967927,-9030.512492,-536.266849
1413.607744,4515.256246,-9178.553681,689.485948
1413.608073,6365.771101,-9474.636058,689.485948
1413.608402,7105.977043,-7476.080014,1685.410096
1413.608732,6661.853478,-6365.771101,229.828649
1413.609061,6957.935855,-7105.977043,153.219100
1413.609390,7624.121203,-4885.359217,1225.752797
1413.609719,8068.244768,-6809.894666,612.876398
1413.610049,7920.203579,-4663.297435,1378.971896
1413.610378,8512.368333,-4589.276840,1532.190996
1413.610707,9622.677246,-5995.668130,1608.800546
1413.611036,9326.594869,-4589.276840,1991.848295
1413.611366,8290.306550,-5625.565159,1991.848295
1413.611695,8142.265362,-4663.297435,1532.190996
1413.612024,7105.977043,-5181.441594,1762.019645
1413.612353,6809.894666,-6291.750507,842.705048
1413.612683,5995.668130,-7105.977043,0.000000
1413.613012,5329.482782,-8216.285956,689.485948
1413.613341,5329.482782,-8512.368333,1455.581446
1413.613670,6439.791695,-7179.997637,1532.190996
1413.614000,6069.688724,-5699.585753,306.438199
1413.614329,5921.647536,-6735.874072,612.876398
1413.614658,5847.626942,-8290.306550,1378.971896
1413.614987,5847.626942,-6957.935855,919.314598
1413.615317,4885.359217,-6069.688724,306.438199
1413.615646,6143.709319,-5625.565159,1225.752797
1413.615975,8660.409521,-5847.626942,1685.410096
1413.616304,9030.512492,-5847.626942,2604.724693
1413.616634,8512.368333,-6661.853478,2451.505594
1413.616963,8882.471304,-4811.338623,2145.067394
1413.617292,9326.594869,-4441.235652,1991.848295
1413.617621,7624.121203,-6365.771101,1762.019645
1413.617951,5033.400406,-7179.997637,76.609550
1413.618280,4737.318029,-8290.306550,-229.828649
1413.618609,4959.379811,-9918.759623,919.314598
1413.618938,5551.544565,-9178.553681,1149.143247
1413.619268,5773.606348,-7328.038826,383.047749
1413.619597,5847.626942,-6439.791695,153.219100
1413.619926,6661.853478,-7254.018232,612.876398
1413.620255,6365.771101,-7476.080014,1149.143247
1413.620585,6883.915261,-6587.832884,919.314598
1413.620914,7105.977043,-6143.709319,842.705048
1413.621243,8216.285956,-5033.400406,1149.143247
1413.621572,8068.244768,-5329.482782,1532.190996
1413.621902,8808.450710,-6069.688724,2298.286494
1413.622231,9400.615463,-5107.421000,2298.286494
1413.622560,9326.594869,-5033.400406,2068.457845
1413.622889,8142.265362,-5773.606348,1762.019645
1413.623219,6513.812290,-6587.832884,919.314598
1413.623548,4737.318029,-8660.409521,0.000000
1413.623877,4293.194464,-8364.327145,306.438199
1413.624206,5255.462188,-8882.471304,1149.143247
1413.624536,6291.750507,-7105.977043,459.657299
1413.624865,6513.812290,-5477.523971,612.876398
1413.625194,6809.894666,-5625.565159,612.876398
1413.625523,7402.059420,-6143.709319,995.924147
1413.625853,7105.977043,-6069.688724,689.485948
1413.626182,6809.894666,-5625.565159,459.657299
1413.626511,7254.018232,-5477.523971,536.266849
1413.626840,8438.347739,-6513.812290,1378.971896
1413.627170,8660.409521,-6217.729913,2145.067394
1413.627499,8364.327145,-5181.441594,1378.971896
1413.627828,9104.533087,-5329.482782,1302.362347
1413.628157,8956.491898,-6809.894666,1991.848295
1413.628487,6513.812290,-7105.977043,1532.190996
1413.628816,4441.235652,-7031.956449,0.000000
1413.629145,3997.112087,-8142.265362,-459.657299
1413.629474,5551.544565,-8882.471304,1225.752797
1413.629804,6735.874072,-7105.977043,1378.971896
1413.630133,7476.080014,-5255.462188,1455.581446
1413.630462,8142.265362,-3701.029710,919.314598
1413.630791,7550.100608,-5329.482782,229.828649
1413.631121,6809.894666,-5995.668130,1072.533697
1413.631450,6809.894666,-6217.729913,383.047749
1413.631779,7550.100608,-6587.832884,919.314598
1413.632108,8068.244768,-7402.059420,1455.581446
1413.632438,8068.244768,-7031.956449,2068.457845
1413.632767,8216.285956,-5847.626942,689.485948
1413.633096,7772.162391,-5773.606348,689.485948
1413.633425,7624.121203,-6513.812290,1532.190996
1413.633755,7105.977043,-7254.018232,919.314598
1413.634084,5403.503377,-7550.100608,306.438199
1413.634413,4589.276840,-7624.121203,229.828649
1413.634742,5107.421000,-8068.244768,229.828649
1413.635072,6439.791695,-8068.244768,1149.143247
1413.635401,6735.874072,-7105.977043,1608.800546
1413.635730,7179.997637,-5107.421000,689.485948
1413.636060,7624.121203,-5403.503377,689.485948
1413.636389,7550.100608,-6069.688724,842.705048
1413.636718,6217.729913,-7105.977043,919.314598
1413.637047,6291.750507,-6513.812290,0.000000
1413.637377,6217.729913,-7846.182985,536.266849
1413.637706,6883.915261,-7328.038826,2145.067394
1413.638035,7624.121203,-5995.668130,1149.143247
1413.638364,8068.244768,-5921.647536,1149.143247
1413.638694,7624.121203,-5255.462188,1762.019645
1413.639023,7994.224174,-6291.750507,612.876398
1413.639352,7476.080014,-5625.565159,1455.581446
1413.639681,5477.523971,-5995.668130,766.095498
1413.640011,5477.523971,-7179.997637,536.266849
1413.640340,6513.812290,-7105.977043,1225.752797
1413.640669,7698.141797,-7179.997637,2068.457845
1413.640998,8512.368333,-5255.462188,919.314598
1413.641328,8586.388927,-3701.029710,995.924147
1413.641657,8512.368333,-4737.318029,1455.581446
1413.641986,7772.162391,-5551.544565,842.705048
1413.642315,6291.750507,-5995.668130,229.828649
1413.642645,6513.812290,-6069.688724,919.314598
1413.642974,7105.977043,-7105.977043,1378.971896
1413.643303,7402.059420,-6365.771101,1149.143247
1413.643632,7031.956449,-5995.668130,1302.362347
1413.643962,7698.141797,-6143.709319,1072.533697
1413.644291,7920.203579,-6809.894666,1072.533697
1413.644620,6217.729913,-6143.709319,459.657299
1413.644949,4663.297435,-7402.059420,612.876398
1413.645279,5329.482782,-7846.182985,383.047749
1413.645608,6439.791695,-8068.244768,1608.800546
1413.645937,5921.647536,-8438.347739,1455.581446
1413.646266,6291.750507,-6883.915261,1378.971896
1413.646596,6883.915261,-5699.585753,383.047749
1413.646925,7402.059420,-5699.585753,1991.848295
1413.647254,7550.100608,-6513.812290,1378.971896
1413.647583,7105.977043,-6587.832884,536.266849
1413.647913,6217.729913,-6365.771101,0.000000
1413.648242,7105.977043,-6883.915261,459.657299
1413.648571,8808.450710,-7402.059420,1378.971896
1413.648900,8512.368333,-6069.688724,919.314598
1413.649230,7846.182985,-6587.832884,1532.190996
1413.649559,8068.244768,-5995.668130,1225.752797
1413.649888,7328.038826,-6439.791695,536.266849
1413.650217,5255.462188,-6957.935855,229.828649
1413.650547,3997.112087,-7031.956449,0.000000
1413.650876,4515.256246,-7254.018232,0.000000
1413.651205,6217.729913,-9178.553681,1532.190996
1413.651534,7550.100608,-7550.100608,2145.067394
1413.651864,8068.244768,-5699.585753,1838.629195
1413.652193,8290.306550,-5921.647536,1685.410096
1413.652522,7846.182985,-5995.668130,1762.019645
1413.652851,6809.894666,-6365.771101,995.924147
1413.653181,5181.441594,-5477.523971,229.828649
1413.653510,6365.771101,-5625.565159,0.000000
1413.653839,7402.059420,-6587.832884,1378.971896
1413.654168,8216.285956,-6217.729913,2221.676944
1413.654498,9178.553681,-5625.565159,2298.286494
1413.654827,8290.306550,-4293.194464,1608.800546
1413.655156,7402.059420,-5699.585753,1149.143247
1413.655485,5625.565159,-7254.018232,0.000000
1413.655815,4071.132681,-6883.915261,-459.657299
1413.656144,4367.215058,-7328.038826,153.219100
1413.656473,6883.915261,-7476.080014,1302.362347
1413.656802,8586.388927,-7105.977043,2528.115143
1413.657132,9474.636058,-5699.585753,2145.067394
1413.657461,9696.697840,-4145.153275,1915.238745
1413.657790,8808.450710,-5033.400406,842.705048
1413.658119,7105.977043,-5107.421000,383.047749
1413.658449,5181.441594,-6291.750507,153.219100
1413.658778,5477.523971,-6217.729913,-229.828649
1413.659107,5847.626942,-6513.812290,1149.143247
1413.659436,7105.977043,-8068.244768,1762.019645
1413.659766,7402.059420,-6957.935855,1532.190996
1413.660095,7328.038826,-6365.771101,766.095498
1413.660424,7550.100608,-6587.832884,1302.362347
1413.660753,7031.956449,-6957.935855,1455.581446
1413.661083,5995.668130,-7254.018232,0.000000
1413.661412,4589.276840,-7328.038826,76.609550
1413.661741,5551.544565,-8512.368333,612.876398
1413.662070,7328.038826,-8142.265362,1378.971896
1413.662399,8586.388927,-6735.874072,1915.238745
1413.662729,8586.388927,-5551.544565,1685.410096
1413.663058,7846.182985,-5773.606348,1455.581446
1413.663387,7105.977043,-5847.626942,536.266849
1413.663716,5551.544565,-5625.565159,-383.047749
1413.664046,4737.318029,-5921.647536,-612.876398
1413.664375,5699.585753,-7402.059420,536.266849
1413.664704,7031.956449,-7846.182985,1762.019645
1413.665033,7624.121203,-7624.121203,1762.019645
1413.665363,7846.182985,-6069.688724,1762.019645
1413.665692,7920.203579,-6735.874072,1685.410096
1413.666021,7402.059420,-7254.018232,1762.019645
1413.666350,5773.606348,-6957.935855,919.314598
1413.666679,4219.173869,-7402.059420,995.924147
1413.667009,4293.194464,-7179.997637,-229.828649
1413.667338,7105.977043,-7994.224174,2298.286494
1413.667667,8808.450710,-6735.874072,2068.457845
1413.667996,9030.512492,-3701.029710,1762.019645
1413.668326,8142.265362,-3108.864956,1532.190996
1413.668655,8216.285956,-4811.338623,1608.800546
1413.668984,6587.832884,-6291.750507,1608.800546
1413.669313,5847.626942,-5773.606348,0.000000
1413.669643,6069.688724,-6661.853478,-229.828649
1413.669972,6661.853478,-7031.956449,1302.362347
1413.670301,7254.018232,-7772.162391,1532.190996
1413.670630,7846.182985,-6217.729913,1532.190996
1413.670959,8586.388927,-5773.606348,995.924147
1413.671289,8808.450710,-6365.771101,2068.457845
1413.671618,7846.182985,-7105.977043,1455.581446
1413.671947,5329.482782,-6809.894666,153.219100
1413.672276,4367.215058,-7476.080014,76.609550
1413.672606,5921.647536,-7698.141797,919.314598
1413.672935,7402.059420,-6957.935855,1915.238745
1413.673264,7624.121203,-5995.668130,1378.971896
1413.673593,7772.162391,-5329.482782,1608.800546
1413.673923,7772.162391,-5699.585753,919.314598
1413.674252,7402.059420,-6439.791695,1838.629195
1413.674581,5625.565159,-6661.853478,306.438199
1413.674910,5551.544565,-5847.626942,-919.314598
1413.675239,5847.626942,-7179.997637,689.485948
1413.675569,7105.977043,-8586.388927,1455.581446
1413.675898,7624.121203,-7772.162391,1762.019645
1413.676227,7476.080014,-6587.832884,1532.190996
1413.676556,7105.977043,-7105.977043,1455.581446
1413.676886,6809.894666,-7105.977043,995.924147
1413.677215,4885.359217,-8142.265362,229.828649
1413.677544,3923.091493,-6587.832884,-306.438199
1413.677873,5181.441594,-7772.162391,0.000000
1413.678203,7624.121203,-7846.182985,1685.410096
1413.678532,8808.450710,-6735.874072,2681.334243
1413.678861,8216.285956,-5181.441594,1378.971896
1413.679190,7846.182985,-3330.926739,76.609550
1413.679519,7179.997637,-5255.462188,612.876398
1413.679849,6513.812290,-7476.080014,153.219100
1413.680178,5921.647536,-5107.421000,0.000000
1413.680507,6143.709319,-7624.121203,306.438199
1413.680836,7402.059420,-8586.388927,1455.581446
1413.681166,8290.306550,-6513.812290,2451.505594
1413.681495,8586.388927,-6439.791695,2298.286494
1413.681824,8808.450710,-4515.256246,1991.848295
1413.682153,8586.388927,-5107.421000,1532.190996
1413.682483,6513.812290,-6439.791695,766.095498
1413.682812,4441.235652,-6291.750507,-536.266849
1413.683141,4663.297435,-7920.203579,76.609550
1413.683470,7254.018232,-7624.121203,1762.019645
1413.683799,8438.347739,-7105.977043,1991.848295
1413.684129,8512.368333,-5625.565159,1762.019645
1413.684458,7846.182985,-3552.988522,842.705048
1413.684787,7624.121203,-4441.235652,459.657299
1413.685116,6957.935855,-5329.482782,0.000000
1413.685446,5329.482782,-6439.791695,229.828649
1413.685775,5699.585753,-6735.874072,-76.609550
1413.686104,6957.935855,-7402.059420,842.705048
1413.686433,7476.080014,-7402.059420,3217.601092
1413.686763,8438.347739,-7031.956449,2298.286494
1413.687092,8956.491898,-5477.523971,1455.581446
1413.687421,8660.409521,-4811.338623,1762.019645
1413.687750,7105.977043,-6883.915261,1225.752797
1413.688079,4737.318029,-6513.812290,76.609550
1413.688409,3256.906145,-8068.244768,-766.095498
1413.688738,4367.215058,-9474.636058,0.000000
1413.689067,7105.977043,-8290.306550,1991.848295
1413.689396,7772.162391,-8438.347739,1532.190996
1413.689726,7105.977043,-6069.688724,1149.143247
1413.690055,7031.956449,-5551.544565,612.876398
1413.690384,7105.977043,-6291.750507,459.657299
1413.690713,6809.894666,-5477.523971,536.266849
1413.691043,6735.874072,-5403.503377,0.000000
1413.691372,7328.038826,-5329.482782,383.047749
1413.691701,8808.450710,-7254.018232,1991.848295
1413.692030,9178.553681,-7105.977043,2451.505594
1413.692359,8956.491898,-6291.750507,1302.362347
1413.692689,7994.224174,-5403.503377,1532.190996
1413.693018,6883.915261,-7402.059420,919.314598
1413.693347,5551.544565,-7328.038826,306.438199
1413.693676,4367.215058,-7772.162391,0.000000
1413.694006,4811.338623,-8068.244768,0.000000
1413.694335,5995.668130,-8586.388927,1455.581446
1413.694664,6661.853478,-7624.121203,1455.581446
1413.694993,6587.832884,-5847.626942,919.314598
1413.695323,7031.956449,-5033.400406,766.095498
1413.695652,8290.306550,-5255.462188,2374.896044
1413.695981,9104.533087,-5477.523971,2145.067394
1413.696310,7994.224174,-3627.009116,1302.362347
1413.696639,7624.121203,-3552.988522,1149.143247
1413.696969,7994.224174,-6143.709319,1762.019645
1413.697298,7994.224174,-6439.791695,2298.286494
1413.697627,7476.080014,-6735.874072,1149.143247
1413.697956,7105.977043,-6587.832884,1455.581446
1413.698286,7031.956449,-5699.585753,1302.362347
1413.698615,5477.523971,-7920.203579,995.924147
1413.698944,4145.153275,-7179.997637,-306.438199
1413.699273,3478.967927,-8216.285956,-536.266849
1413.699603,4811.338623,-8364.327145,153.219100
1413.699932,6365.771101,-8660.409521,1762.019645
1413.700261,7031.956449,-7624.121203,1072.533697
1413.700590,7402.059420,-5329.482782,842.705048
1413.700919,8068.244768,-5921.647536,1225.752797
1413.701249,8586.388927,-5403.503377,1915.238745
1413.701578,8956.491898,-4885.359217,1455.581446
1413.701907,8512.368333,-4071.132681,766.095498
1413.702236,7254.018232,-6069.688724,919.314598
1413.702566,7698.141797,-7402.059420,1991.848295
1413.702895,7402.059420,-7179.997637,1915.238745
1413.703224,6883.915261,-6217.729913,612.876398
1413.703553,6883.915261,-6661.853478,1378.971896
1413.703883,7105.977043,-7772.162391,1455.581446
1413.704212,5107.421000,-9030.512492,153.219100
1413.704541,3034.844362,-7328.038826,-459.657299
1413.704870,3775.050304,-9474.636058,0.000000
1413.705199,6069.688724,-8512.368333,689.485948
1413.705529,6143.709319,-7550.100608,1149.143247
1413.705858,6735.874072,-6217.729913,919.314598
1413.706187,9030.512492,-4071.132681,919.314598
1413.706516,9548.656652,-5477.523971,1915.238745
1413.706846,8882.471304,-5329.482782,1991.848295
1413.707175,8808.450710,-4737.318029,1149.143247
1413.707504,7624.121203,-4219.173869,689.485948
1413.707833,7031.956449,-6809.894666,766.095498
1413.708163,7105.977043,-7624.121203,1532.190996
1413.708492,8216.285956,-5773.606348,1225.752797
1413.708821,8364.327145,-5995.668130,1532.190996
1413.709150,7328.038826,-6291.750507,2374.896044
1413.709479,5847.626942,-7846.182985,1532.190996
1413.709809,3256.906145,-9326.594869,-383.047749
1413.710138,1332.370696,-9844.739029,-995.924147
1413.710467,1850.514855,-9918.759623,0.000000
1413.710796,4219.173869,-9992.780217,612.876398
1413.711126,5625.565159,-9178.553681,1685.410096
1413.711455,7105.977043,-6957.935855,1149.143247
1413.711784,8438.347739,-6217.729913,1685.410096
1413.712113,8956.491898,-5699.585753,1149.143247
1413.712443,7254.018232,-5625.565159,229.828649
1413.712772,5625.565159,-5699.585753,0.000000
1413.713101,6217.729913,-7254.018232,612.876398
1413.713430,7698.141797,-7994.224174,1225.752797
1413.713759,7402.059420,-7624.121203,2145.067394
1413.714089,7328.038826,-7254.018232,2145.067394
1413.714418,7476.080014,-7254.018232,1685.410096
1413.714747,6069.688724,-7328.038826,842.705048
1413.715076,3701.029710,-7994.224174,459.657299
1413.715406,3330.926739,-8142.265362,-612.876398
1413.715735,3404.947333,-8808.450710,-383.047749
1413.716064,4219.173869,-9548.656652,1532.190996
1413.716393,6217.729913,-8808.450710,2221.676944
1413.716723,6883.915261,-6143.709319,2451.505594
1413.717052,6883.915261,-6143.709319,1915.238745
1413.717381,6661.853478,-5847.626942,1685.410096
1413.717710,7031.956449,-7031.956449,1455.581446
1413.718039,4811.338623,-8142.265362,766.095498
1413.718369,2664.741391,-8216.285956,0.000000
1413.718698,3034.844362,-10510.924376,306.438199
1413.719027,3997.112087,-11769.274478,842.705048
1413.719356,2886.803174,-12731.542202,1685.410096
1413.719686,2812.782580,-11399.171507,1302.362347
1413.720015,3923.091493,-9178.553681,229.828649
1413.720344,4293.194464,-8068.244768,536.266849
1413.720673,4367.215058,-9844.739029,1685.410096
1413.721003,4071.132681,-9474.636058,2298.286494
1413.721332,3404.947333,-8068.244768,536.266849
1413.721661,3330.926739,-8216.285956,76.609550
1413.721990,4441.235652,-9030.512492,1685.410096
1413.722319,6217.729913,-9400.615463,3907.087040
1413.722649,6587.832884,-8142.265362,2145.067394
1413.722978,5773.606348,-5329.482782,612.876398
1413.723307,5847.626942,-5033.400406,0.000000
1413.723636,6513.812290,-8142.265362,1302.362347
1413.723966,6217.729913,-9622.677246,2528.115143
1413.724295,5181.441594,-8660.409521,1455.581446
1413.724624,3997.112087,-8512.368333,-459.657299
1413.724953,3330.926739,-9548.656652,0.000000
1413.725283,3997.112087,-12583.501014,1838.629195
1413.725612,5033.400406,-11843.295072,2374.896044
1413.725941,4737.318029,-8734.430116,76.609550
1413.726270,3775.050304,-7105.977043,-459.657299
1413.726599,4293.194464,-7920.203579,919.314598
1413.726929,6143.709319,-9622.677246,2068.457845
1413.727258,6513.812290,-7994.224174,2221.676944
1413.727587,5477.523971,-6587.832884,1225.752797
1413.727916,5551.544565,-6513.812290,1149.143247
1413.728246,6957.935855,-7698.141797,1685.410096
1413.728575,6883.915261,-8660.409521,2451.505594
1413.728904,5625.565159,-7994.224174,1225.752797
1413.729233,4737.318029,-7328.038826,459.657299
1413.729562,4293.194464,-7402.059420,1149.143247
1413.729892,5625.565159,-7328.038826,689.485948
1413.730221,7031.956449,-7031.956449,383.047749
1413.730550,6439.791695,-7254.018232,229.828649
1413.730879,5551.544565,-8512.368333,536.266849
1413.731209,5477.523971,-8808.450710,1149.143247
1413.731538,5847.626942,-8660.409521,919.314598
1413.731867,6217.729913,-8438.347739,-306.438199
1413.732196,4367.215058,-10066.800811,0.000000
1413.732526,3034.844362,-12065.356855,1072.533697
1413.732855,3552.988522,-13027.624579,995.924147
1413.733184,4219.173869,-10066.800811,1608.800546
1413.733513,4145.153275,-7402.059420,383.047749
1413.733842,3923.091493,-6809.894666,459.657299
1413.734172,4515.256246,-6587.832884,1455.581446
1413.734501,5625.565159,-8142.265362,1532.190996
1413.734830,7105.977043,-4885.359217,2911.162892
1413.735159,7105.977043,-4737.318029,1838.629195
1413.735489,5773.606348,-7328.038826,1378.971896
1413.735818,4219.173869,-9474.636058,1455.581446
1413.736147,3034.844362,-11769.274478,383.047749
1413.736476,2516.700203,-10955.047942,-229.828649
1413.736806,2294.638420,-11325.150913,-612.876398
1413.737135,3404.947333,-12361.439231,0.000000
1413.737464,4145.153275,-12435.459826,842.705048
1413.737793,4737.318029,-12213.398043,2681.334243
1413.738122,4737.318029,-8882.471304,1838.629195
1413.738452,4737.318029,-7105.977043,1838.629195
1413.738781,4885.359217,-5699.585753,1608.800546
1413.739110,5699.585753,-4441.235652,919.314598
1413.739439,5847.626942,-6143.709319,1455.581446
1413.739769,5329.482782,-6957.935855,1149.143247
1413.740098,4811.338623,-8956.491898,842.705048
1413.740427,4441.235652,-9326.594869,919.314598
1413.740756,3701.029710,-10288.862594,612.876398
1413.741086,2960.823768,-11769.274478,612.876398
1413.741415,2146.597232,-13101.645173,153.219100
1413.741744,2368.659014,-13545.768739,0.000000
1413.742073,4071.132681,-11325.150913,0.000000
1413.742402,5625.565159,-9400.615463,1149.143247
1413.742732,6217.729913,-8586.388927,1991.848295
1413.743061,6957.935855,-7476.080014,2451.505594
1413.743390,6217.729913,-6069.688724,2221.676944
1413.743719,6439.791695,-4441.235652,2298.286494
1413.744049,7254.018232,-3256.906145,2221.676944
1413.744378,7105.977043,-3478.967927,1685.410096
1413.744707,6513.812290,-5181.441594,1149.143247
1413.745036,6143.709319,-5403.503377,459.657299
1413.745366,6513.812290,-7105.977043,1072.533697
1413.745695,5773.606348,-9104.533087,536.266849
1413.746024,4885.359217,-11177.109724,1149.143247
1413.746353,4959.379811,-12139.377449,919.314598
1413.746682,4367.215058,-11917.315666,842.705048
1413.747012,3775.050304,-11473.192101,1455.581446
1413.747341,3997.112087,-10658.965565,1072.533697
1413.747670,3849.070898,-9770.718434,306.438199
1413.747999,3404.947333,-9474.636058,306.438199
1413.748329,3478.967927,-8734.430116,1149.143247
1413.748658,4071.132681,-8068.244768,766.095498
1413.748987,4811.338623,-5625.565159,1225.752797
1413.749316,6143.709319,-4367.215058,995.924147
1413.749646,7476.080014,-3330.926739,1302.362347
1413.749975,7698.141797,-4071.132681,2068.457845
1413.750304,7254.018232,-7105.977043,1762.019645
1413.750633,6513.812290,-9252.574275,1378.971896
1413.750962,5033.400406,-11325.150913,1532.190996
1413.751292,4071.132681,-13397.727550,1991.848295
1413.751621,3849.070898,-12287.418637,1915.238745
1413.751950,4367.215058,-11695.253884,1762.019645
1413.752279,4441.235652,-9696.697840,2068.457845
1413.752609,4737.318029,-7179.997637,1762.019645
1413.752938,4737.318029,-5625.565159,306.438199
1413.753267,3701.029710,-5625.565159,383.047749
1413.753596,2812.782580,-6587.832884,-689.485948
1413.753926,3552.988522,-6809.894666,-612.876398
1413.754255,4219.173869,-7624.121203,459.657299
1413.754584,5255.462188,-8956.491898,766.095498
1413.754913,5551.544565,-11103.089130,1072.533697
1413.755242,5033.400406,-11843.295072,995.924147
1413.755572,4145.153275,-12435.459826,842.705048
1413.755901,3701.029710,-12213.398043,1532.190996
1413.756230,4219.173869,-11621.233289,1762.019645
1413.756559,5033.400406,-10510.924376,2528.115143
1413.756889,5699.585753,-8068.244768,3217.601092
1413.757218,5773.606348,-5995.668130,3370.820191
1413.757547,6735.874072,-4959.379811,2987.772442
1413.757876,6809.894666,-4367.215058,2987.772442
1413.758206,5847.626942,-5255.462188,2298.286494
1413.758535,5107.421000,-5255.462188,1378.971896
1413.758864,4515.256246,-7031.956449,766.095498
1413.759193,3997.112087,-8956.491898,459.657299
1413.759522,4441.235652,-10288.862594,1149.143247
1413.759852,4441.235652,-11843.295072,1532.190996
1413.760181,4515.256246,-12139.377449,2068.457845
1413.760510,4367.215058,-11547.212695,3140.991542
1413.760839,5625.565159,-9992.780217,2911.162892
1413.761169,6735.874072,-8216.285956,3983.696590
1413.761498,7476.080014,-5921.647536,4519.963438
1413.761827,7402.059420,-4663.297435,4290.134789
1413.762156,7624.121203,-3034.844362,4060.306139
1413.762486,7698.141797,-3256.906145,3677.258390
1413.762815,7328.038826,-4071.132681,2298.286494
1413.763144,6069.688724,-5329.482782,1838.629195
1413.763473,5551.544565,-6883.915261,2068.457845
1413.763802,5921.647536,-8438.347739,1991.848295
1413.764132,6217.729913,-9178.553681,3294.210641
1413.764461,6365.771101,-8290.306550,3677.258390
1413.764790,7031.956449,-8364.327145,3294.210641
1413.765119,6809.894666,-7920.203579,3753.867940
1413.765449,6365.771101,-7476.080014,4136.915689
1413.765778,7031.956449,-5773.606348,3753.867940
1413.766107,7550.100608,-3923.091493,4136.915689
1413.766436,7994.224174,-3923.091493,4443.353888
1413.766765,8586.388927,-4219.173869,4903.011187
1413.767095,9104.533087,-3849.070898,5362.668486
1413.767424,8882.471304,-4145.153275,4673.182538
1413.767753,8142.265362,-4663.297435,4290.134789
1413.768082,7105.977043,-5329.482782,3907.087040
1413.768412,6439.791695,-7772.162391,3983.696590
1413.768741,5477.523971,-9400.615463,3677.258390
1413.769070,4663.297435,-10436.903782,3524.039291
1413.769399,4145.153275,-11103.089130,3140.991542
1413.769728,4145.153275,-11399.171507,3370.820191
1413.770058,3997.112087,-10658.965565,3983.696590
1413.770387,4145.153275,-9696.697840,3830.477490
1413.770716,4145.153275,-8438.347739,4136.915689
1413.771045,4737.318029,-7031.956449,4290.134789
1413.771375,7476.080014,-5403.503377,4903.011187
1413.771704,8586.388927,-4367.215058,5745.716235
1413.772033,9326.594869,-4145.153275,5822.325785
1413.772362,9474.636058,-3256.906145,5975.544884
1413.772691,9326.594869,-3330.926739,5515.887586
1413.773021,9400.615463,-3552.988522,4826.401637
1413.773350,8586.388927,-4885.359217,5056.230287
1413.773679,8068.244768,-5847.626942,4903.011187
1413.774008,7328.038826,-7105.977043,4443.353888
1413.774338,6439.791695,-7920.203579,3753.867940
1413.774667,5773.606348,-9030.512492,4290.134789
1413.774996,5107.421000,-9992.780217,4443.353888
1413.775325,4145.153275,-9696.697840,4136.915689
1413.775654,3034.844362,-8882.471304,2757.943793
1413.775984,2442.679609,-8660.409521,2987.772442
1413.776313,3849.070898,-7476.080014,3753.867940
1413.776642,6439.791695,-6809.894666,4826.401637
1413.776971,7994.224174,-5477.523971,5745.716235
1413.777301,9474.636058,-2960.823768,5745.716235
1413.777630,9770.718434,-3034.844362,5439.278036
1413.777959,9992.780217,-2664.741391,5132.839837
1413.778288,9474.636058,-2738.761985,4519.963438
1413.778618,8660.409521,-5181.441594,3753.867940
1413.778947,7254.018232,-6439.791695,3907.087040
1413.779276,6513.812290,-7920.203579,3064.381992
1413.779605,6069.688724,-8956.491898,2221.676944
1413.779934,5551.544565,-9474.636058,2604.724693
1413.780264,5477.523971,-9844.739029,3217.601092
1413.780593,5847.626942,-8808.450710,3447.429741
1413.780922,5995.668130,-7994.224174,3677.258390
1413.781251,7031.956449,-6217.729913,4290.134789
1413.781581,8586.388927,-4219.173869,4213.525239
1413.781910,9548.656652,-4663.297435,4749.792088
1413.782239,9400.615463,-4367.215058,4443.353888
1413.782568,8660.409521,-4441.235652,3140.991542
1413.782897,7476.080014,-5329.482782,2757.943793
1413.783227,5773.606348,-6439.791695,2604.724693
1413.783556,5477.523971,-8586.388927,2374.896044
1413.783885,5181.441594,-8142.265362,3064.381992
1413.784214,5551.544565,-8660.409521,3294.210641
1413.784544,6439.791695,-7846.182985,4596.572988
1413.784873,7402.059420,-6291.750507,4290.134789
1413.785202,7402.059420,-7105.977043,4366.744339
1413.785531,7254.018232,-5847.626942,3983.696590
1413.785860,7031.956449,-5995.668130,3447.429741
1413.786190,6809.894666,-3627.009116,3217.601092
1413.786519,7920.203579,-2886.803174,4060.306139
1413.786848,8882.471304,-3034.844362,3830.477490
1413.787177,9548.656652,-3034.844362,4290.134789
1413.787507,9326.594869,-4737.318029,4673.182538
1413.787836,8512.368333,-6587.832884,4366.744339
1413.788165,6365.771101,-9252.574275,3294.210641
1413.788494,4663.297435,-10881.027347,2911.162892
1413.788823,3404.947333,-11325.150913,2221.676944
1413.789153,2738.761985,-11621.233289,2987.772442
1413.789482,3997.112087,-9770.718434,3140.991542
1413.789811,4885.359217,-7550.100608,2681.334243
1413.790140,5773.606348,-5995.668130,3600.648841
1413.790470,6809.894666,-5403.503377,4290.134789
1413.790799,7846.182985,-4367.215058,4519.963438
1413.791128,8512.368333,-2738.761985,4903.011187
1413.791457,9252.574275,-2664.741391,5362.668486
1413.791786,10955.047942,-2072.576638,5669.106685
1413.792116,11547.212695,-3108.864956,5975.544884
1413.792445,10214.842000,-4293.194464,5669.106685
1413.792774,8142.265362,-6513.812290,3907.087040
1413.793103,5921.647536,-9104.533087,2681.334243
1413.793433,4293.194464,-10436.903782,1991.848295
1413.793762,4219.173869,-11251.130318,2681.334243
1413.794091,4367.215058,-11621.233289,3524.039291
1413.794420,4071.132681,-9992.780217,3677.258390
1413.794750,4145.153275,-7698.141797,3600.648841
1413.795079,5921.647536,-5477.523971,3907.087040
1413.795408,7402.059420,-2960.823768,5515.887586
1413.795737,9326.594869,-2664.741391,5439.278036
1413.796066,9770.718434,-2886.803174,5975.544884
1413.796396,9992.780217,-2442.679609,5515.887586
1413.796725,8808.450710,-4145.153275,5669.106685
1413.797054,7476.080014,-5551.544565,5439.278036
1413.797383,6809.894666,-7698.141797,4826.401637
1413.797713,7105.977043,-8956.491898,4366.744339
1413.798042,6439.791695,-9326.594869,4366.744339
1413.798371,5181.441594,-9178.553681,2681.334243
1413.798700,4811.338623,-8216.285956,3064.381992
1413.799029,4885.359217,-7254.018232,3064.381992
1413.799359,5181.441594,-6883.915261,4060.306139
1413.799688,6587.832884,-6291.750507,4443.353888
1413.800017,7179.997637,-4959.379811,4596.572988
1413.800346,6883.915261,-4885.359217,3983.696590
1413.800676,7105.977043,-5699.585753,4903.011187
1413.801005,7920.203579,-5033.400406,5515.887586
1413.801334,8882.471304,-4959.379811,5439.278036
1413.801663,9104.533087,-4663.297435,4903.011187
1413.801992,8586.388927,-4737.318029,4443.353888
1413.802322,7698.141797,-7179.997637,4060.306139
1413.802651,7179.997637,-8512.368333,4443.353888
1413.802980,6809.894666,-8068.244768,4060.306139
1413.803309,6513.812290,-8512.368333,3140.991542
1413.803639,4959.379811,-8216.285956,2834.553343
1413.803968,4441.235652,-8364.327145,3064.381992
1413.804297,4885.359217,-8068.244768,2834.553343
1413.804626,6365.771101,-5921.647536,3140.991542
1413.804955,7105.977043,-4663.297435,3447.429741
1413.805285,7920.203579,-3997.112087,3677.258390
1413.805614,8364.327145,-4071.132681,3447.429741
1413.805943,8512.368333,-4885.359217,3600.648841
1413.806272,8808.450710,-5329.482782,3907.087040
1413.806602,8734.430116,-5921.647536,3830.477490
1413.806931,7328.038826,-7402.059420,3064.381992
1413.807260,5329.482782,-9474.636058,2451.505594
1413.807589,5107.421000,-10214.842000,2374.896044
1413.807918,5107.421000,-8660.409521,1838.629195
1413.808248,6365.771101,-7031.956449,2068.457845
1413.808577,7772.162391,-6587.832884,2987.772442
1413.808906,7994.224174,-5921.647536,2757.943793
1413.809235,7179.997637,-4293.194464,2911.162892
1413.809565,6143.709319,-3923.091493,2374.896044
1413.809894,6217.729913,-4515.256246,1225.752797
1413.810223,6513.812290,-4737.318029,919.314598
1413.810552,8438.347739,-5773.606348,2374.896044
1413.810881,8290.306550,-5773.606348,1532.190996
1413.811211,7772.162391,-6439.791695,1455.581446
1413.811540,7624.121203,-8438.347739,1532.190996
1413.811869,7254.018232,-8068.244768,1532.190996
1413.812198,6069.688724,-7772.162391,1455.581446
1413.812528,5107.421000,-8512.368333,995.924147
1413.812857,4515.256246,-9622.677246,1532.190996
1413.813186,5847.626942,-9918.759623,2145.067394
1413.813515,6809.894666,-6439.791695,2757.943793
1413.813845,7402.059420,-3923.091493,2145.067394
1413.814174,8142.265362,-3552.988522,1225.752797
1413.814503,7550.100608,-3997.112087,536.266849
1413.814832,6957.935855,-4663.297435,612.876398
1413.815161,8364.327145,-2294.638420,1072.533697
1413.815491,7994.224174,-3775.050304,-306.438199
1413.815820,7920.203579,-6957.935855,689.485948
1413.816149,7550.100608,-10140.821405,919.314598
1413.816478,8216.285956,-7994.224174,1532.190996
1413.816808,7920.203579,-7179.997637,-229.828649
1413.817137,6587.832884,-10510.924376,229.828649
1413.817466,6291.750507,-9770.718434,1608.800546
1413.817795,5847.626942,-9770.718434,536.266849
1413.818124,5551.544565,-7550.100608,1225.752797
1413.818454,4811.338623,-5329.482782,536.266849
1413.818783,5403.503377,-6291.750507,-229.828649
1413.819112,5847.626942,-5403.503377,1149.143247
1413.819441,7624.121203,-3330.926739,2757.943793
1413.819771,10214.842000,-2590.720797,1762.019645
1413.820100,9548.656652,-3849.070898,1991.848295
1413.820429,7772.162391,-4589.276840,2604.724693
1413.820758,6513.812290,-4737.318029,536.266849
1413.821087,6291.750507,-5921.647536,229.828649
1413.821417,6217.729913,-7328.038826,76.609550
1413.821746,6217.729913,-10140.821405,612.876398
1413.822075,6587.832884,-9474.636058,1532.190996
1413.822404,6143.709319,-10362.883188,1685.410096
1413.822734,6069.688724,-8956.491898,1149.143247
1413.823063,5403.503377,-7550.100608,153.219100
1413.823392,4959.379811,-7624.121203,919.314598
1413.823721,5181.441594,-6809.894666,919.314598
1413.824050,6957.935855,-5329.482782,1302.362347
1413.824380,7772.162391,-4219.173869,1225.752797
1413.824709,9252.574275,-4145.153275,2451.505594
1413.825038,9918.759623,-4219.173869,3294.210641
1413.825367,10140.821405,-5329.482782,2834.553343
1413.825697,8216.285956,-4367.215058,2451.505594
1413.826026,7328.038826,-5699.585753,1072.533697
1413.826355,6143.709319,-7031.956449,919.314598
1413.826684,5625.565159,-7402.059420,0.000000
1413.827013,6365.771101,-7994.224174,306.438199
1413.827343,5995.668130,-7624.121203,995.924147
1413.827672,6513.812290,-8216.285956,1532.190996
1413.828001,6439.791695,-8068.244768,1302.362347
1413.828330,6587.832884,-6661.853478,1302.362347
1413.828660,6883.915261,-5921.647536,1149.143247
1413.828989,6809.894666,-6291.750507,1225.752797
1413.829318,5995.668130,-7031.956449,2145.067394
1413.829647,6957.935855,-5329.482782,1532.190996
1413.829976,7846.182985,-4367.215058,536.266849
1413.830306,8808.450710,-4663.297435,2451.505594
1413.830635,9178.553681,-5847.626942,2911.162892
1413.830964,8882.471304,-6513.812290,1991.848295
1413.831293,7105.977043,-5847.626942,842.705048
1413.831623,5329.482782,-6957.935855,766.095498
1413.831952,5847.626942,-7179.997637,76.609550
1413.832281,6217.729913,-7476.080014,0.000000
1413.832610,5921.647536,-7476.080014,229.828649
1413.832940,6883.915261,-5995.668130,689.485948
1413.833269,8216.285956,-7105.977043,1072.533697
1413.833598,7254.018232,-7105.977043,919.314598
1413.833927,7105.977043,-5847.626942,995.924147
1413.834256,6069.688724,-7105.977043,383.047749
1413.834586,5255.462188,-8438.347739,612.876398
1413.834915,5107.421000,-8512.368333,1149.143247
1413.835244,7179.997637,-7031.956449,1838.629195
1413.835573,8512.368333,-5847.626942,2068.457845
1413.835903,7994.224174,-4959.379811,2221.676944
1413.836232,7105.977043,-6587.832884,1072.533697
1413.836561,6809.894666,-6069.688724,689.485948
1413.836890,6291.750507,-5625.565159,766.095498
1413.837219,6291.750507,-6587.832884,0.000000
1413.837549,7105.977043,-5699.585753,0.000000
1413.837878,7476.080014,-6069.688724,153.219100
1413.838207,7476.080014,-6735.874072,76.609550
1413.838536,7328.038826,-7179.997637,459.657299
1413.838866,7031.956449,-7254.018232,76.609550
1413.839195,6587.832884,-6809.894666,-689.485948
1413.839524,5847.626942,-9104.533087,919.314598
1413.839853,5699.585753,-9474.636058,1455.581446
1413.840182,5477.523971,-8882.471304,842.705048
1413.840512,5773.606348,-6809.894666,1072.533697
1413.840841,7550.100608,-4663.297435,2374.896044
1413.841170,9178.553681,-5625.565159,3064.381992
1413.841499,8956.491898,-4441.235652,2911.162892
1413.841829,7105.977043,-3404.947333,766.095498
1413.842158,6291.750507,-2664.741391,0.000000
1413.842487,7402.059420,-3404.947333,76.609550
1413.842816,8290.306550,-5107.421000,1302.362347
1413.843145,8438.347739,-5329.482782,689.485948
1413.843475,8142.265362,-7254.018232,2068.457845
1413.843804,7624.121203,-7476.080014,76.609550
1413.844133,6513.812290,-8142.265362,229.828649
1413.844462,5477.523971,-8808.450710,-536.266849
1413.844792,5477.523971,-9622.677246,-612.876398
1413.845121,4959.379811,-9696.697840,612.876398
1413.845450,3849.070898,-10362.883188,842.705048
1413.845779,4737.318029,-7920.203579,842.705048
1413.846108,6365.771101,-5403.503377,919.314598
1413.846438,7920.203579,-5181.441594,2221.676944
1413.846767,8956.491898,-5551.544565,3294.210641
1413.847096,9400.615463,-4219.173869,2834.553343
1413.847425,8808.450710,-3330.926739,1762.019645
1413.847755,7476.080014,-2368.659014,1072.533697
1413.848084,7402.059420,-4441.235652,536.266849
1413.848413,8512.368333,-6735.874072,1762.019645
1413.848742,7846.182985,-7105.977043,1225.752797
1413.849072,6883.915261,-7105.977043,1225.752797
1413.849401,6957.935855,-9030.512492,919.314598
1413.849730,5921.647536,-10362.883188,842.705048
1413.850059,4959.379811,-9844.739029,0.000000
1413.850388,3552.988522,-10436.903782,0.000000
1413.850718,4219.173869,-9844.739029,1532.190996
1413.851047,5329.482782,-8068.244768,383.047749
1413.851376,5847.626942,-5033.400406,1149.143247
1413.851705,7550.100608,-4293.194464,2681.334243
1413.852035,9992.780217,-4071.132681,2834.553343
1413.852364,9474.636058,-3404.947333,2757.943793
1413.852693,8068.244768,-3552.988522,1838.629195
1413.853022,8512.368333,-2738.761985,1532.190996
1413.853351,7846.182985,-5551.544565,1378.971896
1413.853681,6439.791695,-7105.977043,842.705048
1413.854010,5551.544565,-8364.327145,-229.828649
1413.854339,6957.935855,-7328.038826,153.219100
1413.854668,7105.977043,-7402.059420,1378.971896
1413.854998,6365.771101,-9104.533087,1225.752797
1413.855327,5625.565159,-6957.935855,766.095498
1413.855656,5551.544565,-7402.059420,-306.438199
1413.855985,6143.709319,-7846.182985,995.924147
1413.856314,6735.874072,-7476.080014,2528.115143
1413.856644,8216.285956,-6143.709319,2528.115143
1413.856973,8586.388927,-4663.297435,1378.971896
1413.857302,8216.285956,-4293.194464,2681.334243
1413.857631,8660.409521,-3849.070898,1915.238745
1413.857961,7846.182985,-4145.153275,995.924147
1413.858290,6439.791695,-4589.276840,306.438199
1413.858619,6143.709319,-6069.688724,0.000000
1413.858948,6513.812290,-7772.162391,0.000000
1413.859277,6143.709319,-9252.574275,383.047749
1413.859607,6661.853478,-9696.697840,306.438199
1413.859936,7328.038826,-8068.244768,459.657299
1413.860265,7105.977043,-8068.244768,383.047749
1413.860594,6661.853478,-7698.141797,153.219100
1413.860924,6513.812290,-6587.832884,229.828649
1413.861253,6809.894666,-7624.121203,995.924147
1413.861582,6365.771101,-7105.977043,1149.143247
1413.861911,6513.812290,-5995.668130,1225.752797
1413.862240,7476.080014,-5329.482782,1915.238745
1413.862570,8808.450710,-5181.441594,3294.210641
1413.862899,9474.636058,-5699.585753,3447.429741
1413.863228,8882.471304,-5699.585753,2298.286494
1413.863557,6217.729913,-4441.235652,536.266849
1413.863887,3923.091493,-4885.359217,-1378.971896
1413.864216,3923.091493,-6587.832884,-1762.019645
1413.864545,5329.482782,-7624.121203,-612.876398
1413.864874,6735.874072,-8290.306550,0.000000
1413.865203,7550.100608,-8068.244768,1685.410096
1413.865533,7920.203579,-7254.018232,1302.362347
1413.865862,7624.121203,-7994.224174,842.705048
1413.866191,7254.018232,-6735.874072,1532.190996
1413.866520,6735.874072,-6439.791695,1455.581446
1413.866850,6143.709319,-6439.791695,1072.533697
1413.867179,5773.606348,-6587.832884,995.924147
1413.867508,7105.977043,-4885.359217,383.047749
1413.867837,8216.285956,-4145.153275,1225.752797
1413.868166,9622.677246,-6069.688724,2451.505594
1413.868496,9252.574275,-5551.544565,1838.629195
1413.868825,7550.100608,-5329.482782,1225.752797
1413.869154,6217.729913,-6069.688724,306.438199
1413.869483,5625.565159,-6365.771101,-76.609550
1413.869813,5625.565159,-7254.018232,-229.828649
1413.870142,6291.750507,-7105.977043,-842.705048
1413.870471,7105.977043,-7698.141797,459.657299
1413.870800,7402.059420,-6365.771101,1378.971896
1413.871129,7920.203579,-6883.915261,536.266849
1413.871459,7994.224174,-7772.162391,1302.362347
1413.871788,8290.306550,-7328.038826,1685.410096
1413.872117,7402.059420,-7772.162391,1838.629195
1413.872446,6513.812290,-7254.018232,2068.457845
1413.872776,6439.791695,-6217.729913,1225.752797
1413.873105,7031.956449,-5551.544565,842.705048
1413.873434,7105.977043,-4663.297435,1685.410096
1413.873763,7254.018232,-6217.729913,2068.457845
1413.874092,7624.121203,-6217.729913,2221.676944
1413.874422,6513.812290,-5921.647536,1072.533697
1413.874751,4811.338623,-7031.956449,459.657299
1413.875080,5033.400406,-7772.162391,689.485948
1413.875409,6143.709319,-7994.224174,0.000000
1413.875739,6513.812290,-7402.059420,1149.143247
1413.876068,6957.935855,-6957.935855,1608.800546
1413.876397,7846.182985,-5625.565159,1225.752797
1413.876726,7994.224174,-5995.668130,919.314598
1413.877055,7476.080014,-6809.894666,1608.800546
1413.877385,7254.018232,-6143.709319,1991.848295
1413.877714,7105.977043,-7254.018232,2374.896044
1413.878043,6809.894666,-6661.853478,2298.286494
1413.878372,6365.771101,-5551.544565,1608.800546
1413.878702,7698.141797,-5699.585753,1991.848295
1413.879031,8216.285956,-6069.688724,2221.676944
1413.879360,7328.038826,-5847.626942,1455.581446
1413.879689,6291.750507,-4737.318029,0.000000
1413.880018,5329.482782,-6143.709319,229.828649
1413.880348,5773.606348,-7179.997637,612.876398
1413.880677,5921.647536,-8068.244768,383.047749
1413.881006,6587.832884,-6957.935855,383.047749
1413.881335,7476.080014,-6809.894666,919.314598
1413.881665,9030.512492,-5551.544565,2451.505594
1413.881994,9474.636058,-5773.606348,1455.581446
1413.882323,8586.388927,-5699.585753,919.314598
1413.882652,7105.977043,-4959.379811,383.047749
1413.882981,6365.771101,-7105.977043,536.266849
1413.883311,6735.874072,-7698.141797,1378.971896
1413.883640,6735.874072,-7328.038826,1302.362347
1413.883969,7328.038826,-6291.750507,1378.971896
1413.884298,7402.059420,-6069.688724,1915.238745
1413.884628,7179.997637,-5403.503377,1532.190996
1413.884957,7254.018232,-6439.791695,1072.533697
1413.885286,6217.729913,-5995.668130,612.876398
1413.885615,5773.606348,-5773.606348,0.000000
1413.885944,5551.544565,-7031.956449,153.219100
1413.886274,6735.874072,-7772.162391,1149.143247
1413.886603,7402.059420,-7105.977043,1072.533697
1413.886932,7846.182985,-5995.668130,995.924147
1413.887261,7772.162391,-5995.668130,919.314598
1413.887591,7328.038826,-5625.565159,76.609550
1413.887920,7105.977043,-6735.874072,0.000000
1413.888249,6217.729913,-8438.347739,612.876398
1413.888578,5625.565159,-9030.512492,612.876398
1413.888907,5551.544565,-8956.491898,842.705048
1413.889237,7328.038826,-7179.997637,1455.581446
1413.889566,8438.347739,-7476.080014,1915.238745
1413.889895,8808.450710,-5921.647536,2145.067394
1413.890224,8290.306550,-5033.400406,842.705048
1413.890554,6809.894666,-4737.318029,0.000000
1413.890883,6217.729913,-4515.256246,-612.876398
1413.891212,6143.709319,-5921.647536,-306.438199
1413.891541,6735.874072,-6143.709319,383.047749
1413.891870,7031.956449,-6587.832884,766.095498
1413.892200,7328.038826,-6217.729913,1378.971896
1413.892529,8068.244768,-6883.915261,1455.581446
1413.892858,7846.182985,-7328.038826,459.657299
1413.893187,6809.894666,-6365.771101,0.000000
1413.893517,6217.729913,-8142.265362,0.000000
1413.893846,5921.647536,-7105.977043,766.095498
1413.894175,5403.503377,-7105.977043,383.047749
1413.894504,5995.668130,-7031.956449,1149.143247
1413.894833,7920.203579,-4663.297435,2068.457845
1413.895163,9474.636058,-5551.544565,2681.334243
1413.895492,9844.739029,-5107.421000,2911.162892
1413.895821,7772.162391,-5181.441594,1838.629195
1413.896150,6883.915261,-4589.276840,153.219100
1413.896480,5847.626942,-4441.235652,-306.438199
1413.896809,5995.668130,-6291.750507,-229.828649
1413.897138,6217.729913,-7031.956449,0.000000
1413.897467,6809.894666,-6957.935855,-306.438199
1413.897796,7179.997637,-7698.141797,842.705048
1413.898126,7920.203579,-7624.121203,1455.581446
1413.898455,7772.162391,-7328.038826,383.047749
1413.898784,6957.935855,-8290.306550,1072.533697
1413.899113,7179.997637,-8364.327145,1915.238745
1413.899443,7105.977043,-7476.080014,1455.581446
1413.899772,6661.853478,-6809.894666,2374.896044
1413.900101,7105.977043,-5033.400406,1302.362347
1413.900430,8290.306550,-4589.276840,2068.457845
1413.900759,8660.409521,-4959.379811,2451.505594
1413.901089,8142.265362,-4737.318029,1762.019645
1413.901418,7105.977043,-4959.379811,612.876398
1413.901747,6217.729913,-6661.853478,612.876398
1413.902076,5255.462188,-7624.121203,536.266849
1413.902406,5181.441594,-8586.388927,-76.609550
1413.902735,5403.503377,-9030.512492,0.000000
1413.903064,5477.523971,-8438.347739,612.876398
1413.903393,6661.853478,-7772.162391,383.047749
1413.903722,7179.997637,-7846.182985,919.314598
1413.904052,7031.956449,-7031.956449,1149.143247
1413.904381,6809.894666,-7772.162391,1225.752797
1413.904710,6735.874072,-7698.141797,2681.334243
1413.905039,6217.729913,-6513.812290,2221.676944
1413.905369,7254.018232,-5403.503377,1838.629195
1413.905698,7624.121203,-3997.112087,2451.505594
1413.906027,8956.491898,-4293.194464,2298.286494
1413.906356,8438.347739,-4441.235652,2145.067394
1413.906685,6587.832884,-3923.091493,536.266849
1413.907015,5255.462188,-4515.256246,306.438199
1413.907344,5625.565159,-6217.729913,1149.143247
1413.907673,6143.709319,-9474.636058,1072.533697
1413.908002,5625.565159,-8586.388927,306.438199
1413.908332,5773.606348,-8068.244768,153.219100
1413.908661,7179.997637,-7476.080014,1072.533697
1413.908990,7772.162391,-6069.688724,995.924147
1413.909319,7105.977043,-5847.626942,842.705048
1413.909648,6883.915261,-6439.791695,1149.143247
1413.909978,7550.100608,-6513.812290,1991.848295
1413.910307,6883.915261,-6143.709319,2221.676944
1413.910636,7328.038826,-7105.977043,2681.334243
1413.910965,8438.347739,-5033.400406,2068.457845
1413.911295,8808.450710,-4737.318029,1838.629195
1413.911624,8512.368333,-4811.338623,1762.019645
1413.911953,8512.368333,-4515.256246,0.000000
1413.912282,7328.038826,-5847.626942,0.000000
1413.912611,6217.729913,-6143.709319,-689.485948
1413.912941,5625.565159,-8364.327145,0.000000
1413.913270,6217.729913,-9030.512492,0.000000
1413.913599,5995.668130,-8290.306550,229.828649
1413.913928,6735.874072,-8290.306550,612.876398
1413.914258,7994.224174,-7402.059420,1225.752797
1413.914587,8290.306550,-7920.203579,995.924147
1413.914916,7846.182985,-7105.977043,459.657299
1413.915245,6883.915261,-6439.791695,1378.971896
1413.915574,6513.812290,-6809.894666,1532.190996
1413.915904,5773.606348,-5033.400406,1149.143247
1413.916233,5699.585753,-5181.441594,995.924147
1413.916562,7994.224174,-4441.235652,2145.067394
1413.916891,9622.677246,-5477.523971,2987.772442
1413.917221,9474.636058,-6217.729913,2374.896044
1413.917550,7328.038826,-5847.626942,383.047749
1413.917879,5551.544565,-6143.709319,0.000000
1413.918208,4441.235652,-7105.977043,-1532.190996
1413.918537,3997.112087,-8364.327145,-1225.752797
1413.918867,4737.318029,-8142.265362,-459.657299
1413.919196,6661.853478,-8438.347739,0.000000
1413.919525,7105.977043,-6957.935855,842.705048
1413.919854,7328.038826,-8142.265362,1685.410096
1413.920184,7994.224174,-7254.018232,1225.752797
1413.920513,7624.121203,-6143.709319,1225.752797
1413.920842,6883.915261,-7105.977043,2145.067394
1413.921171,6735.874072,-5329.482782,1915.238745
1413.921500,7031.956449,-4959.379811,1532.190996
1413.921830,7402.059420,-4515.256246,2068.457845
1413.922159,7550.100608,-4071.132681,1991.848295
1413.922488,8586.388927,-5033.400406,1991.848295
1413.922817,7550.100608,-5699.585753,689.485948
1413.923147,6143.709319,-6883.915261,842.705048
1413.923476,5921.647536,-7031.956449,76.609550
1413.923805,5773.606348,-8364.327145,0.000000
1413.924134,5847.626942,-8882.471304,0.000000
1413.924463,6069.688724,-7772.162391,383.047749
1413.924793,6217.729913,-7772.162391,229.828649
1413.925122,6661.853478,-7328.038826,1225.752797
1413.925451,7624.121203,-7105.977043,995.924147
1413.925780,7772.162391,-7105.977043,1838.629195
1413.926110,7476.080014,-7772.162391,2451.505594
1413.926439,7031.956449,-7254.018232,2374.896044
1413.926768,6883.915261,-6143.709319,1685.410096
1413.927097,7031.956449,-4811.338623,2451.505594
1413.927426,7624.121203,-4737.318029,2145.067394
1413.927756,8956.491898,-4737.318029,2298.286494
1413.928085,8808.450710,-4515.256246,1378.971896
1413.928414,7328.038826,-5329.482782,1225.752797
1413.928743,5847.626942,-6883.915261,0.000000
1413.929073,5403.503377,-8438.347739,459.657299
1413.929402,5255.462188,-9030.512492,612.876398
1413.929731,5033.400406,-7328.038826,0.000000
1413.930060,5625.565159,-7105.977043,842.705048
1413.930389,6957.935855,-7105.977043,1149.143247
1413.930719,7550.100608,-6587.832884,1378.971896
1413.931048,7402.059420,-6291.750507,1532.190996
1413.931377,7179.997637,-6587.832884,2528.115143
1413.931706,7031.956449,-7698.141797,2681.334243
1413.932036,6069.688724,-7328.038826,1685.410096
1413.932365,5551.544565,-5181.441594,1072.533697
1413.932694,7105.977043,-3849.070898,536.266849
1413.933023,9178.553681,-4219.173869,1302.362347
1413.933352,9548.656652,-4885.359217,1991.848295
1413.933682,8290.306550,-5033.400406,842.705048
1413.934011,6513.812290,-6217.729913,766.095498
1413.934340,5255.462188,-7105.977043,0.000000
1413.934669,5255.462188,-8586.388927,306.438199
1413.934999,5625.565159,-8364.327145,459.657299
1413.935328,7476.080014,-8216.285956,919.314598
1413.935657,8364.327145,-6809.894666,1225.752797
1413.935986,7698.141797,-6809.894666,842.705048
1413.936315,7105.977043,-6661.853478,306.438199
1413.936645,7402.059420,-6217.729913,612.876398
1413.936974,6883.915261,-6809.894666,1762.019645
1413.937303,6513.812290,-6439.791695,1532.190996
1413.937632,6291.750507,-5921.647536,2451.505594
1413.937962,7698.141797,-4737.318029,1378.971896
1413.938291,8438.347739,-4515.256246,1915.238745
1413.938620,9770.718434,-5181.441594,2298.286494
1413.938949,8882.471304,-5625.565159,1685.410096
1413.939278,6661.853478,-6217.729913,0.000000
1413.939608,4737.318029,-5995.668130,-766.095498
1413.939937,4441.235652,-7698.141797,-1149.143247
1413.940266,5847.626942,-8438.347739,-459.657299
1413.940595,5921.647536,-8364.327145,383.047749
1413.940925,7402.059420,-8438.347739,995.924147
1413.941254,8290.306550,-7550.100608,842.705048
1413.941583,7698.141797,-7254.018232,995.924147
1413.941912,7179.997637,-7328.038826,766.095498
1413.942241,6957.935855,-6809.894666,1302.362347
1413.942571,5551.544565,-7031.956449,1455.581446
1413.942900,5625.565159,-6365.771101,612.876398
1413.943229,5699.585753,-4515.256246,1225.752797
1413.943558,7550.100608,-3849.070898,1532.190996
1413.943888,9400.615463,-5181.441594,2221.676944
1413.944217,9400.615463,-5033.400406,2757.943793
1413.944546,7550.100608,-5625.565159,1225.752797
1413.944875,5477.523971,-6217.729913,229.828649
1413.945204,5033.400406,-7254.018232,229.828649
1413.945534,4885.359217,-7920.203579,-766.095498
1413.945863,5551.544565,-8068.244768,-919.314598
1413.946192,6735.874072,-7846.182985,229.828649
1413.946521,7476.080014,-7846.182985,612.876398
1413.946851,7179.997637,-7698.141797,536.266849
1413.947180,7105.977043,-7328.038826,612.876398
1413.947509,6513.812290,-7920.203579,536.266849
1413.947838,5255.462188,-8290.306550,1685.410096
1413.948167,5403.503377,-8364.327145,1838.629195
1413.948497,6587.832884,-5921.647536,1838.629195
1413.948826,7846.182985,-3182.885551,1378.971896
1413.949155,9252.574275,-3108.864956,2298.286494
1413.949484,9918.759623,-3404.947333,2451.505594
1413.949814,9474.636058,-3552.988522,1378.971896
1413.950143,7698.141797,-4441.235652,842.705048
1413.950472,6883.915261,-5107.421000,536.266849
1413.950801,6883.915261,-7846.182985,842.705048
1413.951130,7476.080014,-9178.553681,842.705048
1413.951460,7254.018232,-9178.553681,306.438199
1413.951789,6735.874072,-7254.018232,0.000000
1413.952118,6439.791695,-7698.141797,-306.438199
1413.952447,6291.750507,-7846.182985,153.219100
1413.952777,7031.956449,-7698.141797,1838.629195
1413.953106,5921.647536,-8438.347739,1762.019645
1413.953435,4959.379811,-7698.141797,2604.724693
1413.953764,4663.297435,-7550.100608,2221.676944
1413.954093,6143.709319,-4885.359217,1838.629195
1413.954423,7402.059420,-2738.761985,2681.334243
1413.954752,9548.656652,-2738.761985,3217.601092
1413.955081,9770.718434,-3552.988522,2604.724693
1413.955410,8808.450710,-3478.967927,1685.410096
1413.955740,7179.997637,-4959.379811,229.828649
1413.956069,5921.647536,-6439.791695,0.000000
1413.956398,5329.482782,-8956.491898,-383.047749
1413.956727,5921.647536,-10658.965565,612.876398
1413.957056,7105.977043,-10584.944971,689.485948
1413.957386,7031.956449,-8882.471304,536.266849
1413.957715,6291.750507,-9252.574275,612.876398
1413.958044,6143.709319,-7328.038826,383.047749
1413.958373,6439.791695,-8290.306550,919.314598
1413.958703,5477.523971,-7031.956449,2145.067394
1413.959032,4293.194464,-5847.626942,1378.971896
1413.959361,5921.647536,-5329.482782,1608.800546
1413.959690,7624.121203,-2886.803174,2145.067394
1413.960019,10288.862594,-2738.761985,3294.210641
1413.960349,11473.192101,-3627.009116,4136.915689
1413.960678,9400.615463,-3701.029710,2145.067394
1413.961007,7624.121203,-5773.606348,842.705048
1413.961336,6217.729913,-7105.977043,-383.047749
1413.961666,5107.421000,-7772.162391,-1302.362347
1413.961995,4367.215058,-9474.636058,-689.485948
1413.962324,5625.565159,-10214.842000,-229.828649
1413.962653,7105.977043,-8660.409521,306.438199
1413.962982,7920.203579,-8290.306550,0.000000
1413.963312,8142.265362,-8290.306550,1225.752797
1413.963641,7254.018232,-7105.977043,766.095498
1413.963970,6291.750507,-8142.265362,1072.533697
1413.964299,5403.503377,-6809.894666,1149.143247
1413.964629,5847.626942,-5699.585753,1838.629195
1413.964958,7105.977043,-3108.864956,1838.629195
1413.965287,9104.533087,-3034.844362,2757.943793
1413.965616,10066.800811,-3256.906145,2451.505594
1413.965945,9918.759623,-3627.009116,1608.800546
1413.966275,8142.265362,-3923.091493,1072.533697
1413.966604,6291.750507,-5921.647536,383.047749
1413.966933,5255.462188,-7254.018232,-766.095498
1413.967262,4441.235652,-8364.327145,-1378.971896
1413.967591,4811.338623,-9474.636058,-766.095498
1413.967921,6735.874072,-9030.512492,612.876398
1413.968250,7772.162391,-8734.430116,1378.971896
1413.968579,7476.080014,-8364.327145,536.266849
1413.968908,6365.771101,-7476.080014,459.657299
1413.969238,6143.709319,-8364.327145,766.095498
1413.969567,5625.565159,-8216.285956,1225.752797
1413.969896,5477.523971,-6883.915261,1532.190996
1413.970225,6217.729913,-5699.585753,1532.190996
1413.970554,8290.306550,-2960.823768,1838.629195
1413.970884,9400.615463,-3478.967927,2145.067394
1413.971213,9474.636058,-4367.215058,2068.457845
1413.971542,7920.203579,-3849.070898,612.876398
1413.971871,6291.750507,-4737.318029,-689.485948
1413.972200,5699.585753,-6217.729913,0.000000
1413.972530,6735.874072,-8882.471304,459.657299
1413.972859,7624.121203,-10066.800811,842.705048
1413.973188,6587.832884,-8142.265362,383.047749
1413.973517,5699.585753,-7846.182985,229.828649
1413.973847,6291.750507,-7772.162391,459.657299
1413.974176,8068.244768,-8068.244768,536.266849
1413.974505,7031.956449,-8438.347739,1149.143247
1413.974834,5329.482782,-7846.182985,2145.067394
1413.975163,4071.132681,-7402.059420,1532.190996
1413.975493,5107.421000,-5477.523971,1685.410096
1413.975822,6291.750507,-3775.050304,1225.752797
1413.976151,8512.368333,-3775.050304,2757.943793
1413.976480,10140.821405,-4145.153275,2987.772442
1413.976809,9252.574275,-3627.009116,1302.362347
1413.977139,7031.956449,-4589.276840,1225.752797
1413.977468,6143.709319,-5329.482782,0.000000
1413.977797,6439.791695,-7328.038826,-536.266849
1413.978126,5699.585753,-9030.512492,0.000000
1413.978455,6883.915261,-8808.450710,919.314598
1413.978785,7846.182985,-8882.471304,842.705048
1413.979114,8512.368333,-7846.182985,1225.752797
1413.979443,8068.244768,-7772.162391,689.485948
1413.979772,7476.080014,-7105.977043,995.924147
1413.980102,6217.729913,-7994.224174,2221.676944
1413.980431,5847.626942,-7772.162391,1532.190996
1413.980760,5477.523971,-6143.709319,1532.190996
1413.981089,6587.832884,-4737.318029,1608.800546
1413.981418,7624.121203,-4293.194464,1991.848295
1413.981748,8586.388927,-5033.400406,3677.258390
1413.982077,9696.697840,-4663.297435,2757.943793
1413.982406,8142.265362,-3701.029710,1072.533697
1413.982735,6217.729913,-5107.421000,1149.143247
1413.983064,5995.668130,-6735.874072,229.828649
1413.983394,5699.585753,-8364.327145,-306.438199
1413.983723,5329.482782,-8290.306550,76.609550
1413.984052,6439.791695,-8956.491898,536.266849
1413.984381,7772.162391,-8586.388927,1685.410096
1413.984711,8734.430116,-7698.141797,1378.971896
1413.985040,7476.080014,-8808.450710,766.095498
1413.985369,6439.791695,-8142.265362,1455.581446
1413.985698,5625.565159,-8438.347739,1225.752797
1413.986027,4885.359217,-7179.997637,1915.238745
1413.986357,5107.421000,-5995.668130,1455.581446
1413.986686,7328.038826,-4293.194464,1915.238745
1413.987015,8512.368333,-3775.050304,2681.334243
1413.987344,8586.388927,-4219.173869,3294.210641
1413.987673,8364.327145,-3330.926739,2374.896044
1413.988003,7402.059420,-3182.885551,1149.143247
1413.988332,6069.688724,-4885.359217,536.266849
1413.988661,5403.503377,-6587.832884,-153.219100
1413.988990,5551.544565,-8586.388927,-766.095498
1413.989320,6587.832884,-8734.430116,153.219100
1413.989649,7402.059420,-8364.327145,1532.190996
1413.989978,8142.265362,-7920.203579,1608.800546
1413.990307,7328.038826,-8364.327145,153.219100
1413.990636,6291.750507,-7994.224174,0.000000
1413.990966,5477.523971,-7476.080014,153.219100
1413.991295,5625.565159,-7698.141797,76.609550
1413.991624,6291.750507,-6513.812290,1532.190996
1413.991953,7105.977043,-5255.462188,1838.629195
1413.992282,8364.327145,-3849.070898,1838.629195
1413.992612,9178.553681,-4293.194464,2834.553343
1413.992941,9030.512492,-3923.091493,1762.019645
1413.993270,7772.162391,-4589.276840,612.876398
1413.993599,6661.853478,-5921.647536,766.095498
1413.993928,6883.915261,-8142.265362,459.657299
1413.994258,6365.771101,-7920.203579,-766.095498
1413.994587,5551.544565,-8586.388927,-995.924147
1413.994916,6439.791695,-8364.327145,306.438199
1413.995245,8142.265362,-7179.997637,306.438199
1413.995575,7550.100608,-7254.018232,536.266849
1413.995904,6587.832884,-7402.059420,842.705048
1413.996233,6587.832884,-7846.182985,1149.143247
1413.996562,6365.771101,-7328.038826,995.924147
1413.996891,5551.544565,-6809.894666,1302.362347
1413.997221,6291.750507,-6143.709319,1532.190996
1413.997550,8142.265362,-4071.132681,1991.848295
1413.997879,8660.409521,-4219.173869,2145.067394
1413.998208,7994.224174,-4663.297435,1762.019645
1413.998537,6957.935855,-4885.359217,459.657299
1413.998867,5625.565159,-5181.441594,-536.266849
1413.999196,5329.482782,-6883.915261,0.000000
1413.999525,5921.647536,-8660.409521,459.657299
1413.999854,6883.915261,-9030.512492,306.438199
1414.000184,7254.018232,-8290.306550,612.876398
1414.000513,6957.935855,-7254.018232,229.828649
1414.000842,7402.059420,-7105.977043,0.000000
1414.001171,7254.018232,-6439.791695,0.000000
1414.001500,6587.832884,-6291.750507,306.438199
1414.001830,6365.771101,-6809.894666,1378.971896
1414.002159,6957.935855,-7031.956449,2298.286494
1414.002488,7550.100608,-6809.894666,2451.505594
1414.002817,8142.265362,-5181.441594,2451.505594
1414.003146,8734.430116,-4737.318029,2987.772442
