#time,accel_x,accel_y,accel_z
1469.874860,7031.956449,-6661.853478,612.876398
1469.875190,6957.935855,-7402.059420,1149.143247
1469.875521,7328.038826,-7550.100608,1455.581446
1469.875851,6513.812290,-6883.915261,1149.143247
1469.876181,6439.791695,-6661.853478,1149.143247
1469.876511,6513.812290,-6957.935855,1072.533697
1469.876841,6957.935855,-6587.832884,1072.533697
1469.877171,7105.977043,-6069.688724,1608.800546
1469.877501,7105.977043,-6217.729913,1149.143247
1469.877831,6957.935855,-6291.750507,766.095498
1469.878162,6883.915261,-6513.812290,612.876398
1469.878492,6957.935855,-6809.894666,919.314598
1469.878822,7031.956449,-6365.771101,1225.752797
1469.879152,7476.080014,-6439.791695,1302.362347
1469.879482,6957.935855,-6587.832884,1608.800546
1469.879812,7105.977043,-6661.853478,1302.362347
1469.880142,6957.935855,-6365.771101,1072.533697
1469.880472,7031.956449,-5995.668130,1455.581446
1469.880803,6587.832884,-6217.729913,1149.143247
1469.881133,6439.791695,-6513.812290,842.705048
1469.881463,6587.832884,-7105.977043,919.314598
1469.881793,7328.038826,-6439.791695,1532.190996
1469.882123,6957.935855,-6735.874072,1225.752797
1469.882453,6735.874072,-6809.894666,766.095498
1469.882783,6809.894666,-6957.935855,1225.752797
1469.883113,7031.956449,-7179.997637,689.485948
1469.883444,7031.956449,-6587.832884,995.924147
1469.883774,6957.935855,-6587.832884,919.314598
1469.884104,7254.018232,-7402.059420,536.266849
1469.884434,7179.997637,-6735.874072,1149.143247
1469.884764,7328.038826,-6439.791695,919.314598
1469.885094,7328.038826,-5995.668130,842.705048
1469.885424,7179.997637,-6513.812290,842.705048
1469.885754,7105.977043,-6513.812290,689.485948
1469.886085,7105.977043,-6365.771101,1072.533697
1469.886415,7328.038826,-5625.565159,689.485948
1469.886745,7179.997637,-6291.750507,995.924147
1469.887075,7105.977043,-6217.729913,919.314598
1469.887405,7105.977043,-6513.812290,1149.143247
1469.887735,7254.018232,-6365.771101,919.314598
1469.888065,7328.038826,-6587.832884,1225.752797
1469.888395,6957.935855,-6217.729913,919.314598
1469.888726,6957.935855,-6217.729913,919.314598
1469.889056,7105.977043,-6809.894666,1302.362347
1469.889386,6883.915261,-6217.729913,1685.410096
1469.889716,7031.956449,-6365.771101,612.876398
1469.890046,6587.832884,-6365.771101,1072.533697
1469.890376,6513.812290,-6661.853478,1072.533697
1469.890706,6661.853478,-6957.935855,842.705048
1469.891036,7031.956449,-6439.791695,766.095498
1469.891367,6809.894666,-7105.977043,1149.143247
1469.891697,7179.997637,-6883.915261,1149.143247
1469.892027,7476.080014,-6661.853478,1455.581446
1469.892357,7031.956449,-6809.894666,766.095498
1469.892687,7254.018232,-6883.915261,1149.143247
1469.893017,7031.956449,-7105.977043,995.924147
1469.893347,7105.977043,-6587.832884,842.705048
1469.893677,6809.894666,-6439.791695,1455.581446
1469.894008,7105.977043,-6069.688724,1685.410096
1469.894338,7179.997637,-6217.729913,1378.971896
1469.894668,6957.935855,-6513.812290,1455.581446
1469.894998,6735.874072,-6661.853478,1149.143247
1469.895328,6291.750507,-6513.812290,919.314598
1469.895658,6217.729913,-6143.709319,1838.629195
1469.895988,6365.771101,-6883.915261,1149.143247
1469.896318,6809.894666,-6957.935855,995.924147
1469.896649,6957.935855,-6883.915261,1225.752797
1469.896979,6661.853478,-6883.915261,1072.533697
1469.897309,6587.832884,-6439.791695,995.924147
1469.897639,6957.935855,-6883.915261,842.705048
1469.897969,7105.977043,-6957.935855,995.924147
1469.898299,6735.874072,-6365.771101,536.266849
1469.898629,7105.977043,-6883.915261,383.047749
1469.898959,7105.977043,-6809.894666,766.095498
1469.899290,7105.977043,-6365.771101,1225.752797
1469.899620,7105.977043,-6439.791695,1378.971896
1469.899950,7179.997637,-6661.853478,689.485948
1469.900280,7105.977043,-6513.812290,1608.800546
1469.900610,7105.977043,-6587.832884,612.876398
1469.900940,7254.018232,-5921.647536,995.924147
1469.901270,7624.121203,-5847.626942,1072.533697
1469.901600,7179.997637,-6291.750507,1532.190996
1469.901931,7328.038826,-6365.771101,1225.752797
1469.902261,7254.018232,-6291.750507,1149.143247
1469.902591,7105.977043,-6143.709319,919.314598
1469.902921,6735.874072,-5921.647536,612.876398
1469.903251,6883.915261,-6217.729913,1302.362347
1469.903581,6735.874072,-7031.956449,995.924147
1469.903911,7031.956449,-6661.853478,1149.143247
1469.904241,6957.935855,-6661.853478,842.705048
1469.904572,7031.956449,-6513.812290,1302.362347
1469.904902,6957.935855,-6809.894666,1072.533697
1469.905232,7031.956449,-6809.894666,842.705048
1469.905562,6661.853478,-6735.874072,536.266849
1469.905892,6957.935855,-6661.853478,1149.143247
1469.906222,7105.977043,-7031.956449,1378.971896
1469.906552,7179.997637,-6735.874072,1225.752797
1469.906882,7105.977043,-6735.874072,919.314598
1469.907213,6883.915261,-6735.874072,919.314598
1469.907543,6957.935855,-6957.935855,1685.410096
1469.907873,6735.874072,-6735.874072,689.485948
1469.908203,7105.977043,-7031.956449,995.924147
1469.908533,6957.935855,-5921.647536,1225.752797
1469.908863,7031.956449,-6513.812290,689.485948
1469.909193,6809.894666,-6217.729913,2145.067394
1469.909523,6883.915261,-6587.832884,1685.410096
1469.909854,7105.977043,-6513.812290,995.924147
1469.910184,6661.853478,-6365.771101,995.924147
1469.910514,6513.812290,-6587.832884,919.314598
1469.910844,7031.956449,-6661.853478,1532.190996
1469.911174,6735.874072,-6809.894666,1149.143247
1469.911504,6661.853478,-6365.771101,1225.752797
1469.911834,6439.791695,-6661.853478,995.924147
1469.912164,6735.874072,-7402.059420,1225.752797
1469.912495,6809.894666,-6957.935855,1072.533697
1469.912825,6809.894666,-6957.935855,766.095498
1469.913155,6809.894666,-6587.832884,995.924147
1469.913485,6883.915261,-6957.935855,1072.533697
1469.913815,7402.059420,-7031.956449,1378.971896
1469.914145,7105.977043,-6587.832884,1149.143247
1469.914475,7254.018232,-6587.832884,842.705048
1469.914805,7254.018232,-6735.874072,1455.581446
1469.915136,7031.956449,-6883.915261,842.705048
1469.915466,6883.915261,-6439.791695,536.266849
1469.915796,7254.018232,-6069.688724,766.095498
1469.916126,7179.997637,-6217.729913,919.314598
1469.916456,7328.038826,-6143.709319,995.924147
1469.916786,6809.894666,-6291.750507,1302.362347
1469.917116,7254.018232,-6143.709319,766.095498
1469.917446,6661.853478,-6069.688724,919.314598
1469.917777,6883.915261,-6291.750507,919.314598
1469.918107,6735.874072,-6217.729913,1225.752797
1469.918437,7402.059420,-6513.812290,536.266849
1469.918767,6735.874072,-6587.832884,766.095498
1469.919097,6883.915261,-6513.812290,995.924147
1469.919427,6883.915261,-6661.853478,766.095498
1469.919757,6809.894666,-5921.647536,1455.581446
1469.920087,7031.956449,-6883.915261,842.705048
1469.920418,6735.874072,-6439.791695,995.924147
1469.920748,7031.956449,-6809.894666,1072.533697
1469.921078,7105.977043,-6513.812290,842.705048
1469.921408,7328.038826,-6291.750507,1225.752797
1469.921738,6957.935855,-6735.874072,1225.752797
1469.922068,7179.997637,-6587.832884,1072.533697
1469.922398,7031.956449,-6883.915261,1072.533697
1469.922728,7105.977043,-6883.915261,842.705048
1469.923059,7105.977043,-6291.750507,536.266849
1469.923389,7254.018232,-5995.668130,919.314598
1469.923719,7031.956449,-6809.894666,919.314598
1469.924049,7105.977043,-6587.832884,1455.581446
1469.924379,6957.935855,-6439.791695,1685.410096
1469.924709,6957.935855,-6439.791695,1072.533697
1469.925039,6513.812290,-7105.977043,1225.752797
1469.925369,6661.853478,-6735.874072,1072.533697
1469.925700,6735.874072,-6883.915261,842.705048
1469.926030,6883.915261,-6661.853478,1608.800546
1469.926360,6661.853478,-6661.853478,1072.533697
1469.926690,6809.894666,-6735.874072,842.705048
1469.927020,6883.915261,-6957.935855,1302.362347
1469.927350,7031.956449,-6883.915261,612.876398
1469.927680,5995.668130,-6513.812290,766.095498
1469.928010,6513.812290,-6513.812290,1072.533697
1469.928341,6883.915261,-6809.894666,919.314598
1469.928671,7328.038826,-6587.832884,1455.581446
1469.929001,7772.162391,-6809.894666,1072.533697
1469.929331,7105.977043,-6365.771101,766.095498
1469.929661,7105.977043,-6513.812290,842.705048
1469.929991,7031.956449,-6587.832884,842.705048
1469.930321,7550.100608,-6365.771101,919.314598
1469.930651,7105.977043,-5847.626942,1455.581446
1469.930982,7402.059420,-6217.729913,689.485948
1469.931312,7179.997637,-6365.771101,1225.752797
1469.931642,7105.977043,-5995.668130,1225.752797
1469.931972,6735.874072,-6365.771101,995.924147
1469.932302,6883.915261,-5847.626942,919.314598
1469.932632,6735.874072,-6143.709319,1149.143247
1469.932962,6883.915261,-6587.832884,919.314598
1469.933292,7105.977043,-6587.832884,1225.752797
1469.933623,7179.997637,-6513.812290,1455.581446
1469.933953,6883.915261,-6439.791695,766.095498
1469.934283,6661.853478,-6883.915261,689.485948
1469.934613,6735.874072,-7105.977043,1072.533697
1469.934943,7105.977043,-6883.915261,919.314598
1469.935273,6809.894666,-6365.771101,1225.752797
1469.935603,6957.935855,-7031.956449,995.924147
1469.935933,7105.977043,-6439.791695,919.314598
1469.936264,7105.977043,-6365.771101,1378.971896
1469.936594,6957.935855,-6143.709319,1378.971896
1469.936924,7105.977043,-6291.750507,1149.143247
1469.937254,7105.977043,-6661.853478,995.924147
1469.937584,7105.977043,-6587.832884,612.876398
1469.937914,7179.997637,-5921.647536,842.705048
1469.938244,7179.997637,-6365.771101,766.095498
1469.938574,7105.977043,-6735.874072,995.924147
1469.938905,7105.977043,-6661.853478,1225.752797
1469.939234,7031.956449,-6957.935855,1225.752797
1469.939563,6661.853478,-6217.729913,1455.581446
1469.939893,6735.874072,-6809.894666,1225.752797
1469.940222,6513.812290,-6809.894666,1302.362347
1469.940552,6809.894666,-6735.874072,919.314598
1469.940881,7031.956449,-6809.894666,1608.800546
1469.941211,6735.874072,-6365.771101,1225.752797
1469.941540,6883.915261,-6957.935855,1302.362347
1469.941870,6513.812290,-6883.915261,1302.362347
1469.942199,6809.894666,-7105.977043,1072.533697
1469.942528,6957.935855,-6365.771101,612.876398
1469.942858,6809.894666,-7105.977043,1072.533697
1469.943187,7179.997637,-7179.997637,1149.143247
1469.943517,7179.997637,-6439.791695,1149.143247
1469.943846,7179.997637,-6661.853478,919.314598
1469.944176,7402.059420,-6587.832884,1302.362347
1469.944505,6661.853478,-6365.771101,919.314598
1469.944834,7031.956449,-6809.894666,919.314598
1469.945164,7031.956449,-6143.709319,919.314598
1469.945493,7328.038826,-5773.606348,919.314598
1469.945823,7328.038826,-6143.709319,1302.362347
1469.946152,7031.956449,-6143.709319,1225.752797
1469.946482,7179.997637,-6217.729913,1225.752797
1469.946811,7179.997637,-6291.750507,1149.143247
1469.947140,7105.977043,-5921.647536,1455.581446
1469.947470,6587.832884,-6217.729913,995.924147
1469.947799,6957.935855,-6809.894666,766.095498
1469.948129,6883.915261,-6587.832884,842.705048
1469.948458,6883.915261,-6439.791695,1225.752797
1469.948788,6957.935855,-6587.832884,1455.581446
1469.949117,6957.935855,-6513.812290,1072.533697
1469.949447,6809.894666,-6587.832884,689.485948
1469.949776,6809.894666,-6661.853478,1072.533697
1469.950105,6883.915261,-6513.812290,995.924147
1469.950435,7624.121203,-6661.853478,766.095498
1469.950764,7476.080014,-6439.791695,1072.533697
1469.951094,7105.977043,-6587.832884,919.314598
1469.951423,7254.018232,-6587.832884,1149.143247
1469.951753,7254.018232,-6143.709319,1302.362347
1469.952082,7105.977043,-6513.812290,842.705048
1469.952411,7105.977043,-6735.874072,766.095498
1469.952741,7105.977043,-6439.791695,1302.362347
1469.953070,7328.038826,-6809.894666,995.924147
1469.953400,7105.977043,-5995.668130,1991.848295
1469.953729,7994.224174,-7105.977043,1378.971896
1469.954059,6957.935855,-6069.688724,1302.362347
1469.954388,6883.915261,-6291.750507,1149.143247
1469.954717,6513.812290,-6069.688724,1532.190996
1469.955047,6735.874072,-6587.832884,1149.143247
1469.955376,6957.935855,-6809.894666,1149.143247
1469.955706,5921.647536,-6439.791695,306.438199
1469.956035,6661.853478,-6735.874072,919.314598
1469.956365,7031.956449,-6661.853478,1838.629195
1469.956694,6957.935855,-7402.059420,766.095498
1469.957023,6883.915261,-7179.997637,536.266849
1469.957353,6587.832884,-6883.915261,766.095498
1469.957682,6883.915261,-7772.162391,1072.533697
1469.958012,6883.915261,-6735.874072,1378.971896
1469.958341,7105.977043,-6291.750507,1225.752797
1469.958671,7105.977043,-6365.771101,689.485948
1469.959000,7179.997637,-6217.729913,919.314598
1469.959330,7254.018232,-6809.894666,1302.362347
1469.959659,7105.977043,-6365.771101,153.219100
1469.959988,7105.977043,-5625.565159,1225.752797
1469.960318,7105.977043,-6069.688724,842.705048
1469.960647,7179.997637,-6365.771101,919.314598
1469.960977,6957.935855,-5995.668130,1762.019645
1469.961306,7105.977043,-6587.832884,1149.143247
1469.961636,7105.977043,-6439.791695,1149.143247
1469.961965,6957.935855,-6513.812290,919.314598
1469.962294,6587.832884,-6883.915261,1225.752797
1469.962624,6809.894666,-6809.894666,1072.533697
1469.962953,6883.915261,-6365.771101,1225.752797
1469.963283,6809.894666,-6365.771101,1149.143247
1469.963612,6883.915261,-6587.832884,1225.752797
1469.963942,7179.997637,-6069.688724,919.314598
1469.964271,6809.894666,-7105.977043,383.047749
1469.964600,6661.853478,-6439.791695,689.485948
1469.964930,6957.935855,-7031.956449,1072.533697
1469.965259,6809.894666,-6439.791695,919.314598
1469.965589,7254.018232,-6365.771101,1532.190996
1469.965918,7402.059420,-6957.935855,1149.143247
1469.966248,7105.977043,-7031.956449,919.314598
1469.966577,6883.915261,-6883.915261,1072.533697
1469.966907,7105.977043,-6661.853478,919.314598
1469.967236,6957.935855,-6217.729913,842.705048
1469.967565,7254.018232,-5847.626942,1455.581446
1469.967895,7328.038826,-6291.750507,1225.752797
1469.968224,6957.935855,-6291.750507,1072.533697
1469.968554,7328.038826,-6217.729913,1072.533697
1469.968883,7105.977043,-6365.771101,842.705048
1469.969213,6587.832884,-6587.832884,919.314598
1469.969542,6735.874072,-6735.874072,842.705048
1469.969871,6661.853478,-7105.977043,1302.362347
1469.970201,7105.977043,-7031.956449,919.314598
1469.970530,6735.874072,-6587.832884,612.876398
1469.970860,6661.853478,-6883.915261,919.314598
1469.971189,6883.915261,-6957.935855,766.095498
1469.971519,6735.874072,-6217.729913,459.657299
1469.971848,6587.832884,-6735.874072,995.924147
1469.972177,6587.832884,-6883.915261,1149.143247
1469.972507,7105.977043,-6439.791695,842.705048
1469.972836,7254.018232,-6291.750507,536.266849
1469.973166,6883.915261,-6661.853478,1225.752797
1469.973495,7105.977043,-6513.812290,612.876398
1469.973825,7105.977043,-6809.894666,612.876398
1469.974154,7254.018232,-7105.977043,995.924147
1469.974484,7328.038826,-6513.812290,1149.143247
1469.974813,7476.080014,-6365.771101,1149.143247
1469.975142,7179.997637,-6291.750507,1072.533697
1469.975472,7254.018232,-6217.729913,995.924147
1469.975801,7105.977043,-5995.668130,1149.143247
1469.976131,6809.894666,-5773.606348,842.705048
1469.976460,6883.915261,-6217.729913,919.314598
1469.976790,6513.812290,-5921.647536,1072.533697
1469.977119,7031.956449,-6587.832884,842.705048
1469.977448,7179.997637,-6661.853478,1302.362347
1469.977778,6957.935855,-6957.935855,1149.143247
1469.978107,6809.894666,-6513.812290,1225.752797
1469.978437,6883.915261,-6883.915261,1149.143247
1469.978766,6735.874072,-7031.956449,1072.533697
1469.979096,6957.935855,-6735.874072,689.485948
1469.979425,6809.894666,-6661.853478,995.924147
1469.979754,6735.874072,-7105.977043,1072.533697
1469.980084,7105.977043,-6513.812290,842.705048
1469.980413,7105.977043,-6439.791695,995.924147
1469.980743,7031.956449,-6661.853478,1072.533697
1469.981072,7254.018232,-6291.750507,1072.533697
1469.981402,7105.977043,-6883.915261,1072.533697
1469.981731,7328.038826,-6661.853478,766.095498
1469.982061,7550.100608,-6217.729913,1378.971896
1469.982390,7179.997637,-6587.832884,1149.143247
1469.982719,7031.956449,-6735.874072,1302.362347
1469.983049,7105.977043,-6809.894666,1225.752797
1469.983378,7105.977043,-6217.729913,842.705048
1469.983708,7476.080014,-6439.791695,383.047749
1469.984037,6809.894666,-6439.791695,919.314598
1469.984367,6439.791695,-7031.956449,842.705048
1469.984696,7031.956449,-6439.791695,1072.533697
1469.985025,7105.977043,-6217.729913,1685.410096
1469.985355,6661.853478,-6957.935855,842.705048
1469.985684,6513.812290,-6957.935855,1762.019645
1469.986014,6809.894666,-7031.956449,1149.143247
1469.986343,7031.956449,-7105.977043,766.095498
1469.986673,6587.832884,-5995.668130,919.314598
1469.987002,6957.935855,-6883.915261,766.095498
1469.987331,7402.059420,-6809.894666,995.924147
1469.987661,7402.059420,-6513.812290,1302.362347
1469.987990,7402.059420,-6217.729913,459.657299
1469.988320,7105.977043,-6365.771101,612.876398
1469.988649,7105.977043,-6513.812290,1072.533697
1469.988979,7254.018232,-5551.544565,536.266849
1469.989308,7624.121203,-5033.400406,766.095498
1469.989638,8586.388927,-4885.359217,1072.533697
1469.989967,8808.450710,-5477.523971,1225.752797
1469.990296,8290.306550,-5995.668130,1378.971896
1469.990626,7105.977043,-6513.812290,536.266849
1469.990955,6365.771101,-7031.956449,0.000000
1469.991285,5847.626942,-6587.832884,229.828649
1469.991614,6809.894666,-6809.894666,459.657299
1469.991944,7920.203579,-6809.894666,1455.581446
1469.992273,8512.368333,-6069.688724,1915.238745
1469.992602,8882.471304,-4737.318029,1838.629195
1469.992932,7994.224174,-4367.215058,1072.533697
1469.993261,7328.038826,-4959.379811,995.924147
1469.993591,7994.224174,-4737.318029,919.314598
1469.993920,8364.327145,-4737.318029,766.095498
1469.994250,8364.327145,-4737.318029,766.095498
1469.994579,8142.265362,-5181.441594,229.828649
1469.994908,8142.265362,-5625.565159,995.924147
1469.995238,8364.327145,-4959.379811,229.828649
1469.995567,8734.430116,-6291.750507,1072.533697
1469.995897,8290.306550,-5921.647536,1302.362347
1469.996226,7994.224174,-5773.606348,383.047749
1469.996556,7550.100608,-5625.565159,612.876398
1469.996885,8364.327145,-4441.235652,995.924147
1469.997214,8660.409521,-5255.462188,1302.362347
1469.997544,8882.471304,-4367.215058,1762.019645
1469.997873,8882.471304,-4219.173869,1685.410096
1469.998203,9252.574275,-3478.967927,1455.581446
1469.998532,9474.636058,-3775.050304,1149.143247
1469.998862,9178.553681,-3552.988522,1378.971896
1469.999191,9474.636058,-3108.864956,1072.533697
1469.999521,9474.636058,-3627.009116,1225.752797
1469.999850,9548.656652,-3552.988522,1378.971896
1470.000179,9844.739029,-4071.132681,1072.533697
1470.000509,9918.759623,-4737.318029,1915.238745
1470.000838,9770.718434,-4663.297435,1302.362347
1470.001168,8586.388927,-5107.421000,1302.362347
1470.001497,8290.306550,-4145.153275,995.924147
1470.001827,7476.080014,-5181.441594,1149.143247
1470.002156,8438.347739,-5107.421000,1455.581446
1470.002485,8660.409521,-3997.112087,1149.143247
1470.002815,8660.409521,-3997.112087,842.705048
1470.003144,8956.491898,-4145.153275,459.657299
1470.003474,8660.409521,-5329.482782,766.095498
1470.003803,8512.368333,-5773.606348,229.828649
1470.004133,8438.347739,-5255.462188,536.266849
1470.004462,8586.388927,-4959.379811,0.000000
1470.004791,8660.409521,-5995.668130,-229.828649
1470.005121,8808.450710,-5847.626942,536.266849
1470.005450,9622.677246,-5181.441594,459.657299
1470.005780,9770.718434,-4367.215058,919.314598
1470.006109,9474.636058,-3627.009116,1915.238745
1470.006439,9548.656652,-3849.070898,1302.362347
1470.006768,9622.677246,-3552.988522,1378.971896
1470.007098,9252.574275,-3182.885551,1991.848295
1470.007427,9178.553681,-3552.988522,1378.971896
1470.007756,9030.512492,-4071.132681,2298.286494
1470.008086,8956.491898,-4219.173869,2145.067394
1470.008415,8956.491898,-4737.318029,1302.362347
1470.008745,8660.409521,-3997.112087,1149.143247
1470.009074,8512.368333,-4367.215058,612.876398
1470.009404,9104.533087,-4219.173869,229.828649
1470.009733,9326.594869,-3627.009116,612.876398
1470.010062,9178.553681,-4441.235652,-459.657299
1470.010392,8956.491898,-4515.256246,0.000000
1470.010721,8734.430116,-5329.482782,919.314598
1470.011051,9474.636058,-5329.482782,536.266849
1470.011380,9400.615463,-5329.482782,842.705048
1470.011710,9400.615463,-5181.441594,1072.533697
1470.012039,9030.512492,-5551.544565,1838.629195
1470.012368,8956.491898,-4737.318029,2604.724693
1470.012698,8882.471304,-5181.441594,2374.896044
1470.013027,9104.533087,-3849.070898,1838.629195
1470.013357,9104.533087,-3256.906145,1532.190996
1470.013686,9474.636058,-2368.659014,2221.676944
1470.014016,9252.574275,-2590.720797,919.314598
1470.014345,9326.594869,-1924.535449,306.438199
1470.014675,9326.594869,-2294.638420,-383.047749
1470.015004,9696.697840,-3108.864956,0.000000
1470.015333,9992.780217,-4219.173869,919.314598
1470.015663,9474.636058,-5699.585753,536.266849
1470.015992,8660.409521,-6365.771101,459.657299
1470.016322,7920.203579,-7105.977043,536.266849
1470.016651,7550.100608,-8364.327145,1072.533697
1470.016981,8216.285956,-7994.224174,919.314598
1470.017310,7328.038826,-7624.121203,536.266849
1470.017639,6883.915261,-6735.874072,536.266849
1470.017969,7402.059420,-4885.359217,1225.752797
1470.018298,8512.368333,-3627.009116,1149.143247
1470.018628,9622.677246,-2664.741391,1455.581446
1470.018957,9992.780217,-1110.308913,1225.752797
1470.019287,10288.862594,-740.205942,1378.971896
1470.019616,10807.006753,0.000000,1072.533697
1470.019945,12139.377449,-222.061783,536.266849
1470.020275,12361.439231,-666.185348,842.705048
1470.020604,12361.439231,-1406.391290,1455.581446
1470.020934,11843.295072,-2442.679609,1149.143247
1470.021263,10510.924376,-5181.441594,1302.362347
1470.021593,9252.574275,-7920.203579,1762.019645
1470.021922,7031.956449,-8808.450710,1378.971896
1470.022252,4737.318029,-9696.697840,0.000000
1470.022581,3034.844362,-9770.718434,-995.924147
1470.022910,3256.906145,-9252.574275,-766.095498
1470.023240,4959.379811,-7846.182985,-995.924147
1470.023569,7254.018232,-6661.853478,383.047749
1470.023899,9918.759623,-4367.215058,1532.190996
1470.024228,11251.130318,-2590.720797,2221.676944
1470.024558,11547.212695,-814.226536,2068.457845
1470.024887,11251.130318,-296.082377,1608.800546
1470.025216,11547.212695,1036.288319,383.047749
1470.025546,11843.295072,0.000000,842.705048
1470.025875,13027.624579,-1480.411884,1302.362347
1470.026205,13619.789333,-2738.761985,2681.334243
1470.026534,13101.645173,-3108.864956,2834.553343
1470.026864,10881.027347,-4293.194464,2298.286494
1470.027193,7846.182985,-5699.585753,1455.581446
1470.027522,6291.750507,-8068.244768,0.000000
1470.027852,3849.070898,-8660.409521,229.828649
1470.028181,2442.679609,-8068.244768,-1149.143247
1470.028511,2960.823768,-7254.018232,-1532.190996
1470.028840,5699.585753,-5255.462188,-536.266849
1470.029170,9252.574275,-4145.153275,612.876398
1470.029499,12139.377449,-2516.700203,1532.190996
1470.029829,13323.706956,-2664.741391,2834.553343
1470.030158,12435.459826,-1110.308913,2298.286494
1470.030487,11325.150913,-2072.576638,1762.019645
1470.030817,9696.697840,-3330.926739,1455.581446
1470.031146,8882.471304,-4145.153275,229.828649
1470.031476,8290.306550,-8068.244768,1302.362347
1470.031805,8660.409521,-7994.224174,2374.896044
1470.032135,8956.491898,-8512.368333,2221.676944
1470.032464,8068.244768,-5255.462188,1149.143247
1470.032793,6661.853478,-3627.009116,306.438199
1470.033123,6365.771101,-2960.823768,-919.314598
1470.033452,7476.080014,-2886.803174,76.609550
1470.033782,8290.306550,-2812.782580,919.314598
1470.034111,9770.718434,-592.164754,995.924147
1470.034441,10955.047942,-592.164754,842.705048
1470.034770,11991.336260,-2220.617826,1532.190996
1470.035099,12287.418637,-4145.153275,2451.505594
1470.035429,11621.233289,-5477.523971,2451.505594
1470.035758,10955.047942,-5625.565159,1991.848295
1470.036088,8808.450710,-5033.400406,1072.533697
1470.036417,7550.100608,-5033.400406,-306.438199
1470.036747,6809.894666,-7105.977043,0.000000
1470.037076,6661.853478,-8290.306550,842.705048
1470.037406,6143.709319,-9252.574275,766.095498
1470.037735,6069.688724,-6291.750507,0.000000
1470.038064,5255.462188,-4959.379811,0.000000
1470.038394,6513.812290,-5107.421000,-306.438199
1470.038723,8364.327145,-6143.709319,1608.800546
1470.039053,10214.842000,-3997.112087,2068.457845
1470.039382,11695.253884,-1184.329507,1608.800546
1470.039712,11695.253884,888.247130,1149.143247
1470.040041,11399.171507,-444.123565,1072.533697
1470.040370,10955.047942,-2812.782580,1302.362347
1470.040700,10362.883188,-4737.318029,1532.190996
1470.041029,10584.944971,-4219.173869,1378.971896
1470.041359,11251.130318,-4367.215058,1991.848295
1470.041688,10807.006753,-5107.421000,1915.238745
1470.042017,9326.594869,-4515.256246,1685.410096
1470.042347,7698.141797,-5107.421000,76.609550
1470.042676,7772.162391,-5033.400406,0.000000
1470.043005,7846.182985,-4515.256246,1072.533697
1470.043335,8660.409521,-5329.482782,1378.971896
1470.043664,7698.141797,-4737.318029,153.219100
1470.043993,7031.956449,-4737.318029,0.000000
1470.044323,7031.956449,-5625.565159,0.000000
1470.044652,9252.574275,-5329.482782,1455.581446
1470.044981,10436.903782,-5107.421000,1608.800546
1470.045311,9548.656652,-3404.947333,153.219100
1470.045640,8068.244768,-4737.318029,459.657299
1470.045969,7772.162391,-7179.997637,919.314598
1470.046298,7994.224174,-7624.121203,1378.971896
1470.046628,7994.224174,-4367.215058,842.705048
1470.046957,9178.553681,-3330.926739,306.438199
1470.047286,9770.718434,-3108.864956,2451.505594
1470.047616,10658.965565,-4293.194464,2757.943793
1470.047945,10362.883188,-2886.803174,2451.505594
1470.048274,10214.842000,0.000000,1378.971896
1470.048604,9696.697840,-888.247130,1225.752797
1470.048933,8512.368333,-3108.864956,1149.143247
1470.049262,7920.203579,-4219.173869,1532.190996
1470.049592,9178.553681,-4737.318029,612.876398
1470.049921,9696.697840,-4811.338623,919.314598
1470.050250,10214.842000,-4219.173869,1225.752797
1470.050580,8734.430116,-5403.503377,306.438199
1470.050909,8808.450710,-6809.894666,766.095498
1470.051238,8290.306550,-6957.935855,842.705048
1470.051568,7920.203579,-6069.688724,76.609550
1470.051897,7550.100608,-5033.400406,995.924147
1470.052226,7254.018232,-5107.421000,459.657299
1470.052556,8142.265362,-4441.235652,306.438199
1470.052885,8734.430116,-3849.070898,1149.143247
1470.053214,9696.697840,-4589.276840,1762.019645
1470.053544,9696.697840,-5255.462188,1915.238745
1470.053873,9252.574275,-4219.173869,1302.362347
1470.054202,8586.388927,-4293.194464,229.828649
1470.054532,8290.306550,-4811.338623,1225.752797
1470.054861,8586.388927,-5847.626942,842.705048
1470.055190,8586.388927,-6735.874072,1072.533697
1470.055520,8586.388927,-7254.018232,1225.752797
1470.055849,7476.080014,-5255.462188,229.828649
1470.056178,6957.935855,-5699.585753,229.828649
1470.056508,6883.915261,-5921.647536,229.828649
1470.056837,8808.450710,-4515.256246,1149.143247
1470.057166,9992.780217,-3849.070898,1149.143247
1470.057496,9326.594869,-3478.967927,1455.581446
1470.057825,7772.162391,-4219.173869,689.485948
1470.058154,7476.080014,-5847.626942,76.609550
1470.058484,7179.997637,-6143.709319,459.657299
1470.058813,7772.162391,-5847.626942,919.314598
1470.059142,8734.430116,-6291.750507,1149.143247
1470.059471,7920.203579,-6883.915261,612.876398
1470.059801,6661.853478,-8956.491898,612.876398
1470.060130,5181.441594,-9252.574275,0.000000
1470.060459,3775.050304,-9030.512492,-919.314598
1470.060789,3478.967927,-9400.615463,76.609550
1470.061118,5033.400406,-7772.162391,689.485948
1470.061447,7254.018232,-6439.791695,306.438199
1470.061777,7105.977043,-5773.606348,689.485948
1470.062106,7550.100608,-4515.256246,1149.143247
1470.062435,7920.203579,-5403.503377,842.705048
1470.062765,7254.018232,-5625.565159,-459.657299
1470.063094,6365.771101,-6291.750507,2145.067394
1470.063423,8956.491898,-5699.585753,2987.772442
1470.063753,11029.068536,-5255.462188,2911.162892
1470.064082,9326.594869,-4219.173869,3447.429741
1470.064411,7624.121203,-3182.885551,2451.505594
1470.064741,6513.812290,-4737.318029,612.876398
1470.065070,5403.503377,-4293.194464,459.657299
1470.065399,6587.832884,-4515.256246,842.705048
1470.065729,7994.224174,-5625.565159,0.000000
1470.066058,7698.141797,-7550.100608,1915.238745
1470.066387,7179.997637,-7772.162391,1991.848295
1470.066717,7179.997637,-5329.482782,2221.676944
1470.067046,8142.265362,-5847.626942,919.314598
1470.067375,7846.182985,-6513.812290,1762.019645
1470.067705,7698.141797,-6513.812290,1915.238745
1470.068034,7846.182985,-6883.915261,153.219100
1470.068363,6957.935855,-7328.038826,229.828649
1470.068693,5403.503377,-8290.306550,919.314598
1470.069022,5773.606348,-7994.224174,229.828649
1470.069351,4811.338623,-8660.409521,766.095498
1470.069681,5107.421000,-7994.224174,536.266849
1470.070010,5255.462188,-8512.368333,0.000000
1470.070339,5403.503377,-7920.203579,76.609550
1470.070669,5551.544565,-8364.327145,383.047749
1470.070998,5699.585753,-8882.471304,612.876398
1470.071327,5699.585753,-7920.203579,0.000000
1470.071657,6143.709319,-8438.347739,842.705048
1470.071986,8512.368333,-6735.874072,2145.067394
1470.072315,9844.739029,-4737.318029,2604.724693
1470.072644,9548.656652,-4737.318029,3524.039291
1470.072974,8956.491898,-4367.215058,2451.505594
1470.073303,7624.121203,-3330.926739,1532.190996
1470.073632,6217.729913,-3775.050304,919.314598
1470.073962,6513.812290,-4737.318029,1455.581446
1470.074291,7105.977043,-4811.338623,536.266849
1470.074620,6217.729913,-5847.626942,612.876398
1470.074950,4811.338623,-7402.059420,612.876398
1470.075279,4737.318029,-8808.450710,689.485948
1470.075608,5181.441594,-8290.306550,459.657299
1470.075938,6069.688724,-8068.244768,1149.143247
1470.076267,7105.977043,-7105.977043,1072.533697
1470.076596,8216.285956,-6217.729913,1532.190996
1470.076926,7994.224174,-5551.544565,1762.019645
1470.077255,7550.100608,-4885.359217,1302.362347
1470.077584,7179.997637,-5033.400406,459.657299
1470.077914,7254.018232,-5181.441594,842.705048
1470.078243,8142.265362,-5699.585753,919.314598
1470.078572,8290.306550,-7105.977043,1302.362347
1470.078902,7402.059420,-7031.956449,1915.238745
1470.079231,5921.647536,-6883.915261,383.047749
1470.079560,5329.482782,-7476.080014,0.000000
1470.079890,4885.359217,-7105.977043,-766.095498
1470.080219,5403.503377,-9622.677246,1072.533697
1470.080548,7920.203579,-8882.471304,1455.581446
1470.080878,7402.059420,-6735.874072,689.485948
1470.081207,6513.812290,-7179.997637,1225.752797
1470.081536,6809.894666,-6513.812290,1378.971896
1470.081866,7772.162391,-4811.338623,0.000000
1470.082195,7031.956449,-4293.194464,1455.581446
1470.082524,8216.285956,-4885.359217,1149.143247
1470.082854,9548.656652,-5403.503377,766.095498
1470.083183,8216.285956,-6291.750507,1762.019645
1470.083512,7476.080014,-7550.100608,1072.533697
1470.083842,7402.059420,-6809.894666,306.438199
1470.084171,6809.894666,-7105.977043,766.095498
1470.084500,6735.874072,-9178.553681,995.924147
1470.084830,6661.853478,-7476.080014,536.266849
1470.085159,5551.544565,-7105.977043,229.828649
1470.085488,5403.503377,-7179.997637,-76.609550
1470.085818,6069.688724,-5921.647536,0.000000
1470.086147,6439.791695,-5921.647536,1072.533697
1470.086476,7624.121203,-5699.585753,3064.381992
1470.086805,9622.677246,-4367.215058,2298.286494
1470.087135,8734.430116,-3997.112087,919.314598
1470.087464,7624.121203,-3849.070898,1685.410096
1470.087793,7920.203579,-5403.503377,995.924147
1470.088123,8808.450710,-5921.647536,842.705048
1470.088452,7254.018232,-6735.874072,1532.190996
1470.088781,7179.997637,-7846.182985,1608.800546
1470.089111,7105.977043,-6587.832884,612.876398
1470.089440,5329.482782,-7179.997637,995.924147
1470.089769,4515.256246,-9400.615463,766.095498
1470.090099,4959.379811,-7179.997637,0.000000
1470.090428,5699.585753,-6365.771101,536.266849
1470.090757,7031.956449,-5921.647536,1149.143247
1470.091087,8808.450710,-4811.338623,1302.362347
1470.091416,8808.450710,-5995.668130,2145.067394
1470.091745,8216.285956,-6735.874072,1455.581446
1470.092075,7402.059420,-6217.729913,1378.971896
1470.092404,6587.832884,-5921.647536,229.828649
1470.092733,6439.791695,-7254.018232,766.095498
1470.093063,7402.059420,-7179.997637,1072.533697
1470.093392,7402.059420,-8142.265362,1378.971896
1470.093721,6439.791695,-8882.471304,1378.971896
1470.094051,5477.523971,-8216.285956,536.266849
1470.094380,3775.050304,-7179.997637,-995.924147
1470.094709,3552.988522,-7402.059420,-383.047749
1470.095039,5699.585753,-8142.265362,1149.143247
1470.095368,9030.512492,-5921.647536,1608.800546
1470.095697,8290.306550,-5255.462188,1838.629195
1470.096027,7846.182985,-5625.565159,2451.505594
1470.096356,7772.162391,-3849.070898,1378.971896
1470.096685,7550.100608,-6291.750507,1532.190996
1470.097015,7772.162391,-6735.874072,2757.943793
1470.097344,7994.224174,-5995.668130,2528.115143
1470.097673,7624.121203,-6883.915261,1455.581446
1470.098003,6809.894666,-3997.112087,1378.971896
1470.098332,6809.894666,-6143.709319,612.876398
1470.098661,7105.977043,-7105.977043,842.705048
1470.098991,6513.812290,-7105.977043,1225.752797
1470.099320,5625.565159,-7624.121203,459.657299
1470.099649,6735.874072,-5255.462188,459.657299
1470.099978,6439.791695,-6735.874072,229.828649
1470.100308,5995.668130,-7328.038826,766.095498
1470.100637,5625.565159,-7698.141797,689.485948
1470.100966,6513.812290,-8290.306550,919.314598
1470.101296,7254.018232,-6735.874072,1225.752797
1470.101625,7772.162391,-7772.162391,2145.067394
1470.101954,7328.038826,-7031.956449,1608.800546
1470.102284,6957.935855,-6735.874072,1225.752797
1470.102613,6291.750507,-6513.812290,459.657299
1470.102942,5847.626942,-6217.729913,459.657299
1470.103272,6883.915261,-5551.544565,1838.629195
1470.103601,9104.533087,-5107.421000,1532.190996
1470.103930,8882.471304,-7624.121203,1762.019645
1470.104260,7031.956449,-5847.626942,1455.581446
1470.104589,5329.482782,-7402.059420,-459.657299
1470.104918,4293.194464,-7550.100608,-306.438199
1470.105248,4959.379811,-6883.915261,0.000000
1470.105577,6883.915261,-7920.203579,689.485948
1470.105906,8142.265362,-7179.997637,995.924147
1470.106236,7328.038826,-7031.956449,766.095498
1470.106565,6439.791695,-6883.915261,1455.581446
1470.106894,6957.935855,-5995.668130,229.828649
1470.107224,7402.059420,-4071.132681,536.266849
1470.107553,7920.203579,-4293.194464,2374.896044
1470.107882,9770.718434,-4811.338623,2374.896044
1470.108212,9918.759623,-3997.112087,2068.457845
1470.108541,8438.347739,-4959.379811,2604.724693
1470.108870,7179.997637,-6069.688724,1072.533697
1470.109200,6069.688724,-5699.585753,306.438199
1470.109529,5033.400406,-7846.182985,766.095498
1470.109858,6661.853478,-8290.306550,1378.971896
1470.110188,6883.915261,-8660.409521,919.314598
1470.110517,5773.606348,-6957.935855,689.485948
1470.110846,4663.297435,-7105.977043,1072.533697
1470.111176,5921.647536,-5921.647536,-919.314598
1470.111505,6291.750507,-6439.791695,306.438199
1470.111834,7254.018232,-7254.018232,2911.162892
1470.112164,9844.739029,-5477.523971,1762.019645
1470.112493,9252.574275,-4293.194464,1225.752797
1470.112822,7105.977043,-6143.709319,2068.457845
1470.113151,7105.977043,-6587.832884,919.314598
1470.113481,7105.977043,-7179.997637,1072.533697
1470.113810,5847.626942,-9548.656652,1149.143247
1470.114139,6735.874072,-8438.347739,459.657299
1470.114469,7402.059420,-6735.874072,459.657299
1470.114798,6143.709319,-7476.080014,766.095498
1470.115127,5847.626942,-7698.141797,689.485948
1470.115457,5699.585753,-6069.688724,-459.657299
1470.115786,5403.503377,-5773.606348,-229.828649
1470.116115,5921.647536,-6957.935855,919.314598
1470.116445,7772.162391,-5477.523971,995.924147
1470.116774,7772.162391,-4959.379811,1455.581446
1470.117103,7772.162391,-5625.565159,1915.238745
1470.117433,8068.244768,-5699.585753,1685.410096
1470.117762,7772.162391,-5033.400406,2068.457845
1470.118091,7105.977043,-5033.400406,2451.505594
1470.118421,8142.265362,-5773.606348,766.095498
1470.118750,8290.306550,-6809.894666,1685.410096
1470.119079,7105.977043,-6735.874072,1532.190996
1470.119409,7105.977043,-6291.750507,842.705048
1470.119738,6513.812290,-5403.503377,229.828649
1470.120067,5921.647536,-5329.482782,919.314598
1470.120397,7105.977043,-5921.647536,459.657299
1470.120726,7476.080014,-5699.585753,229.828649
1470.121055,6439.791695,-6587.832884,1149.143247
1470.121385,6365.771101,-6957.935855,1072.533697
1470.121714,5995.668130,-7328.038826,306.438199
1470.122043,5921.647536,-7105.977043,1225.752797
1470.122373,7624.121203,-6809.894666,1455.581446
1470.122702,9474.636058,-7846.182985,1762.019645
1470.123031,8512.368333,-7624.121203,2451.505594
1470.123361,7402.059420,-8142.265362,1608.800546
1470.123690,7402.059420,-5625.565159,0.000000
1470.124019,5847.626942,-6661.853478,-689.485948
1470.124349,5625.565159,-7772.162391,0.000000
1470.124678,6735.874072,-7254.018232,0.000000
1470.125007,6217.729913,-7846.182985,229.828649
1470.125337,6513.812290,-6661.853478,1149.143247
1470.125666,7402.059420,-5995.668130,766.095498
1470.125995,6439.791695,-6587.832884,153.219100
1470.126324,5107.421000,-6883.915261,842.705048
1470.126654,5921.647536,-7994.224174,1225.752797
1470.126983,7846.182985,-6513.812290,229.828649
1470.127312,7402.059420,-6143.709319,1532.190996
1470.127642,7994.224174,-7031.956449,1685.410096
1470.127971,8142.265362,-6513.812290,842.705048
1470.128300,6809.894666,-6883.915261,1608.800546
1470.128630,7476.080014,-5477.523971,1608.800546
1470.128959,9104.533087,-3701.029710,995.924147
1470.129288,8734.430116,-4145.153275,995.924147
1470.129618,6513.812290,-5699.585753,1225.752797
1470.129947,5921.647536,-6661.853478,536.266849
1470.130276,5699.585753,-5699.585753,306.438199
1470.130606,5255.462188,-6513.812290,1149.143247
1470.130935,6661.853478,-6217.729913,1149.143247
1470.131264,7476.080014,-6587.832884,1762.019645
1470.131594,6587.832884,-7698.141797,1838.629195
1470.131923,7476.080014,-7179.997637,2451.505594
1470.132252,7994.224174,-5477.523971,1685.410096
1470.132582,7920.203579,-4737.318029,919.314598
1470.132911,8438.347739,-6365.771101,2528.115143
1470.133240,7994.224174,-5403.503377,1225.752797
1470.133570,6291.750507,-6439.791695,536.266849
1470.133899,5699.585753,-6735.874072,995.924147
1470.134228,6661.853478,-6883.915261,0.000000
1470.134558,5995.668130,-7624.121203,689.485948
1470.134887,4589.276840,-8586.388927,995.924147
1470.135216,5107.421000,-9622.677246,0.000000
1470.135546,5773.606348,-7698.141797,-153.219100
1470.135875,5181.441594,-8734.430116,459.657299
1470.136204,5847.626942,-8808.450710,459.657299
1470.136534,5995.668130,-7031.956449,0.000000
1470.136863,6291.750507,-7031.956449,459.657299
1470.137192,7698.141797,-6957.935855,1072.533697
1470.137522,9918.759623,-5995.668130,2451.505594
1470.137851,10584.944971,-3775.050304,1608.800546
1470.138180,8364.327145,-5551.544565,1991.848295
1470.138510,6883.915261,-5773.606348,1455.581446
1470.138839,5773.606348,-6439.791695,919.314598
1470.139168,6069.688724,-7031.956449,1225.752797
1470.139498,6291.750507,-6587.832884,1838.629195
1470.139827,6883.915261,-6513.812290,459.657299
1470.140156,6735.874072,-5551.544565,1685.410096
1470.140485,6513.812290,-6735.874072,1532.190996
1470.140815,7328.038826,-5255.462188,612.876398
1470.141144,7402.059420,-3552.988522,1302.362347
1470.141473,8290.306550,-5181.441594,1149.143247
1470.141803,8512.368333,-5403.503377,2068.457845
1470.142132,8068.244768,-4737.318029,1991.848295
1470.142461,8586.388927,-5847.626942,536.266849
1470.142791,7772.162391,-5551.544565,1532.190996
1470.143120,7550.100608,-5847.626942,2068.457845
1470.143449,7698.141797,-7254.018232,1149.143247
1470.143779,5921.647536,-8290.306550,1378.971896
1470.144108,4071.132681,-8660.409521,306.438199
1470.144437,3775.050304,-9030.512492,0.000000
1470.144766,3775.050304,-9030.512492,-689.485948
1470.145096,3330.926739,-9178.553681,0.000000
1470.145425,5477.523971,-7698.141797,383.047749
1470.145754,7402.059420,-7105.977043,229.828649
1470.146083,8068.244768,-5551.544565,995.924147
1470.146413,8438.347739,-6217.729913,2298.286494
1470.146742,9326.594869,-6365.771101,1685.410096
1470.147071,8142.265362,-5403.503377,1072.533697
1470.147400,5921.647536,-7105.977043,1072.533697
1470.147730,7105.977043,-6513.812290,1225.752797
1470.148059,7179.997637,-7254.018232,919.314598
1470.148388,6735.874072,-6661.853478,995.924147
1470.148717,5921.647536,-7402.059420,1762.019645
1470.149047,6587.832884,-6883.915261,0.000000
1470.149376,5551.544565,-6809.894666,842.705048
1470.149705,5921.647536,-6587.832884,1378.971896
1470.150034,8142.265362,-5921.647536,612.876398
1470.150363,8216.285956,-4959.379811,1225.752797
1470.150693,7031.956449,-5995.668130,995.924147
1470.151022,7476.080014,-6513.812290,1225.752797
1470.151351,7772.162391,-5107.421000,842.705048
1470.151680,8216.285956,-5181.441594,1915.238745
1470.152010,9326.594869,-5995.668130,2068.457845
1470.152339,9770.718434,-4885.359217,1378.971896
1470.152668,7920.203579,-6365.771101,2068.457845
1470.152997,6513.812290,-6587.832884,1225.752797
1470.153327,5403.503377,-5773.606348,-306.438199
1470.153656,5329.482782,-6883.915261,0.000000
1470.153985,6513.812290,-8438.347739,1455.581446
1470.154314,7920.203579,-7920.203579,1302.362347
1470.154644,6809.894666,-7031.956449,1378.971896
1470.154973,5551.544565,-7179.997637,766.095498
1470.155302,5255.462188,-7402.059420,153.219100
1470.155631,5477.523971,-6809.894666,0.000000
1470.155961,6513.812290,-8364.327145,1072.533697
1470.156290,8142.265362,-8290.306550,1532.190996
1470.156619,8142.265362,-6587.832884,1455.581446
1470.156948,6661.853478,-7328.038826,1685.410096
1470.157278,7105.977043,-6513.812290,536.266849
1470.157607,7031.956449,-5995.668130,536.266849
1470.157936,5699.585753,-5773.606348,0.000000
1470.158265,6513.812290,-7105.977043,1072.533697
1470.158595,8438.347739,-6587.832884,1302.362347
1470.158924,7772.162391,-6439.791695,1225.752797
1470.159253,6439.791695,-6069.688724,229.828649
1470.159582,5847.626942,-7105.977043,536.266849
1470.159912,6143.709319,-5921.647536,459.657299
1470.160241,6883.915261,-6291.750507,1072.533697
1470.160570,8808.450710,-6217.729913,2145.067394
1470.160899,9326.594869,-5107.421000,2451.505594
1470.161229,8882.471304,-5699.585753,1762.019645
1470.161558,8142.265362,-4811.338623,1915.238745
1470.161887,6365.771101,-4737.318029,229.828649
1470.162216,5773.606348,-5847.626942,1608.800546
1470.162546,6365.771101,-5847.626942,766.095498
1470.162875,6513.812290,-7328.038826,689.485948
1470.163204,5403.503377,-7105.977043,612.876398
1470.163533,4589.276840,-8290.306550,153.219100
1470.163863,5773.606348,-8142.265362,229.828649
1470.164192,6143.709319,-7920.203579,1072.533697
1470.164521,7476.080014,-7624.121203,1225.752797
1470.164850,9252.574275,-5995.668130,1302.362347
1470.165180,8364.327145,-6291.750507,995.924147
1470.165509,7550.100608,-6809.894666,1608.800546
1470.165838,7328.038826,-6513.812290,536.266849
1470.166167,7105.977043,-5995.668130,1225.752797
1470.166497,6809.894666,-6957.935855,1608.800546
1470.166826,7772.162391,-6957.935855,2068.457845
1470.167155,7624.121203,-5699.585753,1378.971896
1470.167484,6143.709319,-6217.729913,919.314598
1470.167814,5255.462188,-6587.832884,383.047749
1470.168143,4515.256246,-6069.688724,-1072.533697
1470.168472,4885.359217,-8882.471304,306.438199
1470.168801,7105.977043,-7772.162391,1762.019645
1470.169131,8512.368333,-7920.203579,1685.410096
1470.169460,7772.162391,-6217.729913,2068.457845
1470.169789,7328.038826,-6291.750507,2528.115143
1470.170118,7328.038826,-6143.709319,229.828649
1470.170448,5773.606348,-5107.421000,842.705048
1470.170777,7031.956449,-6291.750507,1378.971896
1470.171106,9178.553681,-5625.565159,1378.971896
1470.171435,8290.306550,-5403.503377,2068.457845
1470.171765,7179.997637,-5847.626942,1838.629195
1470.172094,6291.750507,-5921.647536,536.266849
1470.172423,4589.276840,-5403.503377,-536.266849
1470.172752,4589.276840,-8364.327145,995.924147
1470.173081,7772.162391,-7698.141797,1149.143247
1470.173411,8882.471304,-6291.750507,1378.971896
1470.173740,7254.018232,-7254.018232,1991.848295
1470.174069,7031.956449,-7031.956449,1608.800546
1470.174398,7031.956449,-4959.379811,-766.095498
1470.174728,6809.894666,-6069.688724,1149.143247
1470.175057,7105.977043,-5847.626942,1685.410096
1470.175386,8808.450710,-6439.791695,1225.752797
1470.175715,7846.182985,-6587.832884,1455.581446
1470.176045,6735.874072,-6291.750507,1225.752797
1470.176374,6365.771101,-6661.853478,536.266849
1470.176703,5625.565159,-6735.874072,383.047749
1470.177032,5921.647536,-7772.162391,842.705048
1470.177362,7031.956449,-7772.162391,766.095498
1470.177691,6661.853478,-8290.306550,1762.019645
1470.178020,6143.709319,-7328.038826,919.314598
1470.178349,6513.812290,-6735.874072,0.000000
1470.178679,6217.729913,-6513.812290,383.047749
1470.179008,7698.141797,-5773.606348,1608.800546
1470.179337,8956.491898,-5551.544565,1532.190996
1470.179666,9030.512492,-5403.503377,1532.190996
1470.179996,7846.182985,-6217.729913,1225.752797
1470.180325,7476.080014,-6291.750507,919.314598
1470.180654,7105.977043,-6143.709319,306.438199
1470.180983,6143.709319,-6143.709319,1149.143247
1470.181313,6661.853478,-7179.997637,995.924147
1470.181642,7550.100608,-6513.812290,1149.143247
1470.181971,7179.997637,-6217.729913,919.314598
1470.182300,6957.935855,-7254.018232,1915.238745
1470.182630,6587.832884,-6069.688724,612.876398
1470.182959,5403.503377,-6661.853478,-229.828649
1470.183288,6439.791695,-4663.297435,919.314598
1470.183617,8216.285956,-5403.503377,1072.533697
1470.183947,8808.450710,-6513.812290,1455.581446
1470.184276,7994.224174,-5255.462188,2221.676944
1470.184605,7772.162391,-6439.791695,689.485948
1470.184934,6957.935855,-5921.647536,536.266849
1470.185264,5773.606348,-7254.018232,842.705048
1470.185593,6513.812290,-8734.430116,1072.533697
1470.185922,6661.853478,-7846.182985,153.219100
1470.186251,5403.503377,-8068.244768,536.266849
1470.186581,5329.482782,-8364.327145,766.095498
1470.186910,6069.688724,-7476.080014,0.000000
1470.187239,5181.441594,-7402.059420,0.000000
1470.187568,5403.503377,-7105.977043,689.485948
1470.187898,7772.162391,-6661.853478,919.314598
1470.188227,8512.368333,-5551.544565,766.095498
1470.188556,7624.121203,-5625.565159,2528.115143
1470.188885,8142.265362,-6217.729913,1072.533697
1470.189215,7698.141797,-6513.812290,612.876398
1470.189544,7550.100608,-6587.832884,1378.971896
1470.189873,7994.224174,-5921.647536,1378.971896
1470.190202,8290.306550,-6661.853478,1302.362347
1470.190532,6735.874072,-7476.080014,2145.067394
1470.190861,4959.379811,-6661.853478,1072.533697
1470.191190,5033.400406,-5847.626942,612.876398
1470.191519,4219.173869,-6217.729913,306.438199
1470.191849,5329.482782,-5477.523971,1302.362347
1470.192178,6809.894666,-7105.977043,1608.800546
1470.192507,7402.059420,-5477.523971,2374.896044
1470.192836,7624.121203,-4293.194464,1915.238745
1470.193166,7698.141797,-7179.997637,1225.752797
1470.193495,7328.038826,-5625.565159,1378.971896
1470.193824,8290.306550,-5995.668130,2451.505594
1470.194153,9622.677246,-6661.853478,2145.067394
1470.194482,8586.388927,-5921.647536,1532.190996
1470.194812,7698.141797,-5551.544565,2451.505594
1470.195141,7179.997637,-6883.915261,689.485948
1470.195470,6735.874072,-5699.585753,306.438199
1470.195799,4811.338623,-5699.585753,153.219100
1470.196129,5625.565159,-6365.771101,0.000000
1470.196458,7105.977043,-6661.853478,919.314598
1470.196787,6291.750507,-8216.285956,1378.971896
1470.197116,6513.812290,-6957.935855,2068.457845
1470.197446,6439.791695,-6661.853478,76.609550
1470.197775,5699.585753,-8290.306550,0.000000
1470.198104,5921.647536,-8216.285956,1455.581446
1470.198433,7254.018232,-8808.450710,995.924147
1470.198763,7328.038826,-7179.997637,995.924147
1470.199092,6957.935855,-6735.874072,1915.238745
1470.199421,7994.224174,-6587.832884,306.438199
1470.199750,6809.894666,-6069.688724,0.000000
1470.200080,5847.626942,-6809.894666,1225.752797
1470.200409,7550.100608,-5625.565159,0.000000
1470.200738,7624.121203,-5033.400406,229.828649
1470.201067,6291.750507,-6809.894666,1072.533697
1470.201397,7031.956449,-6957.935855,612.876398
1470.201726,6883.915261,-6809.894666,0.000000
1470.202055,5551.544565,-8808.450710,1225.752797
1470.202384,7254.018232,-7550.100608,1838.629195
1470.202714,9400.615463,-6069.688724,1149.143247
1470.203043,7920.203579,-5847.626942,919.314598
1470.203372,7624.121203,-6365.771101,1838.629195
1470.203701,8364.327145,-5255.462188,766.095498
1470.204031,7772.162391,-3849.070898,383.047749
1470.204360,7031.956449,-4737.318029,1685.410096
1470.204689,8586.388927,-4441.235652,1608.800546
1470.205018,8290.306550,-5773.606348,842.705048
1470.205348,6883.915261,-5551.544565,1225.752797
1470.205677,6439.791695,-6291.750507,766.095498
1470.206006,6513.812290,-6291.750507,-842.705048
1470.206335,5699.585753,-7846.182985,1455.581446
1470.206665,6513.812290,-8512.368333,1302.362347
1470.206994,6883.915261,-8216.285956,689.485948
1470.207323,5773.606348,-7994.224174,612.876398
1470.207652,6661.853478,-7772.162391,1608.800546
1470.207982,8068.244768,-5699.585753,842.705048
1470.208311,7476.080014,-5329.482782,1302.362347
1470.208640,7328.038826,-5329.482782,1762.019645
1470.208969,7994.224174,-4441.235652,0.000000
1470.209299,7402.059420,-6883.915261,536.266849
1470.209628,6735.874072,-5255.462188,919.314598
1470.209957,6291.750507,-7179.997637,689.485948
1470.210286,5551.544565,-7254.018232,0.000000
1470.210616,5033.400406,-7550.100608,536.266849
1470.210945,6365.771101,-9400.615463,766.095498
1470.211274,7105.977043,-8438.347739,995.924147
1470.211603,5847.626942,-7698.141797,995.924147
1470.211933,5699.585753,-5699.585753,536.266849
1470.212262,6735.874072,-5995.668130,76.609550
1470.212591,7624.121203,-5921.647536,1762.019645
1470.212920,8882.471304,-3478.967927,2451.505594
1470.213250,10436.903782,-4737.318029,2145.067394
1470.213579,10510.924376,-2960.823768,2528.115143
1470.213908,8512.368333,-4145.153275,2757.943793
1470.214237,7624.121203,-6291.750507,1378.971896
1470.214567,5329.482782,-5699.585753,0.000000
1470.214896,3997.112087,-8882.471304,383.047749
1470.215225,5181.441594,-9548.656652,0.000000
1470.215554,5847.626942,-8660.409521,536.266849
1470.215884,6439.791695,-8586.388927,689.485948
1470.216213,6587.832884,-8882.471304,1072.533697
1470.216542,7105.977043,-7254.018232,229.828649
1470.216871,7031.956449,-4515.256246,612.876398
1470.217200,7698.141797,-4737.318029,689.485948
1470.217530,8660.409521,-5033.400406,919.314598
1470.217859,7698.141797,-5403.503377,1838.629195
1470.218188,8290.306550,-6587.832884,2374.896044
1470.218517,8290.306550,-6439.791695,1685.410096
1470.218847,7105.977043,-6883.915261,1838.629195
1470.219176,6513.812290,-6735.874072,919.314598
1470.219505,7031.956449,-7846.182985,995.924147
1470.219834,5477.523971,-8586.388927,536.266849
1470.220164,4885.359217,-7698.141797,995.924147
1470.220493,5181.441594,-8068.244768,-383.047749
1470.220822,4811.338623,-7105.977043,-766.095498
1470.221151,5847.626942,-6365.771101,919.314598
1470.221481,8142.265362,-6883.915261,1302.362347
1470.221810,8660.409521,-5477.523971,1685.410096
1470.222139,7402.059420,-4885.359217,1532.190996
1470.222468,7328.038826,-4737.318029,919.314598
1470.222798,7031.956449,-5107.421000,306.438199
1470.223127,6069.688724,-5921.647536,1225.752797
1470.223456,7476.080014,-5699.585753,1532.190996
1470.223785,9104.533087,-6587.832884,1915.238745
1470.224115,8290.306550,-7031.956449,1838.629195
1470.224444,7179.997637,-6809.894666,1302.362347
1470.224773,7105.977043,-6661.853478,306.438199
1470.225102,5329.482782,-6365.771101,-306.438199
1470.225432,4737.318029,-6883.915261,229.828649
1470.225761,6735.874072,-5699.585753,459.657299
1470.226090,7920.203579,-6069.688724,1225.752797
1470.226419,7994.224174,-5329.482782,1149.143247
1470.226749,7698.141797,-6735.874072,766.095498
1470.227078,7402.059420,-6587.832884,1149.143247
1470.227407,6587.832884,-7105.977043,1762.019645
1470.227736,6809.894666,-8438.347739,1455.581446
1470.228066,7031.956449,-7772.162391,1225.752797
1470.228395,5847.626942,-7698.141797,995.924147
1470.228724,5995.668130,-7624.121203,383.047749
1470.229053,6513.812290,-7402.059420,766.095498
1470.229383,6957.935855,-6735.874072,842.705048
1470.229712,7179.997637,-6217.729913,1532.190996
1470.230041,8364.327145,-5699.585753,1455.581446
1470.230370,7994.224174,-5477.523971,383.047749
1470.230700,6883.915261,-5255.462188,459.657299
1470.231029,6439.791695,-6291.750507,153.219100
1470.231358,6661.853478,-6439.791695,612.876398
1470.231687,7105.977043,-7402.059420,1915.238745
1470.232017,7550.100608,-7105.977043,1532.190996
1470.232346,7254.018232,-7031.956449,842.705048
1470.232675,6735.874072,-6735.874072,1762.019645
1470.233004,6439.791695,-6587.832884,1149.143247
1470.233334,7031.956449,-6069.688724,-153.219100
1470.233663,5773.606348,-5551.544565,1378.971896
1470.233992,7105.977043,-5625.565159,919.314598
1470.234321,8512.368333,-6069.688724,1302.362347
1470.234651,7550.100608,-5699.585753,1838.629195
1470.234980,6587.832884,-5033.400406,1838.629195
1470.235309,7254.018232,-6069.688724,689.485948
1470.235638,6809.894666,-6439.791695,1378.971896
1470.235968,6661.853478,-5921.647536,1149.143247
1470.236297,7254.018232,-7772.162391,1072.533697
1470.236626,6661.853478,-7994.224174,1149.143247
1470.236955,5181.441594,-8142.265362,1455.581446
1470.237285,5699.585753,-7846.182985,766.095498
1470.237614,5847.626942,-7402.059420,536.266849
1470.237943,6513.812290,-5847.626942,689.485948
1470.238272,7698.141797,-6587.832884,1302.362347
1470.238601,8364.327145,-6439.791695,1762.019645
1470.238931,8068.244768,-5699.585753,2298.286494
1470.239260,7772.162391,-5477.523971,1149.143247
1470.239589,6883.915261,-6735.874072,766.095498
1470.239918,5551.544565,-8734.430116,1455.581446
1470.240248,5477.523971,-8512.368333,1455.581446
1470.240577,5551.544565,-8142.265362,76.609550
1470.240906,6069.688724,-8216.285956,1608.800546
1470.241235,6513.812290,-6661.853478,1072.533697
1470.241565,6809.894666,-6957.935855,536.266849
1470.241894,6143.709319,-7328.038826,766.095498
1470.242223,6883.915261,-6661.853478,2451.505594
1470.242552,7994.224174,-5625.565159,919.314598
1470.242881,8068.244768,-4737.318029,919.314598
1470.243211,7624.121203,-4811.338623,2681.334243
1470.243540,8808.450710,-5625.565159,1532.190996
1470.243869,7550.100608,-5181.441594,995.924147
1470.244198,5995.668130,-5477.523971,919.314598
1470.244527,6957.935855,-6957.935855,1455.581446
1470.244856,7772.162391,-6587.832884,1225.752797
1470.245185,5995.668130,-8290.306550,1225.752797
1470.245515,4885.359217,-6735.874072,1225.752797
1470.245844,5329.482782,-7105.977043,-459.657299
1470.246173,6143.709319,-6661.853478,153.219100
1470.246502,6883.915261,-5847.626942,1149.143247
1470.246831,8438.347739,-5995.668130,1072.533697
1470.247160,8364.327145,-5847.626942,612.876398
1470.247489,6069.688724,-6365.771101,1532.190996
1470.247818,6957.935855,-5921.647536,612.876398
1470.248148,7920.203579,-5181.441594,229.828649
1470.248477,7846.182985,-6735.874072,1685.410096
1470.248806,7846.182985,-7698.141797,1762.019645
1470.249135,7994.224174,-7105.977043,1455.581446
1470.249464,6735.874072,-7772.162391,1149.143247
1470.249793,5329.482782,-7105.977043,1225.752797
1470.250122,5699.585753,-6957.935855,-229.828649
1470.250452,5773.606348,-7105.977043,0.000000
1470.250781,6291.750507,-6661.853478,536.266849
1470.251110,7476.080014,-7254.018232,919.314598
1470.251439,8068.244768,-5699.585753,2145.067394
1470.251768,7402.059420,-5921.647536,766.095498
1470.252097,7179.997637,-5921.647536,536.266849
1470.252426,6809.894666,-6365.771101,229.828649
1470.252756,7920.203579,-6735.874072,1532.190996
1470.253085,8808.450710,-6587.832884,1685.410096
1470.253414,8142.265362,-6513.812290,1225.752797
1470.253743,7031.956449,-7179.997637,1532.190996
1470.254072,6661.853478,-7105.977043,766.095498
1470.254401,5699.585753,-6883.915261,-383.047749
1470.254730,5773.606348,-6883.915261,536.266849
1470.255060,6957.935855,-5773.606348,459.657299
1470.255389,7846.182985,-4515.256246,-229.828649
1470.255718,8068.244768,-5403.503377,1455.581446
1470.256047,8512.368333,-5847.626942,1378.971896
1470.256376,7624.121203,-5921.647536,612.876398
1470.256705,6957.935855,-6217.729913,919.314598
1470.257034,6957.935855,-7328.038826,1762.019645
1470.257364,7624.121203,-7254.018232,1225.752797
1470.257693,6735.874072,-6883.915261,1762.019645
1470.258022,5699.585753,-6513.812290,1608.800546
1470.258351,6365.771101,-7105.977043,76.609550
1470.258680,5847.626942,-6661.853478,383.047749
1470.259009,4811.338623,-6957.935855,842.705048
1470.259338,6587.832884,-7254.018232,1225.752797
1470.259668,8142.265362,-5551.544565,383.047749
1470.259997,7402.059420,-5699.585753,689.485948
1470.260326,7920.203579,-5551.544565,1149.143247
1470.260655,7994.224174,-6883.915261,459.657299
1470.260984,6883.915261,-5995.668130,842.705048
1470.261313,6365.771101,-6957.935855,612.876398
1470.261642,7328.038826,-6809.894666,612.876398
1470.261972,7698.141797,-6735.874072,1149.143247
1470.262301,7550.100608,-7698.141797,2298.286494
1470.262630,7031.956449,-7550.100608,1149.143247
1470.262959,5847.626942,-7105.977043,229.828649
1470.263288,5847.626942,-5625.565159,612.876398
1470.263617,6809.894666,-5255.462188,1302.362347
1470.263946,7476.080014,-7550.100608,1225.752797
1470.264276,6069.688724,-6735.874072,1608.800546
1470.264605,5477.523971,-6809.894666,842.705048
1470.264934,6587.832884,-6365.771101,536.266849
1470.265263,7105.977043,-6143.709319,1455.581446
1470.265592,7994.224174,-6957.935855,1838.629195
1470.265921,7772.162391,-6069.688724,1149.143247
1470.266250,6513.812290,-6291.750507,1608.800546
1470.266580,7402.059420,-6439.791695,1225.752797
1470.266909,6809.894666,-5773.606348,612.876398
1470.267238,5773.606348,-6513.812290,306.438199
1470.267567,5625.565159,-7994.224174,766.095498
1470.267896,6661.853478,-7550.100608,1455.581446
1470.268225,7920.203579,-7402.059420,1762.019645
1470.268554,7624.121203,-5329.482782,2451.505594
1470.268884,7698.141797,-5625.565159,612.876398
1470.269213,6587.832884,-5847.626942,383.047749
1470.269542,5773.606348,-6291.750507,919.314598
1470.269871,6957.935855,-7328.038826,689.485948
1470.270200,8216.285956,-6587.832884,1685.410096
1470.270529,7105.977043,-6217.729913,1685.410096
1470.270858,7105.977043,-6069.688724,1149.143247
1470.271187,6143.709319,-7846.182985,459.657299
1470.271517,5181.441594,-7031.956449,1532.190996
1470.271846,6365.771101,-5403.503377,1149.143247
1470.272175,8068.244768,-6661.853478,459.657299
1470.272504,6439.791695,-4441.235652,1149.143247
1470.272833,5329.482782,-8660.409521,1378.971896
1470.273162,7031.956449,-8290.306550,459.657299
1470.273491,6661.853478,-6883.915261,1302.362347
1470.273821,6957.935855,-8734.430116,2374.896044
1470.274150,8142.265362,-4441.235652,1072.533697
1470.274479,7179.997637,-7105.977043,1455.581446
1470.274808,6809.894666,-6883.915261,1915.238745
1470.275137,7624.121203,-5255.462188,995.924147
1470.275466,7846.182985,-5699.585753,995.924147
1470.275795,6291.750507,-4959.379811,766.095498
1470.276125,6291.750507,-7476.080014,995.924147
1470.276454,6883.915261,-5625.565159,76.609550
1470.276783,5773.606348,-7179.997637,1072.533697
1470.277112,6439.791695,-6439.791695,2145.067394
1470.277441,7624.121203,-4885.359217,459.657299
1470.277770,7846.182985,-6217.729913,1149.143247
1470.278099,7179.997637,-5773.606348,2451.505594
1470.278429,7846.182985,-7179.997637,612.876398
1470.278758,7031.956449,-6217.729913,1455.581446
1470.279087,6661.853478,-5699.585753,1838.629195
1470.279416,7846.182985,-7179.997637,842.705048
1470.279745,7328.038826,-6143.709319,1072.533697
1470.280074,5995.668130,-7328.038826,2068.457845
1470.280403,6957.935855,-7105.977043,459.657299
1470.280733,6735.874072,-5921.647536,153.219100
1470.281062,5699.585753,-5921.647536,1225.752797
1470.281391,5477.523971,-7698.141797,-229.828649
1470.281720,5403.503377,-7550.100608,-536.266849
1470.282049,5551.544565,-8290.306550,842.705048
1470.282378,7698.141797,-7920.203579,842.705048
1470.282707,8660.409521,-7105.977043,1225.752797
1470.283037,7698.141797,-7328.038826,1608.800546
1470.283366,8512.368333,-5847.626942,919.314598
1470.283695,8734.430116,-5107.421000,229.828649
1470.284024,7328.038826,-6957.935855,1225.752797
1470.284353,7846.182985,-5107.421000,1991.848295
1470.284682,8808.450710,-6143.709319,1532.190996
1470.285011,6735.874072,-6883.915261,689.485948
1470.285341,5107.421000,-6735.874072,1072.533697
1470.285670,5921.647536,-8290.306550,383.047749
1470.285999,5921.647536,-5921.647536,153.219100
1470.286328,5625.565159,-7105.977043,1762.019645
1470.286657,7624.121203,-7402.059420,1608.800546
1470.286986,7994.224174,-4959.379811,1378.971896
1470.287315,6439.791695,-5329.482782,1302.362347
1470.287645,6957.935855,-7105.977043,1302.362347
1470.287974,7624.121203,-5847.626942,1455.581446
1470.288303,7179.997637,-4515.256246,1302.362347
1470.288632,8808.450710,-4737.318029,2145.067394
1470.288961,9548.656652,-5329.482782,1915.238745
1470.289290,8216.285956,-5107.421000,919.314598
1470.289619,5699.585753,-6957.935855,842.705048
1470.289949,4589.276840,-6587.832884,306.438199
1470.290278,3404.947333,-8734.430116,-995.924147
1470.290607,2294.638420,-10807.006753,383.047749
1470.290936,4959.379811,-8290.306550,-76.609550
1470.291265,7105.977043,-7994.224174,766.095498
1470.291594,7772.162391,-7402.059420,2681.334243
1470.291923,8586.388927,-5477.523971,1685.410096
1470.292252,7624.121203,-5329.482782,689.485948
1470.292582,6883.915261,-4737.318029,1072.533697
1470.292911,7846.182985,-5699.585753,1915.238745
1470.293240,9326.594869,-5847.626942,1532.190996
1470.293569,7994.224174,-5773.606348,2145.067394
1470.293898,7105.977043,-6217.729913,1762.019645
1470.294227,7105.977043,-6069.688724,459.657299
1470.294556,5625.565159,-7105.977043,459.657299
1470.294886,5255.462188,-8956.491898,842.705048
1470.295215,5551.544565,-8734.430116,0.000000
1470.295544,4367.215058,-7698.141797,0.000000
1470.295873,4071.132681,-8882.471304,842.705048
1470.296202,6439.791695,-7328.038826,842.705048
1470.296531,7254.018232,-6587.832884,612.876398
1470.296860,7920.203579,-5773.606348,2068.457845
1470.297190,10066.800811,-4589.276840,1991.848295
1470.297519,9622.677246,-4293.194464,1225.752797
1470.297848,8438.347739,-5477.523971,1838.629195
1470.298177,7328.038826,-5847.626942,1838.629195
1470.298506,6809.894666,-5477.523971,0.000000
1470.298835,4885.359217,-6069.688724,0.000000
1470.299164,5847.626942,-7254.018232,995.924147
1470.299494,8808.450710,-6809.894666,1685.410096
1470.299823,9104.533087,-6883.915261,1838.629195
1470.300152,6365.771101,-5403.503377,1225.752797
1470.300481,5329.482782,-5551.544565,-842.705048
1470.300810,4663.297435,-7254.018232,-766.095498
1470.301139,4885.359217,-7031.956449,153.219100
1470.301468,8438.347739,-6365.771101,1455.581446
1470.301798,9770.718434,-6587.832884,2834.553343
1470.302127,9992.780217,-5921.647536,2681.334243
1470.302456,8956.491898,-6587.832884,2145.067394
1470.302785,7031.956449,-5403.503377,76.609550
1470.303114,5255.462188,-6143.709319,-612.876398
1470.303443,5107.421000,-7698.141797,0.000000
1470.303772,5995.668130,-7846.182985,306.438199
1470.304102,7031.956449,-8956.491898,919.314598
1470.304431,8290.306550,-7994.224174,2528.115143
1470.304760,7624.121203,-7254.018232,995.924147
1470.305089,6661.853478,-7105.977043,536.266849
1470.305418,6513.812290,-6069.688724,995.924147
1470.305747,7624.121203,-5847.626942,306.438199
1470.306076,6735.874072,-6809.894666,0.000000
1470.306406,4737.318029,-7031.956449,1225.752797
1470.306735,5477.523971,-8956.491898,76.609550
1470.307064,5255.462188,-9104.533087,-229.828649
1470.307393,4367.215058,-9548.656652,1915.238745
1470.307722,5329.482782,-9918.759623,1762.019645
1470.308051,7105.977043,-8734.430116,919.314598
1470.308380,6661.853478,-6735.874072,1915.238745
1470.308710,6365.771101,-6513.812290,1072.533697
1470.309039,6365.771101,-6069.688724,0.000000
1470.309368,4737.318029,-6661.853478,0.000000
1470.309697,5255.462188,-7698.141797,842.705048
1470.310026,7846.182985,-6069.688724,2451.505594
1470.310355,8364.327145,-5921.647536,2451.505594
1470.310684,7846.182985,-5699.585753,4060.306139
1470.311014,8290.306550,-4367.215058,2451.505594
1470.311343,6809.894666,-5329.482782,1378.971896
1470.311672,4071.132681,-4663.297435,689.485948
1470.312001,4219.173869,-8512.368333,536.266849
1470.312330,5921.647536,-6735.874072,229.828649
1470.312659,5329.482782,-8068.244768,1378.971896
1470.312988,6143.709319,-12213.398043,2374.896044
1470.313318,5477.523971,-12583.501014,2374.896044
1470.313647,3849.070898,-9844.739029,919.314598
1470.313976,1998.556043,-9474.636058,-536.266849
1470.314305,1998.556043,-9474.636058,-995.924147
1470.314634,2220.617826,-9622.677246,-383.047749
1470.314963,3330.926739,-9770.718434,536.266849
1470.315292,4737.318029,-12361.439231,1685.410096
1470.315621,5551.544565,-10436.903782,2374.896044
1470.315951,4145.153275,-9770.718434,2528.115143
1470.316280,3849.070898,-9400.615463,1532.190996
1470.316609,4589.276840,-7698.141797,1302.362347
1470.316938,4293.194464,-7624.121203,1225.752797
1470.317267,5403.503377,-7772.162391,2298.286494
1470.317596,5255.462188,-7031.956449,1838.629195
1470.317925,4737.318029,-7920.203579,995.924147
1470.318255,4959.379811,-8586.388927,612.876398
1470.318584,4737.318029,-8660.409521,766.095498
1470.318913,4737.318029,-8216.285956,1072.533697
1470.319242,5255.462188,-7920.203579,766.095498
1470.319571,5921.647536,-7698.141797,536.266849
1470.319900,4737.318029,-7772.162391,306.438199
1470.320229,4441.235652,-9252.574275,689.485948
1470.320559,5033.400406,-10066.800811,0.000000
1470.320888,5107.421000,-11251.130318,1072.533697
1470.321217,5551.544565,-10510.924376,1838.629195
1470.321546,5551.544565,-10584.944971,1072.533697
1470.321875,5181.441594,-10362.883188,1762.019645
1470.322204,4145.153275,-8660.409521,1532.190996
1470.322533,4441.235652,-7476.080014,-229.828649
1470.322863,4663.297435,-5551.544565,1072.533697
1470.323192,5921.647536,-4515.256246,2451.505594
1470.323521,8068.244768,-4515.256246,1991.848295
1470.323850,8216.285956,-4589.276840,3064.381992
1470.324179,7328.038826,-5699.585753,2221.676944
1470.324508,6587.832884,-7105.977043,153.219100
1470.324837,4737.318029,-8364.327145,76.609550
1470.325167,2960.823768,-12879.583391,919.314598
1470.325496,3552.988522,-11843.295072,0.000000
1470.325825,3775.050304,-9622.677246,-459.657299
1470.326154,3923.091493,-11695.253884,0.000000
1470.326483,5477.523971,-10732.986159,1302.362347
1470.326812,6143.709319,-9622.677246,1225.752797
1470.327141,4663.297435,-8142.265362,0.000000
1470.327471,3627.009116,-5773.606348,-766.095498
1470.327800,4737.318029,-7476.080014,995.924147
1470.328129,6069.688724,-7254.018232,1915.238745
1470.328458,6143.709319,-7179.997637,1915.238745
1470.328787,7105.977043,-4737.318029,1915.238745
1470.329116,7550.100608,-4737.318029,1608.800546
1470.329445,7254.018232,-6365.771101,1762.019645
1470.329775,5773.606348,-6957.935855,689.485948
1470.330104,5033.400406,-9104.533087,1072.533697
1470.330433,5181.441594,-10584.944971,536.266849
1470.330762,4071.132681,-13397.727550,1762.019645
1470.331091,1924.535449,-14952.160028,1915.238745
1470.331420,1184.329507,-12731.542202,229.828649
1470.331749,74.020594,-11029.068536,-383.047749
1470.332079,444.123565,-9918.759623,383.047749
1470.332408,3108.864956,-9030.512492,2145.067394
1470.332737,4959.379811,-5847.626942,1532.190996
1470.333066,5847.626942,-4071.132681,1762.019645
1470.333395,6735.874072,-4663.297435,995.924147
1470.333724,6735.874072,-6735.874072,2068.457845
1470.334053,5329.482782,-9326.594869,2298.286494
1470.334383,4589.276840,-9622.677246,995.924147
1470.334712,4515.256246,-8438.347739,383.047749
1470.335041,4219.173869,-11473.192101,0.000000
1470.335370,4367.215058,-13989.892304,1225.752797
1470.335699,4811.338623,-13175.665768,1455.581446
1470.336028,5329.482782,-9918.759623,-383.047749
1470.336357,4737.318029,-7920.203579,229.828649
1470.336687,5181.441594,-7846.182985,1915.238745
1470.337016,5847.626942,-7550.100608,2374.896044
1470.337345,5551.544565,-7105.977043,2374.896044
1470.337674,4737.318029,-4885.359217,689.485948
1470.338003,4737.318029,-5033.400406,536.266849
1470.338332,5699.585753,-7031.956449,1608.800546
1470.338661,6069.688724,-8290.306550,1762.019645
1470.338990,5477.523971,-9252.574275,919.314598
1470.339320,4367.215058,-9696.697840,306.438199
1470.339649,3923.091493,-10436.903782,1149.143247
1470.339978,4737.318029,-10510.924376,612.876398
1470.340307,5181.441594,-9474.636058,76.609550
1470.340636,5403.503377,-10066.800811,0.000000
1470.340965,5625.565159,-9622.677246,1378.971896
1470.341294,5773.606348,-9918.759623,2374.896044
1470.341624,6365.771101,-7550.100608,1991.848295
1470.341953,5477.523971,-5699.585753,766.095498
1470.342282,4515.256246,-7031.956449,306.438199
1470.342611,3849.070898,-7994.224174,995.924147
1470.342940,4885.359217,-8956.491898,1838.629195
1470.343269,6439.791695,-6513.812290,2145.067394
1470.343598,6439.791695,-4515.256246,689.485948
1470.343928,6587.832884,-5921.647536,1149.143247
1470.344257,6217.729913,-7698.141797,1455.581446
1470.344586,6735.874072,-9326.594869,1455.581446
1470.344915,6365.771101,-8660.409521,1455.581446
1470.345244,5699.585753,-7772.162391,1608.800546
1470.345573,4811.338623,-9474.636058,919.314598
1470.345903,4367.215058,-9548.656652,1149.143247
1470.346232,3701.029710,-11029.068536,612.876398
1470.346561,3404.947333,-10362.883188,459.657299
1470.346890,1998.556043,-9992.780217,-383.047749
1470.347219,1406.391290,-11843.295072,76.609550
1470.347549,2294.638420,-11843.295072,153.219100
1470.347878,3404.947333,-10807.006753,1149.143247
1470.348207,4737.318029,-9252.574275,2298.286494
1470.348536,5773.606348,-6735.874072,2374.896044
1470.348865,7105.977043,-5329.482782,2298.286494
1470.349194,7698.141797,-4959.379811,1915.238745
1470.349524,7105.977043,-5773.606348,1532.190996
1470.349853,6513.812290,-6957.935855,1378.971896
1470.350182,6439.791695,-7994.224174,1225.752797
1470.350511,5699.585753,-8660.409521,1532.190996
1470.350840,4959.379811,-9400.615463,1762.019645
1470.351169,4071.132681,-10436.903782,1302.362347
1470.351499,2664.741391,-10732.986159,459.657299
1470.351828,2368.659014,-12361.439231,-306.438199
1470.352157,2072.576638,-12509.480420,-306.438199
1470.352486,2590.720797,-11177.109724,76.609550
1470.352815,2368.659014,-11177.109724,-306.438199
1470.353145,2664.741391,-10362.883188,1302.362347
1470.353474,3775.050304,-9474.636058,1378.971896
1470.353803,5329.482782,-7994.224174,1991.848295
1470.354132,6143.709319,-5995.668130,2451.505594
1470.354461,7920.203579,-6217.729913,2604.724693
1470.354790,8438.347739,-4145.153275,1991.848295
1470.355120,7698.141797,-4441.235652,1378.971896
1470.355449,6957.935855,-5921.647536,919.314598
1470.355778,6661.853478,-7105.977043,1072.533697
1470.356107,5033.400406,-9696.697840,689.485948
1470.356436,3997.112087,-10732.986159,766.095498
1470.356766,3701.029710,-10214.842000,459.657299
1470.357095,4737.318029,-10362.883188,612.876398
1470.357424,5329.482782,-9992.780217,1685.410096
1470.357753,5403.503377,-9548.656652,1608.800546
1470.358082,4589.276840,-8364.327145,306.438199
1470.358411,2886.803174,-9104.533087,-612.876398
1470.358741,2368.659014,-9474.636058,383.047749
1470.359070,2590.720797,-9400.615463,0.000000
1470.359399,4515.256246,-8956.491898,536.266849
1470.359728,5995.668130,-6735.874072,1302.362347
1470.360057,7105.977043,-5995.668130,1532.190996
1470.360386,7920.203579,-6069.688724,1608.800546
1470.360716,7698.141797,-6587.832884,2451.505594
1470.361045,7105.977043,-7846.182985,1991.848295
1470.361374,6291.750507,-8364.327145,2068.457845
1470.361703,5551.544565,-9622.677246,2068.457845
1470.362032,5181.441594,-9326.594869,1455.581446
1470.362362,4737.318029,-8882.471304,1225.752797
1470.362691,4071.132681,-9104.533087,153.219100
1470.363020,3775.050304,-8882.471304,-306.438199
1470.363349,3256.906145,-8956.491898,-536.266849
1470.363678,3034.844362,-9178.553681,-1072.533697
1470.364007,3627.009116,-8956.491898,-919.314598
1470.364337,4367.215058,-8882.471304,-383.047749
1470.364666,4959.379811,-9400.615463,459.657299
1470.364995,5995.668130,-9178.553681,1915.238745
1470.365324,6143.709319,-8882.471304,2145.067394
1470.365653,6735.874072,-8808.450710,2298.286494
1470.365982,6883.915261,-8956.491898,2681.334243
1470.366312,5847.626942,-8512.368333,3447.429741
1470.366641,5033.400406,-8216.285956,2604.724693
1470.366970,4959.379811,-7105.977043,2451.505594
1470.367299,5107.421000,-6957.935855,2374.896044
1470.367628,5551.544565,-7550.100608,2681.334243
1470.367958,5625.565159,-7550.100608,3064.381992
1470.368287,4737.318029,-8290.306550,1685.410096
1470.368616,3849.070898,-8734.430116,995.924147
1470.368945,3701.029710,-9178.553681,1072.533697
1470.369274,3923.091493,-11029.068536,689.485948
1470.369603,3627.009116,-9696.697840,1455.581446
1470.369933,3552.988522,-10584.944971,2298.286494
1470.370262,4589.276840,-10214.842000,2528.115143
1470.370591,5107.421000,-9178.553681,3753.867940
1470.370920,5551.544565,-8290.306550,4443.353888
1470.371249,6809.894666,-6217.729913,4290.134789
1470.371578,7328.038826,-5403.503377,4673.182538
1470.371908,7105.977043,-4959.379811,4060.306139
1470.372237,7031.956449,-4811.338623,3983.696590
1470.372566,7476.080014,-4959.379811,2911.162892
1470.372895,6809.894666,-6217.729913,1991.848295
1470.373224,5625.565159,-7550.100608,2528.115143
1470.373554,5551.544565,-8142.265362,2298.286494
1470.373883,5921.647536,-8142.265362,2298.286494
1470.374212,5403.503377,-8956.491898,3370.820191
1470.374541,5329.482782,-8808.450710,3140.991542
1470.374870,5625.565159,-8068.244768,3370.820191
1470.375199,5773.606348,-7624.121203,4136.915689
1470.375529,6291.750507,-6439.791695,3983.696590
1470.375858,6661.853478,-5477.523971,4060.306139
1470.376187,7550.100608,-4663.297435,4596.572988
1470.376516,8438.347739,-4145.153275,4596.572988
1470.376845,9474.636058,-3478.967927,5132.839837
1470.377174,9474.636058,-3552.988522,5209.449386
1470.377504,9326.594869,-3849.070898,4290.134789
1470.377833,8586.388927,-5181.441594,4290.134789
1470.378162,7772.162391,-6587.832884,3907.087040
1470.378491,7105.977043,-8290.306550,2757.943793
1470.378820,5921.647536,-9104.533087,3983.696590
1470.379150,5255.462188,-9770.718434,3447.429741
1470.379479,4737.318029,-10436.903782,3600.648841
1470.379808,4145.153275,-9770.718434,3753.867940
1470.380137,4219.173869,-9474.636058,3370.820191
1470.380466,3997.112087,-9474.636058,3830.477490
1470.380795,4811.338623,-7772.162391,4366.744339
1470.381125,5699.585753,-7105.977043,4596.572988
1470.381454,7550.100608,-5477.523971,5286.058936
1470.381783,9178.553681,-4071.132681,6435.202183
1470.382112,10288.862594,-4219.173869,6205.373534
1470.382441,10140.821405,-3182.885551,5745.716235
1470.382770,9474.636058,-2960.823768,4903.011187
1470.383100,8956.491898,-3330.926739,4366.744339
1470.383429,7698.141797,-5181.441594,4366.744339
1470.383758,6809.894666,-6883.915261,4596.572988
1470.384087,6735.874072,-7179.997637,4060.306139
1470.384416,6365.771101,-7994.224174,4213.525239
1470.384746,5847.626942,-9252.574275,4060.306139
1470.385075,5181.441594,-9992.780217,4443.353888
1470.385404,4145.153275,-10658.965565,4136.915689
1470.385733,3182.885551,-8808.450710,2757.943793
1470.386062,2812.782580,-8142.265362,2834.553343
1470.386391,4293.194464,-7105.977043,3294.210641
1470.386721,6587.832884,-7328.038826,4596.572988
1470.387050,8586.388927,-5551.544565,5822.325785
1470.387379,9844.739029,-4071.132681,6205.373534
1470.387708,10584.944971,-3108.864956,6205.373534
1470.388037,9844.739029,-2072.576638,6052.154434
1470.388366,9326.594869,-2516.700203,4519.963438
1470.388696,7994.224174,-4293.194464,3983.696590
1470.389025,6439.791695,-6069.688724,4213.525239
1470.389354,5477.523971,-8068.244768,2834.553343
1470.389683,5477.523971,-9252.574275,2681.334243
1470.390012,5107.421000,-9992.780217,3294.210641
1470.390342,5329.482782,-10140.821405,3217.601092
1470.390671,5329.482782,-9548.656652,4213.525239
1470.391000,5699.585753,-7772.162391,3983.696590
1470.391329,7254.018232,-5921.647536,3983.696590
1470.391658,8882.471304,-4145.153275,4596.572988
1470.391987,9474.636058,-4071.132681,4596.572988
1470.392317,9326.594869,-3849.070898,3983.696590
1470.392646,8586.388927,-4367.215058,3294.210641
1470.392975,7031.956449,-5773.606348,2451.505594
1470.393304,6143.709319,-7179.997637,2451.505594
1470.393633,5995.668130,-8068.244768,2681.334243
1470.393963,5403.503377,-8882.471304,2681.334243
1470.394292,5625.565159,-8586.388927,3677.258390
1470.394621,6661.853478,-7920.203579,4366.744339
1470.394950,7920.203579,-6809.894666,4673.182538
1470.395279,8586.388927,-6291.750507,4749.792088
1470.395608,7772.162391,-5551.544565,4366.744339
1470.395938,7402.059420,-4811.338623,4136.915689
1470.396267,7105.977043,-4441.235652,3600.648841
1470.396596,7328.038826,-3182.885551,4213.525239
1470.396925,8142.265362,-3478.967927,3524.039291
1470.397254,8512.368333,-3849.070898,3830.477490
1470.397583,7846.182985,-4811.338623,4060.306139
1470.397913,6735.874072,-7624.121203,3370.820191
1470.398242,5847.626942,-9474.636058,3217.601092
1470.398571,4589.276840,-11399.171507,2604.724693
1470.398900,3849.070898,-11399.171507,2681.334243
1470.399229,3775.050304,-10066.800811,2911.162892
1470.399559,4515.256246,-8734.430116,2834.553343
1470.399888,6439.791695,-6735.874072,3217.601092
1470.400217,7179.997637,-5699.585753,3753.867940
1470.400546,8290.306550,-4737.318029,4826.401637
1470.400875,8808.450710,-3997.112087,4979.620737
1470.401204,9178.553681,-3034.844362,5822.325785
1470.401534,10214.842000,-2294.638420,5515.887586
1470.401863,11177.109724,-2738.761985,5209.449386
1470.402192,10288.862594,-3108.864956,4826.401637
1470.402521,8290.306550,-5403.503377,3140.991542
1470.402850,5921.647536,-6439.791695,2068.457845
1470.403179,4737.318029,-9400.615463,2298.286494
1470.403509,3997.112087,-12139.377449,2604.724693
1470.403838,2886.803174,-12361.439231,3294.210641
1470.404167,4367.215058,-11769.274478,3447.429741
1470.404496,4071.132681,-9326.594869,3677.258390
1470.404825,5107.421000,-6587.832884,3907.087040
1470.405155,6957.935855,-5255.462188,4826.401637
1470.405484,8438.347739,-3478.967927,5439.278036
1470.405813,9474.636058,-2738.761985,5669.106685
1470.406142,9474.636058,-1554.432478,5209.449386
1470.406471,9770.718434,-1406.391290,5362.668486
1470.406800,9474.636058,-4071.132681,5132.839837
1470.407130,8142.265362,-6513.812290,5898.935335
1470.407459,7179.997637,-8586.388927,5286.058936
1470.407788,6883.915261,-9252.574275,2834.553343
1470.408117,5625.565159,-9770.718434,3600.648841
1470.408446,4811.338623,-9770.718434,2987.772442
1470.408775,5033.400406,-8142.265362,2451.505594
1470.409105,4515.256246,-7698.141797,3294.210641
1470.409434,5773.606348,-7105.977043,4673.182538
1470.409763,7994.224174,-5477.523971,5898.935335
1470.410092,8290.306550,-4811.338623,5362.668486
1470.410421,7402.059420,-4663.297435,3830.477490
1470.410751,6365.771101,-4367.215058,3983.696590
1470.411080,7105.977043,-5107.421000,4596.572988
1470.411409,8142.265362,-4663.297435,4596.572988
1470.411738,8512.368333,-4811.338623,4903.011187
1470.412067,8586.388927,-5551.544565,4596.572988
1470.412396,7105.977043,-7920.203579,3830.477490
1470.412726,5477.523971,-9992.780217,4519.963438
1470.413055,5847.626942,-9104.533087,4060.306139
1470.413384,6587.832884,-8216.285956,3600.648841
1470.413713,5551.544565,-7254.018232,3370.820191
1470.414042,5329.482782,-7772.162391,3447.429741
1470.414371,6069.688724,-7994.224174,3753.867940
1470.414701,7624.121203,-5329.482782,4596.572988
1470.415030,7402.059420,-3404.947333,4443.353888
1470.415359,8142.265362,-2738.761985,4366.744339
1470.415688,8142.265362,-4293.194464,3983.696590
1470.416017,8068.244768,-5773.606348,4903.011187
1470.416347,8660.409521,-5847.626942,4673.182538
1470.416676,8734.430116,-7254.018232,4903.011187
1470.417005,7846.182985,-7624.121203,4136.915689
1470.417334,5995.668130,-9474.636058,4136.915689
1470.417663,5329.482782,-9622.677246,4290.134789
1470.417992,5477.523971,-7254.018232,4136.915689
1470.418322,5255.462188,-6365.771101,3677.258390
1470.418651,5995.668130,-5921.647536,3217.601092
1470.418980,6587.832884,-5107.421000,3600.648841
1470.419309,6957.935855,-5107.421000,4290.134789
1470.419638,6513.812290,-5033.400406,4136.915689
1470.419967,6883.915261,-5699.585753,3217.601092
1470.420297,7550.100608,-5699.585753,3064.381992
1470.420626,7994.224174,-5699.585753,3830.477490
1470.420955,8068.244768,-6069.688724,4213.525239
1470.421284,7550.100608,-7179.997637,2681.334243
1470.421613,6365.771101,-8882.471304,2757.943793
1470.421943,6883.915261,-9178.553681,3677.258390
1470.422272,7179.997637,-8882.471304,3983.696590
1470.422601,6513.812290,-9400.615463,4673.182538
1470.422930,5551.544565,-8364.327145,4290.134789
1470.423259,6809.894666,-5699.585753,4366.744339
1470.423588,8216.285956,-3478.967927,4366.744339
1470.423918,8956.491898,-2368.659014,5286.058936
1470.424247,7994.224174,-2516.700203,3830.477490
1470.424576,7031.956449,-4219.173869,3830.477490
1470.424905,5995.668130,-3552.988522,2451.505594
1470.425234,6957.935855,-4811.338623,2757.943793
1470.425564,9030.512492,-5625.565159,3677.258390
1470.425893,8660.409521,-8734.430116,4519.963438
1470.426222,7254.018232,-9474.636058,3907.087040
1470.426551,6587.832884,-8882.471304,3294.210641
1470.426880,6143.709319,-9252.574275,3370.820191
1470.427209,4737.318029,-9474.636058,3524.039291
1470.427539,2812.782580,-10214.842000,3217.601092
1470.427868,3478.967927,-8512.368333,2451.505594
1470.428197,5477.523971,-4811.338623,3600.648841
1470.428526,8290.306550,-4219.173869,4979.620737
1470.428855,10140.821405,-4737.318029,6741.640382
1470.429184,10436.903782,-2886.803174,6741.640382
1470.429514,9326.594869,-962.267725,3983.696590
1470.429843,8216.285956,-666.185348,2068.457845
1470.430172,7994.224174,-2886.803174,1838.629195
1470.430501,8734.430116,-5181.441594,2145.067394
1470.430830,8660.409521,-6883.915261,1838.629195
1470.431160,7105.977043,-9252.574275,1991.848295
1470.431489,5773.606348,-11177.109724,1455.581446
1470.431818,4441.235652,-14211.954086,1915.238745
1470.432147,3108.864956,-13249.686362,2987.772442
1470.432476,2368.659014,-11177.109724,1532.190996
1470.432805,3849.070898,-9030.512492,2374.896044
1470.433135,5847.626942,-6439.791695,4136.915689
1470.433464,7179.997637,-4589.276840,3600.648841
1470.433793,8586.388927,-3256.906145,2987.772442
1470.434122,8734.430116,-2146.597232,4060.306139
1470.434451,9474.636058,-1480.411884,2987.772442
1470.434780,9548.656652,-2368.659014,2834.553343
1470.435110,9548.656652,-2590.720797,3524.039291
1470.435439,9696.697840,-4145.153275,1762.019645
1470.435768,8216.285956,-6217.729913,1378.971896
1470.436097,5625.565159,-7031.956449,459.657299
1470.436426,4959.379811,-10362.883188,0.000000
1470.436756,4959.379811,-13027.624579,919.314598
1470.437085,3627.009116,-12879.583391,383.047749
1470.437414,3849.070898,-11621.233289,1762.019645
1470.437743,4737.318029,-8808.450710,1455.581446
1470.438072,6143.709319,-7402.059420,1072.533697
1470.438401,6365.771101,-4589.276840,1685.410096
1470.438731,7846.182985,-3997.112087,3064.381992
1470.439060,10288.862594,-3256.906145,2451.505594
1470.439389,9696.697840,-1850.514855,2298.286494
1470.439718,9622.677246,-2072.576638,1762.019645
1470.440047,10214.842000,-2664.741391,766.095498
1470.440376,9252.574275,-5033.400406,766.095498
1470.440706,7624.121203,-6587.832884,536.266849
1470.441035,6957.935855,-8216.285956,995.924147
1470.441364,6217.729913,-10140.821405,229.828649
1470.441693,4293.194464,-11473.192101,0.000000
1470.442022,3404.947333,-11399.171507,306.438199
1470.442352,4737.318029,-11029.068536,459.657299
1470.442681,4737.318029,-9030.512492,-229.828649
1470.443007,4959.379811,-6439.791695,1149.143247
1470.443336,7328.038826,-3849.070898,1225.752797
1470.443666,9548.656652,-2368.659014,1991.848295
1470.443995,10140.821405,-2146.597232,2834.553343
1470.444324,9400.615463,-2368.659014,1838.629195
1470.444653,8512.368333,-2664.741391,536.266849
1470.444982,7179.997637,-3552.988522,0.000000
1470.445311,7254.018232,-7105.977043,383.047749
1470.445640,7698.141797,-8882.471304,766.095498
1470.445970,6735.874072,-11251.130318,1532.190996
1470.446299,6291.750507,-10510.924376,1455.581446
1470.446628,4959.379811,-10510.924376,1532.190996
1470.446957,4145.153275,-8956.491898,229.828649
1470.447286,3552.988522,-6365.771101,-383.047749
1470.447615,5773.606348,-6069.688724,0.000000
1470.447944,8512.368333,-4367.215058,1838.629195
1470.448274,9252.574275,-3108.864956,2528.115143
1470.448603,9474.636058,-3627.009116,3294.210641
1470.448932,8438.347739,-3849.070898,919.314598
1470.449261,6809.894666,-4737.318029,306.438199
1470.449590,5403.503377,-4885.359217,459.657299
1470.449919,6513.812290,-6957.935855,-536.266849
1470.450248,6365.771101,-9104.533087,842.705048
1470.450578,6957.935855,-8660.409521,1455.581446
1470.450907,7254.018232,-9474.636058,1072.533697
1470.451236,6661.853478,-8882.471304,1685.410096
1470.451565,5255.462188,-9622.677246,2221.676944
1470.451894,6587.832884,-7402.059420,1072.533697
1470.452223,6883.915261,-4441.235652,536.266849
1470.452552,7624.121203,-2664.741391,459.657299
1470.452882,9252.574275,-4145.153275,1762.019645
1470.453211,8734.430116,-4441.235652,1455.581446
1470.453540,6513.812290,-4885.359217,842.705048
1470.453869,6291.750507,-6513.812290,1302.362347
1470.454198,7402.059420,-7402.059420,1378.971896
1470.454527,6365.771101,-8216.285956,1072.533697
1470.454856,6587.832884,-9844.739029,1838.629195
1470.455186,7105.977043,-9178.553681,1225.752797
1470.455515,5773.606348,-7698.141797,76.609550
1470.455844,5329.482782,-7550.100608,1378.971896
1470.456173,7624.121203,-7254.018232,1685.410096
1470.456502,8142.265362,-6587.832884,1225.752797
1470.456831,6661.853478,-4959.379811,459.657299
1470.457160,6439.791695,-5699.585753,689.485948
1470.457490,7402.059420,-5699.585753,306.438199
1470.457819,7328.038826,-4219.173869,689.485948
1470.458148,7105.977043,-5551.544565,1225.752797
1470.458477,7402.059420,-6513.812290,612.876398
1470.458806,7550.100608,-6735.874072,995.924147
1470.459135,5921.647536,-7624.121203,995.924147
1470.459464,6291.750507,-7402.059420,766.095498
1470.459794,6809.894666,-6069.688724,1149.143247
1470.460123,7105.977043,-6661.853478,919.314598
1470.460452,8068.244768,-7994.224174,1838.629195
1470.460781,8364.327145,-6513.812290,2451.505594
1470.461110,7550.100608,-5033.400406,1225.752797
1470.461439,6809.894666,-4959.379811,0.000000
1470.461768,5995.668130,-4885.359217,383.047749
1470.462097,5921.647536,-6069.688724,689.485948
1470.462427,7105.977043,-7550.100608,1455.581446
1470.462756,7402.059420,-7402.059420,2145.067394
1470.463085,7031.956449,-5995.668130,1455.581446
1470.463414,6883.915261,-6957.935855,1991.848295
1470.463743,6587.832884,-7105.977043,1072.533697
1470.464072,5551.544565,-6587.832884,766.095498
1470.464401,6439.791695,-6883.915261,0.000000
1470.464731,7624.121203,-5847.626942,612.876398
1470.465060,7994.224174,-6587.832884,1149.143247
1470.465389,8290.306550,-7550.100608,2681.334243
1470.465718,7550.100608,-6661.853478,536.266849
1470.466047,5477.523971,-6587.832884,0.000000
1470.466376,5403.503377,-7179.997637,2068.457845
1470.466705,7328.038826,-7402.059420,1072.533697
1470.467035,7624.121203,-5773.606348,689.485948
1470.467364,6439.791695,-6957.935855,2221.676944
1470.467693,7550.100608,-7105.977043,995.924147
1470.468022,7624.121203,-6291.750507,1072.533697
1470.468351,6217.729913,-5477.523971,1378.971896
1470.468680,8142.265362,-5699.585753,2068.457845
1470.469009,8882.471304,-6365.771101,1685.410096
1470.469339,6217.729913,-5403.503377,1072.533697
1470.469668,4959.379811,-6513.812290,0.000000
1470.469997,6661.853478,-7105.977043,459.657299
1470.470326,6365.771101,-7254.018232,842.705048
1470.470655,5477.523971,-9104.533087,1685.410096
1470.470984,6809.894666,-7772.162391,1608.800546
1470.471313,7105.977043,-6735.874072,1149.143247
1470.471643,7031.956449,-6883.915261,1762.019645
1470.471972,6883.915261,-6069.688724,1378.971896
1470.472301,7179.997637,-4515.256246,76.609550
1470.472630,6365.771101,-4737.318029,383.047749
1470.472959,7698.141797,-5255.462188,612.876398
1470.473288,8660.409521,-5403.503377,1685.410096
1470.473617,8290.306550,-5551.544565,1072.533697
1470.473947,7698.141797,-6069.688724,229.828649
1470.474276,6809.894666,-6291.750507,0.000000
1470.474605,6217.729913,-7402.059420,153.219100
1470.474934,6587.832884,-7624.121203,612.876398
1470.475263,6661.853478,-8438.347739,1225.752797
1470.475592,6957.935855,-6513.812290,842.705048
1470.475921,7105.977043,-6365.771101,919.314598
1470.476251,7105.977043,-6735.874072,1608.800546
1470.476580,6587.832884,-5329.482782,1225.752797
1470.476909,8438.347739,-6661.853478,2221.676944
1470.477238,8882.471304,-6883.915261,2068.457845
1470.477567,8512.368333,-4737.318029,1762.019645
1470.477896,7105.977043,-4959.379811,536.266849
1470.478225,6587.832884,-4737.318029,-306.438199
1470.478555,4959.379811,-5847.626942,-1455.581446
1470.478884,4441.235652,-6883.915261,0.000000
1470.479213,6143.709319,-8364.327145,689.485948
1470.479542,7920.203579,-10066.800811,1838.629195
1470.479871,6883.915261,-8068.244768,1838.629195
1470.480200,6513.812290,-8438.347739,1685.410096
1470.480529,7328.038826,-7920.203579,919.314598
1470.480859,6809.894666,-5699.585753,1608.800546
1470.481188,6661.853478,-6957.935855,995.924147
1470.481517,8216.285956,-4515.256246,1532.190996
1470.481846,8142.265362,-4367.215058,1838.629195
1470.482175,7179.997637,-5551.544565,1302.362347
1470.482504,7105.977043,-5255.462188,842.705048
1470.482833,6809.894666,-6883.915261,1532.190996
1470.483162,6513.812290,-6513.812290,536.266849
1470.483492,6661.853478,-7402.059420,76.609550
1470.483821,6365.771101,-9104.533087,1455.581446
1470.484150,7105.977043,-8216.285956,1378.971896
1470.484479,6069.688724,-7994.224174,2298.286494
1470.484808,4959.379811,-6143.709319,995.924147
1470.485137,4811.338623,-5921.647536,0.000000
1470.485466,7031.956449,-6217.729913,1762.019645
1470.485796,8216.285956,-5921.647536,1149.143247
1470.486125,7994.224174,-5033.400406,1838.629195
1470.486454,8216.285956,-5403.503377,2374.896044
1470.486783,8438.347739,-5255.462188,76.609550
1470.487112,6217.729913,-5033.400406,-306.438199
1470.487441,5403.503377,-6735.874072,919.314598
1470.487770,6957.935855,-6883.915261,0.000000
1470.488100,7105.977043,-6883.915261,306.438199
1470.488429,7031.956449,-7698.141797,1149.143247
1470.488758,8142.265362,-8586.388927,1455.581446
1470.489087,8364.327145,-6883.915261,1225.752797
1470.489416,7031.956449,-7179.997637,1608.800546
1470.489745,8290.306550,-6587.832884,1302.362347
1470.490074,9252.574275,-4959.379811,1149.143247
1470.490404,7402.059420,-3775.050304,842.705048
1470.490733,6661.853478,-4737.318029,153.219100
1470.491062,6513.812290,-3478.967927,-919.314598
1470.491391,5625.565159,-5107.421000,-842.705048
1470.491720,6513.812290,-7031.956449,459.657299
1470.492049,8216.285956,-8290.306550,1991.848295
1470.492378,8512.368333,-8808.450710,1685.410096
1470.492708,6883.915261,-7254.018232,1225.752797
1470.493037,6217.729913,-7772.162391,689.485948
1470.493366,6365.771101,-7105.977043,-306.438199
1470.493695,5699.585753,-6439.791695,153.219100
1470.494024,6661.853478,-7105.977043,76.609550
1470.494353,7624.121203,-6291.750507,995.924147
1470.494682,7624.121203,-4515.256246,1149.143247
1470.495012,6957.935855,-5403.503377,919.314598
1470.495341,6513.812290,-5921.647536,0.000000
1470.495670,5847.626942,-5181.441594,536.266849
1470.495999,7624.121203,-7402.059420,1302.362347
1470.496328,8882.471304,-7254.018232,2298.286494
1470.496657,7994.224174,-6365.771101,1838.629195
1470.496986,7179.997637,-7031.956449,995.924147
1470.497316,6143.709319,-7105.977043,229.828649
1470.497645,5181.441594,-5995.668130,536.266849
1470.497974,5847.626942,-6587.832884,306.438199
1470.498303,7254.018232,-6735.874072,1072.533697
1470.498632,7624.121203,-6809.894666,2145.067394
1470.498961,7179.997637,-7328.038826,1838.629195
1470.499290,7254.018232,-7179.997637,1685.410096
1470.499620,6809.894666,-7179.997637,995.924147
1470.499949,5699.585753,-5699.585753,1149.143247
1470.500278,6513.812290,-5477.523971,689.485948
1470.500607,7254.018232,-7698.141797,1225.752797
1470.500936,7328.038826,-6217.729913,1378.971896
1470.501265,7105.977043,-7031.956449,1455.581446
1470.501594,6661.853478,-7179.997637,995.924147
1470.501924,5847.626942,-5551.544565,1762.019645
1470.502253,6365.771101,-8068.244768,842.705048
1470.502582,7994.224174,-8142.265362,1608.800546
1470.502911,7179.997637,-6143.709319,1838.629195
1470.503240,7031.956449,-7550.100608,689.485948
1470.503569,5921.647536,-5551.544565,-229.828649
1470.503898,5107.421000,-5181.441594,-229.828649
1470.504227,6069.688724,-6143.709319,536.266849
1470.504557,8586.388927,-6587.832884,2221.676944
1470.504886,9030.512492,-7254.018232,3677.258390
1470.505215,9104.533087,-6513.812290,2911.162892
1470.505544,8956.491898,-5699.585753,3064.381992
1470.505873,6809.894666,-5107.421000,612.876398
1470.506202,5995.668130,-6513.812290,229.828649
1470.506531,6661.853478,-7105.977043,919.314598
1470.506861,7920.203579,-6661.853478,842.705048
1470.507190,6661.853478,-5995.668130,842.705048
1470.507519,5773.606348,-6365.771101,1072.533697
1470.507848,6217.729913,-6957.935855,0.000000
1470.508177,5033.400406,-7031.956449,76.609550
1470.508506,5773.606348,-8808.450710,2374.896044
1470.508835,8290.306550,-6957.935855,2068.457845
1470.509165,8808.450710,-5995.668130,1762.019645
1470.509494,7920.203579,-5773.606348,2604.724693
1470.509823,8216.285956,-4293.194464,1532.190996
1470.510152,7031.956449,-4515.256246,76.609550
1470.510481,5921.647536,-4959.379811,919.314598
1470.510810,7328.038826,-5921.647536,1455.581446
1470.511139,9400.615463,-6439.791695,1838.629195
1470.511469,7254.018232,-7254.018232,1532.190996
1470.511798,6143.709319,-8142.265362,383.047749
1470.512127,5551.544565,-7105.977043,-766.095498
1470.512456,4737.318029,-8586.388927,153.219100
1470.512785,5255.462188,-7328.038826,1149.143247
1470.513114,7624.121203,-8068.244768,2068.457845
1470.513443,8216.285956,-6883.915261,2987.772442
1470.513773,7772.162391,-5551.544565,2757.943793
1470.514102,6735.874072,-6809.894666,1915.238745
1470.514431,6439.791695,-3775.050304,1072.533697
1470.514760,6217.729913,-4293.194464,1685.410096
1470.515089,8438.347739,-6365.771101,2068.457845
1470.515418,8068.244768,-4737.318029,1455.581446
1470.515747,6957.935855,-6513.812290,459.657299
1470.516077,6439.791695,-7994.224174,306.438199
1470.516406,5329.482782,-8882.471304,-306.438199
1470.516735,4811.338623,-8512.368333,-383.047749
1470.517064,5107.421000,-8586.388927,-536.266849
1470.517393,6513.812290,-10807.006753,459.657299
1470.517722,7476.080014,-8956.491898,1991.848295
1470.518051,8068.244768,-7105.977043,1838.629195
1470.518381,8586.388927,-5551.544565,1608.800546
1470.518710,7698.141797,-4367.215058,1762.019645
1470.519039,7624.121203,-5107.421000,2145.067394
1470.519368,7772.162391,-4145.153275,1072.533697
1470.519697,6957.935855,-2368.659014,0.000000
1470.520026,6513.812290,-5107.421000,459.657299
1470.520355,7624.121203,-7105.977043,766.095498
1470.520685,6365.771101,-6439.791695,153.219100
1470.521014,4293.194464,-9178.553681,459.657299
1470.521343,4515.256246,-9326.594869,76.609550
1470.521672,5625.565159,-9474.636058,229.828649
1470.522001,5921.647536,-8734.430116,1532.190996
1470.522330,6809.894666,-7179.997637,2604.724693
1470.522659,8142.265362,-5551.544565,1532.190996
1470.522989,7328.038826,-4737.318029,1225.752797
1470.523318,7254.018232,-5181.441594,1991.848295
1470.523647,9548.656652,-3923.091493,1302.362347
1470.523976,7994.224174,-2886.803174,1072.533697
1470.524305,6513.812290,-4367.215058,-229.828649
1470.524634,6809.894666,-6217.729913,459.657299
1470.524963,6439.791695,-7402.059420,383.047749
1470.525292,6217.729913,-8142.265362,0.000000
1470.525622,6439.791695,-8512.368333,919.314598
1470.525951,7698.141797,-9252.574275,1225.752797
1470.526280,7920.203579,-7994.224174,1915.238745
1470.526609,7698.141797,-7476.080014,2145.067394
1470.526938,7846.182985,-6143.709319,1302.362347
1470.527267,7254.018232,-4145.153275,919.314598
1470.527596,7402.059420,-5551.544565,1149.143247
1470.527926,7476.080014,-4219.173869,995.924147
1470.528255,6809.894666,-4219.173869,1455.581446
1470.528584,7254.018232,-5921.647536,1608.800546
1470.528913,7328.038826,-5921.647536,689.485948
1470.529242,5921.647536,-7476.080014,459.657299
1470.529571,5847.626942,-8956.491898,1149.143247
1470.529900,6143.709319,-8364.327145,1149.143247
1470.530230,6513.812290,-8364.327145,919.314598
1470.530559,6735.874072,-8142.265362,2145.067394
1470.530888,7328.038826,-7254.018232,1225.752797
1470.531217,7105.977043,-5551.544565,1685.410096
1470.531546,6143.709319,-6217.729913,1455.581446
1470.531875,7920.203579,-5403.503377,536.266849
1470.532204,8142.265362,-4811.338623,1532.190996
1470.532534,6809.894666,-5329.482782,842.705048
1470.532863,6587.832884,-6513.812290,306.438199
1470.533192,7328.038826,-7624.121203,1149.143247
1470.533521,5773.606348,-7476.080014,383.047749
1470.533850,4441.235652,-6661.853478,-536.266849
1470.534179,6587.832884,-8882.471304,1608.800546
1470.534508,8290.306550,-7254.018232,1685.410096
1470.534838,7179.997637,-6291.750507,1838.629195
1470.535167,6883.915261,-6957.935855,1838.629195
1470.535496,7105.977043,-5329.482782,1762.019645
1470.535825,8068.244768,-6143.709319,2298.286494
1470.536154,8364.327145,-5477.523971,1838.629195
1470.536483,7105.977043,-3108.864956,0.000000
1470.536812,6217.729913,-4811.338623,-689.485948
1470.537142,6513.812290,-5847.626942,0.000000
1470.537471,6069.688724,-7031.956449,-689.485948
1470.537800,6069.688724,-7254.018232,612.876398
1470.538129,5625.565159,-8364.327145,153.219100
1470.538458,6069.688724,-8512.368333,76.609550
1470.538787,6365.771101,-7402.059420,1072.533697
1470.539116,7772.162391,-8068.244768,1532.190996
1470.539446,8290.306550,-5921.647536,1608.800546
1470.539775,7105.977043,-5625.565159,1838.629195
1470.540104,7476.080014,-5181.441594,1838.629195
1470.540433,9696.697840,-3108.864956,1455.581446
1470.540762,9030.512492,-3849.070898,1302.362347
1470.541091,7402.059420,-3701.029710,689.485948
1470.541420,7105.977043,-6217.729913,306.438199
1470.541750,6661.853478,-6957.935855,76.609550
1470.542079,5477.523971,-7179.997637,0.000000
1470.542408,5847.626942,-9770.718434,383.047749
1470.542737,6809.894666,-9844.739029,459.657299
1470.543066,6291.750507,-9474.636058,689.485948
1470.543395,6513.812290,-8216.285956,2068.457845
1470.543724,6809.894666,-5921.647536,383.047749
1470.544054,6883.915261,-6143.709319,1225.752797
1470.544383,7179.997637,-5033.400406,1685.410096
1470.544712,8290.306550,-5403.503377,1072.533697
1470.545041,8290.306550,-3775.050304,1838.629195
1470.545370,7328.038826,-4367.215058,1378.971896
1470.545699,7476.080014,-5921.647536,383.047749
1470.546029,6513.812290,-5773.606348,689.485948
1470.546358,5329.482782,-7920.203579,766.095498
1470.546687,5995.668130,-8586.388927,0.000000
1470.547016,6217.729913,-8808.450710,306.438199
1470.547346,6439.791695,-8512.368333,842.705048
1470.547675,7031.956449,-6957.935855,306.438199
1470.548004,6809.894666,-7476.080014,1455.581446
1470.548333,7105.977043,-6809.894666,2298.286494
1470.548662,8364.327145,-5107.421000,1608.800546
1470.548992,8660.409521,-4959.379811,2221.676944
1470.549321,7624.121203,-3478.967927,2068.457845
1470.549650,6587.832884,-5181.441594,1302.362347
1470.549979,5773.606348,-5403.503377,-536.266849
1470.550309,4959.379811,-5477.523971,383.047749
1470.550638,6291.750507,-8438.347739,2221.676944
1470.550967,8956.491898,-9474.636058,2528.115143
1470.551296,7846.182985,-8216.285956,1455.581446
1470.551625,5625.565159,-7105.977043,153.219100
1470.551955,5847.626942,-8512.368333,536.266849
1470.552284,5847.626942,-6143.709319,-383.047749
1470.552613,5699.585753,-5995.668130,306.438199
1470.552942,7920.203579,-5847.626942,1149.143247
1470.553272,9474.636058,-5773.606348,3064.381992
1470.553601,7994.224174,-5921.647536,2145.067394
1470.553930,5329.482782,-5181.441594,689.485948
1470.554259,5107.421000,-5329.482782,-919.314598
1470.554588,6143.709319,-6069.688724,0.000000
1470.554918,6809.894666,-8438.347739,1302.362347
1470.555247,7624.121203,-9030.512492,1838.629195
1470.555576,8216.285956,-6587.832884,1685.410096
1470.555905,7624.121203,-6291.750507,2374.896044
1470.556235,7105.977043,-7476.080014,1225.752797
1470.556564,6587.832884,-6883.915261,1455.581446
1470.556893,6735.874072,-5551.544565,689.485948
1470.557222,8586.388927,-5699.585753,919.314598
1470.557551,8882.471304,-5625.565159,2298.286494
1470.557881,7328.038826,-5255.462188,1149.143247
1470.558210,6365.771101,-5773.606348,76.609550
1470.558539,4959.379811,-5477.523971,76.609550
1470.558868,4145.153275,-7179.997637,-229.828649
1470.559198,5921.647536,-8956.491898,995.924147
1470.559527,7550.100608,-9474.636058,2145.067394
1470.559856,7920.203579,-9696.697840,2374.896044
1470.560185,8068.244768,-7994.224174,2374.896044
1470.560514,7476.080014,-5773.606348,612.876398
1470.560844,6809.894666,-4737.318029,689.485948
1470.561173,7772.162391,-4885.359217,1838.629195
1470.561502,10066.800811,-4219.173869,1149.143247
1470.561831,7402.059420,-3775.050304,995.924147
1470.562161,6735.874072,-4885.359217,1608.800546
1470.562490,6957.935855,-5847.626942,1149.143247
1470.562819,5847.626942,-6439.791695,-306.438199
1470.563148,4071.132681,-6883.915261,459.657299
1470.563477,5625.565159,-7994.224174,612.876398
1470.563807,7920.203579,-9474.636058,1149.143247
1470.564136,7624.121203,-8734.430116,2451.505594
1470.564465,6809.894666,-7698.141797,1608.800546
1470.564794,7031.956449,-6587.832884,536.266849
1470.565124,5551.544565,-6069.688724,1072.533697
1470.565453,6957.935855,-6513.812290,1915.238745
1470.565782,9622.677246,-5255.462188,1378.971896
1470.566111,9622.677246,-4589.276840,2221.676944
1470.566440,7624.121203,-4885.359217,1608.800546
1470.566770,5403.503377,-5403.503377,-459.657299
1470.567099,4663.297435,-5329.482782,-459.657299
1470.567428,4367.215058,-7920.203579,-306.438199
1470.567757,5995.668130,-7994.224174,0.000000
1470.568087,6217.729913,-7772.162391,306.438199
1470.568416,7328.038826,-9844.739029,2145.067394
1470.568745,8660.409521,-8142.265362,2145.067394
1470.569074,7772.162391,-6735.874072,1762.019645
1470.569403,6809.894666,-6291.750507,1915.238745
1470.569733,7772.162391,-5107.421000,1378.971896
1470.570062,9030.512492,-5033.400406,1455.581446
1470.570391,7550.100608,-3256.906145,1302.362347
1470.570720,6513.812290,-4145.153275,1149.143247
1470.571050,6439.791695,-4663.297435,-459.657299
1470.571379,5033.400406,-4737.318029,-766.095498
1470.571708,4811.338623,-7254.018232,229.828649
1470.572037,7031.956449,-9252.574275,1532.190996
1470.572366,8216.285956,-9326.594869,1685.410096
1470.572696,7328.038826,-8068.244768,2221.676944
1470.573025,7105.977043,-7920.203579,2221.676944
1470.573354,6957.935855,-6883.915261,766.095498
1470.573683,6217.729913,-5551.544565,1149.143247
1470.574013,7476.080014,-6735.874072,919.314598
1470.574342,7920.203579,-4959.379811,459.657299
1470.574671,7328.038826,-5255.462188,1225.752797
1470.575000,7179.997637,-6365.771101,995.924147
1470.575329,6735.874072,-5033.400406,536.266849
1470.575659,5477.523971,-6883.915261,1072.533697
1470.575988,5403.503377,-7698.141797,689.485948
1470.576317,6291.750507,-7550.100608,766.095498
1470.576646,7105.977043,-7550.100608,1225.752797
1470.576976,7105.977043,-7624.121203,536.266849
1470.577305,7254.018232,-7031.956449,995.924147
1470.577634,7105.977043,-6291.750507,842.705048
1470.577963,7402.059420,-6291.750507,1072.533697
1470.578293,8956.491898,-5329.482782,2298.286494
1470.578622,9252.574275,-5699.585753,2374.896044
1470.578951,8142.265362,-5329.482782,2068.457845
1470.579280,7105.977043,-5699.585753,1149.143247
1470.579609,5699.585753,-4885.359217,-229.828649
1470.579939,4737.318029,-5551.544565,-153.219100
1470.580268,5699.585753,-6735.874072,-383.047749
1470.580597,6365.771101,-8512.368333,306.438199
1470.580926,6291.750507,-8734.430116,2298.286494
1470.581256,7105.977043,-8586.388927,1072.533697
1470.581585,6365.771101,-7624.121203,919.314598
1470.581914,6069.688724,-6513.812290,1455.581446
1470.582243,7328.038826,-7254.018232,1608.800546
1470.582572,8956.491898,-6957.935855,2604.724693
1470.582902,8734.430116,-4071.132681,1685.410096
1470.583231,7624.121203,-4441.235652,766.095498
1470.583560,7254.018232,-3775.050304,153.219100
1470.583889,5329.482782,-4737.318029,-76.609550
1470.584219,5181.441594,-6291.750507,383.047749
1470.584548,7031.956449,-7105.977043,995.924147
1470.584877,7254.018232,-8808.450710,995.924147
1470.585206,6883.915261,-8956.491898,2451.505594
1470.585535,7031.956449,-8882.471304,2068.457845
1470.585865,6957.935855,-7772.162391,1149.143247
1470.586194,5847.626942,-7402.059420,1455.581446
1470.586523,7031.956449,-6439.791695,1685.410096
1470.586852,7328.038826,-4219.173869,383.047749
1470.587182,6291.750507,-4589.276840,1072.533697
1470.587511,6661.853478,-3849.070898,1225.752797
1470.587840,7624.121203,-4219.173869,76.609550
1470.588169,7105.977043,-5255.462188,1225.752797
1470.588498,6809.894666,-7031.956449,2757.943793
1470.588828,7994.224174,-9400.615463,2145.067394
1470.589157,6957.935855,-6883.915261,1225.752797
1470.589486,4737.318029,-7476.080014,0.000000
1470.589815,5625.565159,-9400.615463,-383.047749
1470.590145,6513.812290,-6661.853478,0.000000
1470.590474,6143.709319,-7920.203579,0.000000
1470.590803,8216.285956,-7846.182985,1685.410096
1470.591132,9622.677246,-6143.709319,2451.505594
1470.591461,8586.388927,-6883.915261,1915.238745
1470.591791,6957.935855,-5847.626942,2528.115143
1470.592120,6587.832884,-4737.318029,383.047749
1470.592449,6513.812290,-3849.070898,-229.828649
1470.592778,6365.771101,-4367.215058,459.657299
1470.593108,7624.121203,-6809.894666,1149.143247
1470.593437,8290.306550,-6217.729913,459.657299
1470.593766,7254.018232,-7550.100608,1608.800546
1470.594095,6883.915261,-8586.388927,1762.019645
1470.594424,6439.791695,-7179.997637,842.705048
1470.594754,6587.832884,-8734.430116,2145.067394
1470.595083,8956.491898,-8882.471304,2298.286494
1470.595412,8808.450710,-6735.874072,1455.581446
1470.595741,7105.977043,-5699.585753,1072.533697
1470.596071,6217.729913,-4589.276840,-306.438199
1470.596400,5107.421000,-4293.194464,-383.047749
1470.596729,4293.194464,-5107.421000,-229.828649
1470.597058,5773.606348,-6069.688724,612.876398
1470.597387,7254.018232,-7179.997637,2374.896044
1470.597717,7772.162391,-7105.977043,2911.162892
1470.598046,7994.224174,-7328.038826,2451.505594
1470.598375,7476.080014,-6809.894666,1915.238745
1470.598704,6735.874072,-6291.750507,1225.752797
1470.599034,6513.812290,-7031.956449,536.266849
1470.599363,7550.100608,-6735.874072,383.047749
1470.599692,7031.956449,-5847.626942,0.000000
1470.600021,6365.771101,-6217.729913,612.876398
1470.600350,6809.894666,-6513.812290,919.314598
1470.600680,6143.709319,-7254.018232,995.924147
1470.601009,5995.668130,-6291.750507,1225.752797
1470.601338,6957.935855,-7328.038826,2298.286494
1470.601667,8068.244768,-7031.956449,1608.800546
1470.601997,7105.977043,-5921.647536,1685.410096
1470.602326,6735.874072,-5699.585753,919.314598
1470.602655,6513.812290,-5773.606348,0.000000
1470.602984,5773.606348,-5847.626942,995.924147
1470.603313,6735.874072,-7920.203579,1302.362347
1470.603643,8734.430116,-8956.491898,2068.457845
1470.603972,8734.430116,-7994.224174,2757.943793
1470.604301,6513.812290,-7550.100608,1225.752797
1470.604630,4959.379811,-7031.956449,-689.485948
1470.604960,4515.256246,-5773.606348,-536.266849
1470.605289,5033.400406,-5847.626942,-689.485948
1470.605618,6513.812290,-4959.379811,766.095498
1470.605947,7105.977043,-5995.668130,1762.019645
1470.606276,7846.182985,-7031.956449,2374.896044
1470.606606,8438.347739,-6513.812290,2604.724693
1470.606935,7624.121203,-5773.606348,2298.286494
1470.607264,7105.977043,-6217.729913,1532.190996
1470.607593,8216.285956,-7105.977043,2068.457845
1470.607923,9104.533087,-6735.874072,1685.410096
1470.608252,7476.080014,-6069.688724,306.438199
1470.608581,6291.750507,-6069.688724,612.876398
1470.608910,5329.482782,-6513.812290,-766.095498
1470.609239,4959.379811,-7105.977043,-766.095498
1470.609569,5033.400406,-7698.141797,1455.581446
1470.609898,7105.977043,-7772.162391,2451.505594
1470.610227,8586.388927,-7328.038826,2681.334243
1470.610556,8290.306550,-7031.956449,3370.820191
1470.610886,8216.285956,-6439.791695,1838.629195
1470.611215,7550.100608,-4737.318029,1072.533697
1470.611544,6291.750507,-4737.318029,612.876398
1470.611873,7254.018232,-5329.482782,153.219100
1470.612202,7994.224174,-5033.400406,536.266849
1470.612532,7105.977043,-6069.688724,612.876398
1470.612861,7994.224174,-7476.080014,1608.800546
1470.613190,7254.018232,-6809.894666,153.219100
1470.613519,5181.441594,-8142.265362,153.219100
1470.613849,6143.709319,-8808.450710,842.705048
1470.614178,7402.059420,-7254.018232,919.314598
1470.614507,7402.059420,-7105.977043,1225.752797
1470.614836,6809.894666,-5921.647536,1915.238745
1470.615165,7105.977043,-4441.235652,1378.971896
1470.615495,6587.832884,-4145.153275,766.095498
1470.615824,6513.812290,-4811.338623,1149.143247
1470.616153,8512.368333,-6365.771101,2757.943793
1470.616482,9178.553681,-6439.791695,2145.067394
1470.616812,7772.162391,-7031.956449,1915.238745
1470.617141,6291.750507,-7476.080014,459.657299
1470.617470,5033.400406,-7179.997637,0.000000
1470.617799,3775.050304,-7179.997637,-383.047749
1470.618128,4071.132681,-8882.471304,-536.266849
1470.618458,5625.565159,-7846.182985,-306.438199
1470.618787,6439.791695,-6809.894666,536.266849
1470.619116,7179.997637,-7402.059420,2145.067394
1470.619445,7920.203579,-6661.853478,2911.162892
1470.619775,8512.368333,-6661.853478,2681.334243
1470.620104,8512.368333,-5847.626942,2528.115143
1470.620433,8808.450710,-5847.626942,2068.457845
1470.620762,8290.306550,-5255.462188,1072.533697
1470.621091,7105.977043,-5329.482782,229.828649
1470.621421,6069.688724,-4367.215058,-766.095498
1470.621750,5181.441594,-4885.359217,-2221.676944
1470.622079,5477.523971,-7920.203579,842.705048
1470.622408,7179.997637,-9696.697840,2221.676944
1470.622738,7846.182985,-8956.491898,2298.286494
1470.623067,7031.956449,-7179.997637,2374.896044
1470.623396,6587.832884,-6883.915261,1762.019645
1470.623725,7179.997637,-6439.791695,842.705048
1470.624054,6735.874072,-4219.173869,995.924147
1470.624384,6957.935855,-3849.070898,306.438199
1470.624713,8512.368333,-3849.070898,842.705048
1470.625042,8586.388927,-3182.885551,2451.505594
1470.625371,7994.224174,-6217.729913,919.314598
1470.625701,7328.038826,-7031.956449,919.314598
1470.626030,6217.729913,-7624.121203,689.485948
1470.626359,5847.626942,-9104.533087,0.000000
1470.626688,6291.750507,-9178.553681,842.705048
1470.627017,7328.038826,-9104.533087,1149.143247
1470.627347,7254.018232,-6883.915261,229.828649
1470.627676,6587.832884,-6439.791695,612.876398
1470.628005,6291.750507,-5329.482782,536.266849
1470.628334,7105.977043,-5033.400406,919.314598
1470.628664,8142.265362,-5181.441594,2604.724693
1470.628993,9400.615463,-4663.297435,1838.629195
1470.629322,8290.306550,-4071.132681,1149.143247
1470.629651,6809.894666,-4589.276840,1149.143247
1470.629980,6291.750507,-6587.832884,-229.828649
1470.630310,6069.688724,-6883.915261,0.000000
1470.630639,5995.668130,-7994.224174,459.657299
1470.630968,6439.791695,-9696.697840,612.876398
1470.631297,6513.812290,-9104.533087,919.314598
1470.631627,6957.935855,-7920.203579,1762.019645
1470.631956,7624.121203,-7920.203579,1302.362347
1470.632285,7328.038826,-5255.462188,1225.752797
1470.632614,6587.832884,-4959.379811,536.266849
1470.632943,7624.121203,-5403.503377,229.828649
1470.633273,8734.430116,-4145.153275,766.095498
1470.633602,6883.915261,-5329.482782,536.266849
1470.633931,6143.709319,-6143.709319,0.000000
1470.634260,5255.462188,-5773.606348,-612.876398
1470.634590,5033.400406,-8142.265362,-383.047749
1470.634919,6291.750507,-8512.368333,919.314598
1470.635248,7402.059420,-8882.471304,1838.629195
1470.635577,8512.368333,-9770.718434,2451.505594
1470.635906,8364.327145,-7105.977043,2298.286494
1470.636236,7476.080014,-5329.482782,1225.752797
1470.636565,6291.750507,-4071.132681,-383.047749
1470.636894,5403.503377,-5477.523971,689.485948
1470.637223,7994.224174,-4885.359217,995.924147
1470.637553,9104.533087,-4811.338623,1532.190996
1470.637882,7550.100608,-5181.441594,2451.505594
1470.638211,6513.812290,-5625.565159,1378.971896
1470.638540,4885.359217,-6587.832884,-536.266849
1470.638869,3849.070898,-6809.894666,-612.876398
1470.639199,5551.544565,-7550.100608,0.000000
1470.639528,7624.121203,-9104.533087,1149.143247
1470.639857,8068.244768,-7994.224174,2451.505594
1470.640186,8142.265362,-7846.182985,2068.457845
1470.640516,8290.306550,-6291.750507,1608.800546
1470.640845,6883.915261,-4367.215058,919.314598
1470.641174,6513.812290,-6365.771101,1608.800546
1470.641503,8734.430116,-4885.359217,1455.581446
1470.641832,9252.574275,-4589.276840,919.314598
1470.642162,8142.265362,-5551.544565,689.485948
1470.642491,7105.977043,-6587.832884,919.314598
1470.642820,6365.771101,-8068.244768,-612.876398
1470.643149,5329.482782,-7920.203579,-536.266849
1470.643479,5255.462188,-8512.368333,229.828649
1470.643808,7105.977043,-9252.574275,1608.800546
1470.644137,8068.244768,-7254.018232,2145.067394
1470.644466,7846.182985,-7476.080014,2374.896044
1470.644795,8438.347739,-6439.791695,2221.676944
1470.645125,7846.182985,-3552.988522,1685.410096
1470.645454,7328.038826,-4219.173869,1608.800546
1470.645783,8512.368333,-5625.565159,2145.067394
1470.646112,8216.285956,-4663.297435,2221.676944
1470.646442,6513.812290,-4589.276840,153.219100
1470.646771,4663.297435,-5773.606348,-229.828649
1470.647100,4737.318029,-6957.935855,612.876398
1470.647429,5699.585753,-8290.306550,612.876398
1470.647758,6365.771101,-9696.697840,1149.143247
1470.648088,6291.750507,-9770.718434,2451.505594
1470.648417,7328.038826,-9474.636058,1991.848295
1470.648746,7105.977043,-8438.347739,995.924147
1470.649075,5625.565159,-4737.318029,1149.143247
1470.649404,5773.606348,-4219.173869,919.314598
1470.649734,7698.141797,-4293.194464,2068.457845
1470.650063,8364.327145,-4737.318029,2451.505594
1470.650392,7698.141797,-4811.338623,2757.943793
1470.650721,7328.038826,-3849.070898,1225.752797
1470.651050,5477.523971,-5625.565159,-153.219100
1470.651379,4367.215058,-7105.977043,536.266849
1470.651709,5773.606348,-8586.388927,842.705048
1470.652038,7698.141797,-8512.368333,689.485948
1470.652367,5847.626942,-6587.832884,0.000000
1470.652696,5995.668130,-8364.327145,919.314598
1470.653025,7772.162391,-9474.636058,1378.971896
1470.653355,7328.038826,-5995.668130,1532.190996
1470.653684,6365.771101,-5699.585753,1378.971896
1470.654013,8438.347739,-4959.379811,2145.067394
1470.654342,10436.903782,-5181.441594,2068.457845
1470.654671,8734.430116,-6587.832884,2145.067394
1470.655000,6513.812290,-5477.523971,919.314598
1470.655330,4811.338623,-4589.276840,-1608.800546
1470.655659,3923.091493,-7105.977043,-1455.581446
1470.655988,4515.256246,-7846.182985,0.000000
1470.656317,6661.853478,-8068.244768,689.485948
1470.656646,7994.224174,-8364.327145,1455.581446
1470.656976,8216.285956,-7105.977043,2145.067394
1470.657305,8956.491898,-7476.080014,2528.115143
1470.657634,8808.450710,-6365.771101,1532.190996
1470.657963,7550.100608,-4515.256246,1762.019645
1470.658292,7772.162391,-4959.379811,536.266849
1470.658622,8142.265362,-4663.297435,229.828649
1470.658951,6809.894666,-4515.256246,0.000000
1470.659280,6587.832884,-5625.565159,153.219100
1470.659609,5995.668130,-5699.585753,-383.047749
1470.659938,5181.441594,-7328.038826,0.000000
1470.660267,5403.503377,-9844.739029,842.705048
1470.660597,6809.894666,-9918.759623,1149.143247
1470.660926,7772.162391,-8364.327145,2145.067394
1470.661255,7402.059420,-6883.915261,1685.410096
1470.661584,6661.853478,-6735.874072,1149.143247
1470.661913,6809.894666,-5255.462188,1225.752797
1470.662243,7254.018232,-4811.338623,766.095498
1470.662572,7994.224174,-4071.132681,766.095498
1470.662901,7105.977043,-4293.194464,76.609550
1470.663230,6735.874072,-5551.544565,0.000000
1470.663559,6439.791695,-6587.832884,306.438199
1470.663889,6069.688724,-7402.059420,536.266849
1470.664218,5625.565159,-8734.430116,76.609550
1470.664547,5773.606348,-8956.491898,383.047749
1470.664876,6365.771101,-9844.739029,766.095498
1470.665205,6957.935855,-8512.368333,1532.190996
1470.665534,7550.100608,-7105.977043,1455.581446
1470.665864,7476.080014,-6587.832884,1608.800546
1470.666193,7402.059420,-5477.523971,1991.848295
1470.666522,7994.224174,-4293.194464,1991.848295
1470.666851,8586.388927,-3775.050304,1915.238745
1470.667180,8142.265362,-3404.947333,1149.143247
1470.667510,7254.018232,-4219.173869,995.924147
1470.667839,5995.668130,-5995.668130,0.000000
1470.668168,5107.421000,-7254.018232,306.438199
1470.668497,5255.462188,-8364.327145,-612.876398
1470.668826,6439.791695,-8808.450710,-76.609550
1470.669156,7179.997637,-10658.965565,689.485948
1470.669485,7105.977043,-11029.068536,1455.581446
1470.669814,7254.018232,-8882.471304,2374.896044
1470.670143,7031.956449,-6143.709319,1225.752797
1470.670472,7179.997637,-5329.482782,1072.533697
1470.670801,8216.285956,-5033.400406,3294.210641
1470.671131,9696.697840,-3997.112087,2374.896044
1470.671460,8512.368333,-3330.926739,1455.581446
1470.671789,6439.791695,-3034.844362,1378.971896
1470.672118,5625.565159,-3552.988522,-995.924147
1470.672447,4737.318029,-5477.523971,-1072.533697
1470.672777,4663.297435,-6513.812290,76.609550
1470.673106,6513.812290,-9400.615463,536.266849
1470.673435,8216.285956,-9474.636058,1455.581446
1470.673764,7550.100608,-10584.944971,2911.162892
1470.674093,7698.141797,-9844.739029,2757.943793
1470.674423,7402.059420,-7698.141797,1991.848295
1470.674752,6217.729913,-6143.709319,1072.533697
1470.675081,6883.915261,-4071.132681,1225.752797
1470.675410,8142.265362,-4145.153275,2068.457845
1470.675739,8216.285956,-2220.617826,1378.971896
1470.676068,6587.832884,-3034.844362,383.047749
1470.676398,5477.523971,-4811.338623,306.438199
1470.676727,5921.647536,-6513.812290,1455.581446
1470.677056,6217.729913,-8956.491898,1225.752797
1470.677385,6809.894666,-8808.450710,1608.800546
1470.677714,7550.100608,-8882.471304,1378.971896
1470.678044,7624.121203,-8734.430116,689.485948
1470.678373,6809.894666,-7846.182985,383.047749
1470.678702,6439.791695,-7550.100608,-229.828649
1470.679031,7846.182985,-6587.832884,459.657299
1470.679360,8216.285956,-6587.832884,1838.629195
1470.679690,8364.327145,-5181.441594,2451.505594
1470.680019,8068.244768,-4145.153275,1915.238745
1470.680348,7550.100608,-5255.462188,1225.752797
1470.680677,6069.688724,-5477.523971,306.438199
1470.681006,4959.379811,-4515.256246,-689.485948
1470.681335,6143.709319,-6143.709319,0.000000
1470.681665,7179.997637,-6587.832884,-842.705048
1470.681994,7105.977043,-7846.182985,383.047749
1470.682323,8216.285956,-7920.203579,76.609550
1470.682652,7698.141797,-8660.409521,459.657299
1470.682981,5995.668130,-7846.182985,0.000000
1470.683311,6513.812290,-8808.450710,0.000000
1470.683640,7994.224174,-7105.977043,0.000000
1470.683969,7698.141797,-5181.441594,0.000000
1470.684298,7031.956449,-4811.338623,-1149.143247
1470.684627,6143.709319,-3849.070898,-2145.067394
1470.684956,4959.379811,-4885.359217,-2068.457845
1470.685286,5033.400406,-6069.688724,-2068.457845
1470.685615,6513.812290,-7105.977043,229.828649
1470.685944,7328.038826,-7254.018232,-459.657299
1470.686273,8290.306550,-8364.327145,0.000000
1470.686602,8216.285956,-7698.141797,995.924147
1470.686932,8142.265362,-6587.832884,-995.924147
1470.687261,7550.100608,-5403.503377,-2604.724693
1470.687590,6661.853478,-6069.688724,-2451.505594
1470.687919,7402.059420,-7476.080014,-2221.676944
