#time,accel_x,accel_y,accel_z
1318.367437,7031.956449,-6439.791695,1149.143247
1318.367767,6735.874072,-6883.915261,612.876398
1318.368097,7031.956449,-6661.853478,1072.533697
1318.368428,7179.997637,-6735.874072,1455.581446
1318.368758,7328.038826,-6513.812290,1302.362347
1318.369088,7105.977043,-6365.771101,1302.362347
1318.369418,7105.977043,-6661.853478,1225.752797
1318.369749,7105.977043,-6217.729913,1149.143247
1318.370079,6587.832884,-6069.688724,1072.533697
1318.370409,6809.894666,-6439.791695,766.095498
1318.370740,6661.853478,-6661.853478,1072.533697
1318.371070,7031.956449,-6587.832884,1225.752797
1318.371400,6809.894666,-6809.894666,919.314598
1318.371730,7031.956449,-6883.915261,919.314598
1318.372061,6809.894666,-6883.915261,919.314598
1318.372391,6883.915261,-6883.915261,1072.533697
1318.372721,6809.894666,-6883.915261,612.876398
1318.373052,6735.874072,-6513.812290,1149.143247
1318.373382,6957.935855,-6883.915261,842.705048
1318.373712,7328.038826,-6735.874072,995.924147
1318.374042,7179.997637,-6143.709319,1149.143247
1318.374373,7328.038826,-6661.853478,1072.533697
1318.374703,7179.997637,-6291.750507,1149.143247
1318.375033,7105.977043,-6587.832884,1225.752797
1318.375364,7254.018232,-6587.832884,995.924147
1318.375694,7105.977043,-6513.812290,1072.533697
1318.376024,7402.059420,-6439.791695,1072.533697
1318.376354,7031.956449,-6069.688724,919.314598
1318.376685,6957.935855,-6439.791695,1072.533697
1318.377015,7476.080014,-6217.729913,842.705048
1318.377345,7105.977043,-6217.729913,1149.143247
1318.377676,6809.894666,-6069.688724,1302.362347
1318.378006,6809.894666,-6365.771101,1149.143247
1318.378336,7105.977043,-6365.771101,995.924147
1318.378666,6883.915261,-6883.915261,1225.752797
1318.378997,6883.915261,-6513.812290,612.876398
1318.379327,6809.894666,-6883.915261,1225.752797
1318.379657,6809.894666,-6809.894666,1225.752797
1318.379988,6513.812290,-7105.977043,612.876398
1318.380318,6587.832884,-6661.853478,919.314598
1318.380648,6735.874072,-7105.977043,919.314598
1318.380978,7105.977043,-6809.894666,995.924147
1318.381309,7328.038826,-6217.729913,1225.752797
1318.381639,7402.059420,-6217.729913,1225.752797
1318.381969,7105.977043,-6291.750507,1225.752797
1318.382300,6661.853478,-5995.668130,766.095498
1318.382630,6809.894666,-6735.874072,919.314598
1318.382960,6957.935855,-6587.832884,995.924147
1318.383290,7179.997637,-6439.791695,766.095498
1318.383621,7105.977043,-6883.915261,1455.581446
1318.383951,7402.059420,-6957.935855,1072.533697
1318.384281,7105.977043,-6587.832884,919.314598
1318.384612,6809.894666,-6735.874072,306.438199
1318.384942,6587.832884,-5995.668130,842.705048
1318.385272,6735.874072,-6439.791695,1072.533697
1318.385602,6661.853478,-6661.853478,1149.143247
1318.385933,7031.956449,-6439.791695,1225.752797
1318.386263,7105.977043,-6439.791695,1225.752797
1318.386593,6365.771101,-6069.688724,1072.533697
1318.386924,6661.853478,-6587.832884,1532.190996
1318.387254,6439.791695,-7179.997637,842.705048
1318.387584,6365.771101,-6883.915261,766.095498
1318.387914,6883.915261,-6661.853478,1455.581446
1318.388245,7402.059420,-6883.915261,1302.362347
1318.388575,7105.977043,-6587.832884,1149.143247
1318.388905,7179.997637,-6735.874072,1225.752797
1318.389236,7328.038826,-6365.771101,919.314598
1318.389566,7105.977043,-6069.688724,842.705048
1318.389896,7031.956449,-6143.709319,842.705048
1318.390226,7476.080014,-6513.812290,1072.533697
1318.390557,7402.059420,-5921.647536,995.924147
1318.390887,7328.038826,-5995.668130,842.705048
1318.391217,7179.997637,-5995.668130,1685.410096
1318.391548,7105.977043,-6365.771101,919.314598
1318.391878,7105.977043,-6291.750507,766.095498
1318.392208,7105.977043,-6513.812290,1149.143247
1318.392539,7031.956449,-6735.874072,1149.143247
1318.392869,7254.018232,-6291.750507,995.924147
1318.393199,6661.853478,-6587.832884,1225.752797
1318.393529,6883.915261,-6735.874072,1225.752797
1318.393860,6809.894666,-6661.853478,919.314598
1318.394190,6735.874072,-6809.894666,1685.410096
1318.394520,6957.935855,-7105.977043,306.438199
1318.394851,6587.832884,-6661.853478,995.924147
1318.395181,6809.894666,-7105.977043,1072.533697
1318.395511,7105.977043,-7031.956449,919.314598
1318.395841,7105.977043,-5921.647536,1072.533697
1318.396172,7105.977043,-6809.894666,1149.143247
1318.396502,6957.935855,-6439.791695,1072.533697
1318.396832,7105.977043,-6587.832884,995.924147
1318.397163,6957.935855,-6587.832884,459.657299
1318.397493,6513.812290,-6513.812290,1378.971896
1318.397823,7328.038826,-5995.668130,1072.533697
1318.398153,7105.977043,-6365.771101,1072.533697
1318.398484,6809.894666,-6143.709319,1072.533697
1318.398814,6957.935855,-6587.832884,1225.752797
1318.399144,6883.915261,-6439.791695,919.314598
1318.399475,6513.812290,-6439.791695,1225.752797
1318.399805,6513.812290,-6587.832884,995.924147
1318.400135,6735.874072,-6883.915261,1149.143247
1318.400465,7031.956449,-6883.915261,536.266849
1318.400796,6809.894666,-6735.874072,766.095498
1318.401126,7031.956449,-6809.894666,1072.533697
1318.401456,6661.853478,-6587.832884,1302.362347
1318.401787,6069.688724,-6809.894666,1072.533697
1318.402117,6661.853478,-6735.874072,689.485948
1318.402447,6735.874072,-6661.853478,995.924147
1318.402777,7031.956449,-6735.874072,689.485948
1318.403108,7105.977043,-6809.894666,1072.533697
1318.403438,7476.080014,-6587.832884,1302.362347
1318.403768,7328.038826,-6883.915261,842.705048
1318.404099,7179.997637,-6513.812290,1455.581446
1318.404429,7105.977043,-6661.853478,1072.533697
1318.404759,7254.018232,-6809.894666,1149.143247
1318.405089,7920.203579,-6439.791695,1302.362347
1318.405420,7328.038826,-6217.729913,1072.533697
1318.405750,7402.059420,-5921.647536,1149.143247
1318.406080,7254.018232,-6439.791695,1149.143247
1318.406411,7328.038826,-6365.771101,1149.143247
1318.406741,7031.956449,-6587.832884,766.095498
1318.407071,6587.832884,-6365.771101,919.314598
1318.407401,6809.894666,-6587.832884,1149.143247
1318.407732,7254.018232,-6587.832884,1455.581446
1318.408062,6957.935855,-6217.729913,1149.143247
1318.408392,7105.977043,-6513.812290,766.095498
1318.408723,7031.956449,-6735.874072,1532.190996
1318.409053,6809.894666,-6661.853478,766.095498
1318.409383,6809.894666,-6883.915261,689.485948
1318.409713,6735.874072,-6735.874072,1149.143247
1318.410044,6883.915261,-7031.956449,1072.533697
1318.410374,7105.977043,-6883.915261,1302.362347
1318.410704,6957.935855,-5995.668130,1455.581446
1318.411035,7328.038826,-6439.791695,995.924147
1318.411365,7105.977043,-6513.812290,1149.143247
1318.411695,6957.935855,-6587.832884,1225.752797
1318.412025,7031.956449,-6587.832884,1225.752797
1318.412356,7105.977043,-6069.688724,1378.971896
1318.412686,7402.059420,-6439.791695,1149.143247
1318.413016,6957.935855,-6217.729913,1225.752797
1318.413347,6957.935855,-6735.874072,1149.143247
1318.413677,6587.832884,-6809.894666,842.705048
1318.414007,7179.997637,-6365.771101,995.924147
1318.414337,6513.812290,-6661.853478,919.314598
1318.414668,6513.812290,-6661.853478,1149.143247
1318.414998,6809.894666,-6735.874072,1149.143247
1318.415328,7031.956449,-6735.874072,1072.533697
1318.415659,7105.977043,-6809.894666,1149.143247
1318.415989,6809.894666,-6735.874072,1149.143247
1318.416319,6735.874072,-7031.956449,842.705048
1318.416649,6735.874072,-6883.915261,536.266849
1318.416980,6587.832884,-6661.853478,1072.533697
1318.417310,6809.894666,-7105.977043,919.314598
1318.417640,7105.977043,-6513.812290,919.314598
1318.417971,7105.977043,-6217.729913,689.485948
1318.418301,7254.018232,-6661.853478,919.314598
1318.418631,7254.018232,-6735.874072,1225.752797
1318.418961,7105.977043,-6661.853478,1072.533697
1318.419292,7105.977043,-6735.874072,995.924147
1318.419622,7179.997637,-5847.626942,995.924147
1318.419952,7105.977043,-5995.668130,1225.752797
1318.420283,7328.038826,-6439.791695,766.095498
1318.420613,7105.977043,-6217.729913,1149.143247
1318.420943,7105.977043,-6365.771101,842.705048
1318.421273,7402.059420,-6217.729913,1149.143247
1318.421604,7105.977043,-6069.688724,1225.752797
1318.421934,6661.853478,-6587.832884,1149.143247
1318.422264,7105.977043,-6957.935855,1149.143247
1318.422595,7105.977043,-6439.791695,1149.143247
1318.422925,7105.977043,-6587.832884,995.924147
1318.423255,7402.059420,-6735.874072,612.876398
1318.423585,6735.874072,-6883.915261,995.924147
1318.423916,7031.956449,-6809.894666,689.485948
1318.424246,6957.935855,-6809.894666,1149.143247
1318.424576,7105.977043,-6513.812290,1455.581446
1318.424907,7328.038826,-6809.894666,766.095498
1318.425237,7105.977043,-6365.771101,1302.362347
1318.425567,7031.956449,-6439.791695,689.485948
1318.425898,6957.935855,-6587.832884,1072.533697
1318.426228,6809.894666,-6809.894666,1072.533697
1318.426558,6957.935855,-7031.956449,1225.752797
1318.426888,7402.059420,-6661.853478,1378.971896
1318.427219,7105.977043,-6069.688724,1378.971896
1318.427549,7105.977043,-6439.791695,919.314598
1318.427879,6809.894666,-6439.791695,1455.581446
1318.428210,6957.935855,-6587.832884,842.705048
1318.428540,6883.915261,-6217.729913,995.924147
1318.428870,6587.832884,-6217.729913,995.924147
1318.429200,6143.709319,-5995.668130,1225.752797
1318.429531,6587.832884,-6661.853478,842.705048
1318.429861,6217.729913,-7105.977043,1302.362347
1318.430191,6809.894666,-6735.874072,766.095498
1318.430522,6809.894666,-6883.915261,1149.143247
1318.430852,6883.915261,-6661.853478,1378.971896
1318.431182,6587.832884,-7031.956449,766.095498
1318.431512,6513.812290,-6809.894666,689.485948
1318.431842,6809.894666,-7031.956449,995.924147
1318.432171,7328.038826,-6661.853478,919.314598
1318.432500,7105.977043,-6439.791695,1149.143247
1318.432829,7105.977043,-6735.874072,1225.752797
1318.433159,7105.977043,-6735.874072,766.095498
1318.433488,7031.956449,-6291.750507,995.924147
1318.433817,7031.956449,-6365.771101,612.876398
1318.434146,7031.956449,-6439.791695,919.314598
1318.434476,7179.997637,-6291.750507,842.705048
1318.434805,7105.977043,-6513.812290,995.924147
1318.435134,7105.977043,-6069.688724,1762.019645
1318.435463,7328.038826,-6143.709319,1149.143247
1318.435793,7698.141797,-6513.812290,1302.362347
1318.436122,7105.977043,-6069.688724,919.314598
1318.436451,6883.915261,-6587.832884,995.924147
1318.436780,6957.935855,-6143.709319,919.314598
1318.437110,6809.894666,-6587.832884,1302.362347
1318.437439,6957.935855,-6661.853478,995.924147
1318.437768,6735.874072,-6439.791695,612.876398
1318.438097,6513.812290,-6587.832884,1149.143247
1318.438427,7105.977043,-6661.853478,766.095498
1318.438756,6587.832884,-6883.915261,919.314598
1318.439085,7031.956449,-6883.915261,995.924147
1318.439414,7105.977043,-6883.915261,919.314598
1318.439744,7476.080014,-6069.688724,1225.752797
1318.440073,7402.059420,-6809.894666,842.705048
1318.440402,7254.018232,-6513.812290,1072.533697
1318.440731,7179.997637,-6439.791695,689.485948
1318.441061,6957.935855,-6513.812290,1225.752797
1318.441390,7105.977043,-6513.812290,1149.143247
1318.441719,7105.977043,-6217.729913,919.314598
1318.442048,7105.977043,-6217.729913,689.485948
1318.442378,6957.935855,-6365.771101,1072.533697
1318.442707,6513.812290,-6069.688724,689.485948
1318.443036,7328.038826,-6291.750507,1455.581446
1318.443365,7031.956449,-6587.832884,995.924147
1318.443695,6735.874072,-6513.812290,1072.533697
1318.444024,6735.874072,-6735.874072,995.924147
1318.444353,7254.018232,-7254.018232,1838.629195
1318.444682,6957.935855,-7031.956449,1302.362347
1318.445012,6809.894666,-6883.915261,919.314598
1318.445341,6735.874072,-6735.874072,1378.971896
1318.445670,6587.832884,-6735.874072,766.095498
1318.445999,6513.812290,-6587.832884,1455.581446
1318.446329,6365.771101,-6883.915261,1225.752797
1318.446658,6957.935855,-6883.915261,689.485948
1318.446987,7031.956449,-6513.812290,1149.143247
1318.447316,7179.997637,-6735.874072,1378.971896
1318.447646,7402.059420,-6513.812290,766.095498
1318.447975,7105.977043,-6513.812290,1072.533697
1318.448304,7105.977043,-6661.853478,919.314598
1318.448633,7031.956449,-6513.812290,995.924147
1318.448963,7402.059420,-5699.585753,766.095498
1318.449292,7105.977043,-6143.709319,995.924147
1318.449621,7328.038826,-6217.729913,1149.143247
1318.449950,7254.018232,-6513.812290,1455.581446
1318.450280,7179.997637,-6513.812290,1225.752797
1318.450609,7105.977043,-6069.688724,919.314598
1318.450938,6883.915261,-6291.750507,766.095498
1318.451267,6735.874072,-6809.894666,842.705048
1318.451597,7031.956449,-6587.832884,1225.752797
1318.451926,6883.915261,-5995.668130,1685.410096
1318.452255,6957.935855,-6661.853478,842.705048
1318.452584,6957.935855,-6809.894666,1302.362347
1318.452914,6809.894666,-6957.935855,919.314598
1318.453243,6809.894666,-7031.956449,1072.533697
1318.453572,7105.977043,-6957.935855,689.485948
1318.453901,7105.977043,-7328.038826,1072.533697
1318.454231,7179.997637,-6883.915261,1225.752797
1318.454560,7105.977043,-6291.750507,1302.362347
1318.454889,7105.977043,-6735.874072,1378.971896
1318.455218,7105.977043,-6661.853478,1149.143247
1318.455548,7031.956449,-6439.791695,919.314598
1318.455877,6883.915261,-6291.750507,842.705048
1318.456206,7105.977043,-6143.709319,1149.143247
1318.456535,7476.080014,-5699.585753,995.924147
1318.456865,7476.080014,-6291.750507,1072.533697
1318.457194,6809.894666,-6439.791695,1455.581446
1318.457523,7031.956449,-6217.729913,766.095498
1318.457852,6587.832884,-6661.853478,1378.971896
1318.458182,6143.709319,-6661.853478,842.705048
1318.458511,6661.853478,-6957.935855,995.924147
1318.458840,6809.894666,-6957.935855,995.924147
1318.459169,6735.874072,-6735.874072,1149.143247
1318.459499,6883.915261,-6735.874072,919.314598
1318.459828,6735.874072,-6587.832884,995.924147
1318.460157,6661.853478,-6661.853478,842.705048
1318.460486,6661.853478,-6809.894666,919.314598
1318.460816,6365.771101,-7031.956449,1072.533697
1318.461145,6809.894666,-6957.935855,842.705048
1318.461474,7402.059420,-6735.874072,1225.752797
1318.461803,6513.812290,-6513.812290,1149.143247
1318.462133,7328.038826,-6365.771101,612.876398
1318.462462,7031.956449,-6809.894666,766.095498
1318.462791,6883.915261,-6513.812290,1072.533697
1318.463120,6957.935855,-6513.812290,1072.533697
1318.463450,7328.038826,-6513.812290,1072.533697
1318.463779,7476.080014,-6513.812290,1378.971896
1318.464108,7624.121203,-6291.750507,459.657299
1318.464437,6957.935855,-6291.750507,1302.362347
1318.464767,7105.977043,-6587.832884,919.314598
1318.465096,7105.977043,-6217.729913,919.314598
1318.465425,6809.894666,-5921.647536,919.314598
1318.465754,6365.771101,-6513.812290,76.609550
1318.466084,6883.915261,-6809.894666,919.314598
1318.466413,6809.894666,-6809.894666,1532.190996
1318.466742,6957.935855,-6217.729913,766.095498
1318.467071,6587.832884,-6217.729913,1762.019645
1318.467401,7105.977043,-6809.894666,919.314598
1318.467730,6735.874072,-7105.977043,842.705048
1318.468059,6735.874072,-6587.832884,1072.533697
1318.468388,7031.956449,-6957.935855,995.924147
1318.468718,7105.977043,-6513.812290,1149.143247
1318.469047,7254.018232,-6365.771101,1302.362347
1318.469376,7179.997637,-6883.915261,766.095498
1318.469705,7624.121203,-6291.750507,1225.752797
1318.470035,7328.038826,-6513.812290,1225.752797
1318.470364,7031.956449,-6883.915261,1072.533697
1318.470693,7105.977043,-6365.771101,842.705048
1318.471022,7254.018232,-6217.729913,842.705048
1318.471352,7105.977043,-6513.812290,1072.533697
1318.471681,7105.977043,-5995.668130,1685.410096
1318.472010,7179.997637,-6217.729913,919.314598
1318.472339,7031.956449,-6587.832884,1225.752797
1318.472669,6513.812290,-6439.791695,1225.752797
1318.472998,6513.812290,-6587.832884,919.314598
1318.473327,6809.894666,-6735.874072,1149.143247
1318.473656,6735.874072,-6809.894666,1455.581446
1318.473986,6735.874072,-6809.894666,919.314598
1318.474315,6661.853478,-7031.956449,1149.143247
1318.474644,7105.977043,-6809.894666,919.314598
1318.474973,6587.832884,-7031.956449,919.314598
1318.475303,6587.832884,-6735.874072,689.485948
1318.475632,6883.915261,-6883.915261,689.485948
1318.475961,7402.059420,-7105.977043,1149.143247
1318.476290,7254.018232,-6735.874072,1149.143247
1318.476620,7105.977043,-6735.874072,919.314598
1318.476949,6957.935855,-6513.812290,1149.143247
1318.477278,7105.977043,-6883.915261,766.095498
1318.477607,6735.874072,-6069.688724,1608.800546
1318.477937,7254.018232,-6291.750507,1302.362347
1318.478266,7402.059420,-6069.688724,1149.143247
1318.478595,7402.059420,-6217.729913,919.314598
1318.478924,7179.997637,-6069.688724,995.924147
1318.479254,7179.997637,-6069.688724,1302.362347
1318.479583,7031.956449,-6143.709319,919.314598
1318.479912,6957.935855,-6291.750507,766.095498
1318.480241,6735.874072,-6809.894666,1072.533697
1318.480571,7179.997637,-7105.977043,689.485948
1318.480900,7179.997637,-6365.771101,1302.362347
1318.481229,7105.977043,-5625.565159,995.924147
1318.481558,7254.018232,-5625.565159,995.924147
1318.481887,7920.203579,-5477.523971,1532.190996
1318.482217,8438.347739,-6069.688724,1225.752797
1318.482546,7698.141797,-6291.750507,995.924147
1318.482875,6957.935855,-6513.812290,612.876398
1318.483204,5773.606348,-7328.038826,0.000000
1318.483534,6439.791695,-7031.956449,689.485948
1318.483863,7476.080014,-6957.935855,612.876398
1318.484192,8142.265362,-6587.832884,1149.143247
1318.484521,8290.306550,-5921.647536,1149.143247
1318.484851,8142.265362,-4959.379811,1072.533697
1318.485180,8512.368333,-4737.318029,842.705048
1318.485509,8290.306550,-4885.359217,1378.971896
1318.485838,8808.450710,-4293.194464,1225.752797
1318.486168,9030.512492,-4145.153275,1378.971896
1318.486497,9104.533087,-4589.276840,1225.752797
1318.486826,8364.327145,-4071.132681,842.705048
1318.487155,7846.182985,-5181.441594,919.314598
1318.487485,7846.182985,-4293.194464,306.438199
1318.487814,8068.244768,-5551.544565,536.266849
1318.488143,7994.224174,-5255.462188,2451.505594
1318.488472,8438.347739,-5551.544565,1149.143247
1318.488802,7846.182985,-5921.647536,919.314598
1318.489131,7179.997637,-5181.441594,1455.581446
1318.489460,7476.080014,-5551.544565,459.657299
1318.489789,7772.162391,-4737.318029,842.705048
1318.490119,7698.141797,-5107.421000,766.095498
1318.490448,8660.409521,-4959.379811,919.314598
1318.490777,9030.512492,-3701.029710,1608.800546
1318.491106,9400.615463,-3627.009116,1991.848295
1318.491436,9622.677246,-2368.659014,995.924147
1318.491765,9844.739029,-3108.864956,1149.143247
1318.492094,10140.821405,-3701.029710,1532.190996
1318.492423,9770.718434,-3849.070898,1302.362347
1318.492753,9548.656652,-4145.153275,1532.190996
1318.493082,9178.553681,-4145.153275,919.314598
1318.493411,8956.491898,-5403.503377,1225.752797
1318.493740,8660.409521,-5625.565159,1455.581446
1318.494070,7994.224174,-5995.668130,842.705048
1318.494399,7920.203579,-5181.441594,1072.533697
1318.494728,7550.100608,-4811.338623,689.485948
1318.495057,8290.306550,-4885.359217,766.095498
1318.495387,9030.512492,-4219.173869,1072.533697
1318.495716,8956.491898,-4145.153275,1072.533697
1318.496045,8808.450710,-4293.194464,383.047749
1318.496374,9252.574275,-3256.906145,1225.752797
1318.496704,9548.656652,-3997.112087,229.828649
1318.497033,9548.656652,-4663.297435,536.266849
1318.497362,9104.533087,-5255.462188,612.876398
1318.497691,8956.491898,-5699.585753,459.657299
1318.498021,8882.471304,-5329.482782,0.000000
1318.498350,8586.388927,-4885.359217,153.219100
1318.498679,8734.430116,-5477.523971,306.438199
1318.499008,9252.574275,-5403.503377,1225.752797
1318.499338,8808.450710,-5255.462188,1302.362347
1318.499667,8808.450710,-4071.132681,1685.410096
1318.499996,9400.615463,-3775.050304,1915.238745
1318.500325,9992.780217,-3108.864956,2298.286494
1318.500655,9622.677246,-2368.659014,1915.238745
1318.500984,9622.677246,-2590.720797,1378.971896
1318.501313,9622.677246,-2960.823768,1149.143247
1318.501642,9696.697840,-2886.803174,766.095498
1318.501972,9696.697840,-3182.885551,153.219100
1318.502301,9030.512492,-4293.194464,0.000000
1318.502630,8734.430116,-4589.276840,-612.876398
1318.502959,8512.368333,-5847.626942,76.609550
1318.503289,9030.512492,-5847.626942,383.047749
1318.503618,8956.491898,-6439.791695,689.485948
1318.503947,8364.327145,-6587.832884,1302.362347
1318.504276,8142.265362,-5699.585753,919.314598
1318.504606,7772.162391,-5551.544565,1608.800546
1318.504935,7920.203579,-5403.503377,2451.505594
1318.505264,9178.553681,-4219.173869,2374.896044
1318.505593,9548.656652,-2664.741391,2068.457845
1318.505923,9548.656652,-2220.617826,1225.752797
1318.506252,9918.759623,-1480.411884,536.266849
1318.506581,9992.780217,-2220.617826,459.657299
1318.506910,10214.842000,-2886.803174,76.609550
1318.507240,9992.780217,-3404.947333,0.000000
1318.507569,9696.697840,-3849.070898,0.000000
1318.507898,8808.450710,-6291.750507,0.000000
1318.508227,8364.327145,-6957.935855,383.047749
1318.508557,8512.368333,-7328.038826,919.314598
1318.508886,7994.224174,-8586.388927,1302.362347
1318.509215,7402.059420,-7105.977043,1378.971896
1318.509544,6513.812290,-6883.915261,1225.752797
1318.509874,6513.812290,-6069.688724,919.314598
1318.510203,6809.894666,-5107.421000,1149.143247
1318.510532,7772.162391,-4737.318029,1532.190996
1318.510861,9030.512492,-3404.947333,1455.581446
1318.511191,9400.615463,-2146.597232,1991.848295
1318.511520,9918.759623,-1332.370696,995.924147
1318.511849,10362.883188,-888.247130,1302.362347
1318.512178,11473.192101,-1628.453072,1302.362347
1318.512508,12657.521608,-2072.576638,612.876398
1318.512837,11843.295072,-2886.803174,2068.457845
1318.513166,10732.986159,-4219.173869,842.705048
1318.513495,9178.553681,-5477.523971,919.314598
1318.513825,7846.182985,-7402.059420,1991.848295
1318.514154,6587.832884,-8660.409521,1225.752797
1318.514483,5551.544565,-9252.574275,1072.533697
1318.514812,4515.256246,-8512.368333,459.657299
1318.515142,3627.009116,-8882.471304,-383.047749
1318.515471,3701.029710,-8512.368333,-229.828649
1318.515800,4663.297435,-7179.997637,-766.095498
1318.516129,6513.812290,-7105.977043,0.000000
1318.516459,7772.162391,-6143.709319,919.314598
1318.516788,8586.388927,-4885.359217,1378.971896
1318.517117,9622.677246,-3256.906145,1225.752797
1318.517446,10066.800811,-2960.823768,1072.533697
1318.517776,10955.047942,-2738.761985,1915.238745
1318.518105,11251.130318,-3108.864956,1532.190996
1318.518434,11621.233289,-4071.132681,2145.067394
1318.518763,10584.944971,-4589.276840,2528.115143
1318.519093,9104.533087,-5477.523971,2451.505594
1318.519422,7105.977043,-5551.544565,1915.238745
1318.519751,5329.482782,-6587.832884,459.657299
1318.520080,4441.235652,-7105.977043,0.000000
1318.520410,4071.132681,-8216.285956,-229.828649
1318.520739,4663.297435,-8290.306550,153.219100
1318.521068,5403.503377,-7476.080014,76.609550
1318.521397,6439.791695,-7105.977043,0.000000
1318.521727,6957.935855,-5329.482782,306.438199
1318.522056,8068.244768,-5403.503377,1149.143247
1318.522385,8734.430116,-5551.544565,842.705048
1318.522714,8808.450710,-5033.400406,1072.533697
1318.523044,9326.594869,-5033.400406,2068.457845
1318.523373,9992.780217,-5625.565159,2145.067394
1318.523702,9474.636058,-6513.812290,2451.505594
1318.524031,8142.265362,-7105.977043,2528.115143
1318.524361,6143.709319,-7772.162391,1685.410096
1318.524690,4589.276840,-8660.409521,1225.752797
1318.525019,3182.885551,-9030.512492,0.000000
1318.525348,3034.844362,-9918.759623,-383.047749
1318.525678,3478.967927,-9474.636058,612.876398
1318.526007,4811.338623,-8068.244768,1762.019645
1318.526336,5921.647536,-4959.379811,306.438199
1318.526665,7254.018232,-3034.844362,2068.457845
1318.526995,9474.636058,-2146.597232,1455.581446
1318.527324,10066.800811,-2072.576638,1838.629195
1318.527653,9474.636058,-2664.741391,1762.019645
1318.527982,9548.656652,-4515.256246,1838.629195
1318.528312,9770.718434,-5033.400406,1915.238745
1318.528641,8660.409521,-7476.080014,1915.238745
1318.528970,7328.038826,-8068.244768,2221.676944
1318.529299,6143.709319,-9178.553681,1608.800546
1318.529629,5551.544565,-9400.615463,919.314598
1318.529958,4737.318029,-9696.697840,1302.362347
1318.530287,4515.256246,-8512.368333,612.876398
1318.530616,4737.318029,-7846.182985,0.000000
1318.530946,3997.112087,-7105.977043,-842.705048
1318.531275,4145.153275,-6217.729913,-919.314598
1318.531604,5995.668130,-5699.585753,229.828649
1318.531933,8438.347739,-5403.503377,1608.800546
1318.532263,9622.677246,-4811.338623,2604.724693
1318.532592,9474.636058,-4811.338623,2451.505594
1318.532921,9104.533087,-6069.688724,2451.505594
1318.533250,8438.347739,-5921.647536,1378.971896
1318.533580,6439.791695,-7550.100608,612.876398
1318.533909,5181.441594,-9992.780217,459.657299
1318.534238,5181.441594,-10362.883188,1149.143247
1318.534568,5477.523971,-10362.883188,1685.410096
1318.534897,5551.544565,-7402.059420,1302.362347
1318.535226,5921.647536,-5329.482782,153.219100
1318.535556,6661.853478,-4441.235652,842.705048
1318.535885,7550.100608,-3108.864956,306.438199
1318.536214,7624.121203,-2960.823768,383.047749
1318.536544,8512.368333,-2812.782580,-229.828649
1318.536873,8586.388927,-4515.256246,76.609550
1318.537202,8808.450710,-5921.647536,1225.752797
1318.537532,8734.430116,-6513.812290,2298.286494
1318.537861,8882.471304,-7254.018232,2068.457845
1318.538190,8438.347739,-8364.327145,1838.629195
1318.538520,6809.894666,-8660.409521,1608.800546
1318.538849,6365.771101,-9400.615463,1455.581446
1318.539179,5255.462188,-8216.285956,612.876398
1318.539508,4811.338623,-6587.832884,-153.219100
1318.539837,5181.441594,-6069.688724,-536.266849
1318.540167,5699.585753,-6143.709319,229.828649
1318.540496,6883.915261,-5255.462188,766.095498
1318.540825,7550.100608,-4145.153275,612.876398
1318.541155,7624.121203,-3404.947333,1455.581446
1318.541484,8882.471304,-4959.379811,1838.629195
1318.541813,9030.512492,-5699.585753,2068.457845
1318.542143,8068.244768,-6587.832884,1378.971896
1318.542472,6809.894666,-7698.141797,536.266849
1318.542801,6143.709319,-8956.491898,1149.143247
1318.543131,5773.606348,-11029.068536,842.705048
1318.543460,5477.523971,-11621.233289,1608.800546
1318.543789,5773.606348,-8956.491898,995.924147
1318.544119,6735.874072,-6883.915261,76.609550
1318.544448,5995.668130,-6143.709319,689.485948
1318.544777,6735.874072,-4589.276840,459.657299
1318.545107,7402.059420,-3701.029710,459.657299
1318.545436,7994.224174,-2960.823768,612.876398
1318.545765,8734.430116,-2960.823768,995.924147
1318.546095,8364.327145,-4959.379811,1532.190996
1318.546424,8586.388927,-6217.729913,1915.238745
1318.546753,8290.306550,-6439.791695,1302.362347
1318.547083,7698.141797,-7550.100608,1608.800546
1318.547412,7550.100608,-8882.471304,2068.457845
1318.547742,7550.100608,-9548.656652,2374.896044
1318.548071,6439.791695,-9252.574275,1302.362347
1318.548400,5255.462188,-7105.977043,536.266849
1318.548730,4811.338623,-6069.688724,306.438199
1318.549059,5847.626942,-5921.647536,383.047749
1318.549388,7031.956449,-4737.318029,1225.752797
1318.549718,7476.080014,-4219.173869,919.314598
1318.550047,8142.265362,-3256.906145,1302.362347
1318.550376,8512.368333,-3849.070898,1838.629195
1318.550706,8512.368333,-5699.585753,1685.410096
1318.551035,7179.997637,-5699.585753,919.314598
1318.551364,5847.626942,-7994.224174,383.047749
1318.551694,6069.688724,-8882.471304,612.876398
1318.552023,5551.544565,-10732.986159,995.924147
1318.552352,6513.812290,-10807.006753,2145.067394
1318.552682,6957.935855,-9474.636058,1915.238745
1318.553011,6587.832884,-7031.956449,766.095498
1318.553340,5921.647536,-6069.688724,766.095498
1318.553670,5477.523971,-5329.482782,536.266849
1318.553999,6661.853478,-3627.009116,153.219100
1318.554328,6809.894666,-3478.967927,229.828649
1318.554658,7179.997637,-4293.194464,1532.190996
1318.554987,8438.347739,-5403.503377,2145.067394
1318.555316,8068.244768,-5995.668130,1378.971896
1318.555646,6809.894666,-5921.647536,689.485948
1318.555975,6365.771101,-7920.203579,766.095498
1318.556305,6587.832884,-9252.574275,1302.362347
1318.556634,6513.812290,-10066.800811,1302.362347
1318.556963,6291.750507,-9474.636058,1072.533697
1318.557293,6365.771101,-8068.244768,842.705048
1318.557622,6291.750507,-7105.977043,1072.533697
1318.557951,6809.894666,-5699.585753,1302.362347
1318.558281,7698.141797,-4589.276840,919.314598
1318.558610,8734.430116,-3330.926739,1149.143247
1318.558939,8512.368333,-3923.091493,1378.971896
1318.559269,7772.162391,-3923.091493,1991.848295
1318.559598,7550.100608,-5033.400406,1149.143247
1318.559927,6661.853478,-6587.832884,842.705048
1318.560257,5773.606348,-7105.977043,76.609550
1318.560586,5329.482782,-8808.450710,536.266849
1318.560915,6439.791695,-9104.533087,1455.581446
1318.561245,7105.977043,-9548.656652,1915.238745
1318.561574,6883.915261,-8882.471304,1532.190996
1318.561903,7031.956449,-6587.832884,842.705048
1318.562233,6809.894666,-5773.606348,995.924147
1318.562562,7402.059420,-4515.256246,536.266849
1318.562891,7402.059420,-4145.153275,842.705048
1318.563221,7994.224174,-3478.967927,1149.143247
1318.563550,7994.224174,-4219.173869,1455.581446
1318.563880,7920.203579,-4737.318029,2451.505594
1318.564209,7328.038826,-5551.544565,1532.190996
1318.564538,6661.853478,-5921.647536,153.219100
1318.564868,5847.626942,-7254.018232,153.219100
1318.565197,6143.709319,-9030.512492,842.705048
1318.565526,7105.977043,-9770.718434,1149.143247
1318.565856,6809.894666,-9104.533087,1302.362347
1318.566185,6217.729913,-7772.162391,536.266849
1318.566514,6439.791695,-6883.915261,229.828649
1318.566844,6661.853478,-5773.606348,536.266849
1318.567173,7624.121203,-4885.359217,842.705048
1318.567502,7994.224174,-4293.194464,1149.143247
1318.567832,8068.244768,-3701.029710,842.705048
1318.568161,7772.162391,-4441.235652,1455.581446
1318.568490,7624.121203,-5329.482782,1991.848295
1318.568820,7105.977043,-6291.750507,766.095498
1318.569149,6217.729913,-7846.182985,459.657299
1318.569478,5181.441594,-9178.553681,536.266849
1318.569808,5551.544565,-10510.924376,919.314598
1318.570137,5773.606348,-9844.739029,842.705048
1318.570466,5625.565159,-9252.574275,306.438199
1318.570796,6291.750507,-7920.203579,229.828649
1318.571125,6735.874072,-6291.750507,536.266849
1318.571454,7550.100608,-5329.482782,612.876398
1318.571784,8068.244768,-4145.153275,919.314598
1318.572113,8956.491898,-3108.864956,1149.143247
1318.572443,9178.553681,-3478.967927,1302.362347
1318.572772,8290.306550,-5255.462188,2068.457845
1318.573101,7698.141797,-5255.462188,1608.800546
1318.573431,7105.977043,-6217.729913,536.266849
1318.573760,6143.709319,-7550.100608,689.485948
1318.574089,6143.709319,-9474.636058,1302.362347
1318.574419,6809.894666,-10510.924376,1455.581446
1318.574748,6291.750507,-9326.594869,919.314598
1318.575077,5477.523971,-7994.224174,536.266849
1318.575407,5551.544565,-7031.956449,229.828649
1318.575736,5921.647536,-6291.750507,766.095498
1318.576065,7254.018232,-4293.194464,1072.533697
1318.576395,7772.162391,-3627.009116,1915.238745
1318.576724,9030.512492,-2146.597232,2298.286494
1318.577053,9104.533087,-3330.926739,2451.505594
1318.577383,8216.285956,-5107.421000,2451.505594
1318.577712,6957.935855,-5699.585753,1302.362347
1318.578041,5181.441594,-8142.265362,229.828649
1318.578371,4515.256246,-10066.800811,76.609550
1318.578700,4811.338623,-11251.130318,1302.362347
1318.579029,5699.585753,-11251.130318,842.705048
1318.579359,5995.668130,-9844.739029,1532.190996
1318.579688,5995.668130,-7846.182985,1072.533697
1318.580017,6143.709319,-5995.668130,459.657299
1318.580347,6513.812290,-4589.276840,689.485948
1318.580676,7254.018232,-3627.009116,766.095498
1318.581006,8290.306550,-2442.679609,1455.581446
1318.581335,8660.409521,-3552.988522,2298.286494
1318.581664,8882.471304,-3997.112087,2221.676944
1318.581994,8216.285956,-4441.235652,612.876398
1318.582323,6809.894666,-5995.668130,383.047749
1318.582652,6365.771101,-7772.162391,689.485948
1318.582982,7031.956449,-10288.862594,1225.752797
1318.583311,7328.038826,-10288.862594,1915.238745
1318.583640,6809.894666,-10658.965565,1378.971896
1318.583970,5625.565159,-8512.368333,842.705048
1318.584299,4885.359217,-7328.038826,-229.828649
1318.584628,5329.482782,-6809.894666,-306.438199
1318.584958,6587.832884,-5329.482782,612.876398
1318.585287,7772.162391,-4293.194464,995.924147
1318.585616,8438.347739,-3775.050304,1378.971896
1318.585946,8660.409521,-3627.009116,2298.286494
1318.586275,8808.450710,-4885.359217,1838.629195
1318.586604,8142.265362,-4811.338623,1915.238745
1318.586934,6735.874072,-6587.832884,536.266849
1318.587263,5847.626942,-8290.306550,0.000000
1318.587592,6365.771101,-9918.759623,919.314598
1318.587922,7179.997637,-10436.903782,1149.143247
1318.588251,7179.997637,-8512.368333,1378.971896
1318.588581,7105.977043,-7402.059420,1149.143247
1318.588910,7179.997637,-5995.668130,842.705048
1318.589239,7105.977043,-4737.318029,229.828649
1318.589569,6809.894666,-3108.864956,0.000000
1318.589898,7105.977043,-2812.782580,0.000000
1318.590227,7920.203579,-3108.864956,1378.971896
1318.590557,8734.430116,-4071.132681,2298.286494
1318.590886,8512.368333,-5107.421000,2068.457845
1318.591215,7920.203579,-6291.750507,2068.457845
1318.591545,6883.915261,-7031.956449,995.924147
1318.591874,6587.832884,-9030.512492,536.266849
1318.592203,6069.688724,-9992.780217,1149.143247
1318.592533,5551.544565,-9622.677246,383.047749
1318.592862,5625.565159,-8586.388927,0.000000
1318.593191,5551.544565,-7105.977043,0.000000
1318.593521,6143.709319,-6883.915261,229.828649
1318.593850,7846.182985,-5921.647536,766.095498
1318.594179,7994.224174,-4515.256246,1302.362347
1318.594509,7920.203579,-3997.112087,842.705048
1318.594838,8068.244768,-4589.276840,2145.067394
1318.595167,7994.224174,-5329.482782,1762.019645
1318.595497,7105.977043,-6217.729913,1149.143247
1318.595826,5699.585753,-6735.874072,306.438199
1318.596155,5181.441594,-9400.615463,306.438199
1318.596485,6069.688724,-9992.780217,1378.971896
1318.596814,6809.894666,-10362.883188,1455.581446
1318.597144,6957.935855,-8586.388927,1608.800546
1318.597473,6143.709319,-8068.244768,306.438199
1318.597802,5551.544565,-7031.956449,842.705048
1318.598132,6069.688724,-5329.482782,383.047749
1318.598461,6957.935855,-4885.359217,1149.143247
1318.598790,7772.162391,-2368.659014,1225.752797
1318.599120,8216.285956,-4145.153275,1685.410096
1318.599449,8586.388927,-3849.070898,2221.676944
1318.599778,8142.265362,-4885.359217,1915.238745
1318.600108,7328.038826,-6439.791695,459.657299
1318.600437,6143.709319,-7105.977043,919.314598
1318.600766,6143.709319,-9178.553681,612.876398
1318.601096,6513.812290,-9548.656652,766.095498
1318.601425,6291.750507,-9474.636058,919.314598
1318.601754,6365.771101,-7624.121203,383.047749
1318.602084,6513.812290,-6513.812290,689.485948
1318.602413,7328.038826,-5773.606348,842.705048
1318.602742,7698.141797,-4737.318029,1225.752797
1318.603072,7846.182985,-4441.235652,1762.019645
1318.603401,7846.182985,-3256.906145,1608.800546
1318.603730,7698.141797,-4293.194464,1225.752797
1318.604060,7179.997637,-5255.462188,1915.238745
1318.604389,6291.750507,-5699.585753,766.095498
1318.604719,5625.565159,-7328.038826,766.095498
1318.605048,5403.503377,-8660.409521,995.924147
1318.605377,5773.606348,-9548.656652,1149.143247
1318.605707,6217.729913,-9992.780217,1685.410096
1318.606036,6661.853478,-8438.347739,1685.410096
1318.606365,6735.874072,-6883.915261,1072.533697
1318.606695,6809.894666,-5625.565159,1072.533697
1318.607024,7550.100608,-4145.153275,995.924147
1318.607353,8142.265362,-3404.947333,1072.533697
1318.607683,8068.244768,-3034.844362,1455.581446
1318.608012,8068.244768,-4367.215058,1608.800546
1318.608341,7698.141797,-4811.338623,2145.067394
1318.608671,6957.935855,-5921.647536,1225.752797
1318.609000,5625.565159,-7254.018232,383.047749
1318.609329,5625.565159,-8216.285956,1149.143247
1318.609659,6661.853478,-9252.574275,995.924147
1318.609988,7254.018232,-9844.739029,1378.971896
1318.610317,6883.915261,-9400.615463,1532.190996
1318.610647,6513.812290,-8364.327145,842.705048
1318.610976,6143.709319,-6809.894666,383.047749
1318.611305,6661.853478,-6513.812290,306.438199
1318.611635,7031.956449,-5625.565159,383.047749
1318.611964,7105.977043,-5181.441594,995.924147
1318.612293,7772.162391,-4219.173869,842.705048
1318.612623,8068.244768,-3701.029710,1685.410096
1318.612952,8216.285956,-5033.400406,1762.019645
1318.613282,7624.121203,-5847.626942,1302.362347
1318.613611,6143.709319,-7476.080014,459.657299
1318.613940,5107.421000,-8660.409521,229.828649
1318.614270,4737.318029,-9992.780217,689.485948
1318.614599,5477.523971,-10732.986159,459.657299
1318.614928,6217.729913,-9326.594869,1072.533697
1318.615258,6735.874072,-7328.038826,995.924147
1318.615587,7254.018232,-5921.647536,689.485948
1318.615916,8142.265362,-4663.297435,459.657299
1318.616246,8290.306550,-3404.947333,766.095498
1318.616575,8660.409521,-3330.926739,995.924147
1318.616904,9178.553681,-2812.782580,1762.019645
1318.617234,8808.450710,-3997.112087,1685.410096
1318.617563,7920.203579,-4737.318029,1608.800546
1318.617892,6957.935855,-5181.441594,766.095498
1318.618222,6587.832884,-7179.997637,306.438199
1318.618551,6735.874072,-9770.718434,1378.971896
1318.618880,6069.688724,-10214.842000,1455.581446
1318.619210,5995.668130,-9474.636058,919.314598
1318.619539,5033.400406,-8364.327145,153.219100
1318.619868,5255.462188,-6735.874072,459.657299
1318.620198,6365.771101,-6513.812290,536.266849
1318.620527,7328.038826,-5329.482782,995.924147
1318.620856,7920.203579,-4219.173869,1302.362347
1318.621186,7846.182985,-4071.132681,919.314598
1318.621515,7328.038826,-4293.194464,1685.410096
1318.621845,7402.059420,-5181.441594,1225.752797
1318.622174,7105.977043,-6957.935855,1072.533697
1318.622503,6217.729913,-7328.038826,612.876398
1318.622833,5625.565159,-9030.512492,459.657299
1318.623162,5847.626942,-10510.924376,612.876398
1318.623491,5995.668130,-10214.842000,766.095498
1318.623821,6291.750507,-9178.553681,919.314598
1318.624150,6809.894666,-7402.059420,612.876398
1318.624479,7698.141797,-5995.668130,536.266849
1318.624809,8216.285956,-5033.400406,1915.238745
1318.625138,8364.327145,-3923.091493,1455.581446
1318.625467,7994.224174,-2738.761985,1532.190996
1318.625797,7550.100608,-2664.741391,1685.410096
1318.626126,8216.285956,-4071.132681,1608.800546
1318.626455,7920.203579,-4737.318029,1685.410096
1318.626785,7179.997637,-6217.729913,1072.533697
1318.627114,6661.853478,-7105.977043,689.485948
1318.627443,5995.668130,-9474.636058,306.438199
1318.627773,6069.688724,-10584.944971,1685.410096
1318.628102,5477.523971,-10288.862594,1455.581446
1318.628431,5403.503377,-9400.615463,459.657299
1318.628761,4737.318029,-7328.038826,76.609550
1318.629090,6143.709319,-7105.977043,459.657299
1318.629420,7105.977043,-5107.421000,536.266849
1318.629749,8216.285956,-3330.926739,1378.971896
1318.630078,8586.388927,-3404.947333,1762.019645
1318.630408,9400.615463,-3108.864956,1991.848295
1318.630737,8586.388927,-4293.194464,2221.676944
1318.631066,7031.956449,-5921.647536,995.924147
1318.631396,6217.729913,-7031.956449,383.047749
1318.631725,5699.585753,-8808.450710,383.047749
1318.632054,5107.421000,-9992.780217,2068.457845
1318.632384,6291.750507,-9844.739029,1685.410096
1318.632713,7031.956449,-8364.327145,1455.581446
1318.633042,7031.956449,-7105.977043,1225.752797
1318.633371,6883.915261,-5699.585753,1302.362347
1318.633700,6957.935855,-4219.173869,459.657299
1318.634029,7105.977043,-3701.029710,229.828649
1318.634358,8068.244768,-2738.761985,1072.533697
1318.634688,8660.409521,-3849.070898,1455.581446
1318.635017,8734.430116,-4885.359217,2374.896044
1318.635346,8216.285956,-4959.379811,2068.457845
1318.635675,7105.977043,-6217.729913,459.657299
1318.636004,6143.709319,-6809.894666,-306.438199
1318.636333,5995.668130,-9770.718434,1149.143247
1318.636662,7105.977043,-10436.903782,1302.362347
1318.636991,6513.812290,-9474.636058,1302.362347
1318.637321,5773.606348,-8290.306550,383.047749
1318.637650,6217.729913,-7105.977043,0.000000
1318.637979,6365.771101,-6661.853478,536.266849
1318.638308,6957.935855,-5921.647536,459.657299
1318.638637,7698.141797,-4663.297435,689.485948
1318.638966,7994.224174,-3997.112087,919.314598
1318.639295,7698.141797,-4737.318029,1149.143247
1318.639624,7402.059420,-5625.565159,2221.676944
1318.639954,7698.141797,-6069.688724,1455.581446
1318.640283,6883.915261,-7402.059420,612.876398
1318.640612,5477.523971,-8660.409521,383.047749
1318.640941,5403.503377,-10214.842000,766.095498
1318.641270,5847.626942,-10214.842000,1149.143247
1318.641599,5773.606348,-9400.615463,1072.533697
1318.641928,5403.503377,-8068.244768,842.705048
1318.642257,5699.585753,-7105.977043,383.047749
1318.642587,6217.729913,-5847.626942,459.657299
1318.642916,6661.853478,-5033.400406,229.828649
1318.643245,7179.997637,-4145.153275,842.705048
1318.643574,8068.244768,-4071.132681,1455.581446
1318.643903,8734.430116,-4737.318029,1838.629195
1318.644232,9252.574275,-3775.050304,1991.848295
1318.644561,8956.491898,-4737.318029,1378.971896
1318.644891,8290.306550,-6143.709319,1225.752797
1318.645220,7624.121203,-7772.162391,1685.410096
1318.645549,7254.018232,-8660.409521,1608.800546
1318.645878,5699.585753,-8882.471304,1149.143247
1318.646207,6069.688724,-7698.141797,306.438199
1318.646536,5921.647536,-6661.853478,76.609550
1318.646865,6217.729913,-6069.688724,459.657299
1318.647194,7402.059420,-5403.503377,1225.752797
1318.647524,7846.182985,-4589.276840,1302.362347
1318.647853,7328.038826,-4145.153275,995.924147
1318.648182,7328.038826,-4515.256246,1838.629195
1318.648511,7179.997637,-5477.523971,1532.190996
1318.648840,6143.709319,-6365.771101,1072.533697
1318.649169,5551.544565,-7624.121203,612.876398
1318.649498,5773.606348,-8808.450710,153.219100
1318.649827,6513.812290,-9104.533087,1532.190996
1318.650157,7105.977043,-9918.759623,2145.067394
1318.650486,7105.977043,-7994.224174,1149.143247
1318.650815,6513.812290,-6883.915261,919.314598
1318.651144,5625.565159,-7105.977043,0.000000
1318.651473,6069.688724,-4959.379811,306.438199
1318.651802,6809.894666,-4589.276840,0.000000
1318.652131,8142.265362,-4293.194464,1149.143247
1318.652460,8956.491898,-5033.400406,1685.410096
1318.652790,9104.533087,-4663.297435,2221.676944
1318.653119,8660.409521,-4737.318029,1149.143247
1318.653448,6809.894666,-6291.750507,1149.143247
1318.653777,6439.791695,-6291.750507,0.000000
1318.654106,6587.832884,-8142.265362,766.095498
1318.654435,7105.977043,-9474.636058,1762.019645
1318.654764,8660.409521,-8290.306550,1838.629195
1318.655093,7328.038826,-7402.059420,1532.190996
1318.655423,6735.874072,-6069.688724,919.314598
1318.655752,6661.853478,-5255.462188,383.047749
1318.656081,7624.121203,-4589.276840,612.876398
1318.656410,7105.977043,-5255.462188,919.314598
1318.656739,6957.935855,-4737.318029,919.314598
1318.657068,6513.812290,-6291.750507,1762.019645
1318.657397,6143.709319,-6661.853478,1378.971896
1318.657727,5329.482782,-6809.894666,689.485948
1318.658056,4811.338623,-8068.244768,76.609550
1318.658385,4737.318029,-9844.739029,383.047749
1318.658714,5847.626942,-9992.780217,1072.533697
1318.659043,6661.853478,-9548.656652,995.924147
1318.659372,6661.853478,-7994.224174,1072.533697
1318.659701,6587.832884,-7476.080014,1149.143247
1318.660030,6809.894666,-6291.750507,766.095498
1318.660360,7624.121203,-4959.379811,612.876398
1318.660689,8142.265362,-4071.132681,1225.752797
1318.661018,8882.471304,-2960.823768,995.924147
1318.661347,8882.471304,-3552.988522,1532.190996
1318.661676,8660.409521,-4589.276840,2451.505594
1318.662005,7994.224174,-4737.318029,1378.971896
1318.662334,7105.977043,-5699.585753,536.266849
1318.662663,5847.626942,-7179.997637,612.876398
1318.662993,6217.729913,-9474.636058,1149.143247
1318.663322,6735.874072,-9474.636058,1685.410096
1318.663651,6513.812290,-8956.491898,1915.238745
1318.663980,6439.791695,-7846.182985,689.485948
1318.664309,6143.709319,-6513.812290,612.876398
1318.664638,6735.874072,-5477.523971,536.266849
1318.664967,7402.059420,-4811.338623,459.657299
1318.665296,7772.162391,-3997.112087,1685.410096
1318.665626,7698.141797,-4589.276840,1149.143247
1318.665955,7698.141797,-4959.379811,1532.190996
1318.666284,7624.121203,-5403.503377,1762.019645
1318.666613,7105.977043,-6809.894666,1608.800546
1318.666942,5551.544565,-7772.162391,536.266849
1318.667271,4811.338623,-10436.903782,383.047749
1318.667600,5033.400406,-10436.903782,536.266849
1318.667929,5181.441594,-9844.739029,919.314598
1318.668259,6291.750507,-8882.471304,383.047749
1318.668588,5995.668130,-7846.182985,536.266849
1318.668917,6661.853478,-6291.750507,536.266849
1318.669246,7328.038826,-5107.421000,766.095498
1318.669575,8216.285956,-3701.029710,1225.752797
1318.669904,8734.430116,-2368.659014,1378.971896
1318.670233,8364.327145,-3256.906145,1225.752797
1318.670563,8512.368333,-4515.256246,1378.971896
1318.670892,8290.306550,-5033.400406,2145.067394
1318.671221,7772.162391,-5699.585753,1608.800546
1318.671550,7179.997637,-6883.915261,1532.190996
1318.671879,6439.791695,-8660.409521,1072.533697
1318.672208,7105.977043,-9474.636058,1302.362347
1318.672537,6587.832884,-9178.553681,1455.581446
1318.672866,5847.626942,-7994.224174,1225.752797
1318.673196,5551.544565,-7031.956449,153.219100
1318.673525,6217.729913,-5773.606348,536.266849
1318.673854,7179.997637,-5699.585753,842.705048
1318.674183,7772.162391,-4663.297435,1302.362347
1318.674512,8364.327145,-4515.256246,1838.629195
1318.674841,8290.306550,-4737.318029,1685.410096
1318.675170,7846.182985,-5033.400406,1532.190996
1318.675499,7105.977043,-5625.565159,766.095498
1318.675829,6291.750507,-6883.915261,612.876398
1318.676158,5995.668130,-9252.574275,995.924147
1318.676487,5773.606348,-10140.821405,1608.800546
1318.676816,5847.626942,-10140.821405,1608.800546
1318.677145,5921.647536,-8586.388927,1149.143247
1318.677474,5995.668130,-7550.100608,766.095498
1318.677803,5699.585753,-6957.935855,383.047749
1318.678132,6217.729913,-5403.503377,459.657299
1318.678462,6661.853478,-4219.173869,612.876398
1318.678791,7328.038826,-3330.926739,1532.190996
1318.679120,8364.327145,-3404.947333,1608.800546
1318.679449,8660.409521,-4367.215058,1915.238745
1318.679778,8142.265362,-4737.318029,1608.800546
1318.680107,7476.080014,-5773.606348,1378.971896
1318.680436,7476.080014,-7179.997637,919.314598
1318.680765,7179.997637,-8734.430116,1378.971896
1318.681095,6809.894666,-9252.574275,995.924147
1318.681424,6439.791695,-8660.409521,995.924147
1318.681753,5329.482782,-7624.121203,766.095498
1318.682082,6291.750507,-6957.935855,153.219100
1318.682411,6587.832884,-5995.668130,459.657299
1318.682740,7476.080014,-4515.256246,383.047749
1318.683069,7698.141797,-4293.194464,612.876398
1318.683398,7328.038826,-4441.235652,1149.143247
1318.683728,7624.121203,-4885.359217,1455.581446
1318.684057,8290.306550,-5551.544565,1455.581446
1318.684386,7402.059420,-6439.791695,1302.362347
1318.684715,6513.812290,-7105.977043,459.657299
1318.685044,5847.626942,-9622.677246,766.095498
1318.685373,5033.400406,-10362.883188,842.705048
1318.685702,5033.400406,-11399.171507,842.705048
1318.686032,5329.482782,-9844.739029,919.314598
1318.686361,5921.647536,-7476.080014,1072.533697
1318.686690,6587.832884,-6661.853478,995.924147
1318.687019,7105.977043,-4811.338623,995.924147
1318.687348,7105.977043,-4219.173869,536.266849
1318.687677,8216.285956,-2886.803174,1225.752797
1318.688006,9252.574275,-2590.720797,1072.533697
1318.688335,8956.491898,-3701.029710,1685.410096
1318.688665,8142.265362,-5033.400406,1532.190996
1318.688994,7105.977043,-6439.791695,1455.581446
1318.689323,6661.853478,-7328.038826,306.438199
1318.689652,5995.668130,-9252.574275,766.095498
1318.689981,7105.977043,-9400.615463,1225.752797
1318.690310,7105.977043,-8956.491898,1302.362347
1318.690639,6661.853478,-7920.203579,995.924147
1318.690968,6069.688724,-6439.791695,1532.190996
1318.691298,6957.935855,-4959.379811,153.219100
1318.691627,7254.018232,-4219.173869,229.828649
1318.691956,7254.018232,-4367.215058,842.705048
1318.692285,7550.100608,-5033.400406,1455.581446
1318.692614,7920.203579,-4515.256246,1608.800546
1318.692943,7772.162391,-5107.421000,1762.019645
1318.693272,6661.853478,-6069.688724,1455.581446
1318.693601,5921.647536,-7105.977043,459.657299
1318.693931,6217.729913,-9030.512492,0.000000
1318.694260,5699.585753,-9918.759623,1225.752797
1318.694589,5995.668130,-10510.924376,1685.410096
1318.694918,6365.771101,-9474.636058,1072.533697
1318.695247,6217.729913,-7624.121203,536.266849
1318.695576,6661.853478,-6439.791695,383.047749
1318.695905,7031.956449,-5699.585753,689.485948
1318.696234,7698.141797,-4145.153275,689.485948
1318.696564,7994.224174,-3404.947333,689.485948
1318.696893,8290.306550,-3108.864956,1225.752797
1318.697222,9474.636058,-3923.091493,1685.410096
1318.697551,8882.471304,-4959.379811,2068.457845
1318.697880,7624.121203,-5921.647536,1455.581446
1318.698209,6809.894666,-7105.977043,1072.533697
1318.698538,7179.997637,-7698.141797,1532.190996
1318.698868,7105.977043,-9474.636058,1838.629195
1318.699197,6661.853478,-8734.430116,1455.581446
1318.699526,6513.812290,-7105.977043,766.095498
1318.699855,6365.771101,-6513.812290,229.828649
1318.700184,6439.791695,-5107.421000,766.095498
1318.700513,7328.038826,-5033.400406,689.485948
1318.700842,7846.182985,-4589.276840,1378.971896
1318.701171,7846.182985,-4737.318029,1149.143247
1318.701501,7624.121203,-5181.441594,842.705048
1318.701830,6883.915261,-5847.626942,1762.019645
1318.702159,6513.812290,-7105.977043,995.924147
1318.702488,5921.647536,-7994.224174,306.438199
1318.702817,5329.482782,-9696.697840,536.266849
1318.703146,5699.585753,-10584.944971,842.705048
1318.703475,6291.750507,-10881.027347,1455.581446
1318.703804,6143.709319,-9326.594869,1149.143247
1318.704134,5921.647536,-7476.080014,306.438199
1318.704463,6439.791695,-6513.812290,76.609550
1318.704792,7031.956449,-5107.421000,383.047749
1318.705121,7328.038826,-4515.256246,995.924147
1318.705450,8142.265362,-3552.988522,1225.752797
1318.705779,8660.409521,-3404.947333,1302.362347
1318.706108,7846.182985,-4589.276840,1762.019645
1318.706437,7328.038826,-5699.585753,1532.190996
1318.706767,7105.977043,-6735.874072,1072.533697
1318.707096,6957.935855,-7550.100608,842.705048
1318.707425,6661.853478,-8734.430116,1685.410096
1318.707754,7105.977043,-9104.533087,2298.286494
1318.708083,7105.977043,-8364.327145,1838.629195
1318.708412,6661.853478,-7031.956449,1149.143247
1318.708741,6365.771101,-6069.688724,459.657299
1318.709070,6143.709319,-4737.318029,536.266849
1318.709400,6661.853478,-4663.297435,766.095498
1318.709729,8216.285956,-3923.091493,1225.752797
1318.710058,8660.409521,-3478.967927,1685.410096
1318.710387,8882.471304,-4071.132681,1838.629195
1318.710716,8808.450710,-4811.338623,1302.362347
1318.711045,6957.935855,-5921.647536,919.314598
1318.711374,5847.626942,-7846.182985,76.609550
1318.711704,5033.400406,-9992.780217,536.266849
1318.712033,5847.626942,-11177.109724,842.705048
1318.712362,5699.585753,-11621.233289,612.876398
1318.712691,5625.565159,-9474.636058,766.095498
1318.713020,6513.812290,-7772.162391,689.485948
1318.713349,6809.894666,-6365.771101,689.485948
1318.713678,6291.750507,-4219.173869,995.924147
1318.714007,6513.812290,-3775.050304,306.438199
1318.714337,7179.997637,-3256.906145,536.266849
1318.714666,7994.224174,-3404.947333,1302.362347
1318.714995,8216.285956,-4515.256246,1149.143247
1318.715324,8216.285956,-5403.503377,1915.238745
1318.715653,7772.162391,-6217.729913,1302.362347
1318.715982,7105.977043,-7772.162391,766.095498
1318.716311,6513.812290,-9178.553681,1072.533697
1318.716640,6513.812290,-9844.739029,1378.971896
1318.716970,7105.977043,-9104.533087,1225.752797
1318.717299,6809.894666,-7402.059420,1072.533697
1318.717628,6809.894666,-6513.812290,919.314598
1318.717957,7179.997637,-5403.503377,306.438199
1318.718286,7328.038826,-4737.318029,766.095498
1318.718615,7105.977043,-4219.173869,766.095498
1318.718944,7624.121203,-3997.112087,995.924147
1318.719273,8142.265362,-4071.132681,1608.800546
1318.719603,7698.141797,-5477.523971,1532.190996
1318.719932,7328.038826,-6365.771101,1072.533697
1318.720261,6143.709319,-7031.956449,536.266849
1318.720590,6143.709319,-8882.471304,612.876398
1318.720919,6661.853478,-10066.800811,1455.581446
1318.721248,6735.874072,-11103.089130,1915.238745
1318.721577,6217.729913,-9696.697840,1378.971896
1318.721906,5921.647536,-7476.080014,1072.533697
1318.722236,6291.750507,-6217.729913,536.266849
1318.722565,6291.750507,-4885.359217,919.314598
1318.722894,7031.956449,-4219.173869,919.314598
1318.723223,6957.935855,-3182.885551,229.828649
1318.723552,7179.997637,-3997.112087,919.314598
1318.723881,7772.162391,-4811.338623,1608.800546
1318.724210,7994.224174,-4959.379811,1225.752797
1318.724540,7476.080014,-5921.647536,1302.362347
1318.724869,7624.121203,-7105.977043,995.924147
1318.725198,7698.141797,-8586.388927,1302.362347
1318.725527,7846.182985,-9474.636058,1838.629195
1318.725856,7550.100608,-8216.285956,1302.362347
1318.726185,7179.997637,-7031.956449,689.485948
1318.726514,6809.894666,-6291.750507,76.609550
1318.726843,6291.750507,-6217.729913,383.047749
1318.727173,6809.894666,-4737.318029,842.705048
1318.727502,7550.100608,-4663.297435,995.924147
1318.727831,7624.121203,-3997.112087,1149.143247
1318.728160,7476.080014,-4515.256246,1455.581446
1318.728489,7105.977043,-5625.565159,1608.800546
1318.728818,6513.812290,-6439.791695,1762.019645
1318.729147,6365.771101,-7031.956449,536.266849
1318.729476,5403.503377,-8882.471304,689.485948
1318.729806,5921.647536,-10658.965565,919.314598
1318.730135,5995.668130,-10881.027347,1762.019645
1318.730464,5847.626942,-9474.636058,919.314598
1318.730793,5551.544565,-7994.224174,76.609550
1318.731122,5625.565159,-6661.853478,229.828649
1318.731451,6735.874072,-5699.585753,153.219100
1318.731780,7105.977043,-4885.359217,919.314598
1318.732109,7624.121203,-3627.009116,995.924147
1318.732439,7772.162391,-4515.256246,919.314598
1318.732768,7994.224174,-4737.318029,1685.410096
1318.733097,7772.162391,-4885.359217,1455.581446
1318.733426,7624.121203,-6291.750507,1762.019645
1318.733755,7254.018232,-5847.626942,689.485948
1318.734084,6809.894666,-8364.327145,995.924147
1318.734413,7328.038826,-9474.636058,1915.238745
1318.734742,7846.182985,-8290.306550,1685.410096
1318.735071,7402.059420,-7179.997637,1532.190996
1318.735401,6809.894666,-6809.894666,1378.971896
1318.735730,6587.832884,-4959.379811,536.266849
1318.736059,7254.018232,-4071.132681,689.485948
1318.736388,7994.224174,-3330.926739,919.314598
1318.736717,8290.306550,-3701.029710,1608.800546
1318.737046,7994.224174,-5033.400406,1762.019645
1318.737375,7179.997637,-5403.503377,1532.190996
1318.737704,6217.729913,-6291.750507,536.266849
1318.738033,5921.647536,-7994.224174,306.438199
1318.738362,5329.482782,-9844.739029,842.705048
1318.738691,5403.503377,-10955.047942,1072.533697
1318.739020,5699.585753,-10436.903782,995.924147
1318.739349,5551.544565,-8438.347739,842.705048
1318.739678,6143.709319,-7328.038826,383.047749
1318.740007,7105.977043,-6883.915261,459.657299
1318.740336,7402.059420,-5477.523971,995.924147
1318.740665,7846.182985,-4219.173869,612.876398
1318.740995,8512.368333,-3627.009116,842.705048
1318.741324,8586.388927,-3478.967927,1302.362347
1318.741653,8512.368333,-4737.318029,1685.410096
1318.741982,7698.141797,-5699.585753,1685.410096
1318.742311,6883.915261,-5403.503377,766.095498
1318.742640,5847.626942,-7846.182985,459.657299
1318.742969,5699.585753,-9178.553681,459.657299
1318.743298,6439.791695,-9696.697840,1225.752797
1318.743627,7179.997637,-8734.430116,1302.362347
1318.743956,7031.956449,-7179.997637,1149.143247
1318.744285,6883.915261,-6217.729913,842.705048
1318.744614,7402.059420,-5403.503377,1149.143247
1318.744943,7698.141797,-4219.173869,842.705048
1318.745272,7772.162391,-3552.988522,1072.533697
1318.745601,7846.182985,-3701.029710,1072.533697
1318.745930,7994.224174,-4441.235652,919.314598
1318.746259,8364.327145,-5773.606348,1991.848295
1318.746589,7772.162391,-5403.503377,1455.581446
1318.746918,6883.915261,-7402.059420,842.705048
1318.747247,5551.544565,-9696.697840,842.705048
1318.747576,4959.379811,-11251.130318,536.266849
1318.747905,5107.421000,-10807.006753,459.657299
1318.748234,5477.523971,-8956.491898,766.095498
1318.748563,6143.709319,-7476.080014,995.924147
1318.748892,6809.894666,-6439.791695,842.705048
1318.749221,7402.059420,-5033.400406,842.705048
1318.749550,8216.285956,-3701.029710,689.485948
1318.749879,8216.285956,-3701.029710,383.047749
1318.750208,8364.327145,-4071.132681,1302.362347
1318.750537,7994.224174,-4885.359217,1608.800546
1318.750866,7624.121203,-5477.523971,1302.362347
1318.751195,6883.915261,-6217.729913,1225.752797
1318.751524,6365.771101,-8364.327145,1762.019645
1318.751853,6439.791695,-9104.533087,1915.238745
1318.752183,6439.791695,-9844.739029,1532.190996
1318.752512,6143.709319,-9696.697840,919.314598
1318.752841,6513.812290,-7994.224174,536.266849
1318.753170,5921.647536,-6883.915261,995.924147
1318.753499,7328.038826,-5773.606348,842.705048
1318.753828,7698.141797,-3775.050304,919.314598
1318.754157,7772.162391,-3701.029710,1302.362347
1318.754486,8216.285956,-3034.844362,1149.143247
1318.754815,8512.368333,-4219.173869,2298.286494
1318.755144,8068.244768,-4885.359217,1762.019645
1318.755473,7402.059420,-5329.482782,1225.752797
1318.755802,6735.874072,-6957.935855,1072.533697
1318.756131,5329.482782,-9030.512492,1302.362347
1318.756460,5107.421000,-11399.171507,919.314598
1318.756789,5181.441594,-10732.986159,1302.362347
1318.757118,5107.421000,-9622.677246,766.095498
1318.757447,5625.565159,-7476.080014,536.266849
1318.757777,5847.626942,-6439.791695,842.705048
1318.758106,7105.977043,-4737.318029,1302.362347
1318.758435,7772.162391,-3552.988522,1378.971896
1318.758764,7550.100608,-3182.885551,1455.581446
1318.759093,7624.121203,-4145.153275,1532.190996
1318.759422,7624.121203,-4811.338623,1838.629195
1318.759751,7328.038826,-5477.523971,689.485948
1318.760080,6661.853478,-6735.874072,842.705048
1318.760409,6735.874072,-7772.162391,842.705048
1318.760738,7105.977043,-9252.574275,1302.362347
1318.761067,7179.997637,-9548.656652,1838.629195
1318.761396,7254.018232,-9326.594869,1378.971896
1318.761725,6587.832884,-8364.327145,536.266849
1318.762054,5625.565159,-7402.059420,0.000000
1318.762383,5551.544565,-6957.935855,-306.438199
1318.762712,6735.874072,-5477.523971,536.266849
1318.763041,7476.080014,-3701.029710,919.314598
1318.763371,8290.306550,-3775.050304,766.095498
1318.763700,8808.450710,-3404.947333,2068.457845
1318.764029,8956.491898,-5033.400406,1915.238745
1318.764358,8438.347739,-5181.441594,1455.581446
1318.764687,7105.977043,-6661.853478,1149.143247
1318.765016,6365.771101,-8586.388927,1149.143247
1318.765345,6365.771101,-9474.636058,1072.533697
1318.765674,6439.791695,-10140.821405,1685.410096
1318.766003,6365.771101,-8734.430116,1378.971896
1318.766332,6365.771101,-7476.080014,612.876398
1318.766661,6661.853478,-5255.462188,0.000000
1318.766990,6365.771101,-4811.338623,0.000000
1318.767319,6735.874072,-4737.318029,153.219100
1318.767648,7031.956449,-4293.194464,919.314598
1318.767977,6957.935855,-5033.400406,842.705048
1318.768306,7105.977043,-5551.544565,1532.190996
1318.768635,7476.080014,-5699.585753,1455.581446
1318.768965,7772.162391,-5995.668130,995.924147
1318.769294,7550.100608,-7254.018232,1225.752797
1318.769623,7105.977043,-8956.491898,1072.533697
1318.769952,6735.874072,-9474.636058,1608.800546
1318.770281,6587.832884,-8216.285956,1149.143247
1318.770610,6365.771101,-7624.121203,612.876398
1318.770939,6587.832884,-6883.915261,766.095498
1318.771268,7254.018232,-6217.729913,1149.143247
1318.771597,7624.121203,-5107.421000,919.314598
1318.771926,7772.162391,-3775.050304,919.314598
1318.772255,7476.080014,-3627.009116,612.876398
1318.772584,7402.059420,-4811.338623,1608.800546
1318.772913,7476.080014,-6587.832884,1915.238745
1318.773242,6883.915261,-6661.853478,1378.971896
1318.773571,6069.688724,-7254.018232,612.876398
1318.773900,5995.668130,-8364.327145,1149.143247
1318.774229,6069.688724,-9770.718434,2068.457845
1318.774559,6439.791695,-10066.800811,1455.581446
1318.774888,5995.668130,-8586.388927,1378.971896
1318.775217,6291.750507,-7031.956449,76.609550
1318.775546,6587.832884,-6439.791695,306.438199
1318.775875,6587.832884,-4737.318029,306.438199
1318.776204,7402.059420,-4737.318029,842.705048
1318.776533,7846.182985,-3997.112087,1225.752797
1318.776862,7105.977043,-4441.235652,1149.143247
1318.777191,7994.224174,-5847.626942,2145.067394
1318.777520,7550.100608,-5329.482782,1455.581446
1318.777849,7031.956449,-6513.812290,842.705048
1318.778178,5921.647536,-7476.080014,383.047749
1318.778507,5773.606348,-9178.553681,842.705048
1318.778836,6439.791695,-9548.656652,995.924147
1318.779165,6217.729913,-8956.491898,1532.190996
1318.779494,6217.729913,-7920.203579,1225.752797
1318.779823,6217.729913,-6883.915261,1378.971896
1318.780153,7031.956449,-5921.647536,1302.362347
1318.780482,7624.121203,-3849.070898,1225.752797
1318.780811,8068.244768,-2442.679609,689.485948
1318.781140,8734.430116,-3330.926739,1225.752797
1318.781469,8512.368333,-3552.988522,1532.190996
1318.781798,8438.347739,-5921.647536,1378.971896
1318.782127,7105.977043,-6365.771101,1455.581446
1318.782456,5921.647536,-8068.244768,459.657299
1318.782785,5329.482782,-9992.780217,1072.533697
1318.783114,5551.544565,-10807.006753,919.314598
1318.783443,6217.729913,-10436.903782,1072.533697
1318.783772,6365.771101,-8882.471304,919.314598
1318.784101,6291.750507,-6957.935855,536.266849
1318.784430,6513.812290,-6439.791695,0.000000
1318.784759,7179.997637,-4737.318029,1072.533697
1318.785088,7846.182985,-4441.235652,689.485948
1318.785417,8290.306550,-3775.050304,1225.752797
1318.785747,8586.388927,-4071.132681,1378.971896
1318.786076,8660.409521,-4737.318029,1685.410096
1318.786405,8364.327145,-4589.276840,1762.019645
1318.786734,6957.935855,-5921.647536,842.705048
1318.787063,6587.832884,-6809.894666,229.828649
1318.787392,7179.997637,-8586.388927,1532.190996
1318.787721,7402.059420,-9104.533087,1991.848295
1318.788050,6513.812290,-9474.636058,1455.581446
1318.788379,5625.565159,-7476.080014,612.876398
1318.788708,5181.441594,-7402.059420,229.828649
1318.789037,5847.626942,-6291.750507,0.000000
1318.789366,6143.709319,-5255.462188,1072.533697
1318.789695,7402.059420,-4737.318029,536.266849
1318.790024,7994.224174,-4367.215058,1072.533697
1318.790353,8438.347739,-4959.379811,1762.019645
1318.790682,8512.368333,-5181.441594,2145.067394
1318.791011,7846.182985,-5921.647536,1302.362347
1318.791341,6957.935855,-6883.915261,689.485948
1318.791670,5921.647536,-8808.450710,383.047749
1318.791999,6365.771101,-10066.800811,1072.533697
1318.792328,6735.874072,-9696.697840,1608.800546
1318.792657,6365.771101,-8142.265362,1149.143247
1318.792986,6735.874072,-6513.812290,1072.533697
1318.793315,6735.874072,-5477.523971,612.876398
1318.793644,7031.956449,-5477.523971,766.095498
1318.793973,7698.141797,-4367.215058,689.485948
1318.794302,7402.059420,-3849.070898,612.876398
1318.794631,7698.141797,-5033.400406,1302.362347
1318.794960,7994.224174,-5477.523971,2221.676944
1318.795289,7846.182985,-5773.606348,1991.848295
1318.795618,7698.141797,-6513.812290,1302.362347
1318.795947,7105.977043,-6809.894666,1225.752797
1318.796276,6439.791695,-8438.347739,766.095498
1318.796606,5995.668130,-9252.574275,1149.143247
1318.796935,5477.523971,-8734.430116,1072.533697
1318.797264,5625.565159,-8290.306550,459.657299
1318.797593,5403.503377,-6883.915261,306.438199
1318.797922,5847.626942,-6291.750507,383.047749
1318.798251,6809.894666,-4663.297435,229.828649
1318.798580,7624.121203,-4589.276840,1149.143247
1318.798909,7994.224174,-4737.318029,1225.752797
1318.799238,8364.327145,-5403.503377,1838.629195
1318.799567,8068.244768,-5847.626942,1838.629195
1318.799896,7031.956449,-6291.750507,919.314598
1318.800225,5625.565159,-7550.100608,612.876398
1318.800554,5033.400406,-9104.533087,536.266849
1318.800883,5477.523971,-10288.862594,919.314598
1318.801212,5921.647536,-9696.697840,1915.238745
1318.801541,6735.874072,-8068.244768,919.314598
1318.801870,6143.709319,-7031.956449,153.219100
1318.802200,6143.709319,-5773.606348,76.609550
1318.802529,6661.853478,-4663.297435,229.828649
1318.802858,7994.224174,-3701.029710,689.485948
1318.803187,8956.491898,-3256.906145,1378.971896
1318.803516,8882.471304,-4737.318029,1838.629195
1318.803845,8290.306550,-5773.606348,2221.676944
1318.804174,7402.059420,-5625.565159,1455.581446
1318.804503,6217.729913,-6069.688724,919.314598
1318.804832,5847.626942,-7402.059420,766.095498
1318.805161,6217.729913,-9030.512492,1149.143247
1318.805490,7179.997637,-9918.759623,1608.800546
1318.805819,6809.894666,-8734.430116,1991.848295
1318.806148,6809.894666,-7254.018232,842.705048
1318.806477,6069.688724,-6587.832884,306.438199
1318.806806,6587.832884,-5921.647536,76.609550
1318.807135,7031.956449,-4959.379811,76.609550
1318.807464,7328.038826,-4515.256246,766.095498
1318.807794,7994.224174,-4515.256246,1532.190996
1318.808123,9030.512492,-4737.318029,1991.848295
1318.808452,8512.368333,-5995.668130,2451.505594
1318.808781,7031.956449,-5255.462188,1378.971896
1318.809110,5773.606348,-5921.647536,842.705048
1318.809439,4737.318029,-7994.224174,76.609550
1318.809768,4959.379811,-9548.656652,842.705048
1318.810097,6513.812290,-9992.780217,1685.410096
1318.810426,7254.018232,-8438.347739,1532.190996
1318.810755,6809.894666,-6587.832884,1302.362347
1318.811084,6513.812290,-5255.462188,306.438199
1318.811413,6883.915261,-4663.297435,229.828649
1318.811742,7254.018232,-4589.276840,689.485948
1318.812071,8068.244768,-4515.256246,1302.362347
1318.812400,8216.285956,-4293.194464,766.095498
1318.812729,7994.224174,-5403.503377,1225.752797
1318.813058,7476.080014,-5551.544565,1685.410096
1318.813388,7328.038826,-5995.668130,1378.971896
1318.813717,6809.894666,-7105.977043,842.705048
1318.814046,6957.935855,-8438.347739,1149.143247
1318.814375,6735.874072,-9696.697840,1608.800546
1318.814704,6291.750507,-9104.533087,919.314598
1318.815033,5625.565159,-8364.327145,919.314598
1318.815362,5773.606348,-7105.977043,0.000000
1318.815691,6439.791695,-6661.853478,536.266849
1318.816020,6735.874072,-5181.441594,689.485948
1318.816349,7994.224174,-4589.276840,919.314598
1318.816678,8586.388927,-4145.153275,1532.190996
1318.817007,8364.327145,-4737.318029,1915.238745
1318.817336,7698.141797,-5699.585753,1685.410096
1318.817665,6883.915261,-5625.565159,1225.752797
1318.817994,5995.668130,-7105.977043,-306.438199
1318.818323,5181.441594,-8882.471304,76.609550
1318.818652,5033.400406,-10066.800811,1225.752797
1318.818982,6439.791695,-10362.883188,1532.190996
1318.819311,7031.956449,-8808.450710,1532.190996
1318.819640,6735.874072,-7031.956449,612.876398
1318.819969,6883.915261,-5995.668130,229.828649
1318.820298,7105.977043,-4737.318029,459.657299
1318.820627,7179.997637,-4515.256246,919.314598
1318.820956,8512.368333,-3478.967927,536.266849
1318.821285,8438.347739,-4293.194464,1685.410096
1318.821614,8660.409521,-4737.318029,2298.286494
1318.821943,8142.265362,-4959.379811,1378.971896
1318.822272,7402.059420,-5847.626942,1378.971896
1318.822601,6883.915261,-6587.832884,1455.581446
1318.822930,6735.874072,-9178.553681,1378.971896
1318.823259,6513.812290,-9252.574275,1685.410096
1318.823588,6365.771101,-8808.450710,1302.362347
1318.823917,6069.688724,-7994.224174,842.705048
1318.824246,5699.585753,-6439.791695,459.657299
1318.824576,6291.750507,-6883.915261,459.657299
1318.824905,6809.894666,-5551.544565,842.705048
1318.825234,7402.059420,-4293.194464,842.705048
1318.825563,7328.038826,-4959.379811,842.705048
1318.825892,7328.038826,-5477.523971,1685.410096
1318.826221,7550.100608,-6661.853478,1838.629195
1318.826550,6957.935855,-6957.935855,995.924147
1318.826879,5699.585753,-7031.956449,459.657299
1318.827208,5255.462188,-7772.162391,383.047749
1318.827537,6365.771101,-9622.677246,1302.362347
1318.827866,7031.956449,-10436.903782,2451.505594
1318.828195,7254.018232,-8364.327145,1762.019645
1318.828524,7254.018232,-6661.853478,995.924147
1318.828853,6735.874072,-4959.379811,459.657299
1318.829182,6661.853478,-4441.235652,0.000000
1318.829511,7328.038826,-3923.091493,995.924147
1318.829840,7920.203579,-3404.947333,842.705048
1318.830170,9178.553681,-3775.050304,2221.676944
1318.830499,8438.347739,-4885.359217,1991.848295
1318.830828,7846.182985,-5403.503377,1685.410096
1318.831157,6883.915261,-6587.832884,919.314598
1318.831486,5625.565159,-7476.080014,383.047749
1318.831815,5847.626942,-9252.574275,1072.533697
1318.832144,6365.771101,-10140.821405,1532.190996
1318.832473,6735.874072,-9474.636058,1762.019645
1318.832802,6661.853478,-7920.203579,919.314598
1318.833131,6069.688724,-6883.915261,919.314598
1318.833460,6069.688724,-5403.503377,-153.219100
1318.833789,7105.977043,-5329.482782,0.000000
1318.834118,7772.162391,-4293.194464,919.314598
1318.834447,8512.368333,-4441.235652,919.314598
1318.834776,8216.285956,-4663.297435,1838.629195
1318.835105,7846.182985,-5477.523971,1991.848295
1318.835434,7476.080014,-6661.853478,842.705048
1318.835764,6439.791695,-7179.997637,459.657299
1318.836093,5625.565159,-8216.285956,612.876398
1318.836422,6069.688724,-10288.862594,689.485948
1318.836751,6217.729913,-10140.821405,1608.800546
1318.837080,6143.709319,-9326.594869,1225.752797
1318.837409,6217.729913,-6957.935855,459.657299
1318.837738,6365.771101,-5329.482782,612.876398
1318.838066,6883.915261,-4663.297435,612.876398
1318.838395,7920.203579,-3701.029710,995.924147
1318.838724,8512.368333,-3108.864956,1378.971896
1318.839053,8512.368333,-4071.132681,1455.581446
1318.839382,8364.327145,-4885.359217,2834.553343
1318.839711,7328.038826,-5847.626942,1915.238745
1318.840040,6513.812290,-6883.915261,383.047749
1318.840369,5551.544565,-7698.141797,229.828649
1318.840698,5699.585753,-8882.471304,306.438199
1318.841027,6735.874072,-10807.006753,1532.190996
1318.841356,7402.059420,-9474.636058,2221.676944
1318.841685,6513.812290,-7550.100608,766.095498
1318.842014,6069.688724,-5995.668130,153.219100
1318.842343,6439.791695,-5847.626942,0.000000
1318.842672,6365.771101,-5699.585753,0.000000
1318.843001,7476.080014,-4367.215058,766.095498
1318.843330,8438.347739,-3849.070898,919.314598
1318.843659,8734.430116,-4959.379811,2451.505594
1318.843988,7624.121203,-5847.626942,2068.457845
1318.844317,6957.935855,-6217.729913,995.924147
1318.844646,5995.668130,-7105.977043,153.219100
1318.844975,5403.503377,-8882.471304,689.485948
1318.845304,6365.771101,-9918.759623,842.705048
1318.845633,6365.771101,-10140.821405,1762.019645
1318.845962,6143.709319,-8956.491898,1455.581446
1318.846291,6365.771101,-6809.894666,919.314598
1318.846620,6513.812290,-6069.688724,1149.143247
1318.846949,7105.977043,-4811.338623,1072.533697
1318.847278,7328.038826,-3775.050304,689.485948
1318.847607,7402.059420,-2960.823768,612.876398
1318.847936,7772.162391,-3849.070898,1149.143247
1318.848265,8586.388927,-5107.421000,1762.019645
1318.848594,8808.450710,-5033.400406,2068.457845
1318.848923,8142.265362,-5477.523971,1915.238745
1318.849252,7920.203579,-6513.812290,1072.533697
1318.849581,7179.997637,-8734.430116,1149.143247
1318.849910,7031.956449,-9992.780217,1762.019645
1318.850238,6883.915261,-9622.677246,1532.190996
1318.850567,6439.791695,-8142.265362,536.266849
1318.850896,5551.544565,-6513.812290,0.000000
1318.851225,5551.544565,-5921.647536,0.000000
1318.851554,6513.812290,-5033.400406,1072.533697
1318.851883,7328.038826,-4293.194464,919.314598
1318.852212,7772.162391,-4219.173869,1149.143247
1318.852541,7328.038826,-4219.173869,1455.581446
1318.852870,7698.141797,-6513.812290,1455.581446
1318.853199,6883.915261,-6809.894666,1302.362347
1318.853528,5699.585753,-7328.038826,383.047749
1318.853857,5255.462188,-9252.574275,76.609550
1318.854186,6513.812290,-9844.739029,1762.019645
1318.854515,6957.935855,-10658.965565,1762.019645
1318.854844,7179.997637,-9178.553681,1685.410096
1318.855173,6587.832884,-6809.894666,689.485948
1318.855502,6365.771101,-5847.626942,306.438199
1318.855831,6883.915261,-4737.318029,919.314598
1318.856160,7402.059420,-4219.173869,1072.533697
1318.856489,7624.121203,-3034.844362,919.314598
1318.856818,7994.224174,-3997.112087,1608.800546
1318.857147,8142.265362,-4737.318029,1991.848295
1318.857476,8142.265362,-4293.194464,1838.629195
1318.857805,7624.121203,-4811.338623,919.314598
1318.858134,7105.977043,-6143.709319,76.609550
1318.858463,6661.853478,-8364.327145,995.924147
1318.858792,7550.100608,-9696.697840,2068.457845
1318.859121,8290.306550,-8734.430116,2145.067394
1318.859450,7550.100608,-7550.100608,1532.190996
1318.859779,6957.935855,-6439.791695,1149.143247
1318.860108,6809.894666,-6291.750507,612.876398
1318.860437,7179.997637,-5329.482782,1302.362347
1318.860766,6439.791695,-5033.400406,766.095498
1318.861095,5921.647536,-5403.503377,766.095498
1318.861424,6069.688724,-5551.544565,1149.143247
1318.861753,5921.647536,-6291.750507,1225.752797
1318.862081,5847.626942,-7402.059420,689.485948
1318.862410,4959.379811,-7476.080014,536.266849
1318.862739,4811.338623,-9400.615463,76.609550
1318.863068,5625.565159,-9696.697840,919.314598
1318.863397,6513.812290,-9844.739029,2068.457845
1318.863726,7402.059420,-8364.327145,1225.752797
1318.864055,7328.038826,-6883.915261,842.705048
1318.864384,7476.080014,-6069.688724,383.047749
1318.864713,7994.224174,-4441.235652,919.314598
1318.865042,8438.347739,-3775.050304,1378.971896
1318.865371,8364.327145,-3108.864956,1302.362347
1318.865700,8216.285956,-4071.132681,1532.190996
1318.866029,7846.182985,-5033.400406,2221.676944
1318.866358,7476.080014,-5033.400406,1991.848295
1318.866687,6661.853478,-5773.606348,766.095498
1318.867016,5699.585753,-6439.791695,229.828649
1318.867345,5329.482782,-8808.450710,536.266849
1318.867674,6069.688724,-10140.821405,1302.362347
1318.868003,6439.791695,-9178.553681,1915.238745
1318.868332,6735.874072,-8216.285956,1149.143247
1318.868661,6809.894666,-6735.874072,536.266849
1318.868990,6883.915261,-6143.709319,612.876398
1318.869319,7698.141797,-5699.585753,766.095498
1318.869648,7920.203579,-4219.173869,612.876398
1318.869977,7624.121203,-4145.153275,919.314598
1318.870306,7698.141797,-5625.565159,1532.190996
1318.870635,7550.100608,-5625.565159,1838.629195
1318.870964,6513.812290,-6069.688724,536.266849
1318.871293,5181.441594,-7031.956449,383.047749
1318.871622,4959.379811,-8660.409521,76.609550
1318.871951,5477.523971,-9770.718434,459.657299
1318.872280,6439.791695,-9992.780217,1608.800546
1318.872609,6735.874072,-8808.450710,766.095498
1318.872938,6365.771101,-7179.997637,383.047749
1318.873267,6883.915261,-5847.626942,76.609550
1318.873596,7846.182985,-4737.318029,536.266849
1318.873925,8882.471304,-4071.132681,2068.457845
1318.874253,9104.533087,-3034.844362,1762.019645
1318.874582,8068.244768,-3775.050304,1378.971896
1318.874911,7920.203579,-4811.338623,1762.019645
1318.875240,7920.203579,-4959.379811,2298.286494
1318.875569,7550.100608,-5329.482782,2145.067394
1318.875898,6809.894666,-6439.791695,766.095498
1318.876227,6143.709319,-7698.141797,842.705048
1318.876556,6217.729913,-9178.553681,919.314598
1318.876885,6365.771101,-8586.388927,1762.019645
1318.877214,6365.771101,-7772.162391,919.314598
1318.877543,6661.853478,-7105.977043,612.876398
1318.877872,6883.915261,-6365.771101,383.047749
1318.878201,7105.977043,-5551.544565,536.266849
1318.878530,7920.203579,-4885.359217,689.485948
1318.878859,7994.224174,-5181.441594,1302.362347
1318.879188,7772.162391,-6069.688724,1302.362347
1318.879517,7105.977043,-6291.750507,1455.581446
1318.879846,6883.915261,-6217.729913,1455.581446
1318.880175,5921.647536,-8068.244768,0.000000
1318.880504,5107.421000,-8956.491898,689.485948
1318.880833,5255.462188,-10066.800811,995.924147
1318.881162,5995.668130,-9844.739029,1608.800546
1318.881491,5995.668130,-7698.141797,1685.410096
1318.881820,6291.750507,-6661.853478,842.705048
1318.882149,6883.915261,-5551.544565,612.876398
1318.882478,7772.162391,-4515.256246,612.876398
1318.882807,7994.224174,-3775.050304,1225.752797
1318.883136,8512.368333,-3627.009116,1302.362347
1318.883465,9178.553681,-3849.070898,1915.238745
1318.883794,8734.430116,-4811.338623,2221.676944
1318.884123,7624.121203,-5107.421000,1991.848295
1318.884452,7328.038826,-5181.441594,1302.362347
1318.884781,7105.977043,-6809.894666,459.657299
1318.885110,6291.750507,-8660.409521,1455.581446
1318.885439,7105.977043,-9252.574275,1685.410096
1318.885768,6587.832884,-9178.553681,995.924147
1318.886096,6217.729913,-8216.285956,1072.533697
1318.886425,5181.441594,-7105.977043,0.000000
1318.886754,5921.647536,-6513.812290,76.609550
1318.887083,6883.915261,-5625.565159,76.609550
1318.887412,7402.059420,-4885.359217,229.828649
1318.887741,7254.018232,-5107.421000,536.266849
1318.888070,7920.203579,-5699.585753,1762.019645
1318.888399,7698.141797,-5921.647536,1455.581446
1318.888728,6883.915261,-6735.874072,1302.362347
1318.889057,5477.523971,-7550.100608,995.924147
1318.889386,5921.647536,-9178.553681,1072.533697
1318.889715,5921.647536,-9622.677246,1149.143247
1318.890044,5625.565159,-9844.739029,1378.971896
1318.890373,5921.647536,-8734.430116,919.314598
1318.890702,6291.750507,-6661.853478,842.705048
1318.891031,6439.791695,-5551.544565,0.000000
1318.891360,7031.956449,-4145.153275,229.828649
1318.891689,7846.182985,-3923.091493,919.314598
1318.892018,8882.471304,-4219.173869,766.095498
1318.892347,8290.306550,-4145.153275,1915.238745
1318.892676,8734.430116,-4737.318029,1915.238745
1318.893005,8512.368333,-4959.379811,1378.971896
1318.893334,7550.100608,-5625.565159,995.924147
1318.893663,7476.080014,-6735.874072,612.876398
1318.893992,7328.038826,-8216.285956,995.924147
1318.894321,7179.997637,-9400.615463,1838.629195
1318.894650,6883.915261,-8882.471304,1225.752797
1318.894979,6069.688724,-7254.018232,766.095498
1318.895308,5921.647536,-7105.977043,536.266849
1318.895637,6069.688724,-6291.750507,76.609550
1318.895966,6661.853478,-5181.441594,306.438199
1318.896295,7105.977043,-4145.153275,536.266849
1318.896624,7846.182985,-4071.132681,1532.190996
1318.896953,7994.224174,-5329.482782,1685.410096
1318.897282,8512.368333,-5403.503377,1991.848295
1318.897611,7031.956449,-6735.874072,995.924147
1318.897940,6291.750507,-7179.997637,919.314598
1318.898268,5403.503377,-9104.533087,459.657299
1318.898597,5625.565159,-10362.883188,1072.533697
1318.898926,5551.544565,-10066.800811,1302.362347
1318.899255,5551.544565,-8956.491898,612.876398
1318.899584,6291.750507,-7920.203579,1072.533697
1318.899913,6587.832884,-6439.791695,689.485948
1318.900242,7402.059420,-5107.421000,536.266849
1318.900571,7994.224174,-3330.926739,536.266849
1318.900900,8290.306550,-2960.823768,689.485948
1318.901229,8660.409521,-3404.947333,1302.362347
1318.901558,9178.553681,-3552.988522,2221.676944
1318.901887,8808.450710,-4441.235652,1608.800546
1318.902216,8142.265362,-4959.379811,1072.533697
1318.902545,7328.038826,-6069.688724,766.095498
1318.902874,6809.894666,-8512.368333,842.705048
1318.903203,6587.832884,-9474.636058,1378.971896
1318.903532,6217.729913,-9770.718434,1455.581446
1318.903861,5847.626942,-9252.574275,842.705048
1318.904190,5625.565159,-7476.080014,612.876398
1318.904519,6143.709319,-6365.771101,76.609550
1318.904848,6957.935855,-5699.585753,459.657299
1318.905177,7550.100608,-4885.359217,1149.143247
1318.905506,7550.100608,-4885.359217,1762.019645
1318.905835,7624.121203,-5033.400406,1072.533697
1318.906164,7105.977043,-5477.523971,1455.581446
1318.906493,6587.832884,-6735.874072,919.314598
1318.906822,5699.585753,-7772.162391,153.219100
1318.907151,4959.379811,-8660.409521,229.828649
1318.907480,5033.400406,-10066.800811,306.438199
1318.907809,5995.668130,-10362.883188,1455.581446
1318.908138,6291.750507,-9770.718434,1685.410096
1318.908467,5847.626942,-7772.162391,766.095498
1318.908796,5847.626942,-5773.606348,689.485948
1318.909125,7105.977043,-5033.400406,766.095498
1318.909454,8290.306550,-3552.988522,1149.143247
1318.909783,9400.615463,-3256.906145,2298.286494
1318.910111,9770.718434,-2812.782580,2298.286494
1318.910440,8586.388927,-3701.029710,1838.629195
1318.910769,7698.141797,-3775.050304,1302.362347
1318.911098,6883.915261,-5403.503377,1072.533697
1318.911427,6735.874072,-7031.956449,1149.143247
1318.911756,6735.874072,-8364.327145,1608.800546
1318.912085,6217.729913,-9474.636058,1378.971896
1318.912414,5921.647536,-9178.553681,1455.581446
1318.912743,6069.688724,-8364.327145,536.266849
1318.913072,6143.709319,-7550.100608,383.047749
1318.913401,5995.668130,-5551.544565,229.828649
1318.913730,7179.997637,-5699.585753,1149.143247
1318.914059,7920.203579,-5033.400406,1072.533697
1318.914388,7772.162391,-4737.318029,1455.581446
1318.914717,8068.244768,-5847.626942,2068.457845
1318.915046,8290.306550,-5477.523971,1838.629195
1318.915375,7031.956449,-6217.729913,919.314598
1318.915704,5847.626942,-7179.997637,153.219100
1318.916033,5255.462188,-8808.450710,229.828649
1318.916362,5625.565159,-9474.636058,536.266849
1318.916691,5329.482782,-9992.780217,766.095498
1318.917020,5403.503377,-8882.471304,919.314598
1318.917349,5625.565159,-7476.080014,536.266849
1318.917678,6217.729913,-5847.626942,0.000000
1318.918007,5995.668130,-5033.400406,536.266849
1318.918336,7772.162391,-4959.379811,995.924147
1318.918665,9326.594869,-2812.782580,1072.533697
1318.918994,9326.594869,-3552.988522,2374.896044
1318.919323,8956.491898,-3627.009116,1838.629195
1318.919652,8882.471304,-4071.132681,1915.238745
1318.919981,7698.141797,-5329.482782,1225.752797
1318.920310,6957.935855,-6217.729913,306.438199
1318.920639,6439.791695,-7920.203579,919.314598
1318.920968,6587.832884,-8438.347739,1225.752797
1318.921297,6439.791695,-9252.574275,1302.362347
1318.921626,5847.626942,-8142.265362,689.485948
1318.921955,5921.647536,-7031.956449,-229.828649
1318.922283,6365.771101,-6069.688724,-229.828649
1318.922612,6809.894666,-5921.647536,536.266849
1318.922941,7994.224174,-5033.400406,766.095498
1318.923270,8512.368333,-4811.338623,1225.752797
1318.923599,8364.327145,-4737.318029,1685.410096
1318.923928,8068.244768,-5625.565159,1685.410096
1318.924257,7624.121203,-6513.812290,1225.752797
1318.924586,6661.853478,-7254.018232,919.314598
1318.924915,5773.606348,-9030.512492,153.219100
1318.925244,5181.441594,-10140.821405,1302.362347
1318.925573,5403.503377,-10807.006753,842.705048
1318.925902,5773.606348,-9252.574275,1225.752797
1318.926231,5255.462188,-7698.141797,229.828649
1318.926560,4959.379811,-6587.832884,0.000000
1318.926889,5773.606348,-5033.400406,383.047749
1318.927218,7254.018232,-4219.173869,919.314598
1318.927547,8438.347739,-3701.029710,995.924147
1318.927876,8882.471304,-3997.112087,1838.629195
1318.928205,8660.409521,-4515.256246,2145.067394
1318.928534,8216.285956,-4959.379811,2068.457845
1318.928863,8364.327145,-5033.400406,1455.581446
1318.929192,7624.121203,-5773.606348,1225.752797
1318.929521,7031.956449,-8068.244768,842.705048
1318.929850,7105.977043,-9030.512492,1149.143247
1318.930179,7031.956449,-8808.450710,1608.800546
1318.930508,6809.894666,-7698.141797,1149.143247
1318.930837,6513.812290,-5847.626942,536.266849
1318.931166,6957.935855,-5995.668130,383.047749
1318.931495,7328.038826,-5107.421000,0.000000
1318.931824,7031.956449,-4663.297435,689.485948
1318.932153,7772.162391,-4589.276840,995.924147
1318.932482,7772.162391,-4811.338623,1455.581446
1318.932811,7105.977043,-6291.750507,1991.848295
1318.933140,6069.688724,-7105.977043,1072.533697
1318.933469,4959.379811,-8068.244768,153.219100
1318.933798,4441.235652,-9474.636058,153.219100
1318.934126,5329.482782,-11029.068536,1149.143247
1318.934455,6365.771101,-10732.986159,2451.505594
1318.934784,6291.750507,-9104.533087,1225.752797
1318.935113,5255.462188,-7328.038826,766.095498
1318.935443,5921.647536,-6217.729913,383.047749
1318.935772,7105.977043,-4959.379811,459.657299
1318.936101,8068.244768,-3701.029710,612.876398
1318.936430,8956.491898,-3108.864956,1532.190996
1318.936759,9474.636058,-3701.029710,1608.800546
1318.937088,9030.512492,-4737.318029,1915.238745
1318.937417,7698.141797,-5033.400406,1608.800546
1318.937746,7179.997637,-5773.606348,842.705048
1318.938075,6291.750507,-6143.709319,76.609550
1318.938405,5699.585753,-9030.512492,919.314598
1318.938734,6587.832884,-9696.697840,1378.971896
1318.939063,7550.100608,-8956.491898,1685.410096
1318.939392,7105.977043,-7846.182985,1072.533697
1318.939721,6883.915261,-5773.606348,1225.752797
1318.940050,6957.935855,-5033.400406,306.438199
1318.940379,7402.059420,-4663.297435,995.924147
1318.940708,8438.347739,-3256.906145,1608.800546
1318.941037,8808.450710,-3404.947333,1302.362347
1318.941367,8660.409521,-4219.173869,1608.800546
1318.941696,7698.141797,-5107.421000,2068.457845
1318.942025,6809.894666,-6661.853478,1455.581446
1318.942354,5329.482782,-7624.121203,76.609550
1318.942683,4367.215058,-9622.677246,76.609550
1318.943012,4441.235652,-10955.047942,459.657299
1318.943341,5773.606348,-11103.089130,1378.971896
1318.943670,5625.565159,-9844.739029,1149.143247
1318.944000,5625.565159,-8290.306550,306.438199
1318.944329,5773.606348,-6661.853478,459.657299
1318.944658,6809.894666,-5329.482782,153.219100
1318.944987,8438.347739,-4959.379811,919.314598
1318.945316,9030.512492,-3330.926739,1455.581446
1318.945645,9104.533087,-3478.967927,1225.752797
1318.945974,8808.450710,-4145.153275,1915.238745
1318.946303,8142.265362,-4885.359217,1838.629195
1318.946632,7476.080014,-4737.318029,229.828649
1318.946962,6809.894666,-6217.729913,383.047749
1318.947291,6587.832884,-8586.388927,1072.533697
1318.947620,6957.935855,-9622.677246,1685.410096
1318.947949,7179.997637,-9326.594869,2528.115143
1318.948278,6513.812290,-8364.327145,1378.971896
1318.948607,5773.606348,-7031.956449,459.657299
1318.948936,5921.647536,-6217.729913,153.219100
1318.949265,6513.812290,-5551.544565,459.657299
1318.949594,7328.038826,-4515.256246,919.314598
1318.949924,8142.265362,-3923.091493,1225.752797
1318.950253,8438.347739,-4515.256246,1685.410096
1318.950582,8438.347739,-5255.462188,2068.457845
1318.950911,7402.059420,-6069.688724,1455.581446
1318.951240,6513.812290,-6513.812290,689.485948
1318.951569,5773.606348,-8216.285956,536.266849
1318.951898,5995.668130,-9992.780217,689.485948
1318.952227,5995.668130,-10658.965565,1302.362347
1318.952556,6217.729913,-9992.780217,1302.362347
1318.952886,5551.544565,-8142.265362,842.705048
1318.953215,5847.626942,-6883.915261,383.047749
1318.953544,6069.688724,-5847.626942,612.876398
1318.953873,6957.935855,-4737.318029,306.438199
1318.954202,7772.162391,-4441.235652,383.047749
1318.954531,7179.997637,-4367.215058,842.705048
1318.954860,7328.038826,-4737.318029,1149.143247
1318.955189,7328.038826,-5329.482782,1302.362347
1318.955519,7105.977043,-6143.709319,1762.019645
1318.955848,6735.874072,-5995.668130,459.657299
1318.956177,6957.935855,-7846.182985,1378.971896
1318.956506,7179.997637,-8586.388927,2451.505594
1318.956835,7624.121203,-8660.409521,1608.800546
1318.957164,7254.018232,-7031.956449,1685.410096
1318.957493,6365.771101,-6069.688724,459.657299
1318.957822,6883.915261,-5995.668130,919.314598
1318.958151,7328.038826,-4885.359217,1225.752797
1318.958481,7772.162391,-4515.256246,689.485948
1318.958810,7920.203579,-4737.318029,1532.190996
1318.959139,7698.141797,-4737.318029,1608.800546
1318.959468,7179.997637,-6143.709319,1762.019645
1318.959797,6365.771101,-6439.791695,1072.533697
1318.960126,5551.544565,-7105.977043,153.219100
1318.960455,5329.482782,-8956.491898,229.828649
1318.960784,5847.626942,-10510.924376,1762.019645
1318.961113,6661.853478,-10362.883188,1838.629195
1318.961443,7031.956449,-8734.430116,1608.800546
1318.961772,6809.894666,-6587.832884,306.438199
1318.962101,6735.874072,-5995.668130,0.000000
1318.962430,7179.997637,-5477.523971,919.314598
1318.962759,7624.121203,-4959.379811,1532.190996
1318.963088,8438.347739,-3627.009116,1378.971896
1318.963417,7846.182985,-3552.988522,1378.971896
1318.963746,7994.224174,-5625.565159,2221.676944
1318.964076,7105.977043,-5921.647536,1225.752797
1318.964405,6069.688724,-6069.688724,612.876398
1318.964734,5477.523971,-6661.853478,612.876398
1318.965063,6365.771101,-8364.327145,842.705048
1318.965392,7328.038826,-9252.574275,1991.848295
1318.965721,7624.121203,-9252.574275,1225.752797
1318.966050,7105.977043,-7772.162391,1302.362347
1318.966379,6217.729913,-6365.771101,229.828649
1318.966708,6291.750507,-5403.503377,0.000000
1318.967038,7476.080014,-5107.421000,689.485948
1318.967367,8438.347739,-4811.338623,1149.143247
1318.967696,8660.409521,-4959.379811,1455.581446
1318.968025,7698.141797,-5181.441594,1915.238745
1318.968354,7550.100608,-5255.462188,1532.190996
1318.968683,6587.832884,-5921.647536,1149.143247
1318.969012,5847.626942,-6365.771101,459.657299
1318.969341,5403.503377,-8068.244768,229.828649
1318.969670,6069.688724,-9844.739029,1378.971896
1318.970000,6587.832884,-9696.697840,1455.581446
1318.970329,6809.894666,-8216.285956,1455.581446
1318.970658,6291.750507,-7179.997637,383.047749
1318.970987,5921.647536,-6217.729913,689.485948
1318.971316,6143.709319,-5847.626942,153.219100
1318.971645,6587.832884,-4811.338623,459.657299
1318.971974,7994.224174,-4145.153275,919.314598
1318.972303,8512.368333,-4959.379811,1225.752797
1318.972633,7846.182985,-5403.503377,1608.800546
1318.972962,7550.100608,-5921.647536,1378.971896
1318.973291,7105.977043,-5847.626942,383.047749
1318.973620,6735.874072,-6291.750507,229.828649
1318.973949,7031.956449,-7846.182985,1149.143247
1318.974278,7550.100608,-9104.533087,1762.019645
1318.974607,7698.141797,-8586.388927,1685.410096
1318.974936,7105.977043,-6957.935855,995.924147
1318.975265,6217.729913,-5995.668130,0.000000
1318.975595,6513.812290,-5773.606348,0.000000
1318.975924,6957.935855,-5773.606348,612.876398
1318.976253,7179.997637,-4885.359217,1072.533697
1318.976582,7698.141797,-4589.276840,1225.752797
1318.976911,7328.038826,-5033.400406,1838.629195
1318.977240,7179.997637,-6069.688724,1685.410096
1318.977569,6439.791695,-6291.750507,1072.533697
1318.977898,5773.606348,-7476.080014,459.657299
1318.978227,5847.626942,-8438.347739,306.438199
1318.978557,5773.606348,-10066.800811,995.924147
1318.978886,6291.750507,-10214.842000,1532.190996
1318.979215,6439.791695,-8438.347739,1532.190996
1318.979544,6587.832884,-7105.977043,459.657299
1318.979873,6439.791695,-5921.647536,-383.047749
1318.980202,6587.832884,-5551.544565,536.266849
1318.980531,7550.100608,-4663.297435,612.876398
1318.980860,7994.224174,-3849.070898,842.705048
1318.981189,7105.977043,-4589.276840,1685.410096
1318.981519,7846.182985,-6291.750507,2068.457845
1318.981848,7846.182985,-5773.606348,1608.800546
1318.982177,6661.853478,-6217.729913,842.705048
1318.982506,6291.750507,-6809.894666,536.266849
1318.982835,7031.956449,-8142.265362,1455.581446
1318.983164,7402.059420,-8956.491898,1762.019645
1318.983493,7105.977043,-8364.327145,1838.629195
1318.983822,6883.915261,-6217.729913,1149.143247
1318.984152,6735.874072,-5625.565159,612.876398
1318.984481,7328.038826,-5403.503377,459.657299
1318.984810,7624.121203,-4367.215058,1225.752797
1318.985139,8438.347739,-4515.256246,1532.190996
1318.985468,8512.368333,-3849.070898,1455.581446
1318.985797,7772.162391,-4515.256246,1302.362347
1318.986126,6809.894666,-5551.544565,1149.143247
1318.986455,6365.771101,-6143.709319,995.924147
1318.986784,5847.626942,-8438.347739,76.609550
1318.987114,5551.544565,-9474.636058,1149.143247
1318.987443,5921.647536,-10510.924376,1378.971896
1318.987772,7031.956449,-10732.986159,1378.971896
1318.988101,6661.853478,-8734.430116,1302.362347
1318.988430,5921.647536,-7031.956449,459.657299
1318.988759,5995.668130,-5699.585753,0.000000
1318.989088,6587.832884,-4663.297435,0.000000
1318.989417,7476.080014,-4441.235652,766.095498
1318.989746,8142.265362,-3923.091493,842.705048
1318.990076,8512.368333,-4959.379811,1915.238745
1318.990405,8512.368333,-5107.421000,2451.505594
1318.990734,7698.141797,-5773.606348,1455.581446
1318.991063,6587.832884,-6069.688724,1072.533697
1318.991392,6587.832884,-7179.997637,995.924147
1318.991721,6883.915261,-8142.265362,1762.019645
1318.992050,7105.977043,-8882.471304,1225.752797
1318.992379,6883.915261,-9104.533087,1838.629195
1318.992709,6809.894666,-7179.997637,1149.143247
1318.993038,6513.812290,-6661.853478,383.047749
1318.993367,6217.729913,-5551.544565,919.314598
1318.993696,6809.894666,-4885.359217,766.095498
1318.994025,7402.059420,-4663.297435,536.266849
1318.994354,8142.265362,-4145.153275,1455.581446
1318.994683,8586.388927,-4663.297435,2068.457845
1318.995012,8734.430116,-4663.297435,1685.410096
1318.995341,7328.038826,-5773.606348,1225.752797
1318.995671,6069.688724,-7402.059420,766.095498
1318.996000,6069.688724,-9400.615463,766.095498
1318.996329,6365.771101,-9622.677246,1455.581446
1318.996658,6217.729913,-9770.718434,1608.800546
1318.996987,5625.565159,-8290.306550,1149.143247
1318.997316,5995.668130,-7105.977043,459.657299
1318.997645,6513.812290,-5995.668130,229.828649
1318.997974,7550.100608,-5625.565159,536.266849
1318.998303,7698.141797,-4663.297435,1225.752797
1318.998633,7920.203579,-4663.297435,1072.533697
1318.998962,7624.121203,-5551.544565,1225.752797
1318.999291,7550.100608,-5921.647536,1685.410096
1318.999620,6809.894666,-6661.853478,766.095498
1318.999949,7105.977043,-6735.874072,1225.752797
1319.000278,6365.771101,-7105.977043,766.095498
1319.000607,6439.791695,-8586.388927,919.314598
1319.000936,6365.771101,-8438.347739,2374.896044
1319.001265,6735.874072,-9030.512492,1302.362347
1319.001595,6069.688724,-7772.162391,919.314598
1319.001924,6291.750507,-5847.626942,536.266849
1319.002253,7179.997637,-5773.606348,229.828649
1319.002582,7920.203579,-4219.173869,689.485948
1319.002911,8512.368333,-4293.194464,1302.362347
1319.003240,8290.306550,-4219.173869,1225.752797
1319.003569,8364.327145,-4293.194464,1302.362347
1319.003898,7920.203579,-5995.668130,1378.971896
1319.004228,6735.874072,-5921.647536,1378.971896
1319.004557,5847.626942,-7846.182985,612.876398
1319.004886,5625.565159,-9104.533087,1225.752797
1319.005215,5847.626942,-9622.677246,1302.362347
1319.005544,6587.832884,-9252.574275,1455.581446
1319.005873,6143.709319,-7772.162391,1378.971896
1319.006202,6587.832884,-6809.894666,612.876398
1319.006531,7105.977043,-5403.503377,842.705048
1319.006860,6883.915261,-4737.318029,153.219100
1319.007190,7179.997637,-4367.215058,766.095498
1319.007519,7698.141797,-3552.988522,842.705048
1319.007848,7994.224174,-5477.523971,1225.752797
1319.008177,7772.162391,-5921.647536,1685.410096
1319.008506,7105.977043,-6365.771101,2145.067394
1319.008835,6365.771101,-6883.915261,1302.362347
1319.009164,6291.750507,-6587.832884,612.876398
1319.009493,6439.791695,-8734.430116,919.314598
1319.009822,6587.832884,-9252.574275,1762.019645
1319.010152,6439.791695,-8660.409521,1608.800546
1319.010481,6069.688724,-7550.100608,383.047749
1319.010810,6291.750507,-6513.812290,306.438199
1319.011139,7105.977043,-5107.421000,383.047749
1319.011468,8216.285956,-4367.215058,1532.190996
1319.011797,9400.615463,-4071.132681,1685.410096
1319.012126,9474.636058,-3701.029710,2068.457845
1319.012455,8734.430116,-4071.132681,1685.410096
1319.012785,7698.141797,-5403.503377,1685.410096
1319.013114,6809.894666,-6587.832884,229.828649
1319.013443,5107.421000,-8364.327145,383.047749
1319.013772,4737.318029,-9474.636058,612.876398
1319.014101,4441.235652,-10807.006753,766.095498
1319.014430,5107.421000,-9844.739029,1685.410096
1319.014759,5551.544565,-9030.512492,306.438199
1319.015088,5625.565159,-7402.059420,536.266849
1319.015417,6291.750507,-5699.585753,459.657299
1319.015747,7254.018232,-4811.338623,919.314598
1319.016076,8586.388927,-3997.112087,995.924147
1319.016405,9104.533087,-3478.967927,1762.019645
1319.016734,9474.636058,-4071.132681,1225.752797
1319.017063,9252.574275,-5255.462188,1838.629195
1319.017392,7846.182985,-5773.606348,1915.238745
1319.017721,6735.874072,-6661.853478,919.314598
1319.018050,6143.709319,-7550.100608,842.705048
1319.018379,6217.729913,-8586.388927,842.705048
1319.018709,6217.729913,-10066.800811,1455.581446
1319.019038,5921.647536,-9030.512492,842.705048
1319.019367,5181.441594,-7105.977043,766.095498
1319.019696,6365.771101,-6291.750507,459.657299
1319.020025,7105.977043,-5329.482782,919.314598
1319.020354,7105.977043,-4737.318029,1302.362347
1319.020683,7772.162391,-3701.029710,1072.533697
1319.021012,7920.203579,-3478.967927,1225.752797
1319.021342,7994.224174,-4959.379811,1762.019645
1319.021671,7920.203579,-6291.750507,2221.676944
1319.022000,7031.956449,-6143.709319,1991.848295
1319.022329,6365.771101,-7846.182985,383.047749
1319.022658,5255.462188,-9474.636058,459.657299
1319.022987,5477.523971,-10584.944971,1302.362347
1319.023316,6439.791695,-11029.068536,1762.019645
1319.023645,6217.729913,-7698.141797,612.876398
1319.023974,6513.812290,-6439.791695,536.266849
1319.024304,7105.977043,-5403.503377,229.828649
1319.024633,7550.100608,-3404.947333,536.266849
1319.024962,8290.306550,-3775.050304,689.485948
1319.025291,8512.368333,-2886.803174,612.876398
1319.025620,8660.409521,-4071.132681,1225.752797
1319.025949,8068.244768,-4811.338623,1455.581446
1319.026278,7179.997637,-6365.771101,1455.581446
1319.026607,6587.832884,-7179.997637,689.485948
1319.026936,5773.606348,-7846.182985,229.828649
1319.027266,5551.544565,-9030.512492,689.485948
1319.027595,6069.688724,-10362.883188,1378.971896
1319.027924,6587.832884,-9474.636058,1302.362347
1319.028253,6217.729913,-7994.224174,919.314598
1319.028582,6143.709319,-6587.832884,459.657299
1319.028911,6809.894666,-5699.585753,536.266849
1319.029240,7698.141797,-3775.050304,1072.533697
1319.029569,8438.347739,-3997.112087,1378.971896
1319.029898,8438.347739,-2960.823768,919.314598
1319.030228,8216.285956,-3997.112087,1225.752797
1319.030557,8068.244768,-5773.606348,1532.190996
1319.030886,7402.059420,-6069.688724,1072.533697
1319.031215,6439.791695,-7550.100608,536.266849
1319.031544,5773.606348,-9252.574275,76.609550
1319.031873,5551.544565,-10510.924376,1149.143247
1319.032202,5921.647536,-11029.068536,919.314598
1319.032531,6069.688724,-9474.636058,1455.581446
1319.032861,7105.977043,-6661.853478,919.314598
1319.033190,7105.977043,-5477.523971,536.266849
1319.033519,7179.997637,-4145.153275,1225.752797
1319.033848,8068.244768,-3849.070898,1302.362347
1319.034177,8660.409521,-2368.659014,919.314598
1319.034506,8290.306550,-3478.967927,1302.362347
1319.034835,8216.285956,-4219.173869,1455.581446
1319.035164,7994.224174,-5403.503377,1455.581446
1319.035493,7179.997637,-6735.874072,1302.362347
1319.035823,7179.997637,-6957.935855,1532.190996
1319.036152,6513.812290,-9178.553681,1072.533697
1319.036481,6661.853478,-9622.677246,1608.800546
1319.036810,5625.565159,-9844.739029,1378.971896
1319.037139,5255.462188,-9474.636058,76.609550
1319.037468,4811.338623,-6957.935855,0.000000
1319.037797,5403.503377,-6809.894666,0.000000
1319.038127,7031.956449,-5329.482782,1149.143247
1319.038456,8512.368333,-4071.132681,1455.581446
1319.038785,9178.553681,-4219.173869,2298.286494
1319.039114,8660.409521,-3701.029710,2068.457845
1319.039443,7994.224174,-5107.421000,1685.410096
1319.039772,7402.059420,-5773.606348,1149.143247
1319.040102,6291.750507,-6735.874072,383.047749
1319.040431,5847.626942,-8808.450710,153.219100
1319.040760,5921.647536,-9622.677246,1149.143247
1319.041089,5921.647536,-11029.068536,1838.629195
1319.041418,6365.771101,-8660.409521,1378.971896
1319.041747,5995.668130,-6883.915261,2221.676944
1319.042077,6513.812290,-6365.771101,612.876398
1319.042406,6513.812290,-5181.441594,612.876398
1319.042735,7105.977043,-4663.297435,1225.752797
1319.043064,7402.059420,-3404.947333,919.314598
1319.043393,7402.059420,-4441.235652,1838.629195
1319.043722,7698.141797,-5107.421000,1991.848295
1319.044052,7624.121203,-6069.688724,1532.190996
1319.044381,7254.018232,-6513.812290,995.924147
1319.044710,6883.915261,-7402.059420,766.095498
1319.045039,7031.956449,-8290.306550,1225.752797
1319.045368,7179.997637,-9104.533087,1685.410096
1319.045697,6217.729913,-8882.471304,1149.143247
1319.046027,5773.606348,-7994.224174,229.828649
1319.046356,6217.729913,-6587.832884,229.828649
1319.046685,6143.709319,-6291.750507,76.609550
1319.047014,6809.894666,-5921.647536,919.314598
1319.047343,7550.100608,-4885.359217,1072.533697
1319.047672,7920.203579,-4737.318029,1149.143247
1319.048002,8216.285956,-5255.462188,1685.410096
1319.048331,7254.018232,-5773.606348,1838.629195
1319.048660,7105.977043,-6439.791695,766.095498
1319.048989,5773.606348,-7328.038826,612.876398
1319.049318,5255.462188,-8438.347739,1072.533697
1319.049648,6439.791695,-9474.636058,1302.362347
1319.049977,7105.977043,-9400.615463,1991.848295
1319.050306,7031.956449,-7698.141797,1762.019645
1319.050635,6439.791695,-6513.812290,995.924147
1319.050964,6957.935855,-4959.379811,306.438199
1319.051293,7105.977043,-4737.318029,995.924147
1319.051623,7550.100608,-4367.215058,1149.143247
1319.051952,7846.182985,-3330.926739,995.924147
1319.052281,8216.285956,-3849.070898,1225.752797
1319.052610,7698.141797,-5181.441594,2068.457845
1319.052939,7698.141797,-5181.441594,1608.800546
1319.053268,7550.100608,-5921.647536,919.314598
1319.053598,6809.894666,-7179.997637,383.047749
1319.053927,6957.935855,-8438.347739,689.485948
1319.054256,6735.874072,-9696.697840,1378.971896
1319.054585,6439.791695,-9178.553681,995.924147
1319.054914,6143.709319,-7772.162391,536.266849
1319.055243,5995.668130,-7179.997637,383.047749
1319.055573,6661.853478,-6587.832884,306.438199
1319.055902,7402.059420,-5551.544565,919.314598
1319.056231,7476.080014,-5329.482782,995.924147
1319.056560,7179.997637,-4811.338623,842.705048
1319.056889,7105.977043,-5181.441594,1149.143247
1319.057218,6957.935855,-6069.688724,1608.800546
1319.057548,6735.874072,-6513.812290,1302.362347
1319.057877,6365.771101,-7179.997637,689.485948
1319.058206,5995.668130,-8438.347739,919.314598
1319.058535,5773.606348,-9326.594869,1225.752797
1319.058864,6143.709319,-9696.697840,1225.752797
1319.059193,6291.750507,-8068.244768,1225.752797
1319.059523,6883.915261,-6883.915261,1225.752797
1319.059852,7402.059420,-5773.606348,919.314598
1319.060181,7846.182985,-3997.112087,1455.581446
1319.060510,8142.265362,-3997.112087,842.705048
1319.060839,8882.471304,-3182.885551,995.924147
1319.061168,8660.409521,-4515.256246,1608.800546
1319.061498,8586.388927,-5477.523971,1685.410096
1319.061827,7402.059420,-5403.503377,1225.752797
1319.062156,6735.874072,-6069.688724,612.876398
1319.062485,5921.647536,-7105.977043,153.219100
1319.062814,5995.668130,-9030.512492,612.876398
1319.063144,6439.791695,-9622.677246,1685.410096
1319.063473,6217.729913,-9474.636058,1455.581446
1319.063802,6069.688724,-8068.244768,459.657299
1319.064131,6143.709319,-6809.894666,306.438199
1319.064460,6439.791695,-6735.874072,1149.143247
1319.064789,7772.162391,-4589.276840,842.705048
1319.065119,7994.224174,-4515.256246,766.095498
1319.065448,8068.244768,-4293.194464,1532.190996
1319.065777,7994.224174,-4737.318029,1838.629195
1319.066106,7328.038826,-6143.709319,1225.752797
1319.066435,6143.709319,-6735.874072,383.047749
1319.066764,4959.379811,-7846.182985,-153.219100
1319.067094,4885.359217,-9622.677246,76.609550
1319.067423,5329.482782,-9992.780217,1072.533697
1319.067752,5773.606348,-10436.903782,1762.019645
1319.068081,6587.832884,-8216.285956,1455.581446
1319.068410,6661.853478,-6661.853478,842.705048
1319.068739,7105.977043,-5921.647536,536.266849
1319.069069,8438.347739,-3923.091493,766.095498
1319.069398,8808.450710,-3182.885551,1455.581446
1319.069727,9252.574275,-1924.535449,1072.533697
1319.070056,8364.327145,-3701.029710,1685.410096
1319.070385,7994.224174,-4663.297435,1991.848295
1319.070714,7402.059420,-5773.606348,1762.019645
1319.071044,6217.729913,-5921.647536,689.485948
1319.071373,5921.647536,-6217.729913,383.047749
1319.071702,6365.771101,-8956.491898,1378.971896
1319.072031,7105.977043,-10288.862594,2145.067394
1319.072360,6291.750507,-10214.842000,1762.019645
1319.072689,5847.626942,-8734.430116,995.924147
1319.073019,5847.626942,-7179.997637,612.876398
1319.073348,5847.626942,-6439.791695,0.000000
1319.073677,6809.894666,-4885.359217,1072.533697
1319.074006,7698.141797,-4737.318029,995.924147
1319.074335,8438.347739,-4885.359217,1302.362347
1319.074664,8512.368333,-4071.132681,1762.019645
1319.074994,7920.203579,-5699.585753,1532.190996
1319.075323,7179.997637,-6143.709319,919.314598
1319.075652,5033.400406,-7402.059420,76.609550
1319.075981,4145.153275,-9326.594869,-459.657299
1319.076310,4885.359217,-10584.944971,1149.143247
1319.076640,6883.915261,-10362.883188,1608.800546
1319.076969,7031.956449,-8882.471304,1378.971896
1319.077298,6735.874072,-6957.935855,1302.362347
1319.077627,7031.956449,-5477.523971,536.266849
1319.077956,7698.141797,-4367.215058,536.266849
1319.078285,8216.285956,-3108.864956,1225.752797
1319.078615,8808.450710,-2516.700203,1072.533697
1319.078944,8808.450710,-3404.947333,1378.971896
1319.079273,8068.244768,-4737.318029,1991.848295
1319.079602,7920.203579,-4737.318029,1608.800546
1319.079931,7328.038826,-5477.523971,612.876398
1319.080260,6809.894666,-5921.647536,919.314598
1319.080590,6217.729913,-8586.388927,842.705048
1319.080919,6069.688724,-9696.697840,842.705048
1319.081248,5403.503377,-9992.780217,689.485948
1319.081577,5107.421000,-9030.512492,0.000000
1319.081906,5551.544565,-7846.182985,76.609550
1319.082235,6513.812290,-7179.997637,459.657299
1319.082565,7328.038826,-5699.585753,536.266849
1319.082894,8364.327145,-4293.194464,995.924147
1319.083223,9030.512492,-4219.173869,1532.190996
1319.083552,9252.574275,-4663.297435,2145.067394
1319.083881,8438.347739,-4737.318029,1532.190996
1319.084210,6809.894666,-5255.462188,1149.143247
1319.084540,5551.544565,-7031.956449,229.828649
1319.084869,5107.421000,-8956.491898,842.705048
1319.085198,6365.771101,-9918.759623,1302.362347
1319.085527,6809.894666,-10584.944971,1685.410096
1319.085856,6291.750507,-8882.471304,1378.971896
1319.086185,5921.647536,-7402.059420,536.266849
1319.086515,5699.585753,-6735.874072,612.876398
1319.086844,6217.729913,-5847.626942,229.828649
1319.087173,7254.018232,-4367.215058,766.095498
1319.087502,8586.388927,-3404.947333,1532.190996
1319.087831,9178.553681,-4145.153275,2374.896044
1319.088160,8290.306550,-4515.256246,2145.067394
1319.088490,8216.285956,-4737.318029,2145.067394
1319.088819,7328.038826,-4737.318029,1762.019645
1319.089148,6809.894666,-5625.565159,536.266849
1319.089477,6587.832884,-8216.285956,1149.143247
1319.089806,6513.812290,-9400.615463,1685.410096
1319.090136,6587.832884,-9030.512492,1838.629195
1319.090465,5995.668130,-8142.265362,229.828649
1319.090794,5477.523971,-7179.997637,76.609550
1319.091123,5995.668130,-6735.874072,153.219100
1319.091452,6439.791695,-6069.688724,306.438199
1319.091781,6957.935855,-5403.503377,919.314598
1319.092111,7624.121203,-4959.379811,1378.971896
1319.092440,7920.203579,-5477.523971,1455.581446
1319.092769,7328.038826,-5847.626942,1762.019645
1319.093098,6809.894666,-5847.626942,919.314598
1319.093427,5847.626942,-6883.915261,76.609550
1319.093756,4959.379811,-8290.306550,383.047749
1319.094086,6513.812290,-9548.656652,1685.410096
1319.094415,7179.997637,-10066.800811,1915.238745
1319.094744,6735.874072,-8586.388927,1455.581446
1319.095073,6217.729913,-7179.997637,612.876398
1319.095402,5995.668130,-6291.750507,76.609550
1319.095731,6587.832884,-5921.647536,383.047749
1319.096061,7624.121203,-4737.318029,842.705048
1319.096390,9178.553681,-3849.070898,1302.362347
1319.096719,8956.491898,-4589.276840,2298.286494
1319.097048,8956.491898,-4737.318029,1915.238745
1319.097377,7846.182985,-4219.173869,1608.800546
1319.097706,6735.874072,-4515.256246,306.438199
1319.098036,7179.997637,-5921.647536,306.438199
1319.098365,7031.956449,-8438.347739,1302.362347
1319.098694,7476.080014,-8882.471304,1838.629195
1319.099023,7254.018232,-9178.553681,2068.457845
1319.099352,6661.853478,-7920.203579,612.876398
1319.099681,6365.771101,-6439.791695,153.219100
1319.100011,5995.668130,-6883.915261,76.609550
1319.100340,6217.729913,-5995.668130,306.438199
1319.100669,6735.874072,-4885.359217,612.876398
1319.100998,7402.059420,-5773.606348,842.705048
1319.101327,7624.121203,-5477.523971,1532.190996
1319.101656,7254.018232,-6661.853478,1685.410096
1319.101986,7105.977043,-6439.791695,1455.581446
1319.102315,6217.729913,-6217.729913,919.314598
1319.102644,5403.503377,-8068.244768,459.657299
1319.102973,5995.668130,-8808.450710,1302.362347
1319.103302,6957.935855,-9252.574275,1225.752797
1319.103632,6809.894666,-8586.388927,1302.362347
1319.103961,6069.688724,-6661.853478,842.705048
1319.104290,6217.729913,-6513.812290,229.828649
1319.104619,6883.915261,-4959.379811,306.438199
1319.104948,7328.038826,-5033.400406,842.705048
1319.105277,7994.224174,-4663.297435,1149.143247
1319.105607,8216.285956,-3775.050304,1378.971896
1319.105936,7550.100608,-5329.482782,1455.581446
1319.106265,7920.203579,-4885.359217,1608.800546
1319.106594,7846.182985,-5107.421000,1225.752797
1319.106923,7254.018232,-5477.523971,1915.238745
1319.107252,7254.018232,-8216.285956,1608.800546
1319.107582,7624.121203,-7846.182985,1991.848295
1319.107911,7105.977043,-7994.224174,1608.800546
1319.108240,5995.668130,-7179.997637,459.657299
1319.108569,5625.565159,-6439.791695,76.609550
1319.108898,5773.606348,-7105.977043,0.000000
1319.109227,6291.750507,-6513.812290,919.314598
1319.109557,7105.977043,-5181.441594,995.924147
1319.109886,7624.121203,-5403.503377,536.266849
1319.110215,7105.977043,-5551.544565,1149.143247
1319.110544,6365.771101,-7105.977043,1532.190996
1319.110873,6439.791695,-7105.977043,1149.143247
1319.111202,5699.585753,-7254.018232,689.485948
1319.111532,6217.729913,-9548.656652,766.095498
1319.111861,6661.853478,-9030.512492,1149.143247
1319.112190,7179.997637,-9622.677246,1762.019645
1319.112519,6957.935855,-8216.285956,1302.362347
1319.112848,6439.791695,-5921.647536,689.485948
1319.113177,7105.977043,-5847.626942,459.657299
1319.113507,7328.038826,-4959.379811,536.266849
1319.113836,7105.977043,-4441.235652,689.485948
1319.114165,7772.162391,-4589.276840,1072.533697
1319.114494,7994.224174,-4959.379811,1608.800546
1319.114823,7624.121203,-5329.482782,1762.019645
1319.115152,7254.018232,-5181.441594,1149.143247
1319.115482,6735.874072,-5477.523971,766.095498
1319.115811,6957.935855,-6365.771101,1149.143247
1319.116140,7179.997637,-8290.306550,1608.800546
1319.116469,7328.038826,-9104.533087,2145.067394
1319.116798,7254.018232,-7846.182985,1685.410096
1319.117128,7105.977043,-7179.997637,1225.752797
1319.117457,6365.771101,-6365.771101,689.485948
1319.117786,5995.668130,-5773.606348,612.876398
1319.118115,6883.915261,-5033.400406,0.000000
1319.118444,7402.059420,-3849.070898,842.705048
1319.118773,8438.347739,-4145.153275,1685.410096
1319.119103,9178.553681,-4811.338623,1915.238745
1319.119432,7550.100608,-6143.709319,1608.800546
1319.119761,6883.915261,-6957.935855,1149.143247
1319.120090,5699.585753,-7550.100608,536.266849
1319.120419,5847.626942,-9104.533087,536.266849
1319.120748,5625.565159,-10066.800811,1608.800546
1319.121078,6217.729913,-9992.780217,1532.190996
1319.121407,6143.709319,-9252.574275,1072.533697
1319.121736,5995.668130,-7772.162391,459.657299
1319.122065,6365.771101,-5921.647536,842.705048
1319.122394,6883.915261,-4885.359217,0.000000
1319.122723,7698.141797,-4737.318029,842.705048
1319.123053,8586.388927,-4145.153275,1455.581446
1319.123382,9104.533087,-4589.276840,1838.629195
1319.123711,8882.471304,-4293.194464,2374.896044
1319.124040,8290.306550,-4441.235652,1608.800546
1319.124369,7624.121203,-5329.482782,689.485948
1319.124698,6513.812290,-6735.874072,76.609550
1319.125028,6513.812290,-9326.594869,1378.971896
1319.125357,6883.915261,-9622.677246,1149.143247
1319.125686,6883.915261,-8956.491898,1532.190996
1319.126015,6365.771101,-8216.285956,1072.533697
1319.126344,6069.688724,-7105.977043,229.828649
1319.126673,6291.750507,-6069.688724,0.000000
1319.127003,6661.853478,-5329.482782,0.000000
1319.127332,7328.038826,-4219.173869,459.657299
1319.127661,8290.306550,-4145.153275,842.705048
1319.127990,8216.285956,-4885.359217,1378.971896
1319.128319,7772.162391,-5477.523971,1532.190996
1319.128648,7698.141797,-6439.791695,1225.752797
1319.128978,6883.915261,-7624.121203,766.095498
1319.129307,5847.626942,-8882.471304,1302.362347
1319.129636,5995.668130,-10140.821405,1225.752797
1319.129965,5625.565159,-10732.986159,1225.752797
1319.130294,5329.482782,-9178.553681,842.705048
1319.130624,5107.421000,-8438.347739,689.485948
1319.130953,5551.544565,-6587.832884,76.609550
1319.131282,6735.874072,-4811.338623,1149.143247
1319.131611,6735.874072,-4293.194464,459.657299
1319.131940,7254.018232,-3182.885551,383.047749
1319.132269,7994.224174,-4293.194464,1532.190996
1319.132599,8956.491898,-4885.359217,2298.286494
1319.132928,8956.491898,-4219.173869,1838.629195
1319.133257,8438.347739,-5033.400406,1149.143247
1319.133586,7846.182985,-5995.668130,919.314598
1319.133915,7254.018232,-8512.368333,1685.410096
1319.134244,7105.977043,-8956.491898,1991.848295
1319.134574,6587.832884,-9104.533087,1302.362347
1319.134903,6069.688724,-7772.162391,689.485948
1319.135232,6069.688724,-6661.853478,229.828649
1319.135561,6143.709319,-6439.791695,919.314598
1319.135890,6883.915261,-5403.503377,995.924147
1319.136219,7105.977043,-4441.235652,766.095498
1319.136549,7402.059420,-4071.132681,1149.143247
1319.136878,7402.059420,-4589.276840,1532.190996
1319.137207,6735.874072,-5551.544565,1532.190996
1319.137536,6957.935855,-6957.935855,1455.581446
1319.137865,6143.709319,-7920.203579,995.924147
1319.138194,6439.791695,-9030.512492,1225.752797
1319.138524,6365.771101,-9844.739029,1762.019645
1319.138853,6143.709319,-9844.739029,1302.362347
1319.139182,5551.544565,-8956.491898,612.876398
1319.139511,5107.421000,-7550.100608,536.266849
1319.139840,6217.729913,-7476.080014,0.000000
1319.140169,7105.977043,-5921.647536,229.828649
1319.140498,7254.018232,-4145.153275,1225.752797
1319.140828,7772.162391,-3330.926739,766.095498
1319.141157,8438.347739,-3775.050304,1149.143247
1319.141486,7994.224174,-4441.235652,1991.848295
1319.141815,8660.409521,-4811.338623,1685.410096
1319.142144,8142.265362,-4737.318029,1378.971896
1319.142473,6661.853478,-6143.709319,459.657299
1319.142802,6587.832884,-8068.244768,995.924147
1319.143131,7328.038826,-9622.677246,1532.190996
1319.143460,7254.018232,-9770.718434,1915.238745
1319.143790,7105.977043,-7402.059420,1455.581446
1319.144119,6291.750507,-6439.791695,536.266849
1319.144448,6735.874072,-5551.544565,153.219100
1319.144777,7698.141797,-4737.318029,919.314598
1319.145106,7846.182985,-4293.194464,1149.143247
1319.145435,8142.265362,-3330.926739,1149.143247
1319.145764,8142.265362,-4663.297435,2068.457845
1319.146093,7550.100608,-6291.750507,2068.457845
1319.146422,6439.791695,-6957.935855,842.705048
1319.146752,5255.462188,-7772.162391,153.219100
1319.147081,4737.318029,-9770.718434,0.000000
1319.147410,4959.379811,-11547.212695,842.705048
1319.147739,5255.462188,-10955.047942,1838.629195
1319.148068,5107.421000,-10140.821405,229.828649
1319.148397,4811.338623,-9474.636058,689.485948
1319.148726,5255.462188,-7772.162391,229.828649
1319.149055,6365.771101,-6809.894666,76.609550
1319.149385,7624.121203,-4885.359217,842.705048
1319.149714,7846.182985,-4663.297435,689.485948
1319.150043,7920.203579,-4219.173869,919.314598
1319.150372,7476.080014,-5699.585753,1762.019645
1319.150701,7328.038826,-5477.523971,1378.971896
1319.151030,6661.853478,-6217.729913,919.314598
1319.151359,5699.585753,-7254.018232,612.876398
1319.151688,5625.565159,-8956.491898,306.438199
1319.152017,6143.709319,-10732.986159,1685.410096
1319.152347,5921.647536,-10214.842000,2298.286494
1319.152676,5329.482782,-9178.553681,1149.143247
1319.153005,5033.400406,-8068.244768,766.095498
1319.153334,5255.462188,-7254.018232,1072.533697
1319.153663,6217.729913,-6587.832884,1302.362347
1319.153992,6883.915261,-3997.112087,2451.505594
1319.154321,7846.182985,-3256.906145,1378.971896
1319.154650,7846.182985,-4219.173869,1915.238745
1319.154979,6957.935855,-5477.523971,2374.896044
1319.155309,6661.853478,-7698.141797,1225.752797
1319.155638,5033.400406,-8586.388927,612.876398
1319.155967,2368.659014,-12065.356855,-306.438199
1319.156296,2072.576638,-13693.809927,0.000000
1319.156625,2146.597232,-14434.015869,229.828649
1319.156954,2442.679609,-13915.871710,689.485948
1319.157283,3034.844362,-12065.356855,1532.190996
1319.157612,4293.194464,-8956.491898,2068.457845
1319.157941,5551.544565,-5625.565159,2221.676944
1319.158271,6291.750507,-3923.091493,2834.553343
1319.158600,7328.038826,-2220.617826,2528.115143
1319.158929,7328.038826,-2146.597232,1302.362347
1319.159258,6735.874072,-4293.194464,1302.362347
1319.159587,5921.647536,-5921.647536,842.705048
1319.159916,4515.256246,-8808.450710,1149.143247
1319.160245,3701.029710,-11621.233289,842.705048
1319.160574,3404.947333,-11991.336260,229.828649
1319.160904,3627.009116,-13101.645173,612.876398
1319.161233,3923.091493,-13101.645173,0.000000
1319.161562,3849.070898,-13397.727550,0.000000
1319.161891,2886.803174,-12731.542202,-536.266849
1319.162220,1850.514855,-13027.624579,-1302.362347
1319.162549,1702.473667,-12361.439231,-1378.971896
1319.162878,2368.659014,-10584.944971,536.266849
1319.163207,4071.132681,-9030.512492,1838.629195
1319.163536,6217.729913,-6217.729913,2374.896044
1319.163866,8438.347739,-1480.411884,4213.525239
1319.164195,10510.924376,222.061783,2987.772442
1319.164524,10436.903782,1332.370696,2528.115143
1319.164853,8438.347739,-1702.473667,2145.067394
1319.165182,7254.018232,-5329.482782,842.705048
1319.165511,5551.544565,-8956.491898,-229.828649
1319.165840,4589.276840,-13101.645173,1532.190996
1319.166169,3923.091493,-14211.954086,1072.533697
1319.166498,5181.441594,-11843.295072,1149.143247
1319.166828,5847.626942,-11547.212695,1455.581446
1319.167157,5625.565159,-10732.986159,1532.190996
1319.167486,4589.276840,-9474.636058,919.314598
1319.167815,1776.494261,-9252.574275,-1302.362347
1319.168144,0.000000,-9918.759623,-2374.896044
1319.168473,-296.082377,-10584.944971,-1915.238745
1319.168802,1702.473667,-11029.068536,459.657299
1319.169131,4367.215058,-9696.697840,766.095498
1319.169460,6365.771101,-7105.977043,1838.629195
1319.169790,7105.977043,-5033.400406,995.924147
1319.170119,7772.162391,-4589.276840,1991.848295
1319.170448,8956.491898,-4959.379811,2604.724693
1319.170777,8586.388927,-6809.894666,2451.505594
1319.171106,8142.265362,-7550.100608,2604.724693
1319.171435,7994.224174,-8364.327145,3370.820191
1319.171764,6809.894666,-8734.430116,3600.648841
1319.172093,5847.626942,-8660.409521,2528.115143
1319.172423,4663.297435,-8808.450710,1455.581446
1319.172752,3404.947333,-8660.409521,153.219100
1319.173081,2146.597232,-8438.347739,-229.828649
1319.173410,1406.391290,-7624.121203,-1532.190996
1319.173739,2146.597232,-8734.430116,-1455.581446
1319.174068,2664.741391,-9252.574275,-1302.362347
1319.174397,3478.967927,-9992.780217,0.000000
1319.174726,4811.338623,-11843.295072,1608.800546
1319.175055,6513.812290,-11843.295072,2604.724693
1319.175385,6217.729913,-11251.130318,2834.553343
1319.175714,4737.318029,-10140.821405,1991.848295
1319.176043,4589.276840,-9178.553681,2145.067394
1319.176372,5403.503377,-8586.388927,2681.334243
1319.176701,5625.565159,-7772.162391,3524.039291
1319.177030,6143.709319,-6069.688724,3294.210641
1319.177359,6513.812290,-6661.853478,3294.210641
1319.177688,5995.668130,-5921.647536,2987.772442
1319.178017,4885.359217,-7402.059420,2528.115143
1319.178347,4811.338623,-7402.059420,1685.410096
1319.178676,4737.318029,-6809.894666,995.924147
1319.179005,3923.091493,-8290.306550,1149.143247
1319.179334,3849.070898,-9104.533087,1302.362347
1319.179663,3552.988522,-11177.109724,1685.410096
1319.179992,3552.988522,-11843.295072,1685.410096
1319.180321,3478.967927,-11103.089130,2451.505594
1319.180650,4737.318029,-10066.800811,2911.162892
1319.180979,7105.977043,-8438.347739,4290.134789
