#time,accel_x,accel_y,accel_z
1357.716668,6661.853478,-6365.771101,1072.533697
1357.716998,6513.812290,-6291.750507,1302.362347
1357.717328,6735.874072,-6587.832884,995.924147
1357.717658,6957.935855,-6513.812290,1072.533697
1357.717988,7179.997637,-6365.771101,1072.533697
1357.718318,7105.977043,-6217.729913,229.828649
1357.718648,6735.874072,-6513.812290,1072.533697
1357.718978,6809.894666,-6587.832884,1302.362347
1357.719308,6809.894666,-7031.956449,919.314598
1357.719638,6957.935855,-6513.812290,1149.143247
1357.719968,6957.935855,-6439.791695,536.266849
1357.720298,7105.977043,-7105.977043,689.485948
1357.720628,7328.038826,-6291.750507,1149.143247
1357.720958,7179.997637,-6587.832884,766.095498
1357.721287,7105.977043,-6291.750507,1608.800546
1357.721617,7105.977043,-5995.668130,919.314598
1357.721947,7402.059420,-5921.647536,919.314598
1357.722277,7179.997637,-5995.668130,1378.971896
1357.722607,7402.059420,-5477.523971,1378.971896
1357.722937,7254.018232,-5921.647536,689.485948
1357.723267,7105.977043,-6365.771101,1149.143247
1357.723597,7105.977043,-6291.750507,995.924147
1357.723927,7254.018232,-6661.853478,1149.143247
1357.724257,6661.853478,-6809.894666,1838.629195
1357.724587,6587.832884,-6883.915261,1072.533697
1357.724917,6661.853478,-6661.853478,1072.533697
1357.725247,6883.915261,-7031.956449,1072.533697
1357.725577,6809.894666,-6809.894666,1685.410096
1357.725907,6735.874072,-6513.812290,1378.971896
1357.726237,6809.894666,-6883.915261,1225.752797
1357.726567,6735.874072,-6883.915261,842.705048
1357.726897,6439.791695,-6809.894666,612.876398
1357.727227,6809.894666,-6735.874072,919.314598
1357.727557,7179.997637,-6957.935855,995.924147
1357.727887,6957.935855,-6735.874072,1149.143247
1357.728217,6809.894666,-6735.874072,842.705048
1357.728547,7254.018232,-6661.853478,612.876398
1357.728877,7550.100608,-7254.018232,1455.581446
1357.729207,7105.977043,-7105.977043,1149.143247
1357.729537,7179.997637,-6217.729913,1072.533697
1357.729866,7179.997637,-6291.750507,1072.533697
1357.730196,7254.018232,-6069.688724,1532.190996
1357.730526,7105.977043,-6217.729913,1149.143247
1357.730856,7105.977043,-6513.812290,1072.533697
1357.731186,6883.915261,-6365.771101,689.485948
1357.731516,6661.853478,-6365.771101,995.924147
1357.731846,6513.812290,-7105.977043,995.924147
1357.732176,6513.812290,-6735.874072,1302.362347
1357.732506,6809.894666,-6735.874072,1532.190996
1357.732836,6883.915261,-7031.956449,1149.143247
1357.733166,6809.894666,-6735.874072,1302.362347
1357.733496,6587.832884,-6883.915261,1072.533697
1357.733826,6735.874072,-6809.894666,919.314598
1357.734156,6735.874072,-6661.853478,1302.362347
1357.734486,6809.894666,-6661.853478,1072.533697
1357.734816,7105.977043,-6809.894666,1302.362347
1357.735146,7328.038826,-5995.668130,1608.800546
1357.735476,7105.977043,-6587.832884,995.924147
1357.735806,7254.018232,-6661.853478,919.314598
1357.736136,6883.915261,-6439.791695,766.095498
1357.736466,7179.997637,-6069.688724,919.314598
1357.736796,7105.977043,-6217.729913,919.314598
1357.737126,7476.080014,-5773.606348,1149.143247
1357.737456,7402.059420,-6217.729913,842.705048
1357.737786,7105.977043,-6143.709319,1149.143247
1357.738116,7476.080014,-6217.729913,1149.143247
1357.738446,7105.977043,-6661.853478,919.314598
1357.738775,6809.894666,-6291.750507,1225.752797
1357.739105,6735.874072,-6513.812290,766.095498
1357.739435,6883.915261,-6217.729913,1455.581446
1357.739765,6661.853478,-6883.915261,1455.581446
1357.740095,6809.894666,-6291.750507,842.705048
1357.740425,6587.832884,-6661.853478,842.705048
1357.740755,6661.853478,-6809.894666,1225.752797
1357.741085,6735.874072,-6365.771101,919.314598
1357.741415,6883.915261,-7105.977043,1072.533697
1357.741745,6661.853478,-7031.956449,1149.143247
1357.742075,7031.956449,-6883.915261,995.924147
1357.742405,7179.997637,-6661.853478,1302.362347
1357.742735,6957.935855,-6735.874072,1072.533697
1357.743065,7105.977043,-6587.832884,766.095498
1357.743395,7105.977043,-6883.915261,995.924147
1357.743725,6883.915261,-6883.915261,1149.143247
1357.744055,7550.100608,-6809.894666,1302.362347
1357.744385,7179.997637,-6069.688724,1225.752797
1357.744715,7105.977043,-6217.729913,842.705048
1357.745045,6661.853478,-6217.729913,995.924147
1357.745375,6513.812290,-6513.812290,1455.581446
1357.745705,7105.977043,-6735.874072,1225.752797
1357.746035,6957.935855,-6365.771101,689.485948
1357.746365,6735.874072,-6439.791695,1225.752797
1357.746695,6587.832884,-6735.874072,612.876398
1357.747025,6735.874072,-6735.874072,1685.410096
1357.747354,6883.915261,-6587.832884,1378.971896
1357.747684,6809.894666,-6661.853478,1072.533697
1357.748014,6957.935855,-6439.791695,1302.362347
1357.748344,6735.874072,-7031.956449,1072.533697
1357.748674,6365.771101,-6143.709319,689.485948
1357.749004,6735.874072,-6735.874072,842.705048
1357.749334,6883.915261,-6883.915261,995.924147
1357.749664,7179.997637,-6513.812290,1072.533697
1357.749994,7328.038826,-6217.729913,1532.190996
1357.750324,7105.977043,-6513.812290,842.705048
1357.750654,7328.038826,-6365.771101,995.924147
1357.750984,7624.121203,-5995.668130,842.705048
1357.751314,7105.977043,-6217.729913,766.095498
1357.751644,7624.121203,-5625.565159,1149.143247
1357.751974,7624.121203,-6069.688724,1149.143247
1357.752304,6661.853478,-6365.771101,1225.752797
1357.752634,7031.956449,-6439.791695,1149.143247
1357.752964,7328.038826,-6365.771101,459.657299
1357.753294,6883.915261,-6587.832884,689.485948
1357.753624,6883.915261,-6365.771101,689.485948
1357.753954,6883.915261,-6883.915261,1225.752797
1357.754284,6957.935855,-6513.812290,1225.752797
1357.754614,6809.894666,-6513.812290,1532.190996
1357.754944,7031.956449,-6809.894666,1149.143247
1357.755274,6513.812290,-6883.915261,1072.533697
1357.755604,6587.832884,-7105.977043,459.657299
1357.755934,6809.894666,-7105.977043,689.485948
1357.756263,6883.915261,-6143.709319,1455.581446
1357.756593,7031.956449,-6809.894666,919.314598
1357.756923,7031.956449,-6957.935855,1225.752797
1357.757253,6957.935855,-6217.729913,1149.143247
1357.757583,7105.977043,-6439.791695,1302.362347
1357.757913,7105.977043,-6513.812290,1072.533697
1357.758243,7105.977043,-6291.750507,1072.533697
1357.758573,7031.956449,-6513.812290,919.314598
1357.758903,6883.915261,-6661.853478,1762.019645
1357.759233,7179.997637,-6217.729913,1149.143247
1357.759563,6957.935855,-6661.853478,1072.533697
1357.759893,6809.894666,-6587.832884,1378.971896
1357.760223,7031.956449,-6735.874072,842.705048
1357.760553,7105.977043,-6143.709319,1685.410096
1357.760883,6809.894666,-6735.874072,1072.533697
1357.761213,6587.832884,-6587.832884,842.705048
1357.761543,6809.894666,-6513.812290,1225.752797
1357.761873,6587.832884,-6661.853478,1302.362347
1357.762203,6661.853478,-6661.853478,842.705048
1357.762533,6513.812290,-6957.935855,1378.971896
1357.762863,6587.832884,-6809.894666,766.095498
1357.763193,6587.832884,-7031.956449,612.876398
1357.763523,6735.874072,-6809.894666,919.314598
1357.763853,6735.874072,-7031.956449,612.876398
1357.764183,7254.018232,-6661.853478,842.705048
1357.764513,7328.038826,-6587.832884,1225.752797
1357.764843,7254.018232,-6513.812290,1072.533697
1357.765172,7179.997637,-6291.750507,842.705048
1357.765502,7105.977043,-6513.812290,1149.143247
1357.765832,7105.977043,-6291.750507,612.876398
1357.766162,7105.977043,-6069.688724,919.314598
1357.766492,7550.100608,-5921.647536,995.924147
1357.766822,7105.977043,-5773.606348,1532.190996
1357.767152,7254.018232,-6217.729913,1225.752797
1357.767482,6957.935855,-6291.750507,1072.533697
1357.767812,7179.997637,-6291.750507,689.485948
1357.768142,7179.997637,-6217.729913,1378.971896
1357.768472,6957.935855,-6809.894666,1225.752797
1357.768802,6957.935855,-6957.935855,1072.533697
1357.769132,7105.977043,-6513.812290,1225.752797
1357.769462,6661.853478,-6809.894666,766.095498
1357.769792,6957.935855,-6587.832884,536.266849
1357.770122,6661.853478,-6809.894666,1302.362347
1357.770452,7105.977043,-7031.956449,919.314598
1357.770782,6809.894666,-6661.853478,919.314598
1357.771112,6735.874072,-7105.977043,1072.533697
1357.771442,7328.038826,-6957.935855,612.876398
1357.771772,7254.018232,-6439.791695,919.314598
1357.772102,6661.853478,-7031.956449,1072.533697
1357.772432,7105.977043,-6587.832884,842.705048
1357.772762,7179.997637,-6365.771101,1455.581446
1357.773092,7179.997637,-6735.874072,842.705048
1357.773422,7105.977043,-6513.812290,1225.752797
1357.773751,7105.977043,-6143.709319,919.314598
1357.774081,7179.997637,-6439.791695,459.657299
1357.774411,7031.956449,-6809.894666,1608.800546
1357.774741,7031.956449,-6439.791695,1072.533697
1357.775071,6883.915261,-6587.832884,1302.362347
1357.775401,7031.956449,-6439.791695,995.924147
1357.775731,6513.812290,-6439.791695,1149.143247
1357.776061,6809.894666,-6661.853478,612.876398
1357.776391,6809.894666,-6957.935855,1378.971896
1357.776721,6735.874072,-6809.894666,1149.143247
1357.777051,6587.832884,-6809.894666,1378.971896
1357.777381,6661.853478,-6439.791695,842.705048
1357.777711,6809.894666,-7328.038826,766.095498
1357.778041,7031.956449,-6809.894666,1302.362347
1357.778371,6735.874072,-7031.956449,1072.533697
1357.778701,7254.018232,-6661.853478,1455.581446
1357.779031,7254.018232,-6365.771101,766.095498
1357.779361,7105.977043,-6661.853478,995.924147
1357.779691,7254.018232,-6513.812290,842.705048
1357.780020,7179.997637,-6587.832884,1225.752797
1357.780350,6957.935855,-6143.709319,612.876398
1357.780680,7105.977043,-6365.771101,766.095498
1357.781009,7254.018232,-6217.729913,1225.752797
1357.781339,7105.977043,-6291.750507,919.314598
1357.781668,7105.977043,-6217.729913,1149.143247
1357.781998,6957.935855,-5995.668130,1991.848295
1357.782328,7105.977043,-6513.812290,995.924147
1357.782657,7031.956449,-6069.688724,1149.143247
1357.782987,6735.874072,-6587.832884,766.095498
1357.783316,7031.956449,-6291.750507,1608.800546
1357.783646,7254.018232,-6587.832884,1302.362347
1357.783975,7105.977043,-6735.874072,1149.143247
1357.784305,7031.956449,-6735.874072,919.314598
1357.784635,6809.894666,-6883.915261,1072.533697
1357.784964,6661.853478,-6957.935855,1685.410096
1357.785294,6661.853478,-6809.894666,842.705048
1357.785623,6661.853478,-7031.956449,919.314598
1357.785953,6957.935855,-6661.853478,612.876398
1357.786283,7105.977043,-6661.853478,1072.533697
1357.786612,7328.038826,-6513.812290,1072.533697
1357.786942,7031.956449,-6365.771101,842.705048
1357.787271,7105.977043,-6069.688724,842.705048
1357.787601,7105.977043,-6513.812290,995.924147
1357.787931,6883.915261,-6513.812290,1378.971896
1357.788260,7846.182985,-6439.791695,1225.752797
1357.788590,7328.038826,-6291.750507,1072.533697
1357.788919,7105.977043,-6661.853478,1225.752797
1357.789249,6661.853478,-6661.853478,1072.533697
1357.789578,6735.874072,-6587.832884,1838.629195
1357.789908,6883.915261,-6513.812290,919.314598
1357.790238,6365.771101,-6513.812290,1072.533697
1357.790567,6587.832884,-6587.832884,995.924147
1357.790897,6957.935855,-6883.915261,612.876398
1357.791226,6661.853478,-6439.791695,1378.971896
1357.791556,7031.956449,-6661.853478,919.314598
1357.791886,6735.874072,-6735.874072,1149.143247
1357.792215,7031.956449,-6809.894666,842.705048
1357.792545,6883.915261,-7105.977043,306.438199
1357.792874,6587.832884,-6735.874072,919.314598
1357.793204,7031.956449,-7031.956449,919.314598
1357.793534,6883.915261,-6809.894666,995.924147
1357.793863,7105.977043,-6513.812290,1149.143247
1357.794193,7179.997637,-6069.688724,689.485948
1357.794522,7105.977043,-6661.853478,995.924147
1357.794852,7179.997637,-6957.935855,1225.752797
1357.795181,7328.038826,-6365.771101,1149.143247
1357.795511,7328.038826,-5773.606348,1302.362347
1357.795841,7105.977043,-5995.668130,842.705048
1357.796170,7105.977043,-6143.709319,1072.533697
1357.796500,7105.977043,-6809.894666,1225.752797
1357.796829,7254.018232,-6365.771101,995.924147
1357.797159,7328.038826,-5847.626942,612.876398
1357.797489,6587.832884,-6513.812290,1149.143247
1357.797818,6735.874072,-6513.812290,995.924147
1357.798148,6439.791695,-7105.977043,689.485948
1357.798477,7105.977043,-6587.832884,1685.410096
1357.798807,6809.894666,-6291.750507,842.705048
1357.799137,7031.956449,-6735.874072,1225.752797
1357.799466,6883.915261,-6661.853478,1225.752797
1357.799796,7031.956449,-6661.853478,919.314598
1357.800125,7105.977043,-6217.729913,842.705048
1357.800455,6883.915261,-6587.832884,919.314598
1357.800785,7105.977043,-6809.894666,766.095498
1357.801114,7031.956449,-6661.853478,1149.143247
1357.801444,7105.977043,-6883.915261,1072.533697
1357.801773,7328.038826,-6513.812290,1225.752797
1357.802103,7105.977043,-6365.771101,459.657299
1357.802432,7105.977043,-6661.853478,842.705048
1357.802762,7254.018232,-6217.729913,1225.752797
1357.803092,7550.100608,-6069.688724,842.705048
1357.803421,7254.018232,-6513.812290,919.314598
1357.803751,6957.935855,-6217.729913,1149.143247
1357.804080,7105.977043,-6365.771101,1149.143247
1357.804410,6883.915261,-6439.791695,919.314598
1357.804740,6883.915261,-6587.832884,1532.190996
1357.805069,6661.853478,-7031.956449,1608.800546
1357.805399,6883.915261,-6735.874072,766.095498
1357.805728,6883.915261,-7031.956449,1149.143247
1357.806058,6513.812290,-6513.812290,1072.533697
1357.806388,7031.956449,-6883.915261,766.095498
1357.806717,6735.874072,-6883.915261,1149.143247
1357.807047,6883.915261,-7105.977043,1072.533697
1357.807376,6735.874072,-6587.832884,919.314598
1357.807706,6513.812290,-6735.874072,1225.752797
1357.808035,6883.915261,-6883.915261,919.314598
1357.808365,7105.977043,-6365.771101,1149.143247
1357.808695,6883.915261,-6661.853478,995.924147
1357.809024,7402.059420,-6513.812290,919.314598
1357.809354,7031.956449,-6291.750507,1378.971896
1357.809683,7105.977043,-6365.771101,766.095498
1357.810013,7105.977043,-6661.853478,1225.752797
1357.810343,7402.059420,-5773.606348,842.705048
1357.810672,7550.100608,-6587.832884,536.266849
1357.811002,7105.977043,-5773.606348,1302.362347
1357.811331,7254.018232,-6513.812290,1302.362347
1357.811661,7105.977043,-6439.791695,1149.143247
1357.811991,7031.956449,-6587.832884,1378.971896
1357.812320,6957.935855,-6883.915261,0.000000
1357.812650,6661.853478,-6809.894666,919.314598
1357.812979,6735.874072,-6957.935855,1455.581446
1357.813309,6735.874072,-6809.894666,919.314598
1357.813638,6513.812290,-6439.791695,1149.143247
1357.813968,6957.935855,-6661.853478,842.705048
1357.814298,7031.956449,-6957.935855,1225.752797
1357.814627,6735.874072,-6809.894666,1072.533697
1357.814957,6883.915261,-6883.915261,1149.143247
1357.815286,7105.977043,-6217.729913,1072.533697
1357.815616,7105.977043,-6439.791695,1302.362347
1357.815946,7105.977043,-6439.791695,842.705048
1357.816275,7179.997637,-6439.791695,995.924147
1357.816605,7105.977043,-6439.791695,995.924147
1357.816934,7105.977043,-6587.832884,1149.143247
1357.817264,6809.894666,-6291.750507,995.924147
1357.817594,7179.997637,-6217.729913,1225.752797
1357.817923,7402.059420,-5995.668130,766.095498
1357.818253,6513.812290,-5995.668130,2068.457845
1357.818582,6957.935855,-6439.791695,1149.143247
1357.818912,7105.977043,-6143.709319,766.095498
1357.819241,6809.894666,-6513.812290,995.924147
1357.819571,6587.832884,-6809.894666,1072.533697
1357.819901,6883.915261,-6587.832884,1225.752797
1357.820230,6883.915261,-6809.894666,1072.533697
1357.820560,6735.874072,-6735.874072,1072.533697
1357.820889,6587.832884,-6957.935855,842.705048
1357.821219,6587.832884,-6735.874072,1378.971896
1357.821549,6587.832884,-6735.874072,612.876398
1357.821878,6661.853478,-6957.935855,919.314598
1357.822208,6735.874072,-6661.853478,1149.143247
1357.822537,6883.915261,-6883.915261,1072.533697
1357.822867,7402.059420,-6735.874072,1838.629195
1357.823197,7105.977043,-6735.874072,1225.752797
1357.823526,7402.059420,-6809.894666,612.876398
1357.823856,7402.059420,-6735.874072,919.314598
1357.824185,7402.059420,-7031.956449,842.705048
1357.824515,7105.977043,-6883.915261,1149.143247
1357.824844,7328.038826,-6069.688724,1072.533697
1357.825174,7105.977043,-6365.771101,842.705048
1357.825504,7105.977043,-6291.750507,1608.800546
1357.825833,6809.894666,-6291.750507,1149.143247
1357.826163,6883.915261,-6439.791695,1455.581446
1357.826492,6735.874072,-5921.647536,689.485948
1357.826822,6809.894666,-6365.771101,842.705048
1357.827152,7031.956449,-6513.812290,1072.533697
1357.827481,7328.038826,-6661.853478,919.314598
1357.827811,6809.894666,-6439.791695,1225.752797
1357.828140,7031.956449,-7105.977043,995.924147
1357.828470,6735.874072,-6957.935855,1302.362347
1357.828800,6957.935855,-6513.812290,1225.752797
1357.829129,6809.894666,-7105.977043,842.705048
1357.829459,6735.874072,-6513.812290,995.924147
1357.829788,7105.977043,-6661.853478,919.314598
1357.830118,6587.832884,-6291.750507,842.705048
1357.830448,6809.894666,-5921.647536,1149.143247
1357.830777,7105.977043,-6291.750507,766.095498
1357.831107,7328.038826,-5625.565159,1072.533697
1357.831436,7179.997637,-5181.441594,766.095498
1357.831766,8068.244768,-5847.626942,995.924147
1357.832095,8586.388927,-5921.647536,1532.190996
1357.832425,8586.388927,-5773.606348,842.705048
1357.832755,7550.100608,-6069.688724,612.876398
1357.833084,6587.832884,-7105.977043,536.266849
1357.833414,6957.935855,-6957.935855,-383.047749
1357.833743,6439.791695,-6365.771101,842.705048
1357.834073,7105.977043,-6809.894666,383.047749
1357.834403,7846.182985,-6217.729913,1455.581446
1357.834732,8438.347739,-5551.544565,1608.800546
1357.835062,8290.306550,-3997.112087,1072.533697
1357.835391,7772.162391,-4811.338623,1072.533697
1357.835721,7550.100608,-5033.400406,1455.581446
1357.836051,8364.327145,-4959.379811,1149.143247
1357.836380,8512.368333,-5403.503377,1302.362347
1357.836710,8142.265362,-4441.235652,1072.533697
1357.837039,7772.162391,-5921.647536,383.047749
1357.837369,8142.265362,-5181.441594,536.266849
1357.837698,8956.491898,-5477.523971,919.314598
1357.838028,9104.533087,-6439.791695,1072.533697
1357.838358,8290.306550,-5181.441594,536.266849
1357.838687,7624.121203,-5921.647536,383.047749
1357.839017,7920.203579,-5255.462188,919.314598
1357.839346,8438.347739,-5033.400406,1149.143247
1357.839676,8882.471304,-4293.194464,842.705048
1357.840006,9030.512492,-4145.153275,1455.581446
1357.840335,9474.636058,-4515.256246,1302.362347
1357.840665,9622.677246,-3034.844362,1608.800546
1357.840994,9548.656652,-3182.885551,1991.848295
1357.841324,9844.739029,-2368.659014,1378.971896
1357.841654,9770.718434,-2442.679609,1685.410096
1357.841983,10288.862594,-3701.029710,2068.457845
1357.842313,10066.800811,-3330.926739,1915.238745
1357.842642,9474.636058,-4367.215058,1915.238745
1357.842972,8882.471304,-4589.276840,1149.143247
1357.843301,8216.285956,-5107.421000,1225.752797
1357.843631,8364.327145,-5477.523971,1149.143247
1357.843961,8364.327145,-4811.338623,612.876398
1357.844290,7254.018232,-5403.503377,1149.143247
1357.844620,7772.162391,-5921.647536,612.876398
1357.844949,7920.203579,-6365.771101,1378.971896
1357.845279,7920.203579,-5255.462188,689.485948
1357.845609,8438.347739,-5329.482782,0.000000
1357.845938,7772.162391,-5477.523971,229.828649
1357.846268,8882.471304,-4515.256246,153.219100
1357.846597,10214.842000,-4071.132681,842.705048
1357.846927,11251.130318,-3034.844362,842.705048
1357.847257,10658.965565,-3701.029710,1455.581446
1357.847586,9770.718434,-3404.947333,1378.971896
1357.847916,9622.677246,-3552.988522,1072.533697
1357.848245,9178.553681,-4219.173869,766.095498
1357.848575,8660.409521,-4071.132681,1378.971896
1357.848904,8512.368333,-4737.318029,1225.752797
1357.849234,8956.491898,-4071.132681,1532.190996
1357.849564,9030.512492,-4367.215058,2068.457845
1357.849893,9104.533087,-3849.070898,1915.238745
1357.850223,9104.533087,-3997.112087,1608.800546
1357.850552,8438.347739,-4293.194464,1685.410096
1357.850882,8734.430116,-4219.173869,689.485948
1357.851212,8586.388927,-4145.153275,536.266849
1357.851541,9104.533087,-4663.297435,612.876398
1357.851871,9474.636058,-4737.318029,229.828649
1357.852200,9622.677246,-4589.276840,689.485948
1357.852530,9326.594869,-4737.318029,229.828649
1357.852860,8808.450710,-5403.503377,0.000000
1357.853189,8660.409521,-5477.523971,-459.657299
1357.853519,7328.038826,-6365.771101,0.000000
1357.853848,7846.182985,-6513.812290,842.705048
1357.854178,8586.388927,-5403.503377,1762.019645
1357.854507,9252.574275,-5255.462188,1915.238745
1357.854837,8808.450710,-4515.256246,2757.943793
1357.855167,9178.553681,-3997.112087,2298.286494
1357.855496,9622.677246,-2886.803174,1915.238745
1357.855826,9918.759623,-2072.576638,1685.410096
1357.856155,10288.862594,-1406.391290,1378.971896
1357.856485,10288.862594,-1332.370696,612.876398
1357.856815,10214.842000,-1776.494261,766.095498
1357.857144,9992.780217,-2368.659014,459.657299
1357.857474,9622.677246,-3997.112087,76.609550
1357.857803,9400.615463,-5329.482782,459.657299
1357.858133,8216.285956,-6883.915261,-306.438199
1357.858463,7031.956449,-9030.512492,306.438199
1357.858792,6143.709319,-9252.574275,306.438199
1357.859122,6883.915261,-8734.430116,229.828649
1357.859451,6883.915261,-7328.038826,459.657299
1357.859781,6809.894666,-5921.647536,919.314598
1357.860111,7476.080014,-4959.379811,995.924147
1357.860440,9030.512492,-3256.906145,1225.752797
1357.860770,9992.780217,-2442.679609,1838.629195
1357.861099,10436.903782,-1332.370696,1915.238745
1357.861429,10658.965565,-222.061783,1762.019645
1357.861758,11103.089130,0.000000,1149.143247
1357.862088,11621.233289,148.041188,919.314598
1357.862418,11843.295072,-1332.370696,1378.971896
1357.862747,12509.480420,-2072.576638,1608.800546
1357.863077,11547.212695,-3923.091493,1378.971896
1357.863406,9622.677246,-5181.441594,1149.143247
1357.863736,8216.285956,-7105.977043,1225.752797
1357.864066,6661.853478,-8882.471304,766.095498
1357.864395,5255.462188,-8808.450710,459.657299
1357.864725,4737.318029,-8364.327145,0.000000
1357.865054,5107.421000,-7254.018232,-383.047749
1357.865384,6439.791695,-7550.100608,153.219100
1357.865714,7698.141797,-5995.668130,612.876398
1357.866043,9030.512492,-3552.988522,1149.143247
1357.866373,9992.780217,-2812.782580,1225.752797
1357.866702,10510.924376,-1628.453072,1838.629195
1357.867032,10807.006753,-962.267725,1532.190996
1357.867361,11547.212695,-1110.308913,842.705048
1357.867691,11843.295072,-1258.350101,1455.581446
1357.868021,12139.377449,-1924.535449,1838.629195
1357.868350,12583.501014,-2738.761985,2451.505594
1357.868680,11547.212695,-4071.132681,2757.943793
1357.869009,9622.677246,-5995.668130,1915.238745
1357.869339,7105.977043,-6735.874072,995.924147
1357.869669,5107.421000,-7402.059420,-306.438199
1357.869998,3478.967927,-8586.388927,-689.485948
1357.870328,3552.988522,-8882.471304,-229.828649
1357.870657,4663.297435,-7772.162391,-383.047749
1357.870987,6661.853478,-5255.462188,76.609550
1357.871317,8956.491898,-4293.194464,995.924147
1357.871646,10658.965565,-4071.132681,1532.190996
1357.871976,11325.150913,-3478.967927,2068.457845
1357.872305,10807.006753,-3182.885551,1915.238745
1357.872635,9474.636058,-3849.070898,1225.752797
1357.872964,8734.430116,-4441.235652,919.314598
1357.873294,8808.450710,-5255.462188,919.314598
1357.873624,8956.491898,-6735.874072,1762.019645
1357.873953,8808.450710,-8808.450710,2145.067394
1357.874283,7179.997637,-8512.368333,2145.067394
1357.874612,6143.709319,-7328.038826,536.266849
1357.874942,5255.462188,-6587.832884,76.609550
1357.875272,5033.400406,-5403.503377,-229.828649
1357.875601,5995.668130,-4663.297435,-919.314598
1357.875931,6439.791695,-5107.421000,689.485948
1357.876260,8660.409521,-4737.318029,689.485948
1357.876590,9400.615463,-3923.091493,1072.533697
1357.876920,8290.306550,-5255.462188,383.047749
1357.877249,8068.244768,-5995.668130,306.438199
1357.877579,7624.121203,-7328.038826,1149.143247
1357.877908,7105.977043,-9104.533087,1378.971896
1357.878238,6883.915261,-7994.224174,1302.362347
1357.878567,6291.750507,-7772.162391,1455.581446
1357.878897,6809.894666,-7031.956449,1072.533697
1357.879227,6291.750507,-6587.832884,612.876398
1357.879556,6513.812290,-6883.915261,1455.581446
1357.879886,7402.059420,-6365.771101,1455.581446
1357.880215,7254.018232,-6069.688724,1455.581446
1357.880545,5847.626942,-5403.503377,306.438199
1357.880875,4885.359217,-5625.565159,459.657299
1357.881204,5921.647536,-6439.791695,459.657299
1357.881534,7105.977043,-5921.647536,2757.943793
1357.881863,8808.450710,-5255.462188,3600.648841
1357.882193,9400.615463,-4071.132681,3217.601092
1357.882522,8512.368333,-2220.617826,1915.238745
1357.882852,7994.224174,-3923.091493,383.047749
1357.883181,8364.327145,-4737.318029,919.314598
1357.883511,7994.224174,-7105.977043,1762.019645
1357.883840,7328.038826,-8438.347739,2528.115143
1357.884170,5773.606348,-7179.997637,1378.971896
1357.884499,5403.503377,-6291.750507,0.000000
1357.884829,5477.523971,-8142.265362,0.000000
1357.885158,5255.462188,-8882.471304,1225.752797
1357.885488,6069.688724,-8364.327145,1149.143247
1357.885818,5995.668130,-7031.956449,689.485948
1357.886147,6069.688724,-5329.482782,-76.609550
1357.886477,7105.977043,-5477.523971,306.438199
1357.886806,7624.121203,-7550.100608,1762.019645
1357.887136,8068.244768,-9178.553681,2298.286494
1357.887465,7846.182985,-8068.244768,2221.676944
1357.887795,6883.915261,-6957.935855,842.705048
1357.888124,5477.523971,-7179.997637,536.266849
1357.888454,5625.565159,-8956.491898,0.000000
1357.888783,5625.565159,-9548.656652,766.095498
1357.889113,5773.606348,-9252.574275,1685.410096
1357.889442,6513.812290,-5477.523971,1455.581446
1357.889772,7402.059420,-3108.864956,1378.971896
1357.890101,7994.224174,-3330.926739,1149.143247
1357.890431,8586.388927,-3997.112087,1302.362347
1357.890760,8586.388927,-4737.318029,1455.581446
1357.891090,7920.203579,-4589.276840,995.924147
1357.891419,7105.977043,-4885.359217,919.314598
1357.891749,7105.977043,-4663.297435,306.438199
1357.892078,7772.162391,-6587.832884,459.657299
1357.892408,7031.956449,-9770.718434,1532.190996
1357.892737,7105.977043,-9030.512492,2068.457845
1357.893067,7031.956449,-7624.121203,1225.752797
1357.893396,6217.729913,-5255.462188,229.828649
1357.893726,6069.688724,-5255.462188,76.609550
1357.894055,7105.977043,-6883.915261,1685.410096
1357.894385,6661.853478,-6957.935855,1225.752797
1357.894714,6217.729913,-6883.915261,1378.971896
1357.895044,6217.729913,-4811.338623,766.095498
1357.895373,6735.874072,-4515.256246,229.828649
1357.895703,7105.977043,-6957.935855,383.047749
1357.896032,6439.791695,-9770.718434,1072.533697
1357.896362,7105.977043,-9104.533087,1149.143247
1357.896691,6883.915261,-6957.935855,383.047749
1357.897021,6883.915261,-4959.379811,612.876398
1357.897350,8068.244768,-5625.565159,459.657299
1357.897680,8438.347739,-8216.285956,842.705048
1357.898009,7624.121203,-8660.409521,1608.800546
1357.898339,7031.956449,-7476.080014,1532.190996
1357.898669,6069.688724,-4737.318029,689.485948
1357.898998,5847.626942,-5181.441594,-229.828649
1357.899328,5625.565159,-7105.977043,383.047749
1357.899657,6143.709319,-7994.224174,1302.362347
1357.899987,7179.997637,-7402.059420,1685.410096
1357.900316,7624.121203,-4219.173869,1455.581446
1357.900646,7994.224174,-3256.906145,536.266849
1357.900975,8512.368333,-3997.112087,1072.533697
1357.901305,8438.347739,-6957.935855,1915.238745
1357.901634,9104.533087,-7772.162391,1991.848295
1357.901964,7772.162391,-6735.874072,1838.629195
1357.902293,6661.853478,-5699.585753,229.828649
1357.902623,5625.565159,-6291.750507,153.219100
1357.902952,5625.565159,-8586.388927,995.924147
1357.903282,5995.668130,-10288.862594,1685.410096
1357.903611,5921.647536,-8216.285956,1915.238745
1357.903941,5773.606348,-5181.441594,612.876398
1357.904270,6661.853478,-3552.988522,0.000000
1357.904600,7920.203579,-4885.359217,1302.362347
1357.904929,8290.306550,-6957.935855,1685.410096
1357.905259,8882.471304,-7179.997637,2451.505594
1357.905588,8142.265362,-4663.297435,1225.752797
1357.905918,7105.977043,-3997.112087,0.000000
1357.906247,7105.977043,-5477.523971,306.438199
1357.906577,7402.059420,-8956.491898,1225.752797
1357.906906,7105.977043,-10288.862594,2604.724693
1357.907236,5773.606348,-7179.997637,1072.533697
1357.907565,5403.503377,-5403.503377,-842.705048
1357.907895,5255.462188,-5773.606348,0.000000
1357.908224,6587.832884,-6513.812290,1532.190996
1357.908554,7698.141797,-7846.182985,2451.505594
1357.908883,7920.203579,-6587.832884,2911.162892
1357.909213,7105.977043,-5107.421000,689.485948
1357.909542,6217.729913,-4515.256246,153.219100
1357.909872,6587.832884,-5921.647536,459.657299
1357.910201,7476.080014,-8882.471304,842.705048
1357.910531,7328.038826,-9548.656652,1915.238745
1357.910860,7476.080014,-6661.853478,1455.581446
1357.911190,7624.121203,-4293.194464,0.000000
1357.911519,7254.018232,-4589.276840,0.000000
1357.911849,7254.018232,-6957.935855,459.657299
1357.912179,7698.141797,-9474.636058,1149.143247
1357.912508,7105.977043,-8290.306550,1991.848295
1357.912838,6809.894666,-5107.421000,536.266849
1357.913167,5847.626942,-5033.400406,-229.828649
1357.913497,5995.668130,-7254.018232,689.485948
1357.913826,7254.018232,-8586.388927,1455.581446
1357.914156,7254.018232,-8438.347739,2374.896044
1357.914485,7254.018232,-5107.421000,1302.362347
1357.914815,7402.059420,-3478.967927,76.609550
1357.915144,7698.141797,-3478.967927,229.828649
1357.915474,8142.265362,-6661.853478,1225.752797
1357.915803,7920.203579,-7994.224174,2068.457845
1357.916133,7179.997637,-6587.832884,1532.190996
1357.916462,5773.606348,-6069.688724,306.438199
1357.916792,4885.359217,-6291.750507,153.219100
1357.917121,4811.338623,-8438.347739,612.876398
1357.917451,5255.462188,-10881.027347,1149.143247
1357.917780,5477.523971,-9696.697840,1685.410096
1357.918110,6513.812290,-6587.832884,1455.581446
1357.918439,7624.121203,-4589.276840,689.485948
1357.918769,8512.368333,-3997.112087,842.705048
1357.919098,7698.141797,-6143.709319,1608.800546
1357.919428,7994.224174,-7105.977043,1685.410096
1357.919757,8216.285956,-5551.544565,2528.115143
1357.920087,7476.080014,-3701.029710,842.705048
1357.920416,6513.812290,-4219.173869,153.219100
1357.920746,5995.668130,-7254.018232,612.876398
1357.921075,6661.853478,-8808.450710,1685.410096
1357.921405,7105.977043,-8216.285956,1762.019645
1357.921734,7105.977043,-5477.523971,995.924147
1357.922064,6883.915261,-4293.194464,536.266849
1357.922393,6809.894666,-5551.544565,612.876398
1357.922723,7105.977043,-6883.915261,2681.334243
1357.923052,7772.162391,-7772.162391,2221.676944
1357.923382,8068.244768,-6661.853478,2298.286494
1357.923711,7179.997637,-4885.359217,1302.362347
1357.924041,5921.647536,-5403.503377,229.828649
1357.924370,5255.462188,-7476.080014,995.924147
1357.924700,5477.523971,-9178.553681,1225.752797
1357.925029,5921.647536,-8438.347739,995.924147
1357.925359,6143.709319,-5699.585753,306.438199
1357.925689,6661.853478,-4737.318029,-306.438199
1357.926018,7698.141797,-5773.606348,459.657299
1357.926348,7624.121203,-8290.306550,1532.190996
1357.926677,7254.018232,-9474.636058,1762.019645
1357.927007,6661.853478,-7402.059420,766.095498
1357.927336,6661.853478,-5033.400406,0.000000
1357.927666,6439.791695,-6587.832884,153.219100
1357.927995,7105.977043,-7920.203579,1532.190996
1357.928325,7772.162391,-8438.347739,2451.505594
1357.928654,7550.100608,-6365.771101,1302.362347
1357.928984,7179.997637,-3330.926739,459.657299
1357.929313,7550.100608,-3923.091493,612.876398
1357.929643,8660.409521,-5107.421000,1378.971896
1357.929972,7920.203579,-6513.812290,2145.067394
1357.930302,7179.997637,-6365.771101,2374.896044
1357.930631,6661.853478,-5625.565159,612.876398
1357.930961,6365.771101,-5625.565159,612.876398
1357.931290,6217.729913,-7105.977043,0.000000
1357.931620,5921.647536,-9252.574275,766.095498
1357.931949,5847.626942,-9474.636058,1378.971896
1357.932279,5921.647536,-8290.306550,229.828649
1357.932608,6661.853478,-5033.400406,612.876398
1357.932938,7920.203579,-4515.256246,766.095498
1357.933267,8512.368333,-5551.544565,459.657299
1357.933597,7624.121203,-6513.812290,1762.019645
1357.933926,7031.956449,-7254.018232,1225.752797
1357.934256,7105.977043,-5847.626942,536.266849
1357.934585,6735.874072,-4885.359217,0.000000
1357.934915,6735.874072,-7179.997637,612.876398
1357.935244,6439.791695,-8364.327145,1608.800546
1357.935574,6883.915261,-9474.636058,2068.457845
1357.935903,6513.812290,-7031.956449,766.095498
1357.936233,6513.812290,-4959.379811,76.609550
1357.936562,6957.935855,-4811.338623,153.219100
1357.936892,7920.203579,-5995.668130,919.314598
1357.937221,7624.121203,-8290.306550,2068.457845
1357.937551,6883.915261,-7105.977043,1762.019645
1357.937880,6365.771101,-5995.668130,1149.143247
1357.938210,6217.729913,-4811.338623,153.219100
1357.938540,6291.750507,-6513.812290,383.047749
1357.938869,6809.894666,-8734.430116,1455.581446
1357.939199,7105.977043,-7920.203579,2145.067394
1357.939528,7698.141797,-6587.832884,842.705048
1357.939858,7698.141797,-4071.132681,919.314598
1357.940187,7550.100608,-3701.029710,919.314598
1357.940517,8290.306550,-6661.853478,612.876398
1357.940846,7402.059420,-7254.018232,2681.334243
1357.941176,7254.018232,-7920.203579,1991.848295
1357.941505,7179.997637,-5107.421000,612.876398
1357.941835,6365.771101,-4663.297435,0.000000
1357.942164,6661.853478,-7550.100608,536.266849
1357.942494,7550.100608,-8956.491898,1532.190996
1357.942823,6365.771101,-7920.203579,1838.629195
1357.943153,6143.709319,-5847.626942,459.657299
1357.943482,6587.832884,-3849.070898,153.219100
1357.943812,7328.038826,-4737.318029,536.266849
1357.944141,8586.388927,-7476.080014,2298.286494
1357.944471,8216.285956,-7994.224174,2681.334243
1357.944800,7550.100608,-6587.832884,1991.848295
1357.945130,6365.771101,-5033.400406,306.438199
1357.945459,5625.565159,-5329.482782,689.485948
1357.945789,5847.626942,-8512.368333,459.657299
1357.946118,5255.462188,-10140.821405,766.095498
1357.946448,4663.297435,-9104.533087,1455.581446
1357.946777,5403.503377,-5773.606348,-76.609550
1357.947107,6957.935855,-3478.967927,-306.438199
1357.947436,8142.265362,-4737.318029,995.924147
1357.947766,8956.491898,-7476.080014,1685.410096
1357.948095,8512.368333,-7698.141797,2528.115143
1357.948425,7105.977043,-6143.709319,1532.190996
1357.948754,6513.812290,-4441.235652,0.000000
1357.949084,6735.874072,-4737.318029,306.438199
1357.949413,7476.080014,-7772.162391,842.705048
1357.949743,7105.977043,-8808.450710,2145.067394
1357.950072,7031.956449,-7402.059420,1685.410096
1357.950402,6809.894666,-5329.482782,612.876398
1357.950731,7105.977043,-3997.112087,383.047749
1357.951061,7179.997637,-5995.668130,995.924147
1357.951390,7254.018232,-8290.306550,1762.019645
1357.951720,7254.018232,-8586.388927,1915.238745
1357.952050,6439.791695,-7254.018232,1072.533697
1357.952379,6143.709319,-4737.318029,-536.266849
1357.952709,5551.544565,-7105.977043,153.219100
1357.953038,6365.771101,-8512.368333,459.657299
1357.953368,6439.791695,-9844.739029,1532.190996
1357.953697,6291.750507,-8216.285956,1225.752797
1357.954027,6513.812290,-5033.400406,306.438199
1357.954356,7476.080014,-4219.173869,383.047749
1357.954686,7328.038826,-5477.523971,1225.752797
1357.955015,7402.059420,-8290.306550,1685.410096
1357.955345,7772.162391,-7698.141797,2374.896044
1357.955674,7254.018232,-5255.462188,919.314598
1357.956004,6735.874072,-4885.359217,459.657299
1357.956333,6587.832884,-5181.441594,229.828649
1357.956663,7402.059420,-7476.080014,842.705048
1357.956992,7550.100608,-8364.327145,2374.896044
1357.957322,7105.977043,-6291.750507,2221.676944
1357.957651,7698.141797,-4737.318029,919.314598
1357.957981,7476.080014,-3701.029710,689.485948
1357.958310,7624.121203,-5699.585753,1455.581446
1357.958640,8512.368333,-7328.038826,2298.286494
1357.958969,8068.244768,-7105.977043,2068.457845
1357.959299,6809.894666,-6069.688724,1149.143247
1357.959628,6735.874072,-5699.585753,612.876398
1357.959958,5995.668130,-7105.977043,766.095498
1357.960287,5847.626942,-9252.574275,1225.752797
1357.960617,5181.441594,-8586.388927,1838.629195
1357.960946,5773.606348,-6291.750507,1302.362347
1357.961276,6809.894666,-4293.194464,536.266849
1357.961605,7772.162391,-3627.009116,229.828649
1357.961935,7994.224174,-5033.400406,1225.752797
1357.962264,8660.409521,-7550.100608,2451.505594
1357.962594,7994.224174,-7105.977043,2145.067394
1357.962923,7105.977043,-4515.256246,229.828649
1357.963253,6143.709319,-5107.421000,76.609550
1357.963582,6143.709319,-7105.977043,229.828649
1357.963912,6809.894666,-9030.512492,1455.581446
1357.964241,6587.832884,-9474.636058,1762.019645
1357.964571,6513.812290,-6587.832884,842.705048
1357.964900,6661.853478,-4737.318029,459.657299
1357.965230,7476.080014,-5033.400406,689.485948
1357.965560,7550.100608,-7550.100608,1532.190996
1357.965889,7105.977043,-7994.224174,1915.238745
1357.966219,6439.791695,-7698.141797,919.314598
1357.966548,5995.668130,-6069.688724,459.657299
1357.966878,5403.503377,-6217.729913,-536.266849
1357.967207,5995.668130,-8068.244768,306.438199
1357.967537,6513.812290,-9770.718434,1225.752797
1357.967866,6513.812290,-9474.636058,1072.533697
1357.968196,6365.771101,-5921.647536,383.047749
1357.968525,7031.956449,-4367.215058,76.609550
1357.968855,7994.224174,-5625.565159,612.876398
1357.969184,8068.244768,-6957.935855,1532.190996
1357.969514,7402.059420,-8364.327145,1991.848295
1357.969843,6735.874072,-6291.750507,1532.190996
1357.970173,6439.791695,-4959.379811,459.657299
1357.970502,5921.647536,-5477.523971,0.000000
1357.970832,6365.771101,-7476.080014,306.438199
1357.971161,6809.894666,-8438.347739,1532.190996
1357.971491,7179.997637,-7846.182985,1072.533697
1357.971820,7476.080014,-5625.565159,1149.143247
1357.972150,7772.162391,-3627.009116,229.828649
1357.972479,8290.306550,-4515.256246,919.314598
1357.972809,8808.450710,-6365.771101,1302.362347
1357.973138,7624.121203,-6957.935855,2528.115143
1357.973468,7328.038826,-6069.688724,1838.629195
1357.973797,7031.956449,-5181.441594,919.314598
1357.974127,5773.606348,-5847.626942,383.047749
1357.974456,5625.565159,-8290.306550,689.485948
1357.974786,5625.565159,-9400.615463,1378.971896
1357.975115,5995.668130,-8364.327145,919.314598
1357.975445,6513.812290,-5699.585753,536.266849
1357.975774,7105.977043,-4663.297435,459.657299
1357.976104,7550.100608,-5329.482782,229.828649
1357.976433,7402.059420,-7031.956449,1915.238745
1357.976763,7402.059420,-7698.141797,1762.019645
1357.977092,7920.203579,-5551.544565,919.314598
1357.977422,6809.894666,-4367.215058,306.438199
1357.977751,6809.894666,-5921.647536,306.438199
1357.978081,6883.915261,-7994.224174,1072.533697
1357.978411,7105.977043,-8216.285956,1838.629195
1357.978740,6809.894666,-6365.771101,689.485948
1357.979070,6735.874072,-4589.276840,229.828649
1357.979399,7254.018232,-3923.091493,383.047749
1357.979729,8438.347739,-5921.647536,1225.752797
1357.980058,8364.327145,-7476.080014,1991.848295
1357.980388,7624.121203,-7105.977043,1915.238745
1357.980717,6217.729913,-6587.832884,612.876398
1357.981046,5551.544565,-5847.626942,-229.828649
1357.981376,5329.482782,-7624.121203,0.000000
1357.981705,5847.626942,-9622.677246,1072.533697
1357.982034,5995.668130,-9474.636058,1915.238745
1357.982364,6217.729913,-7179.997637,1149.143247
1357.982693,6439.791695,-4737.318029,153.219100
1357.983022,7328.038826,-4663.297435,459.657299
1357.983352,7994.224174,-6439.791695,1685.410096
1357.983681,7772.162391,-7402.059420,2068.457845
1357.984010,7624.121203,-7179.997637,1915.238745
1357.984340,7772.162391,-4589.276840,1225.752797
1357.984669,7402.059420,-4441.235652,536.266849
1357.984998,7105.977043,-7031.956449,766.095498
1357.985328,6735.874072,-8438.347739,1225.752797
1357.985657,6587.832884,-8512.368333,1302.362347
1357.985986,6365.771101,-6513.812290,919.314598
1357.986316,6291.750507,-4589.276840,229.828649
1357.986645,7031.956449,-4737.318029,536.266849
1357.986974,7698.141797,-7476.080014,1378.971896
1357.987303,7846.182985,-6883.915261,2145.067394
1357.987633,7105.977043,-7402.059420,1838.629195
1357.987962,5995.668130,-6291.750507,1225.752797
1357.988291,6143.709319,-5551.544565,153.219100
1357.988621,6439.791695,-8068.244768,842.705048
1357.988950,6661.853478,-8956.491898,1608.800546
1357.989279,6217.729913,-8586.388927,2374.896044
1357.989609,6587.832884,-5625.565159,1608.800546
1357.989938,6883.915261,-3404.947333,-229.828649
1357.990267,7179.997637,-3997.112087,229.828649
1357.990597,7698.141797,-7402.059420,1072.533697
1357.990926,8734.430116,-8586.388927,1072.533697
1357.991255,7105.977043,-6365.771101,1302.362347
1357.991585,6587.832884,-5477.523971,306.438199
1357.991914,6883.915261,-5403.503377,76.609550
1357.992243,7031.956449,-7624.121203,1149.143247
1357.992573,7105.977043,-9104.533087,1762.019645
1357.992902,7179.997637,-7698.141797,1685.410096
1357.993231,7105.977043,-4737.318029,842.705048
1357.993561,7105.977043,-4663.297435,0.000000
1357.993890,7476.080014,-4367.215058,995.924147
1357.994219,8068.244768,-6365.771101,1608.800546
1357.994549,7772.162391,-7698.141797,1838.629195
1357.994878,6809.894666,-6217.729913,1838.629195
1357.995207,6439.791695,-5033.400406,306.438199
1357.995536,6587.832884,-5995.668130,383.047749
1357.995866,5921.647536,-8216.285956,766.095498
1357.996195,5847.626942,-10288.862594,1149.143247
1357.996524,5773.606348,-8956.491898,1915.238745
1357.996854,6957.935855,-6069.688724,1378.971896
1357.997183,7105.977043,-4219.173869,-229.828649
1357.997512,6957.935855,-5255.462188,766.095498
1357.997842,7698.141797,-6883.915261,1532.190996
1357.998171,7920.203579,-8068.244768,1762.019645
1357.998500,7105.977043,-5181.441594,2068.457845
1357.998830,7105.977043,-4145.153275,153.219100
1357.999159,6957.935855,-4663.297435,0.000000
1357.999488,6587.832884,-7846.182985,1685.410096
1357.999818,6883.915261,-9326.594869,1455.581446
1358.000147,6957.935855,-6513.812290,1378.971896
1358.000476,7624.121203,-4737.318029,689.485948
1358.000806,8142.265362,-4145.153275,612.876398
1358.001135,8290.306550,-5107.421000,1302.362347
1358.001464,8068.244768,-7476.080014,1378.971896
1358.001794,7328.038826,-7328.038826,2068.457845
1358.002123,6513.812290,-6217.729913,1072.533697
1358.002452,5625.565159,-6069.688724,0.000000
1358.002782,5107.421000,-7179.997637,153.219100
1358.003111,5477.523971,-9400.615463,1072.533697
1358.003440,4959.379811,-10288.862594,1072.533697
1358.003769,5403.503377,-8586.388927,1302.362347
1358.004099,6587.832884,-5625.565159,536.266849
1358.004428,7402.059420,-4071.132681,536.266849
1358.004757,7994.224174,-5921.647536,766.095498
1358.005087,7550.100608,-7846.182985,1762.019645
1358.005416,7698.141797,-8142.265362,1838.629195
1358.005745,7846.182985,-5181.441594,995.924147
1358.006075,7179.997637,-3923.091493,1149.143247
1358.006404,7031.956449,-5847.626942,229.828649
1358.006733,6957.935855,-7994.224174,1225.752797
1358.007063,6587.832884,-8512.368333,1455.581446
1358.007392,6661.853478,-6143.709319,919.314598
1358.007721,7105.977043,-4293.194464,153.219100
1358.008051,7179.997637,-4515.256246,459.657299
1358.008380,7550.100608,-5773.606348,766.095498
1358.008709,7550.100608,-7994.224174,1685.410096
1358.009039,7402.059420,-8068.244768,1838.629195
1358.009368,6957.935855,-5995.668130,842.705048
1358.009697,5995.668130,-5921.647536,0.000000
1358.010027,5773.606348,-7179.997637,153.219100
1358.010356,5995.668130,-9030.512492,1302.362347
1358.010685,6661.853478,-9400.615463,1608.800546
1358.011014,6809.894666,-6587.832884,1225.752797
1358.011344,7179.997637,-4219.173869,612.876398
1358.011673,7772.162391,-3701.029710,0.000000
1358.012002,7624.121203,-5181.441594,1149.143247
1358.012332,8660.409521,-7328.038826,2068.457845
1358.012661,8068.244768,-6587.832884,1608.800546
1358.012990,8142.265362,-4441.235652,1149.143247
1358.013320,7772.162391,-3923.091493,612.876398
1358.013649,7254.018232,-5625.565159,689.485948
1358.013978,6217.729913,-7920.203579,1149.143247
1358.014308,6587.832884,-7698.141797,1532.190996
1358.014637,7105.977043,-5699.585753,842.705048
1358.014966,7476.080014,-4589.276840,153.219100
1358.015296,7105.977043,-4959.379811,612.876398
1358.015625,7698.141797,-7105.977043,1378.971896
1358.015954,7920.203579,-8364.327145,2298.286494
1358.016284,7772.162391,-6661.853478,2221.676944
1358.016613,6957.935855,-5995.668130,919.314598
1358.016942,5773.606348,-5699.585753,0.000000
1358.017272,5477.523971,-8068.244768,0.000000
1358.017601,5329.482782,-10288.862594,1225.752797
1358.017930,5699.585753,-9030.512492,1225.752797
1358.018260,6365.771101,-6439.791695,612.876398
1358.018589,6957.935855,-4737.318029,536.266849
1358.018918,7402.059420,-5329.482782,306.438199
1358.019247,7328.038826,-7698.141797,1455.581446
1358.019577,6735.874072,-8734.430116,1608.800546
1358.019906,6513.812290,-7179.997637,919.314598
1358.020235,5699.585753,-5329.482782,-229.828649
1358.020565,6217.729913,-6439.791695,229.828649
1358.020894,7179.997637,-8216.285956,1072.533697
1358.021223,7402.059420,-8512.368333,1685.410096
1358.021553,7920.203579,-7402.059420,1608.800546
1358.021882,8512.368333,-4367.215058,995.924147
1358.022211,8660.409521,-2960.823768,1072.533697
1358.022541,8512.368333,-4071.132681,1378.971896
1358.022870,7846.182985,-5551.544565,1685.410096
1358.023199,7772.162391,-6809.894666,2068.457845
1358.023529,7698.141797,-6069.688724,1608.800546
1358.023858,6957.935855,-5255.462188,995.924147
1358.024187,6217.729913,-5921.647536,76.609550
1358.024517,5255.462188,-8660.409521,153.219100
1358.024846,4811.338623,-10510.924376,1532.190996
1358.025175,5625.565159,-8808.450710,1455.581446
1358.025505,6809.894666,-5921.647536,689.485948
1358.025834,6217.729913,-4219.173869,1378.971896
1358.026163,7105.977043,-5551.544565,689.485948
1358.026493,7772.162391,-7179.997637,1532.190996
1358.026822,7328.038826,-7254.018232,1991.848295
1358.027151,7105.977043,-6069.688724,1072.533697
1358.027480,7179.997637,-4219.173869,383.047749
1358.027810,7179.997637,-5255.462188,612.876398
1358.028139,7179.997637,-7254.018232,1072.533697
1358.028468,7179.997637,-7698.141797,1915.238745
1358.028798,6957.935855,-6069.688724,1225.752797
1358.029127,6883.915261,-4737.318029,0.000000
1358.029456,7105.977043,-4219.173869,536.266849
1358.029786,7624.121203,-6513.812290,766.095498
1358.030115,7550.100608,-7624.121203,2298.286494
1358.030444,7105.977043,-7772.162391,2145.067394
1358.030774,6439.791695,-5995.668130,842.705048
1358.031103,6069.688724,-5403.503377,0.000000
1358.031432,6291.750507,-7402.059420,689.485948
1358.031762,6735.874072,-8660.409521,1762.019645
1358.032091,7105.977043,-8808.450710,1838.629195
1358.032420,6809.894666,-6291.750507,1378.971896
1358.032750,7476.080014,-3701.029710,153.219100
1358.033079,8068.244768,-4293.194464,612.876398
1358.033408,8512.368333,-6291.750507,1302.362347
1358.033738,7624.121203,-7846.182985,1532.190996
1358.034067,6735.874072,-7031.956449,1762.019645
1358.034396,5847.626942,-5921.647536,0.000000
1358.034725,5995.668130,-5625.565159,-306.438199
1358.035055,5847.626942,-7105.977043,689.485948
1358.035384,6661.853478,-9252.574275,1072.533697
1358.035713,6957.935855,-8438.347739,1685.410096
1358.036043,6587.832884,-6143.709319,842.705048
1358.036372,7328.038826,-4219.173869,689.485948
1358.036701,7994.224174,-4515.256246,919.314598
1358.037031,8660.409521,-6217.729913,1378.971896
1358.037360,8438.347739,-6735.874072,2068.457845
1358.037689,8068.244768,-6143.709319,1838.629195
1358.038019,7698.141797,-5625.565159,766.095498
1358.038348,6735.874072,-5921.647536,0.000000
1358.038677,5699.585753,-8216.285956,536.266849
1358.039007,5181.441594,-9844.739029,766.095498
1358.039336,5625.565159,-9918.759623,1838.629195
1358.039665,5255.462188,-7105.977043,919.314598
1358.039995,5847.626942,-4959.379811,0.000000
1358.040324,6661.853478,-5773.606348,995.924147
1358.040653,7254.018232,-6957.935855,995.924147
1358.040983,7550.100608,-7550.100608,1225.752797
1358.041312,6883.915261,-5995.668130,1532.190996
1358.041641,6735.874072,-5255.462188,536.266849
1358.041971,6735.874072,-5403.503377,229.828649
1358.042300,7698.141797,-6513.812290,1455.581446
1358.042629,7105.977043,-8512.368333,1608.800546
1358.042958,6735.874072,-7031.956449,1838.629195
1358.043288,6735.874072,-4737.318029,766.095498
1358.043617,7254.018232,-4367.215058,306.438199
1358.043946,8216.285956,-4737.318029,919.314598
1358.044276,7772.162391,-5995.668130,1225.752797
1358.044605,7920.203579,-7105.977043,2145.067394
1358.044934,8142.265362,-6217.729913,1915.238745
1358.045264,7624.121203,-5107.421000,1608.800546
1358.045593,6809.894666,-5921.647536,919.314598
1358.045922,6291.750507,-8142.265362,1302.362347
1358.046252,6291.750507,-8956.491898,1149.143247
1358.046581,5921.647536,-7994.224174,995.924147
1358.046910,5847.626942,-5181.441594,995.924147
1358.047240,6957.935855,-4441.235652,0.000000
1358.047569,7698.141797,-6069.688724,612.876398
1358.047898,7698.141797,-7550.100608,1685.410096
1358.048228,7254.018232,-7772.162391,1455.581446
1358.048557,6291.750507,-5551.544565,1072.533697
1358.048886,6439.791695,-5403.503377,0.000000
1358.049216,7031.956449,-6735.874072,76.609550
1358.049545,7328.038826,-7920.203579,1378.971896
1358.049874,7254.018232,-8882.471304,1532.190996
1358.050204,7328.038826,-7031.956449,919.314598
1358.050533,7105.977043,-4441.235652,536.266849
1358.050862,7402.059420,-4441.235652,76.609550
1358.051191,7846.182985,-5847.626942,766.095498
1358.051521,7772.162391,-7105.977043,1685.410096
1358.051850,7254.018232,-7476.080014,1608.800546
1358.052179,6883.915261,-6143.709319,766.095498
1358.052509,6143.709319,-5699.585753,306.438199
1358.052838,6587.832884,-7476.080014,995.924147
1358.053167,6365.771101,-9104.533087,1302.362347
1358.053497,5847.626942,-8290.306550,1072.533697
1358.053826,6069.688724,-7402.059420,689.485948
1358.054155,6587.832884,-5255.462188,153.219100
1358.054485,7476.080014,-4959.379811,689.485948
1358.054814,7772.162391,-6365.771101,1149.143247
1358.055143,7550.100608,-7105.977043,2068.457845
1358.055473,7476.080014,-7328.038826,1455.581446
1358.055802,7031.956449,-5551.544565,1532.190996
1358.056131,7254.018232,-5033.400406,459.657299
1358.056461,6809.894666,-7105.977043,76.609550
1358.056790,5847.626942,-8660.409521,1225.752797
1358.057119,5699.585753,-9400.615463,1378.971896
1358.057449,5847.626942,-6883.915261,842.705048
1358.057778,6365.771101,-4811.338623,0.000000
1358.058107,7105.977043,-5255.462188,306.438199
1358.058437,8068.244768,-6365.771101,1608.800546
1358.058766,8364.327145,-7328.038826,2757.943793
1358.059095,7920.203579,-5551.544565,2451.505594
1358.059424,7402.059420,-4663.297435,1302.362347
1358.059754,7254.018232,-4663.297435,919.314598
1358.060083,7328.038826,-7031.956449,1455.581446
1358.060412,6513.812290,-9474.636058,2221.676944
1358.060742,5033.400406,-8808.450710,2068.457845
1358.061071,5255.462188,-5773.606348,383.047749
1358.061400,5995.668130,-4145.153275,76.609550
1358.061730,6735.874072,-5329.482782,383.047749
1358.062059,7994.224174,-7179.997637,1378.971896
1358.062388,7624.121203,-8512.368333,2451.505594
1358.062718,7031.956449,-7105.977043,1608.800546
1358.063047,6291.750507,-4959.379811,306.438199
1358.063376,5773.606348,-5329.482782,0.000000
1358.063706,5847.626942,-7105.977043,536.266849
1358.064035,6735.874072,-9030.512492,1532.190996
1358.064364,7031.956449,-7772.162391,1532.190996
1358.064694,7920.203579,-4811.338623,1532.190996
1358.065023,8808.450710,-3478.967927,995.924147
1358.065352,8512.368333,-4441.235652,919.314598
1358.065682,7994.224174,-6735.874072,1762.019645
1358.066011,7105.977043,-7105.977043,2374.896044
1358.066340,6809.894666,-5995.668130,383.047749
1358.066669,6365.771101,-5625.565159,689.485948
1358.066999,6217.729913,-6513.812290,459.657299
1358.067328,6513.812290,-8808.450710,306.438199
1358.067657,5995.668130,-9770.718434,1225.752797
1358.067987,5329.482782,-8290.306550,1685.410096
1358.068316,7105.977043,-5255.462188,229.828649
1358.068645,7254.018232,-3997.112087,0.000000
1358.068975,7846.182985,-5403.503377,842.705048
1358.069304,7994.224174,-7476.080014,1302.362347
1358.069633,8364.327145,-6957.935855,2451.505594
1358.069963,7698.141797,-5773.606348,1608.800546
1358.070292,7550.100608,-4145.153275,306.438199
1358.070621,7179.997637,-5625.565159,459.657299
1358.070951,6513.812290,-8586.388927,842.705048
1358.071280,6143.709319,-9400.615463,995.924147
1358.071609,6069.688724,-7105.977043,919.314598
1358.071939,6143.709319,-5107.421000,0.000000
1358.072268,7105.977043,-4515.256246,0.000000
1358.072597,7846.182985,-6217.729913,1302.362347
1358.072927,7698.141797,-7772.162391,1915.238745
1358.073256,6883.915261,-7846.182985,1455.581446
1358.073585,6217.729913,-5995.668130,689.485948
1358.073915,6365.771101,-4737.318029,0.000000
1358.074244,6735.874072,-6661.853478,229.828649
1358.074573,7328.038826,-9030.512492,1608.800546
1358.074902,6809.894666,-9326.594869,2221.676944
1358.075232,7105.977043,-6513.812290,1685.410096
1358.075561,7105.977043,-4219.173869,76.609550
1358.075890,7254.018232,-4071.132681,0.000000
1358.076220,7550.100608,-6365.771101,1072.533697
1358.076549,6957.935855,-8586.388927,1455.581446
1358.076878,6291.750507,-7994.224174,2068.457845
1358.077208,6365.771101,-5773.606348,1838.629195
1358.077537,7031.956449,-5995.668130,153.219100
1358.077866,5995.668130,-7105.977043,536.266849
1358.078196,5551.544565,-9474.636058,919.314598
1358.078525,5551.544565,-8882.471304,612.876398
1358.078854,6291.750507,-6143.709319,842.705048
1358.079184,7105.977043,-4441.235652,76.609550
1358.079513,8290.306550,-4515.256246,536.266849
1358.079842,8734.430116,-5995.668130,2068.457845
1358.080172,7772.162391,-8068.244768,2681.334243
1358.080501,8216.285956,-6513.812290,2451.505594
1358.080830,7846.182985,-4663.297435,1302.362347
1358.081160,7031.956449,-4885.359217,689.485948
1358.081489,5847.626942,-6587.832884,383.047749
1358.081818,5625.565159,-9104.533087,1149.143247
1358.082148,5403.503377,-9178.553681,1685.410096
1358.082477,6439.791695,-6513.812290,1072.533697
1358.082806,7328.038826,-4367.215058,766.095498
1358.083135,8290.306550,-4367.215058,1225.752797
1358.083465,7624.121203,-6069.688724,1838.629195
1358.083794,7105.977043,-7550.100608,1991.848295
1358.084123,6735.874072,-6291.750507,1915.238745
1358.084452,6957.935855,-4589.276840,459.657299
1358.084781,6809.894666,-5107.421000,229.828649
1358.085111,6439.791695,-7328.038826,1225.752797
1358.085440,6661.853478,-9474.636058,1685.410096
1358.085769,6957.935855,-8364.327145,1302.362347
1358.086098,7402.059420,-5625.565159,1455.581446
1358.086428,7476.080014,-4737.318029,459.657299
1358.086757,7550.100608,-5033.400406,229.828649
1358.087086,6735.874072,-7105.977043,612.876398
1358.087415,6587.832884,-7994.224174,1072.533697
1358.087744,7402.059420,-6957.935855,1532.190996
1358.088074,7105.977043,-5551.544565,766.095498
1358.088403,6513.812290,-6143.709319,689.485948
1358.088732,5921.647536,-7920.203579,612.876398
1358.089061,5995.668130,-9252.574275,1225.752797
1358.089390,6513.812290,-8660.409521,1762.019645
1358.089720,7105.977043,-5033.400406,1149.143247
1358.090049,7994.224174,-3330.926739,459.657299
1358.090378,7920.203579,-5107.421000,842.705048
1358.090707,7254.018232,-7179.997637,2451.505594
1358.091037,6957.935855,-8660.409521,1455.581446
1358.091366,6957.935855,-6735.874072,383.047749
1358.091695,6143.709319,-5551.544565,76.609550
1358.092024,5773.606348,-7624.121203,0.000000
1358.092353,5181.441594,-8438.347739,766.095498
1358.092683,5033.400406,-10066.800811,1302.362347
1358.093012,6143.709319,-7920.203579,919.314598
1358.093341,7105.977043,-4737.318029,76.609550
1358.093670,7476.080014,-3775.050304,306.438199
1358.093999,8216.285956,-4811.338623,919.314598
1358.094329,8364.327145,-6883.915261,1838.629195
1358.094658,8660.409521,-7402.059420,2834.553343
1358.094987,8216.285956,-4589.276840,1608.800546
1358.095316,7402.059420,-4441.235652,459.657299
1358.095646,6661.853478,-6439.791695,306.438199
1358.095975,6143.709319,-7179.997637,1149.143247
1358.096304,6735.874072,-9992.780217,2221.676944
1358.096633,6661.853478,-7402.059420,1302.362347
1358.096962,7105.977043,-4959.379811,0.000000
1358.097292,6957.935855,-4293.194464,0.000000
1358.097621,7105.977043,-5847.626942,229.828649
1358.097950,7105.977043,-8216.285956,1608.800546
1358.098279,6883.915261,-7772.162391,2374.896044
1358.098608,7476.080014,-4737.318029,1532.190996
1358.098938,7328.038826,-4737.318029,995.924147
1358.099267,7105.977043,-5625.565159,689.485948
1358.099596,6957.935855,-8364.327145,1072.533697
1358.099925,6365.771101,-8586.388927,1225.752797
1358.100255,6957.935855,-7031.956449,1149.143247
1358.100584,7105.977043,-5329.482782,766.095498
1358.100913,7772.162391,-4145.153275,536.266849
1358.101242,7772.162391,-6661.853478,842.705048
1358.101571,7476.080014,-6957.935855,1532.190996
1358.101901,6661.853478,-7105.977043,1302.362347
1358.102230,6439.791695,-5921.647536,536.266849
1358.102559,6143.709319,-5847.626942,0.000000
1358.102888,6439.791695,-7402.059420,-229.828649
1358.103217,5403.503377,-9548.656652,689.485948
1358.103547,5625.565159,-10214.842000,1608.800546
1358.103876,6661.853478,-7402.059420,1378.971896
1358.104205,7550.100608,-4441.235652,459.657299
1358.104534,8290.306550,-3923.091493,612.876398
1358.104864,8142.265362,-5477.523971,689.485948
1358.105193,8216.285956,-7920.203579,2374.896044
1358.105522,7402.059420,-7105.977043,2145.067394
1358.105851,7254.018232,-4959.379811,689.485948
1358.106180,6587.832884,-5625.565159,919.314598
1358.106510,5773.606348,-6883.915261,536.266849
1358.106839,5403.503377,-9178.553681,919.314598
1358.107168,5255.462188,-8438.347739,1072.533697
1358.107497,5847.626942,-6217.729913,995.924147
1358.107826,6661.853478,-3923.091493,0.000000
1358.108156,7698.141797,-4071.132681,459.657299
1358.108485,8512.368333,-6513.812290,1838.629195
1358.108814,8438.347739,-7476.080014,2834.553343
1358.109143,8216.285956,-6365.771101,2145.067394
1358.109473,7550.100608,-5403.503377,1225.752797
1358.109802,6809.894666,-5477.523971,919.314598
1358.110131,6069.688724,-7772.162391,842.705048
1358.110460,5477.523971,-9104.533087,1838.629195
1358.110789,5773.606348,-9178.553681,1455.581446
1358.111119,6809.894666,-5847.626942,689.485948
1358.111448,7550.100608,-3923.091493,459.657299
1358.111777,8216.285956,-4737.318029,689.485948
1358.112106,7550.100608,-5995.668130,1225.752797
1358.112436,6735.874072,-8068.244768,1608.800546
1358.112765,6143.709319,-6809.894666,1378.971896
1358.113094,6439.791695,-5107.421000,229.828649
1358.113423,6957.935855,-5403.503377,0.000000
1358.113752,7031.956449,-7550.100608,1685.410096
1358.114082,7179.997637,-9474.636058,2068.457845
1358.114411,7105.977043,-7476.080014,1532.190996
1358.114740,7031.956449,-5403.503377,995.924147
1358.115069,7920.203579,-4737.318029,229.828649
1358.115398,7624.121203,-4885.359217,766.095498
1358.115728,7179.997637,-7476.080014,1149.143247
1358.116057,7105.977043,-8068.244768,1532.190996
1358.116386,6957.935855,-6069.688724,1225.752797
1358.116715,6809.894666,-5995.668130,229.828649
1358.117045,5921.647536,-7105.977043,76.609550
1358.117374,5477.523971,-8512.368333,536.266849
1358.117703,5181.441594,-9326.594869,842.705048
1358.118032,6069.688724,-8068.244768,1455.581446
1358.118361,7624.121203,-4515.256246,919.314598
1358.118691,8142.265362,-3627.009116,536.266849
1358.119020,8438.347739,-4663.297435,1072.533697
1358.119349,8364.327145,-7179.997637,1838.629195
1358.119678,8290.306550,-7550.100608,2528.115143
1358.120007,7328.038826,-5477.523971,1608.800546
1358.120337,7031.956449,-5477.523971,229.828649
1358.120666,6439.791695,-6217.729913,766.095498
1358.120995,6439.791695,-7698.141797,1149.143247
1358.121324,6217.729913,-8808.450710,1072.533697
1358.121654,5847.626942,-6957.935855,1149.143247
1358.121983,5773.606348,-4737.318029,153.219100
1358.122312,6957.935855,-3923.091493,-612.876398
1358.122641,7476.080014,-5773.606348,842.705048
1358.122970,7698.141797,-8068.244768,1991.848295
1358.123300,7994.224174,-7402.059420,1915.238745
1358.123629,7402.059420,-5847.626942,1378.971896
1358.123958,6513.812290,-5033.400406,459.657299
1358.124287,7328.038826,-6809.894666,1149.143247
1358.124616,6735.874072,-8660.409521,689.485948
1358.124946,5921.647536,-9622.677246,1608.800546
1358.125275,6883.915261,-6291.750507,1302.362347
1358.125604,8068.244768,-4737.318029,842.705048
1358.125933,7179.997637,-5107.421000,612.876398
1358.126263,7179.997637,-6143.709319,689.485948
1358.126592,7328.038826,-7994.224174,1378.971896
1358.126921,6883.915261,-7105.977043,1149.143247
1358.127250,6513.812290,-5625.565159,1608.800546
1358.127579,6661.853478,-5329.482782,536.266849
1358.127909,7031.956449,-6957.935855,459.657299
1358.128238,6587.832884,-8216.285956,2145.067394
1358.128567,6587.832884,-8142.265362,2068.457845
1358.128896,6735.874072,-5921.647536,612.876398
1358.129225,6661.853478,-4663.297435,689.485948
1358.129555,7402.059420,-5625.565159,459.657299
1358.129884,7698.141797,-6809.894666,1378.971896
1358.130213,7402.059420,-7772.162391,1838.629195
1358.130542,6957.935855,-7179.997637,1608.800546
1358.130872,6883.915261,-5329.482782,689.485948
1358.131201,6587.832884,-5995.668130,229.828649
1358.131530,6291.750507,-7550.100608,306.438199
1358.131859,6069.688724,-9326.594869,842.705048
1358.132188,5773.606348,-8956.491898,1378.971896
1358.132518,6291.750507,-5773.606348,536.266849
1358.132847,7105.977043,-3775.050304,76.609550
1358.133176,7698.141797,-3775.050304,1225.752797
1358.133505,8512.368333,-6513.812290,2145.067394
1358.133834,8290.306550,-6883.915261,2068.457845
1358.134164,7476.080014,-5847.626942,1915.238745
1358.134493,7328.038826,-4515.256246,1455.581446
1358.134822,7698.141797,-4737.318029,995.924147
1358.135151,7328.038826,-7254.018232,995.924147
1358.135481,6735.874072,-8512.368333,2451.505594
1358.135810,7328.038826,-7328.038826,1915.238745
1358.136139,6809.894666,-5255.462188,842.705048
1358.136468,6143.709319,-4737.318029,153.219100
1358.136797,6439.791695,-6439.791695,0.000000
1358.137127,6365.771101,-7550.100608,842.705048
1358.137456,5403.503377,-8290.306550,1532.190996
1358.137785,5921.647536,-6883.915261,1762.019645
1358.138114,7105.977043,-5255.462188,459.657299
1358.138444,6809.894666,-6143.709319,689.485948
1358.138773,7105.977043,-8142.265362,1455.581446
1358.139102,7402.059420,-8438.347739,1991.848295
1358.139431,6957.935855,-7328.038826,1608.800546
1358.139760,7476.080014,-5329.482782,1225.752797
1358.140090,8068.244768,-4219.173869,306.438199
1358.140419,8512.368333,-5329.482782,689.485948
1358.140748,7772.162391,-7105.977043,1915.238745
1358.141077,7550.100608,-7476.080014,2298.286494
1358.141406,6957.935855,-6069.688724,995.924147
1358.141736,6143.709319,-5477.523971,536.266849
1358.142065,5181.441594,-6587.832884,153.219100
1358.142394,5033.400406,-8068.244768,0.000000
1358.142723,5107.421000,-9252.574275,1302.362347
1358.143053,6439.791695,-6883.915261,1149.143247
1358.143382,7476.080014,-4737.318029,842.705048
1358.143711,7920.203579,-3997.112087,689.485948
1358.144040,7994.224174,-6513.812290,919.314598
1358.144369,8290.306550,-7328.038826,1915.238745
1358.144699,7994.224174,-7105.977043,2145.067394
1358.145028,7254.018232,-6513.812290,1455.581446
1358.145357,7031.956449,-5773.606348,689.485948
1358.145686,6365.771101,-7105.977043,383.047749
1358.146015,5477.523971,-9030.512492,459.657299
1358.146345,5625.565159,-8956.491898,1302.362347
1358.146674,5773.606348,-6883.915261,612.876398
1358.147003,6439.791695,-4811.338623,0.000000
1358.147332,7031.956449,-4589.276840,153.219100
1358.147662,7328.038826,-5847.626942,536.266849
1358.147991,7550.100608,-7402.059420,1532.190996
1358.148320,7624.121203,-7550.100608,1915.238745
1358.148649,8142.265362,-4589.276840,1302.362347
1358.148978,8660.409521,-4441.235652,919.314598
1358.149308,8512.368333,-5551.544565,1762.019645
1358.149637,7772.162391,-7920.203579,1608.800546
1358.149966,7105.977043,-8068.244768,1915.238745
1358.150295,6735.874072,-5921.647536,919.314598
1358.150624,6365.771101,-5255.462188,0.000000
1358.150954,7031.956449,-4515.256246,229.828649
1358.151283,7105.977043,-7031.956449,1532.190996
1358.151612,7179.997637,-8660.409521,1685.410096
1358.151941,6587.832884,-7254.018232,1762.019645
1358.152271,6587.832884,-6291.750507,612.876398
1358.152600,6291.750507,-5477.523971,0.000000
1358.152929,5773.606348,-7846.182985,153.219100
1358.153258,5847.626942,-9252.574275,536.266849
1358.153587,5921.647536,-9030.512492,1225.752797
1358.153917,7031.956449,-6439.791695,1149.143247
1358.154246,7772.162391,-4145.153275,995.924147
1358.154575,8734.430116,-4293.194464,1149.143247
1358.154904,8364.327145,-6513.812290,1685.410096
1358.155233,7698.141797,-7550.100608,2145.067394
1358.155563,6957.935855,-6217.729913,1608.800546
1358.155892,7105.977043,-4441.235652,536.266849
1358.156221,6735.874072,-5625.565159,536.266849
1358.156550,6809.894666,-7105.977043,842.705048
1358.156880,6365.771101,-8512.368333,1149.143247
1358.157209,6143.709319,-8438.347739,1608.800546
1358.157538,6883.915261,-5921.647536,1455.581446
1358.157867,6957.935855,-4663.297435,76.609550
1358.158196,7179.997637,-4885.359217,612.876398
1358.158526,7031.956449,-7105.977043,1149.143247
1358.158855,7105.977043,-8142.265362,2528.115143
1358.159184,6883.915261,-7105.977043,2068.457845
1358.159513,7179.997637,-5847.626942,612.876398
1358.159842,6883.915261,-6217.729913,536.266849
1358.160172,5921.647536,-7920.203579,842.705048
1358.160501,6217.729913,-9474.636058,1149.143247
1358.160830,5995.668130,-7846.182985,766.095498
1358.161159,6957.935855,-4737.318029,459.657299
1358.161489,7920.203579,-3923.091493,306.438199
1358.161818,8660.409521,-4071.132681,919.314598
1358.162147,8142.265362,-7031.956449,1762.019645
1358.162476,7994.224174,-7105.977043,1915.238745
1358.162805,7476.080014,-5699.585753,1608.800546
1358.163135,7476.080014,-4737.318029,842.705048
1358.163464,6957.935855,-5699.585753,919.314598
1358.163793,6365.771101,-7994.224174,1149.143247
1358.164122,6069.688724,-8956.491898,1455.581446
1358.164451,5847.626942,-7698.141797,1149.143247
1358.164781,6735.874072,-5773.606348,1072.533697
1358.165110,7402.059420,-4885.359217,536.266849
1358.165439,7328.038826,-6217.729913,459.657299
1358.165768,6735.874072,-7476.080014,1149.143247
1358.166098,6735.874072,-8512.368333,1225.752797
1358.166427,6957.935855,-6957.935855,1532.190996
1358.166756,6957.935855,-6217.729913,306.438199
1358.167085,6587.832884,-6735.874072,0.000000
1358.167414,5477.523971,-8734.430116,612.876398
1358.167744,5329.482782,-9770.718434,766.095498
1358.168073,6661.853478,-7920.203579,1072.533697
1358.168402,7476.080014,-4959.379811,842.705048
1358.168731,8142.265362,-4145.153275,612.876398
1358.169061,8438.347739,-4737.318029,842.705048
1358.169390,8364.327145,-7179.997637,1608.800546
1358.169719,7328.038826,-6661.853478,1838.629195
1358.170048,7476.080014,-4663.297435,1225.752797
1358.170377,7846.182985,-4515.256246,842.705048
1358.170707,7476.080014,-5699.585753,1072.533697
1358.171036,7105.977043,-8142.265362,2451.505594
1358.171365,6735.874072,-8364.327145,1838.629195
1358.171694,6587.832884,-5699.585753,1225.752797
1358.172023,7254.018232,-4071.132681,766.095498
1358.172353,7994.224174,-4441.235652,536.266849
1358.172682,7476.080014,-5921.647536,1149.143247
1358.173011,7254.018232,-7772.162391,2298.286494
1358.173340,6809.894666,-7994.224174,1762.019645
1358.173670,6735.874072,-5625.565159,919.314598
1358.173999,5477.523971,-5699.585753,153.219100
1358.174328,5847.626942,-8142.265362,0.000000
1358.174657,5181.441594,-9844.739029,842.705048
1358.174986,5255.462188,-10066.800811,1302.362347
1358.175316,6143.709319,-7105.977043,612.876398
1358.175645,7105.977043,-3552.988522,153.219100
1358.175974,7402.059420,-3923.091493,76.609550
1358.176303,7846.182985,-5995.668130,1225.752797
1358.176632,8734.430116,-7550.100608,2451.505594
1358.176962,8808.450710,-6217.729913,2145.067394
1358.177291,8142.265362,-4441.235652,1532.190996
1358.177620,7402.059420,-3923.091493,383.047749
1358.177949,6661.853478,-6439.791695,383.047749
1358.178279,6143.709319,-8586.388927,1762.019645
1358.178608,6735.874072,-8290.306550,2604.724693
1358.178937,6883.915261,-5773.606348,766.095498
1358.179266,6809.894666,-3849.070898,459.657299
1358.179595,7105.977043,-5847.626942,612.876398
1358.179925,6587.832884,-7328.038826,536.266849
1358.180254,6661.853478,-8364.327145,1225.752797
1358.180583,6735.874072,-8068.244768,1762.019645
1358.180912,7402.059420,-5625.565159,612.876398
1358.181241,7105.977043,-6439.791695,766.095498
1358.181571,7254.018232,-7772.162391,919.314598
1358.181900,6587.832884,-9252.574275,1225.752797
1358.182229,6439.791695,-8660.409521,1225.752797
1358.182558,6809.894666,-6069.688724,995.924147
1358.182887,7105.977043,-4219.173869,0.000000
1358.183216,7550.100608,-4293.194464,-153.219100
1358.183545,6957.935855,-7179.997637,689.485948
1358.183875,6365.771101,-8586.388927,1762.019645
1358.184204,6957.935855,-6291.750507,1455.581446
1358.184533,6661.853478,-5329.482782,536.266849
1358.184862,6439.791695,-5181.441594,153.219100
1358.185191,6439.791695,-7402.059420,459.657299
1358.185520,6809.894666,-9252.574275,1762.019645
1358.185849,7105.977043,-7476.080014,2068.457845
1358.186179,7994.224174,-4219.173869,229.828649
1358.186508,7994.224174,-2664.741391,383.047749
1358.186837,8216.285956,-4737.318029,995.924147
1358.187166,7624.121203,-7105.977043,1762.019645
1358.187495,7179.997637,-7920.203579,2451.505594
1358.187824,7179.997637,-6365.771101,1302.362347
1358.188153,6957.935855,-5477.523971,306.438199
1358.188482,5773.606348,-6957.935855,76.609550
1358.188812,5255.462188,-9030.512492,153.219100
1358.189141,5847.626942,-9326.594869,995.924147
1358.189470,5699.585753,-8734.430116,1532.190996
1358.189799,6735.874072,-5699.585753,1149.143247
1358.190128,7254.018232,-3404.947333,306.438199
1358.190457,8068.244768,-4959.379811,459.657299
1358.190786,7624.121203,-7772.162391,2451.505594
1358.191115,8438.347739,-7105.977043,2757.943793
1358.191445,8882.471304,-4885.359217,1838.629195
1358.191774,7994.224174,-3404.947333,1072.533697
1358.192103,6735.874072,-4441.235652,383.047749
1358.192432,6513.812290,-7179.997637,995.924147
1358.192761,6291.750507,-8882.471304,1608.800546
1358.193090,6365.771101,-6957.935855,1915.238745
1358.193419,7402.059420,-4145.153275,153.219100
1358.193748,7402.059420,-4293.194464,383.047749
1358.194078,7328.038826,-6513.812290,1302.362347
1358.194407,6809.894666,-8956.491898,2221.676944
1358.194736,6513.812290,-8364.327145,1762.019645
1358.195065,5773.606348,-6069.688724,612.876398
1358.195394,5699.585753,-5995.668130,0.000000
1358.195723,5995.668130,-7698.141797,153.219100
1358.196052,5847.626942,-9770.718434,1072.533697
1358.196382,5847.626942,-10288.862594,995.924147
1358.196711,6587.832884,-6957.935855,1302.362347
1358.197040,7550.100608,-4737.318029,229.828649
1358.197369,7920.203579,-4293.194464,306.438199
1358.197698,7328.038826,-5625.565159,842.705048
1358.198027,7031.956449,-7476.080014,1225.752797
1358.198356,7105.977043,-7031.956449,1685.410096
1358.198685,7476.080014,-5107.421000,1149.143247
1358.199015,7254.018232,-4885.359217,306.438199
1358.199344,6957.935855,-6291.750507,1072.533697
1358.199673,7105.977043,-8438.347739,1455.581446
1358.200002,6587.832884,-8438.347739,1762.019645
1358.200331,6513.812290,-5847.626942,1991.848295
1358.200660,7698.141797,-3923.091493,536.266849
1358.200989,7698.141797,-4367.215058,612.876398
1358.201318,7698.141797,-6365.771101,1608.800546
1358.201648,7476.080014,-8142.265362,2451.505594
1358.201977,7254.018232,-6809.894666,2068.457845
1358.202306,5995.668130,-5625.565159,459.657299
1358.202635,5551.544565,-6513.812290,-459.657299
1358.202964,5329.482782,-8142.265362,612.876398
1358.203293,5403.503377,-10436.903782,689.485948
1358.203622,5551.544565,-9548.656652,766.095498
1358.203952,6291.750507,-6365.771101,766.095498
1358.204281,7550.100608,-4515.256246,76.609550
1358.204610,8216.285956,-4441.235652,919.314598
1358.204939,8364.327145,-6143.709319,1685.410096
1358.205268,8364.327145,-7105.977043,1762.019645
1358.205597,7920.203579,-5921.647536,2145.067394
1358.205926,7476.080014,-4737.318029,612.876398
1358.206255,6439.791695,-4515.256246,153.219100
1358.206585,6513.812290,-6513.812290,689.485948
1358.206914,6735.874072,-8364.327145,1608.800546
1358.207243,7105.977043,-7105.977043,1762.019645
1358.207572,7402.059420,-4959.379811,1608.800546
1358.207901,7772.162391,-3923.091493,153.219100
1358.208230,7031.956449,-4959.379811,-459.657299
1358.208559,6883.915261,-7846.182985,1532.190996
1358.208888,7105.977043,-8956.491898,2374.896044
1358.209218,7031.956449,-7328.038826,1685.410096
1358.209547,6957.935855,-5477.523971,689.485948
1358.209876,6143.709319,-6217.729913,-229.828649
1358.210205,6439.791695,-8290.306550,689.485948
1358.210534,6513.812290,-9104.533087,1149.143247
1358.210863,6513.812290,-7920.203579,1149.143247
1358.211192,6735.874072,-5033.400406,306.438199
1358.211522,6661.853478,-4515.256246,0.000000
1358.211851,7105.977043,-5921.647536,842.705048
1358.212180,7402.059420,-7105.977043,1838.629195
1358.212509,7920.203579,-7920.203579,1762.019645
1358.212838,7772.162391,-5995.668130,1608.800546
1358.213167,7550.100608,-4959.379811,842.705048
1358.213496,7402.059420,-5847.626942,76.609550
1358.213825,6587.832884,-7846.182985,995.924147
1358.214155,6217.729913,-8290.306550,1225.752797
1358.214484,6143.709319,-7328.038826,1072.533697
1358.214813,7179.997637,-4885.359217,1455.581446
1358.215142,7772.162391,-4441.235652,919.314598
1358.215471,7994.224174,-5847.626942,1532.190996
1358.215800,8142.265362,-7031.956449,2374.896044
1358.216129,7179.997637,-7698.141797,2145.067394
1358.216458,6587.832884,-6217.729913,1455.581446
1358.216788,5329.482782,-5921.647536,0.000000
1358.217117,4959.379811,-6957.935855,-536.266849
1358.217446,5255.462188,-9400.615463,153.219100
1358.217775,5329.482782,-9770.718434,1608.800546
1358.218104,6291.750507,-7550.100608,1225.752797
1358.218433,7920.203579,-5181.441594,1072.533697
1358.218762,8142.265362,-4515.256246,536.266849
1358.219091,7772.162391,-5477.523971,842.705048
1358.219421,7698.141797,-6809.894666,995.924147
1358.219750,6957.935855,-7550.100608,1838.629195
1358.220079,6735.874072,-5847.626942,919.314598
1358.220408,6291.750507,-4959.379811,306.438199
1358.220737,6735.874072,-6513.812290,306.438199
1358.221066,7031.956449,-8364.327145,1378.971896
1358.221395,6291.750507,-8364.327145,1608.800546
1358.221725,6217.729913,-5995.668130,1072.533697
1358.222054,7328.038826,-4293.194464,842.705048
1358.222383,7846.182985,-4293.194464,536.266849
1358.222712,8216.285956,-6069.688724,1149.143247
1358.223041,7476.080014,-7846.182985,2451.505594
1358.223370,7254.018232,-7254.018232,2451.505594
1358.223699,7328.038826,-5255.462188,1072.533697
1358.224028,7105.977043,-5255.462188,995.924147
1358.224358,6957.935855,-7105.977043,612.876398
1358.224687,5921.647536,-9474.636058,1149.143247
1358.225016,4885.359217,-9400.615463,1302.362347
1358.225345,5403.503377,-7031.956449,689.485948
1358.225674,6809.894666,-4515.256246,0.000000
1358.226003,7328.038826,-4219.173869,76.609550
1358.226332,7179.997637,-6587.832884,766.095498
1358.226661,7624.121203,-8290.306550,1685.410096
1358.226991,7550.100608,-6883.915261,1378.971896
1358.227320,6735.874072,-5625.565159,766.095498
1358.227649,6735.874072,-5033.400406,306.438199
1358.227978,6735.874072,-7031.956449,383.047749
1358.228307,6735.874072,-9474.636058,1455.581446
1358.228636,6957.935855,-7846.182985,2298.286494
1358.228965,7254.018232,-4811.338623,995.924147
1358.229295,7920.203579,-4071.132681,766.095498
1358.229624,7772.162391,-4515.256246,919.314598
1358.229953,7772.162391,-6661.853478,2145.067394
1358.230282,7772.162391,-7402.059420,2221.676944
1358.230611,7179.997637,-6069.688724,2068.457845
1358.230940,7254.018232,-4885.359217,842.705048
1358.231269,6809.894666,-5255.462188,536.266849
1358.231598,6587.832884,-7550.100608,919.314598
1358.231928,5995.668130,-9992.780217,1455.581446
1358.232257,5995.668130,-8882.471304,1685.410096
1358.232586,6365.771101,-6365.771101,536.266849
1358.232915,6809.894666,-4515.256246,-229.828649
1358.233244,6587.832884,-5477.523971,306.438199
1358.233573,6587.832884,-8438.347739,995.924147
1358.233902,6217.729913,-9400.615463,1608.800546
1358.234231,6439.791695,-7624.121203,1532.190996
1358.234561,7179.997637,-5329.482782,1072.533697
1358.234890,7402.059420,-5329.482782,766.095498
1358.235219,7179.997637,-7105.977043,1302.362347
1358.235548,7772.162391,-8216.285956,1685.410096
1358.235877,7254.018232,-6883.915261,1838.629195
1358.236206,7328.038826,-4219.173869,536.266849
1358.236535,7328.038826,-3849.070898,306.438199
1358.236865,7402.059420,-5921.647536,1225.752797
1358.237194,7179.997637,-7772.162391,1838.629195
1358.237523,6513.812290,-8216.285956,2681.334243
1358.237852,6735.874072,-6291.750507,1455.581446
1358.238181,6143.709319,-6143.709319,306.438199
1358.238510,4885.359217,-6883.915261,-229.828649
1358.238839,4441.235652,-9030.512492,306.438199
1358.239168,5181.441594,-9918.759623,919.314598
1358.239498,5699.585753,-8142.265362,1072.533697
1358.239827,7550.100608,-4737.318029,1149.143247
1358.240156,9178.553681,-3627.009116,612.876398
1358.240485,9178.553681,-4515.256246,1072.533697
1358.240814,7772.162391,-6513.812290,1378.971896
1358.241143,7031.956449,-7772.162391,1838.629195
1358.241472,6883.915261,-5329.482782,689.485948
1358.241801,6883.915261,-5033.400406,229.828649
1358.242131,7031.956449,-6217.729913,995.924147
1358.242460,6661.853478,-7994.224174,1991.848295
1358.242789,7031.956449,-8586.388927,1991.848295
1358.243118,6661.853478,-6587.832884,1455.581446
1358.243447,7179.997637,-3775.050304,306.438199
1358.243776,7550.100608,-4145.153275,-306.438199
1358.244105,7698.141797,-5847.626942,995.924147
1358.244434,7550.100608,-7179.997637,2221.676944
1358.244764,7624.121203,-7476.080014,1838.629195
1358.245093,7772.162391,-5181.441594,2068.457845
1358.245422,7920.203579,-5033.400406,1072.533697
1358.245751,7031.956449,-7402.059420,919.314598
1358.246080,5773.606348,-8586.388927,1072.533697
1358.246409,5255.462188,-8956.491898,306.438199
1358.246738,5625.565159,-7179.997637,1608.800546
1358.247068,7328.038826,-4663.297435,383.047749
1358.247397,7624.121203,-4959.379811,0.000000
1358.247726,7105.977043,-7031.956449,842.705048
1358.248055,6217.729913,-9178.553681,1532.190996
1358.248384,5921.647536,-8364.327145,1225.752797
1358.248713,6439.791695,-5847.626942,459.657299
1358.249042,6735.874072,-5329.482782,229.828649
1358.249371,6957.935855,-6661.853478,383.047749
1358.249701,6365.771101,-7994.224174,1991.848295
1358.250030,6809.894666,-7698.141797,1608.800546
1358.250359,7846.182985,-4663.297435,1455.581446
1358.250688,8734.430116,-3627.009116,1225.752797
1358.251017,8734.430116,-4441.235652,1149.143247
1358.251346,7920.203579,-6365.771101,1685.410096
1358.251675,7105.977043,-7254.018232,2145.067394
1358.252004,6735.874072,-6883.915261,1302.362347
1358.252334,7031.956449,-4959.379811,1072.533697
1358.252663,6735.874072,-7105.977043,306.438199
1358.252992,5847.626942,-7846.182985,383.047749
1358.253321,5033.400406,-9844.739029,1072.533697
1358.253650,4959.379811,-10214.842000,689.485948
1358.253979,6661.853478,-5625.565159,229.828649
1358.254308,8364.327145,-4219.173869,229.828649
1358.254638,8808.450710,-4737.318029,842.705048
1358.254967,7994.224174,-6439.791695,1225.752797
1358.255296,7105.977043,-7846.182985,1455.581446
1358.255625,6439.791695,-6587.832884,995.924147
1358.255954,7105.977043,-5329.482782,306.438199
1358.256283,7031.956449,-5773.606348,1149.143247
1358.256612,6291.750507,-7179.997637,995.924147
1358.256941,6217.729913,-8586.388927,1225.752797
1358.257271,6735.874072,-7031.956449,1762.019645
1358.257600,7698.141797,-5033.400406,1608.800546
1358.257929,8142.265362,-4441.235652,995.924147
1358.258258,7772.162391,-4811.338623,1072.533697
1358.258587,7031.956449,-7105.977043,1455.581446
1358.258916,6957.935855,-7179.997637,2298.286494
1358.259245,7105.977043,-6217.729913,1225.752797
1358.259574,7105.977043,-5921.647536,1225.752797
1358.259904,6735.874072,-6513.812290,842.705048
1358.260233,5625.565159,-8216.285956,689.485948
1358.260562,5477.523971,-9030.512492,536.266849
1358.260891,5107.421000,-7476.080014,919.314598
1358.261220,6735.874072,-5033.400406,306.438199
1358.261549,8142.265362,-3182.885551,306.438199
1358.261878,8068.244768,-4589.276840,995.924147
1358.262208,7550.100608,-7031.956449,1302.362347
1358.262537,7476.080014,-8216.285956,2068.457845
1358.262866,7402.059420,-6735.874072,1685.410096
1358.263195,6587.832884,-6217.729913,612.876398
1358.263524,6439.791695,-6291.750507,612.876398
1358.263853,5995.668130,-8364.327145,766.095498
1358.264182,6069.688724,-8660.409521,1072.533697
1358.264511,6809.894666,-6883.915261,1225.752797
1358.264841,7920.203579,-4441.235652,1302.362347
1358.265170,8068.244768,-4071.132681,229.828649
1358.265499,7179.997637,-5107.421000,459.657299
1358.265828,7105.977043,-7105.977043,1762.019645
1358.266157,7328.038826,-7179.997637,2298.286494
1358.266486,7105.977043,-5255.462188,1378.971896
1358.266815,6957.935855,-5329.482782,612.876398
1358.267144,6809.894666,-6883.915261,995.924147
1358.267474,6217.729913,-9326.594869,612.876398
1358.267803,5329.482782,-9474.636058,1915.238745
1358.268132,5995.668130,-7550.100608,1149.143247
1358.268461,7624.121203,-4885.359217,0.000000
1358.268790,7476.080014,-4589.276840,766.095498
1358.269119,7105.977043,-6661.853478,766.095498
1358.269448,7105.977043,-7476.080014,2374.896044
1358.269777,6957.935855,-7031.956449,1378.971896
1358.270107,6661.853478,-5033.400406,842.705048
1358.270436,6365.771101,-5181.441594,383.047749
1358.270765,6735.874072,-6365.771101,995.924147
1358.271094,6513.812290,-7994.224174,306.438199
1358.271423,6365.771101,-8438.347739,1685.410096
1358.271752,7698.141797,-5921.647536,1378.971896
1358.272081,8808.450710,-4589.276840,919.314598
1358.272411,8290.306550,-4737.318029,536.266849
1358.272740,7476.080014,-5551.544565,1302.362347
1358.273069,7254.018232,-7402.059420,1532.190996
1358.273398,7031.956449,-7105.977043,2221.676944
1358.273727,6439.791695,-5773.606348,1302.362347
1358.274056,5921.647536,-6439.791695,76.609550
1358.274385,5625.565159,-7105.977043,0.000000
1358.274714,4885.359217,-9178.553681,459.657299
1358.275044,5403.503377,-8882.471304,1378.971896
1358.275373,6513.812290,-6439.791695,1608.800546
1358.275702,7994.224174,-4367.215058,459.657299
1358.276031,7476.080014,-4589.276840,0.000000
1358.276360,7698.141797,-6661.853478,1302.362347
1358.276689,8142.265362,-8512.368333,1991.848295
1358.277018,8142.265362,-6587.832884,2145.067394
1358.277347,7550.100608,-4737.318029,689.485948
1358.277677,7179.997637,-5551.544565,153.219100
1358.278006,6439.791695,-7105.977043,612.876398
1358.278335,6143.709319,-9178.553681,1532.190996
1358.278664,5995.668130,-8290.306550,1762.019645
1358.278993,6513.812290,-4811.338623,995.924147
1358.279322,7476.080014,-4293.194464,536.266849
1358.279651,8142.265362,-4589.276840,919.314598
1358.279981,8142.265362,-7254.018232,2221.676944
1358.280310,7476.080014,-7254.018232,2374.896044
1358.280639,6883.915261,-6513.812290,1455.581446
1358.280968,6809.894666,-4885.359217,612.876398
1358.281297,6957.935855,-5921.647536,229.828649
1358.281626,7031.956449,-7476.080014,1532.190996
1358.281955,7105.977043,-9622.677246,2068.457845
1358.282284,6957.935855,-7846.182985,1225.752797
1358.282614,7105.977043,-4293.194464,995.924147
1358.282943,7476.080014,-4737.318029,612.876398
1358.283272,7624.121203,-4737.318029,536.266849
1358.283601,6809.894666,-7402.059420,1149.143247
1358.283928,6439.791695,-8438.347739,1455.581446
1358.284257,6809.894666,-6513.812290,766.095498
1358.284586,6883.915261,-4441.235652,459.657299
1358.284916,6587.832884,-6439.791695,0.000000
1358.285245,6587.832884,-8438.347739,919.314598
1358.285574,7031.956449,-9474.636058,1608.800546
1358.285903,7328.038826,-7179.997637,1378.971896
1358.286232,7772.162391,-4441.235652,459.657299
1358.286562,7772.162391,-3627.009116,76.609550
1358.286891,7846.182985,-5551.544565,919.314598
1358.287220,8068.244768,-7550.100608,2298.286494
1358.287549,7920.203579,-7105.977043,1838.629195
1358.287879,7179.997637,-5773.606348,1302.362347
1358.288208,6291.750507,-5255.462188,0.000000
1358.288537,5033.400406,-7105.977043,0.000000
1358.288866,4441.235652,-9474.636058,766.095498
1358.289195,4441.235652,-9104.533087,919.314598
1358.289525,5551.544565,-7105.977043,919.314598
1358.289854,6365.771101,-4737.318029,459.657299
1358.290183,7772.162391,-4663.297435,612.876398
1358.290512,8660.409521,-5995.668130,459.657299
1358.290841,7476.080014,-7846.182985,1915.238745
1358.291171,7031.956449,-8068.244768,1532.190996
1358.291500,7328.038826,-5107.421000,612.876398
1358.291829,7179.997637,-5181.441594,153.219100
1358.292158,7698.141797,-7031.956449,842.705048
1358.292488,7105.977043,-8586.388927,1378.971896
1358.292817,6957.935855,-8882.471304,1685.410096
1358.293146,6661.853478,-5995.668130,1225.752797
1358.293475,6587.832884,-3701.029710,-383.047749
1358.293804,7105.977043,-4589.276840,76.609550
1358.294134,7105.977043,-6365.771101,1455.581446
1358.294463,6883.915261,-8068.244768,2068.457845
1358.294792,6291.750507,-7254.018232,1685.410096
1358.295121,5847.626942,-5921.647536,1149.143247
1358.295450,5773.606348,-5995.668130,459.657299
1358.295780,5699.585753,-7698.141797,919.314598
1358.296109,5329.482782,-9400.615463,1225.752797
1358.296438,6217.729913,-8438.347739,1685.410096
1358.296767,7624.121203,-5847.626942,1378.971896
1358.297097,8438.347739,-3404.947333,766.095498
1358.297426,8882.471304,-4367.215058,919.314598
1358.297755,8216.285956,-7105.977043,1378.971896
1358.298084,7254.018232,-7846.182985,1838.629195
1358.298413,7031.956449,-6291.750507,1915.238745
1358.298743,7031.956449,-4663.297435,766.095498
1358.299072,6439.791695,-5255.462188,229.828649
1358.299401,5921.647536,-7105.977043,536.266849
1358.299730,5921.647536,-8586.388927,383.047749
1358.300059,5995.668130,-7624.121203,1225.752797
1358.300389,6957.935855,-5477.523971,689.485948
1358.300718,7846.182985,-4589.276840,306.438199
1358.301047,8734.430116,-4589.276840,842.705048
1358.301376,8512.368333,-6809.894666,1685.410096
1358.301706,8290.306550,-7550.100608,2298.286494
1358.302035,7772.162391,-6217.729913,1532.190996
1358.302364,7179.997637,-5773.606348,76.609550
1358.302693,6809.894666,-6291.750507,919.314598
1358.303022,6217.729913,-8882.471304,612.876398
1358.303352,6069.688724,-9696.697840,1532.190996
1358.303681,6291.750507,-7698.141797,1608.800546
1358.304010,6735.874072,-5477.523971,459.657299
1358.304339,6661.853478,-3775.050304,76.609550
1358.304669,6809.894666,-5255.462188,306.438199
1358.304998,6883.915261,-7994.224174,459.657299
1358.305327,7254.018232,-8142.265362,1685.410096
1358.305656,7105.977043,-5921.647536,1149.143247
1358.305985,7994.224174,-4663.297435,0.000000
1358.306315,7624.121203,-6365.771101,536.266849
1358.306644,6883.915261,-8142.265362,1072.533697
1358.306973,7105.977043,-9474.636058,1532.190996
1358.307302,6513.812290,-7254.018232,1685.410096
1358.307631,7105.977043,-5329.482782,766.095498
1358.307961,7402.059420,-4145.153275,153.219100
1358.308290,7402.059420,-4885.359217,612.876398
1358.308619,7772.162391,-6809.894666,1915.238745
1358.308948,7624.121203,-6513.812290,1915.238745
1358.309278,7328.038826,-4811.338623,1608.800546
1358.309607,6513.812290,-4885.359217,766.095498
1358.309936,5921.647536,-6809.894666,306.438199
1358.310265,5625.565159,-8512.368333,1072.533697
1358.310594,5181.441594,-9474.636058,1225.752797
1358.310924,6143.709319,-7698.141797,1532.190996
1358.311253,7476.080014,-4737.318029,689.485948
1358.311582,7698.141797,-4441.235652,536.266849
1358.311911,7772.162391,-6661.853478,1072.533697
1358.312240,7624.121203,-8956.491898,1915.238745
1358.312570,6883.915261,-8512.368333,1608.800546
1358.312899,6661.853478,-5329.482782,995.924147
1358.313228,7105.977043,-3849.070898,306.438199
1358.313557,7179.997637,-5847.626942,536.266849
1358.313887,6957.935855,-8216.285956,2068.457845
1358.314216,6809.894666,-8808.450710,2068.457845
1358.314545,7031.956449,-5329.482782,1378.971896
1358.314874,6883.915261,-3552.988522,383.047749
1358.315203,7031.956449,-4219.173869,229.828649
1358.315533,7105.977043,-6365.771101,995.924147
1358.315862,8068.244768,-8364.327145,1838.629195
1358.316191,7254.018232,-7550.100608,2681.334243
1358.316520,7328.038826,-5921.647536,1532.190996
1358.316849,6513.812290,-5625.565159,76.609550
1358.317179,5625.565159,-7624.121203,229.828649
1358.317508,4959.379811,-9696.697840,689.485948
1358.317837,5625.565159,-9400.615463,1685.410096
1358.318166,6439.791695,-5847.626942,1685.410096
1358.318496,7402.059420,-3923.091493,689.485948
1358.318825,8142.265362,-3775.050304,689.485948
1358.319154,7994.224174,-5255.462188,1608.800546
1358.319483,7402.059420,-7846.182985,2374.896044
1358.319812,7698.141797,-5699.585753,1608.800546
1358.320142,7698.141797,-3701.029710,1072.533697
1358.320471,7698.141797,-4589.276840,383.047749
1358.320800,7698.141797,-6957.935855,306.438199
1358.321129,6365.771101,-9400.615463,1608.800546
1358.321458,6365.771101,-8660.409521,1302.362347
1358.321788,6439.791695,-5921.647536,306.438199
1358.322117,7179.997637,-4959.379811,0.000000
1358.322446,7031.956449,-5329.482782,995.924147
1358.322775,7328.038826,-7698.141797,1608.800546
1358.323105,7254.018232,-8068.244768,1608.800546
1358.323434,6809.894666,-7105.977043,1378.971896
1358.323763,6439.791695,-5773.606348,536.266849
1358.324092,6735.874072,-5329.482782,0.000000
1358.324421,5995.668130,-8438.347739,306.438199
1358.324751,6217.729913,-9326.594869,1838.629195
1358.325080,6883.915261,-8512.368333,1991.848295
1358.325409,8068.244768,-4959.379811,1991.848295
1358.325738,8216.285956,-3330.926739,612.876398
1358.326068,7772.162391,-4737.318029,229.828649
1358.326397,7105.977043,-7105.977043,1225.752797
1358.326726,7328.038826,-8586.388927,1915.238745
1358.327055,7179.997637,-6661.853478,1838.629195
1358.327384,7328.038826,-4441.235652,689.485948
1358.327714,6439.791695,-5847.626942,76.609550
1358.328043,5551.544565,-7179.997637,229.828649
1358.328372,5403.503377,-9400.615463,995.924147
1358.328701,5699.585753,-7550.100608,536.266849
1358.329030,6217.729913,-5477.523971,0.000000
1358.329360,7328.038826,-4663.297435,0.000000
1358.329689,7994.224174,-5329.482782,1302.362347
1358.330018,8808.450710,-7698.141797,1915.238745
1358.330347,8216.285956,-6735.874072,1838.629195
1358.330677,7105.977043,-5921.647536,1225.752797
1358.331006,6809.894666,-5107.421000,536.266849
1358.331335,6735.874072,-5551.544565,459.657299
1358.331664,6291.750507,-9622.677246,76.609550
1358.331993,5477.523971,-9770.718434,1455.581446
1358.332323,4737.318029,-8216.285956,1149.143247
1358.332652,6587.832884,-4663.297435,459.657299
1358.332981,7402.059420,-2960.823768,689.485948
1358.333310,8142.265362,-5773.606348,689.485948
1358.333639,7920.203579,-6883.915261,1608.800546
1358.333969,7105.977043,-7402.059420,2068.457845
1358.334298,7698.141797,-5255.462188,1225.752797
1358.334627,7624.121203,-3775.050304,383.047749
1358.334956,7105.977043,-6513.812290,766.095498
1358.335286,6809.894666,-8216.285956,1455.581446
1358.335615,6957.935855,-9104.533087,2068.457845
1358.335944,7105.977043,-6217.729913,1149.143247
1358.336273,7179.997637,-4589.276840,306.438199
1358.336602,7476.080014,-4145.153275,459.657299
1358.336932,7179.997637,-5921.647536,229.828649
1358.337261,6587.832884,-8068.244768,1762.019645
1358.337590,6735.874072,-8216.285956,1915.238745
1358.337919,7031.956449,-6439.791695,766.095498
1358.338248,6883.915261,-6291.750507,1149.143247
1358.338578,6217.729913,-7698.141797,306.438199
1358.338907,6439.791695,-9474.636058,1149.143247
1358.339236,5773.606348,-9400.615463,1455.581446
1358.339565,5551.544565,-6809.894666,919.314598
1358.339895,7254.018232,-3923.091493,229.828649
1358.340224,8364.327145,-4145.153275,919.314598
1358.340553,8660.409521,-6069.688724,2221.676944
1358.340882,7920.203579,-7179.997637,2221.676944
1358.341211,6957.935855,-6365.771101,1378.971896
1358.341541,6661.853478,-4737.318029,153.219100
1358.341870,6661.853478,-5107.421000,0.000000
1358.342199,6735.874072,-6957.935855,842.705048
1358.342528,7105.977043,-8882.471304,1302.362347
1358.342857,6513.812290,-8068.244768,1608.800546
1358.343187,6587.832884,-5773.606348,612.876398
1358.343516,7254.018232,-4737.318029,459.657299
1358.343845,7846.182985,-5181.441594,306.438199
1358.344174,7624.121203,-7254.018232,842.705048
1358.344504,7550.100608,-7698.141797,1991.848295
1358.344833,7328.038826,-7031.956449,1685.410096
1358.345162,7179.997637,-5699.585753,1455.581446
1358.345491,6735.874072,-5995.668130,766.095498
1358.345820,5847.626942,-7476.080014,612.876398
1358.346150,4737.318029,-8956.491898,689.485948
1358.346479,5107.421000,-9178.553681,842.705048
1358.346808,6957.935855,-6587.832884,1302.362347
1358.347137,7994.224174,-4737.318029,842.705048
1358.347466,7920.203579,-4811.338623,1455.581446
1358.347796,7105.977043,-6661.853478,1149.143247
1358.348125,7254.018232,-7624.121203,995.924147
1358.348454,7105.977043,-5847.626942,1455.581446
1358.348783,7624.121203,-4885.359217,536.266849
1358.349113,7402.059420,-5847.626942,536.266849
1358.349442,6587.832884,-7254.018232,1532.190996
1358.349771,6439.791695,-9326.594869,1302.362347
1358.350100,6217.729913,-7550.100608,1685.410096
1358.350429,6661.853478,-5329.482782,842.705048
1358.350759,7698.141797,-4515.256246,153.219100
1358.351088,7698.141797,-4959.379811,766.095498
1358.351417,7476.080014,-7105.977043,1532.190996
1358.351746,7254.018232,-6809.894666,1762.019645
1358.352076,7031.956449,-5625.565159,1072.533697
1358.352405,7105.977043,-5477.523971,689.485948
1358.352734,6809.894666,-6217.729913,689.485948
1358.353063,6291.750507,-8734.430116,1149.143247
1358.353392,5847.626942,-9400.615463,995.924147
1358.353722,5107.421000,-8216.285956,766.095498
1358.354051,6217.729913,-5921.647536,919.314598
1358.354380,7105.977043,-4737.318029,766.095498
1358.354709,7920.203579,-6069.688724,1225.752797
1358.355038,7179.997637,-7179.997637,1455.581446
1358.355368,6365.771101,-7254.018232,1072.533697
1358.355697,6883.915261,-5033.400406,1378.971896
1358.356026,7254.018232,-4737.318029,842.705048
1358.356355,7179.997637,-6291.750507,1149.143247
1358.356685,6513.812290,-7105.977043,1149.143247
1358.357014,6143.709319,-8290.306550,1302.362347
1358.357343,6809.894666,-6883.915261,1225.752797
1358.357672,7179.997637,-4219.173869,459.657299
1358.358001,8142.265362,-4737.318029,766.095498
1358.358331,8216.285956,-6439.791695,1302.362347
1358.358660,7328.038826,-7105.977043,1532.190996
1358.358989,6735.874072,-7550.100608,2145.067394
1358.359318,7254.018232,-5921.647536,1455.581446
1358.359647,7179.997637,-6143.709319,689.485948
1358.359977,6661.853478,-6809.894666,842.705048
1358.360306,6143.709319,-8660.409521,689.485948
1358.360635,5699.585753,-8956.491898,1225.752797
1358.360964,5625.565159,-7105.977043,842.705048
1358.361294,6365.771101,-5625.565159,536.266849
1358.361623,7328.038826,-4885.359217,842.705048
1358.361952,7179.997637,-6217.729913,919.314598
1358.362281,7105.977043,-7994.224174,1762.019645
1358.362610,7105.977043,-7328.038826,1685.410096
1358.362940,7550.100608,-5329.482782,689.485948
1358.363269,7254.018232,-5625.565159,995.924147
1358.363598,6661.853478,-7476.080014,689.485948
1358.363927,6217.729913,-8142.265362,1455.581446
1358.364256,6365.771101,-7772.162391,842.705048
1358.364586,6439.791695,-6587.832884,766.095498
1358.364915,8290.306550,-3923.091493,919.314598
1358.365244,8586.388927,-4811.338623,1378.971896
1358.365573,8660.409521,-5921.647536,1991.848295
1358.365903,7402.059420,-6957.935855,1685.410096
1358.366232,7031.956449,-5995.668130,1072.533697
1358.366561,6587.832884,-4737.318029,229.828649
1358.366890,6069.688724,-6439.791695,459.657299
1358.367219,6069.688724,-8586.388927,536.266849
1358.367549,5551.544565,-10066.800811,1455.581446
1358.367878,5255.462188,-9548.656652,842.705048
1358.368207,4737.318029,-7550.100608,459.657299
1358.368536,5847.626942,-6587.832884,76.609550
1358.368865,6439.791695,-6513.812290,0.000000
1358.369195,5773.606348,-8364.327145,612.876398
1358.369524,5625.565159,-9474.636058,1838.629195
1358.369853,6143.709319,-8364.327145,919.314598
1358.370182,5995.668130,-6439.791695,842.705048
1358.370512,5995.668130,-7031.956449,612.876398
1358.370841,6439.791695,-9104.533087,919.314598
1358.371170,5773.606348,-9178.553681,1455.581446
1358.371499,5551.544565,-8956.491898,1302.362347
1358.371828,6587.832884,-5921.647536,995.924147
1358.372158,7179.997637,-4811.338623,153.219100
1358.372487,7179.997637,-6069.688724,153.219100
1358.372816,7105.977043,-7105.977043,2068.457845
1358.373145,7402.059420,-8068.244768,3140.991542
1358.373474,7624.121203,-5773.606348,2604.724693
1358.373804,6217.729913,-3478.967927,2145.067394
1358.374133,6809.894666,-4959.379811,1149.143247
1358.374462,5625.565159,-6661.853478,766.095498
1358.374791,4219.173869,-9770.718434,1302.362347
1358.375121,3775.050304,-9622.677246,1149.143247
1358.375450,4589.276840,-8142.265362,1838.629195
1358.375779,4959.379811,-8216.285956,1225.752797
1358.376108,4219.173869,-8956.491898,995.924147
1358.376437,3923.091493,-10214.842000,689.485948
1358.376767,4811.338623,-10436.903782,1532.190996
1358.377096,5625.565159,-8586.388927,1455.581446
1358.377425,5107.421000,-8290.306550,1149.143247
1358.377754,4219.173869,-8882.471304,995.924147
1358.378084,2960.823768,-11325.150913,536.266849
1358.378413,3256.906145,-11843.295072,459.657299
1358.378742,3182.885551,-10288.862594,1072.533697
1358.379071,4737.318029,-9252.574275,1455.581446
1358.379400,5625.565159,-7328.038826,1762.019645
1358.379730,5403.503377,-7476.080014,1685.410096
1358.380059,5255.462188,-7698.141797,1378.971896
1358.380388,5847.626942,-6957.935855,1838.629195
1358.380717,6217.729913,-5995.668130,1762.019645
1358.381046,6143.709319,-6069.688724,1302.362347
1358.381376,6587.832884,-7328.038826,919.314598
1358.381705,6143.709319,-8882.471304,1378.971896
1358.382034,4885.359217,-10955.047942,1608.800546
1358.382363,4367.215058,-10288.862594,1149.143247
1358.382692,3997.112087,-9696.697840,-383.047749
1358.383021,3256.906145,-9918.759623,-1225.752797
1358.383351,2294.638420,-12435.459826,0.000000
1358.383680,2368.659014,-14285.974681,0.000000
1358.384009,2442.679609,-13619.789333,689.485948
1358.384338,2812.782580,-10658.965565,1072.533697
1358.384667,3849.070898,-8364.327145,1455.581446
1358.384996,5403.503377,-6439.791695,2298.286494
1358.385325,6587.832884,-5329.482782,2068.457845
1358.385654,7179.997637,-3849.070898,1532.190996
1358.385983,7772.162391,-2442.679609,2068.457845
1358.386312,8142.265362,-3182.885551,919.314598
1358.386641,7105.977043,-6069.688724,1608.800546
1358.386970,5847.626942,-8808.450710,1532.190996
1358.387299,4663.297435,-11251.130318,1532.190996
1358.387628,3552.988522,-10881.027347,459.657299
1358.387958,3182.885551,-11251.130318,-153.219100
1358.388287,4441.235652,-10955.047942,383.047749
1358.388616,4737.318029,-10584.944971,0.000000
1358.388945,4737.318029,-11029.068536,-76.609550
1358.389274,3701.029710,-10288.862594,-306.438199
1358.389603,3108.864956,-9474.636058,-229.828649
1358.389932,3404.947333,-9326.594869,153.219100
1358.390261,3849.070898,-9326.594869,1762.019645
1358.390590,5773.606348,-6735.874072,2451.505594
1358.390919,7328.038826,-4959.379811,2911.162892
1358.391248,8956.491898,-3034.844362,2451.505594
1358.391577,9104.533087,-2590.720797,2145.067394
1358.391906,7920.203579,-4219.173869,919.314598
1358.392236,6143.709319,-6661.853478,919.314598
1358.392565,4959.379811,-9770.718434,689.485948
1358.392894,4441.235652,-11769.274478,1225.752797
1358.393223,4515.256246,-11621.233289,1378.971896
1358.393552,4737.318029,-11251.130318,1225.752797
1358.393881,4737.318029,-10362.883188,995.924147
1358.394210,4589.276840,-9400.615463,995.924147
1358.394539,4071.132681,-8438.347739,229.828649
1358.394868,3552.988522,-8216.285956,153.219100
1358.395197,3404.947333,-7846.182985,0.000000
1358.395526,3404.947333,-8586.388927,459.657299
1358.395855,3997.112087,-8142.265362,919.314598
1358.396184,5033.400406,-7846.182985,2068.457845
1358.396513,6291.750507,-7698.141797,2451.505594
1358.396843,6143.709319,-7328.038826,2068.457845
1358.397172,5477.523971,-8142.265362,1838.629195
1358.397501,4959.379811,-9252.574275,1455.581446
1358.397830,4293.194464,-10214.842000,1225.752797
1358.398159,4293.194464,-10732.986159,1532.190996
1358.398488,4515.256246,-11325.150913,2068.457845
1358.398817,4367.215058,-9844.739029,1838.629195
1358.399146,3552.988522,-9474.636058,689.485948
1358.399475,2368.659014,-8364.327145,0.000000
1358.399804,1924.535449,-8068.244768,0.000000
1358.400133,2886.803174,-7624.121203,-766.095498
1358.400462,3552.988522,-7328.038826,229.828649
1358.400791,4071.132681,-7920.203579,0.000000
1358.401121,4885.359217,-9622.677246,536.266849
1358.401450,5847.626942,-10288.862594,1149.143247
1358.401779,5921.647536,-10214.842000,1915.238745
1358.402108,5995.668130,-10658.965565,2145.067394
1358.402437,5995.668130,-9474.636058,2221.676944
1358.402766,4959.379811,-8660.409521,2068.457845
1358.403095,5403.503377,-8290.306550,2221.676944
1358.403424,5995.668130,-6883.915261,2604.724693
1358.403753,6957.935855,-6143.709319,2604.724693
1358.404082,6809.894666,-5403.503377,3294.210641
1358.404411,6661.853478,-5921.647536,3217.601092
1358.404740,5995.668130,-6513.812290,1915.238745
1358.405069,4219.173869,-6735.874072,1072.533697
1358.405398,3627.009116,-8882.471304,459.657299
1358.405728,3775.050304,-8808.450710,919.314598
1358.406057,4145.153275,-9326.594869,1072.533697
1358.406386,4589.276840,-10436.903782,1378.971896
1358.406715,4737.318029,-10214.842000,2221.676944
1358.407044,5403.503377,-10510.924376,2987.772442
1358.407373,6735.874072,-9252.574275,3217.601092
1358.407702,7328.038826,-7105.977043,4213.525239
1358.408031,7772.162391,-5551.544565,3907.087040
1358.408360,7772.162391,-4367.215058,3140.991542
1358.408689,8512.368333,-4441.235652,3294.210641
1358.409018,8364.327145,-3627.009116,2834.553343
1358.409347,7179.997637,-5033.400406,2681.334243
1358.409676,6143.709319,-5477.523971,2145.067394
1358.410005,5699.585753,-7550.100608,2068.457845
1358.410335,5995.668130,-9252.574275,2528.115143
1358.410664,5921.647536,-8956.491898,3217.601092
1358.410993,5995.668130,-8660.409521,3294.210641
1358.411322,6069.688724,-7920.203579,3370.820191
1358.411651,5699.585753,-6735.874072,3753.867940
1358.411980,6365.771101,-6957.935855,4290.134789
1358.412309,7624.121203,-6957.935855,4903.011187
1358.412638,7698.141797,-5921.647536,4749.792088
1358.412967,8142.265362,-4737.318029,5286.058936
1358.413296,9104.533087,-4145.153275,5362.668486
1358.413625,9030.512492,-3404.947333,4903.011187
1358.413954,7846.182985,-4589.276840,4826.401637
1358.414283,6365.771101,-5699.585753,3983.696590
1358.414613,6143.709319,-6957.935855,2911.162892
1358.414942,5403.503377,-8808.450710,3217.601092
1358.415271,4737.318029,-9992.780217,3447.429741
1358.415600,4589.276840,-11103.089130,3677.258390
1358.415929,4589.276840,-11177.109724,4136.915689
1358.416258,4071.132681,-10436.903782,4213.525239
1358.416587,3997.112087,-9400.615463,3524.039291
1358.416916,4293.194464,-8068.244768,3600.648841
1358.417245,5181.441594,-7698.141797,4136.915689
1358.417574,6365.771101,-6513.812290,4826.401637
1358.417903,7846.182985,-5551.544565,6052.154434
1358.418232,9104.533087,-4219.173869,6205.373534
1358.418561,9770.718434,-3108.864956,6435.202183
1358.418890,9696.697840,-2368.659014,6281.983084
1358.419220,9844.739029,-2590.720797,5592.497135
1358.419549,9252.574275,-3182.885551,5209.449386
1358.419878,8882.471304,-3775.050304,5286.058936
1358.420207,8142.265362,-5477.523971,4903.011187
1358.420536,7254.018232,-7476.080014,4826.401637
1358.420865,6143.709319,-8808.450710,3677.258390
1358.421194,4515.256246,-10066.800811,3524.039291
1358.421523,3478.967927,-10362.883188,3677.258390
1358.421852,3182.885551,-10658.965565,3140.991542
1358.422181,3256.906145,-10066.800811,3524.039291
1358.422510,3108.864956,-8586.388927,2987.772442
1358.422839,4515.256246,-7328.038826,3217.601092
1358.423168,6587.832884,-5995.668130,4519.963438
1358.423498,8586.388927,-4737.318029,5209.449386
1358.423827,10362.883188,-3849.070898,6052.154434
1358.424156,11029.068536,-2664.741391,5822.325785
1358.424485,10140.821405,-1998.556043,4749.792088
1358.424814,9178.553681,-2442.679609,4366.744339
1358.425143,7994.224174,-4293.194464,3830.477490
1358.425472,7254.018232,-6143.709319,3447.429741
1358.425801,6439.791695,-7846.182985,3064.381992
1358.426130,5921.647536,-9178.553681,2834.553343
1358.426459,5625.565159,-9622.677246,2911.162892
1358.426788,5773.606348,-9770.718434,3830.477490
1358.427117,5995.668130,-8882.471304,3753.867940
1358.427446,5551.544565,-7698.141797,3830.477490
1358.427775,6513.812290,-4959.379811,3830.477490
1358.428105,6957.935855,-4515.256246,3677.258390
1358.428434,8216.285956,-4663.297435,4213.525239
1358.428763,7994.224174,-4737.318029,3140.991542
1358.429092,8216.285956,-4885.359217,2757.943793
1358.429421,7994.224174,-6217.729913,3140.991542
1358.429750,7698.141797,-6735.874072,3753.867940
1358.430079,6809.894666,-7624.121203,2834.553343
1358.430408,6735.874072,-7624.121203,3677.258390
1358.430737,6587.832884,-7772.162391,3600.648841
1358.431066,6883.915261,-7994.224174,3907.087040
1358.431395,7402.059420,-7031.956449,4749.792088
1358.431724,7920.203579,-6735.874072,4060.306139
1358.432053,7624.121203,-5773.606348,4136.915689
1358.432382,6809.894666,-4959.379811,3753.867940
1358.432712,7476.080014,-5033.400406,3830.477490
1358.433041,8364.327145,-4663.297435,4213.525239
1358.433370,8216.285956,-4441.235652,4136.915689
1358.433699,7698.141797,-4441.235652,3524.039291
1358.434028,7254.018232,-5403.503377,3064.381992
1358.434357,6365.771101,-8364.327145,3370.820191
1358.434686,5181.441594,-10732.986159,2987.772442
1358.435015,4219.173869,-11029.068536,2987.772442
1358.435344,3849.070898,-10510.924376,3064.381992
1358.435673,4441.235652,-9622.677246,2987.772442
1358.436002,5255.462188,-7476.080014,3600.648841
1358.436331,6883.915261,-5773.606348,3830.477490
1358.436660,7179.997637,-5255.462188,4443.353888
1358.436990,7402.059420,-4293.194464,4979.620737
1358.437319,7846.182985,-3404.947333,4749.792088
1358.437648,8586.388927,-2812.782580,4596.572988
1358.437977,10066.800811,-2738.761985,4903.011187
1358.438306,10658.965565,-3478.967927,4443.353888
1358.438635,9104.533087,-5033.400406,3524.039291
1358.438964,7994.224174,-6217.729913,2374.896044
1358.439293,5921.647536,-9030.512492,1915.238745
1358.439622,4589.276840,-10807.006753,1608.800546
1358.439951,3034.844362,-12731.542202,2374.896044
1358.440280,3701.029710,-12583.501014,2681.334243
1358.440609,4885.359217,-10140.821405,2681.334243
1358.440938,4367.215058,-7179.997637,1991.848295
1358.441267,5995.668130,-4515.256246,3524.039291
1358.441597,8364.327145,-3923.091493,4366.744339
1358.441926,9770.718434,-2516.700203,5286.058936
1358.442255,9992.780217,-1258.350101,5209.449386
1358.442584,10436.903782,-592.164754,4136.915689
1358.442913,10140.821405,-1480.411884,3294.210641
1358.443242,8734.430116,-4737.318029,3600.648841
1358.443571,6957.935855,-6587.832884,2757.943793
1358.443900,6809.894666,-9104.533087,1532.190996
1358.444229,6587.832884,-10066.800811,1455.581446
1358.444558,5995.668130,-11325.150913,1608.800546
1358.444887,5255.462188,-12139.377449,1378.971896
1358.445216,2960.823768,-10362.883188,459.657299
1358.445545,2368.659014,-7550.100608,153.219100
1358.445875,4515.256246,-6439.791695,1762.019645
1358.446204,8586.388927,-4959.379811,3830.477490
1358.446533,10214.842000,-4071.132681,4979.620737
1358.446862,10066.800811,-2368.659014,4596.572988
1358.447191,9030.512492,-1628.453072,1991.848295
1358.447520,8216.285956,-2886.803174,1685.410096
1358.447849,8068.244768,-4589.276840,2221.676944
1358.448178,8586.388927,-6439.791695,1532.190996
1358.448507,8290.306550,-8364.327145,1838.629195
1358.448836,6439.791695,-9622.677246,1225.752797
1358.449165,4663.297435,-10140.821405,306.438199
1358.449494,3997.112087,-9992.780217,842.705048
1358.449823,5255.462188,-9548.656652,612.876398
1358.450152,5995.668130,-8068.244768,919.314598
1358.450482,6957.935855,-6957.935855,1608.800546
1358.450811,6661.853478,-5181.441594,1608.800546
1358.451140,6291.750507,-4737.318029,842.705048
1358.451469,6365.771101,-4293.194464,1532.190996
1358.451798,7402.059420,-3330.926739,1072.533697
1358.452127,8512.368333,-4219.173869,612.876398
1358.452456,8956.491898,-4145.153275,0.000000
1358.452785,8364.327145,-6513.812290,306.438199
1358.453114,8586.388927,-7031.956449,536.266849
1358.453443,8142.265362,-8290.306550,1225.752797
1358.453772,7254.018232,-8882.471304,766.095498
1358.454101,5995.668130,-9030.512492,-306.438199
1358.454430,3552.988522,-10362.883188,-766.095498
1358.454759,3923.091493,-9178.553681,-536.266849
1358.455089,5033.400406,-8734.430116,766.095498
1358.455418,6513.812290,-7254.018232,2068.457845
1358.455747,6883.915261,-5181.441594,1685.410096
1358.456076,6883.915261,-4293.194464,842.705048
1358.456405,7105.977043,-3404.947333,1991.848295
1358.456734,8142.265362,-3701.029710,1608.800546
1358.457063,10288.862594,-3923.091493,2298.286494
1358.457392,10732.986159,-3997.112087,2528.115143
1358.457721,9474.636058,-5403.503377,1302.362347
1358.458050,7105.977043,-7031.956449,0.000000
1358.458379,5181.441594,-9178.553681,-153.219100
1358.458708,5107.421000,-9844.739029,-1072.533697
1358.459037,5699.585753,-8882.471304,-766.095498
1358.459367,5699.585753,-8956.491898,0.000000
1358.459696,5847.626942,-7846.182985,0.000000
1358.460025,5033.400406,-7031.956449,0.000000
1358.460354,5847.626942,-6587.832884,536.266849
1358.460683,7698.141797,-5107.421000,1991.848295
1358.461012,9696.697840,-3775.050304,2374.896044
1358.461341,8882.471304,-4293.194464,2374.896044
1358.461670,7550.100608,-4441.235652,2528.115143
1358.461999,7105.977043,-5699.585753,1149.143247
1358.462328,7550.100608,-6883.915261,1608.800546
1358.462657,7402.059420,-6587.832884,1838.629195
1358.462986,7105.977043,-7402.059420,1838.629195
1358.463315,6661.853478,-7846.182985,1225.752797
1358.463644,5477.523971,-7846.182985,536.266849
1358.463974,5255.462188,-7179.997637,383.047749
1358.464303,5477.523971,-6365.771101,612.876398
1358.464632,6587.832884,-5625.565159,1225.752797
1358.464961,6291.750507,-5329.482782,612.876398
1358.465290,5551.544565,-5773.606348,536.266849
1358.465619,5551.544565,-7031.956449,995.924147
1358.465948,7624.121203,-7254.018232,1915.238745
1358.466277,9474.636058,-5995.668130,3447.429741
1358.466606,9178.553681,-4663.297435,1455.581446
1358.466935,7772.162391,-4737.318029,383.047749
1358.467264,7105.977043,-6735.874072,689.485948
1358.467593,7402.059420,-7994.224174,1302.362347
1358.467922,8290.306550,-6883.915261,1838.629195
1358.468252,8290.306550,-6809.894666,612.876398
1358.468581,6513.812290,-7624.121203,689.485948
1358.468910,4737.318029,-8882.471304,612.876398
1358.469239,4959.379811,-9474.636058,612.876398
1358.469568,5921.647536,-8586.388927,1455.581446
1358.469897,6735.874072,-6291.750507,1149.143247
1358.470226,7179.997637,-5181.441594,842.705048
1358.470555,7328.038826,-4959.379811,1455.581446
1358.470884,7994.224174,-4811.338623,1455.581446
1358.471213,8216.285956,-5107.421000,1838.629195
1358.471542,9326.594869,-4959.379811,2374.896044
1358.471871,8956.491898,-5329.482782,1762.019645
1358.472200,6735.874072,-7476.080014,1225.752797
1358.472529,4737.318029,-9178.553681,689.485948
1358.472859,4811.338623,-9400.615463,306.438199
1358.473188,6143.709319,-8882.471304,76.609550
1358.473517,6883.915261,-7179.997637,612.876398
1358.473846,7031.956449,-6217.729913,459.657299
1358.474175,6143.709319,-6439.791695,0.000000
1358.474504,5329.482782,-5699.585753,76.609550
1358.474833,6587.832884,-5625.565159,1149.143247
1358.475162,8956.491898,-5033.400406,2528.115143
1358.475491,9326.594869,-4293.194464,2374.896044
1358.475820,7624.121203,-5551.544565,1762.019645
1358.476149,5921.647536,-6069.688724,1302.362347
1358.476478,5551.544565,-7105.977043,995.924147
1358.476807,6661.853478,-6439.791695,1991.848295
1358.477137,7254.018232,-5847.626942,1762.019645
1358.477466,6661.853478,-5403.503377,229.828649
1358.477795,5625.565159,-6439.791695,-306.438199
1358.478124,5625.565159,-7328.038826,383.047749
1358.478453,7846.182985,-7328.038826,1762.019645
1358.478782,9252.574275,-7031.956449,1915.238745
1358.479111,8068.244768,-6735.874072,1455.581446
1358.479440,6143.709319,-6883.915261,0.000000
1358.479769,5107.421000,-7624.121203,-383.047749
1358.480098,5847.626942,-7772.162391,459.657299
1358.480427,7328.038826,-6809.894666,536.266849
1358.480756,8734.430116,-5107.421000,1378.971896
1358.481085,7994.224174,-4145.153275,689.485948
1358.481414,7031.956449,-5773.606348,459.657299
1358.481744,7031.956449,-6809.894666,1225.752797
1358.482073,8364.327145,-6513.812290,1149.143247
1358.482402,9326.594869,-6513.812290,995.924147
1358.482731,8808.450710,-7031.956449,1532.190996
1358.483060,6439.791695,-8438.347739,383.047749
1358.483389,4885.359217,-8882.471304,0.000000
1358.483718,5255.462188,-8660.409521,229.828649
1358.484047,6217.729913,-7254.018232,383.047749
1358.484376,7550.100608,-4737.318029,1072.533697
1358.484705,7179.997637,-5403.503377,842.705048
1358.485034,7328.038826,-5403.503377,1225.752797
1358.485363,7624.121203,-5699.585753,1685.410096
1358.485692,8512.368333,-5847.626942,2528.115143
1358.486021,8438.347739,-5107.421000,2298.286494
1358.486350,6291.750507,-5403.503377,919.314598
1358.486679,4589.276840,-6883.915261,-536.266849
1358.487008,3330.926739,-8068.244768,-995.924147
1358.487337,5033.400406,-8068.244768,383.047749
1358.487667,6883.915261,-7254.018232,153.219100
1358.487996,7920.203579,-6809.894666,1225.752797
1358.488325,7105.977043,-7105.977043,1455.581446
1358.488654,6809.894666,-7105.977043,919.314598
1358.488983,6883.915261,-7105.977043,1149.143247
1358.489312,7994.224174,-5699.585753,1608.800546
1358.489641,8586.388927,-4737.318029,1225.752797
1358.489970,6883.915261,-4885.359217,842.705048
1358.490299,5107.421000,-5773.606348,-383.047749
1358.490628,4885.359217,-7402.059420,689.485948
1358.490957,6439.791695,-7698.141797,1608.800546
1358.491286,7550.100608,-7105.977043,1991.848295
1358.491615,7550.100608,-6735.874072,1455.581446
1358.491944,6809.894666,-6587.832884,1455.581446
1358.492273,6587.832884,-7328.038826,995.924147
1358.492602,6883.915261,-6513.812290,1915.238745
1358.492931,7846.182985,-5403.503377,1915.238745
1358.493260,7772.162391,-5033.400406,1685.410096
1358.493589,6661.853478,-6365.771101,1072.533697
1358.493918,6069.688724,-7624.121203,689.485948
1358.494247,5921.647536,-7920.203579,842.705048
1358.494576,6883.915261,-7105.977043,1302.362347
1358.494905,8438.347739,-5699.585753,1915.238745
1358.495234,8290.306550,-4885.359217,842.705048
1358.495563,7105.977043,-5477.523971,766.095498
1358.495893,6587.832884,-6365.771101,612.876398
1358.496222,7550.100608,-7476.080014,1532.190996
1358.496551,8586.388927,-5995.668130,1915.238745
1358.496880,8290.306550,-6365.771101,1455.581446
1358.497209,7179.997637,-7476.080014,842.705048
1358.497538,5995.668130,-7846.182985,153.219100
1358.497867,6143.709319,-8216.285956,1455.581446
1358.498196,6957.935855,-7254.018232,1685.410096
1358.498525,8142.265362,-5477.523971,1915.238745
1358.498854,7846.182985,-4737.318029,1532.190996
1358.499183,6661.853478,-4959.379811,766.095498
1358.499512,6365.771101,-5255.462188,306.438199
1358.499841,7624.121203,-5699.585753,995.924147
1358.500170,9326.594869,-6513.812290,2298.286494
1358.500499,8364.327145,-6143.709319,1532.190996
1358.500828,6069.688724,-7328.038826,919.314598
1358.501157,4367.215058,-8734.430116,-153.219100
1358.501486,4589.276840,-8808.450710,0.000000
1358.501815,6217.729913,-7105.977043,842.705048
1358.502144,7328.038826,-6069.688724,919.314598
1358.502473,7328.038826,-4737.318029,383.047749
1358.502802,6069.688724,-5181.441594,459.657299
1358.503131,6735.874072,-6513.812290,612.876398
1358.503460,8512.368333,-5847.626942,1991.848295
1358.503789,9104.533087,-5181.441594,2374.896044
1358.504118,8364.327145,-5551.544565,1378.971896
1358.504448,5699.585753,-6883.915261,383.047749
1358.504777,4441.235652,-8364.327145,-459.657299
1358.505106,4811.338623,-8956.491898,536.266849
1358.505435,6809.894666,-7920.203579,995.924147
1358.505764,7476.080014,-6587.832884,1532.190996
1358.506093,6957.935855,-6217.729913,995.924147
1358.506422,6365.771101,-6217.729913,612.876398
1358.506751,6291.750507,-5921.647536,612.876398
1358.507080,8216.285956,-5995.668130,1838.629195
1358.507409,8808.450710,-5551.544565,2221.676944
1358.507738,7698.141797,-5699.585753,1225.752797
1358.508067,5773.606348,-7105.977043,383.047749
1358.508396,4885.359217,-8142.265362,76.609550
1358.508725,6439.791695,-8808.450710,306.438199
1358.509054,7624.121203,-7402.059420,689.485948
1358.509383,7994.224174,-6735.874072,766.095498
1358.509712,7476.080014,-6587.832884,229.828649
1358.510041,7179.997637,-6365.771101,76.609550
1358.510370,6957.935855,-7476.080014,536.266849
1358.510699,8586.388927,-6883.915261,1685.410096
1358.511028,9104.533087,-5107.421000,1532.190996
1358.511357,7550.100608,-5847.626942,766.095498
1358.511686,5625.565159,-6883.915261,766.095498
1358.512015,5921.647536,-6957.935855,76.609550
1358.512344,6809.894666,-7179.997637,995.924147
1358.512674,7476.080014,-6513.812290,1608.800546
1358.513003,8512.368333,-5921.647536,689.485948
1358.513332,7846.182985,-5921.647536,1225.752797
1358.513661,6735.874072,-6069.688724,1225.752797
1358.513990,7328.038826,-6143.709319,1991.848295
1358.514319,8512.368333,-5699.585753,2298.286494
1358.514648,7920.203579,-5699.585753,1455.581446
1358.514977,5773.606348,-6291.750507,842.705048
1358.515306,4589.276840,-7105.977043,0.000000
1358.515635,4293.194464,-7624.121203,229.828649
1358.515964,5699.585753,-7772.162391,919.314598
1358.516293,7624.121203,-6883.915261,1455.581446
1358.516622,7920.203579,-4737.318029,1149.143247
1358.516951,7402.059420,-5255.462188,842.705048
1358.517280,6587.832884,-5699.585753,995.924147
1358.517609,6957.935855,-5551.544565,2221.676944
1358.517938,9030.512492,-6513.812290,1838.629195
1358.518267,9030.512492,-5403.503377,1762.019645
1358.518596,7105.977043,-6735.874072,919.314598
1358.518925,5329.482782,-7698.141797,995.924147
1358.519254,4663.297435,-8142.265362,536.266849
1358.519583,5625.565159,-8216.285956,1225.752797
1358.519912,6735.874072,-6069.688724,1149.143247
1358.520241,6439.791695,-5699.585753,1149.143247
1358.520570,7031.956449,-5625.565159,536.266849
1358.520900,7179.997637,-6365.771101,1455.581446
1358.521229,7994.224174,-5773.606348,2145.067394
1358.521558,9326.594869,-5551.544565,1991.848295
1358.521887,8512.368333,-5625.565159,1608.800546
1358.522216,6809.894666,-6809.894666,536.266849
1358.522545,4737.318029,-8956.491898,459.657299
1358.522874,5551.544565,-9474.636058,1149.143247
1358.523203,7328.038826,-8142.265362,995.924147
1358.523532,8142.265362,-6883.915261,1072.533697
1358.523861,7402.059420,-6365.771101,766.095498
1358.524190,6069.688724,-6439.791695,-612.876398
1358.524519,5699.585753,-7105.977043,76.609550
1358.524848,6957.935855,-6587.832884,1225.752797
1358.525177,8808.450710,-5255.462188,2221.676944
1358.525506,9104.533087,-4737.318029,1838.629195
1358.525835,6661.853478,-6069.688724,766.095498
1358.526164,5847.626942,-7254.018232,995.924147
1358.526493,6143.709319,-7402.059420,1149.143247
1358.526822,7105.977043,-6809.894666,1302.362347
1358.527151,7550.100608,-5699.585753,1302.362347
1358.527480,7105.977043,-5847.626942,383.047749
1358.527809,6587.832884,-6217.729913,459.657299
1358.528138,6809.894666,-6587.832884,1532.190996
1358.528467,8512.368333,-5699.585753,2145.067394
1358.528796,8734.430116,-5847.626942,2298.286494
1358.529126,7179.997637,-6661.853478,1915.238745
1358.529455,5255.462188,-6291.750507,383.047749
1358.529784,4219.173869,-7476.080014,-1072.533697
1358.530113,5329.482782,-7031.956449,0.000000
1358.530442,7772.162391,-5995.668130,842.705048
1358.530771,8438.347739,-5181.441594,919.314598
