#time,accel_x,accel_y,accel_z
1294.081827,7031.956449,-6365.771101,1378.971896
1294.082157,6735.874072,-6883.915261,919.314598
1294.082488,7105.977043,-6883.915261,766.095498
1294.082818,7105.977043,-6365.771101,1149.143247
1294.083148,7624.121203,-7105.977043,919.314598
1294.083478,7772.162391,-7105.977043,1225.752797
1294.083809,7402.059420,-6661.853478,1225.752797
1294.084139,7179.997637,-6439.791695,536.266849
1294.084469,7105.977043,-6587.832884,842.705048
1294.084800,7402.059420,-6069.688724,1608.800546
1294.085130,7179.997637,-6365.771101,919.314598
1294.085460,7179.997637,-6217.729913,1072.533697
1294.085790,7105.977043,-6439.791695,1455.581446
1294.086121,6957.935855,-6291.750507,1072.533697
1294.086451,6735.874072,-5995.668130,1225.752797
1294.086781,6661.853478,-6217.729913,1072.533697
1294.087112,6513.812290,-6587.832884,689.485948
1294.087442,6809.894666,-6883.915261,1225.752797
1294.087772,7031.956449,-6957.935855,1378.971896
1294.088103,6883.915261,-6661.853478,1149.143247
1294.088433,6957.935855,-6957.935855,1378.971896
1294.088763,7031.956449,-6883.915261,919.314598
1294.089093,6513.812290,-7105.977043,689.485948
1294.089424,6587.832884,-6735.874072,612.876398
1294.089754,6513.812290,-7476.080014,689.485948
1294.090084,6809.894666,-6957.935855,1225.752797
1294.090415,7105.977043,-6735.874072,842.705048
1294.090745,7031.956449,-6883.915261,1225.752797
1294.091075,7328.038826,-6217.729913,1455.581446
1294.091405,6957.935855,-6883.915261,612.876398
1294.091736,6883.915261,-6513.812290,995.924147
1294.092066,7105.977043,-6513.812290,1072.533697
1294.092396,7476.080014,-5699.585753,612.876398
1294.092727,7328.038826,-6217.729913,995.924147
1294.093057,7031.956449,-6513.812290,1225.752797
1294.093387,7105.977043,-6365.771101,919.314598
1294.093718,7105.977043,-6365.771101,1149.143247
1294.094048,6661.853478,-6217.729913,612.876398
1294.094378,6587.832884,-6883.915261,612.876398
1294.094708,6661.853478,-6809.894666,1072.533697
1294.095039,7105.977043,-6809.894666,1455.581446
1294.095369,7031.956449,-6143.709319,1149.143247
1294.095699,7031.956449,-6291.750507,1225.752797
1294.096030,7031.956449,-6661.853478,612.876398
1294.096360,6883.915261,-6365.771101,766.095498
1294.096690,6513.812290,-6883.915261,995.924147
1294.097020,7254.018232,-6587.832884,995.924147
1294.097351,7402.059420,-6291.750507,689.485948
1294.097681,7179.997637,-6365.771101,919.314598
1294.098011,7179.997637,-6735.874072,1072.533697
1294.098342,7105.977043,-5995.668130,383.047749
1294.098672,7105.977043,-6735.874072,612.876398
1294.099002,7031.956449,-6439.791695,995.924147
1294.099333,7031.956449,-5921.647536,1225.752797
1294.099663,7402.059420,-6291.750507,995.924147
1294.099993,7402.059420,-6143.709319,1762.019645
1294.100323,7328.038826,-6069.688724,842.705048
1294.100654,7254.018232,-6291.750507,1455.581446
1294.100984,7031.956449,-6513.812290,1072.533697
1294.101314,6587.832884,-6587.832884,766.095498
1294.101645,6735.874072,-6661.853478,842.705048
1294.101975,6735.874072,-7179.997637,1378.971896
1294.102305,7031.956449,-6809.894666,1149.143247
1294.102635,6809.894666,-6809.894666,1072.533697
1294.102966,6513.812290,-6661.853478,1455.581446
1294.103296,6661.853478,-7031.956449,842.705048
1294.103626,6809.894666,-6809.894666,842.705048
1294.103957,6291.750507,-6883.915261,995.924147
1294.104287,6513.812290,-6513.812290,842.705048
1294.104617,7402.059420,-6957.935855,919.314598
1294.104948,7254.018232,-6661.853478,1302.362347
1294.105278,7179.997637,-6957.935855,1149.143247
1294.105608,7179.997637,-6661.853478,1378.971896
1294.105938,7179.997637,-6143.709319,842.705048
1294.106269,6735.874072,-6883.915261,766.095498
1294.106599,6661.853478,-6513.812290,919.314598
1294.106929,7105.977043,-6365.771101,689.485948
1294.107260,7105.977043,-5773.606348,1225.752797
1294.107590,7031.956449,-6069.688724,1915.238745
1294.107920,7179.997637,-6217.729913,1072.533697
1294.108250,7179.997637,-6513.812290,1149.143247
1294.108581,6513.812290,-6069.688724,919.314598
1294.108911,6513.812290,-6291.750507,689.485948
1294.109241,6661.853478,-6513.812290,1072.533697
1294.109572,6735.874072,-7031.956449,1149.143247
1294.109902,7105.977043,-6661.853478,1532.190996
1294.110232,6809.894666,-6513.812290,919.314598
1294.110563,6957.935855,-6735.874072,1225.752797
1294.110893,6957.935855,-7031.956449,612.876398
1294.111223,6587.832884,-6957.935855,1072.533697
1294.111553,6809.894666,-6957.935855,689.485948
1294.111884,7179.997637,-6291.750507,919.314598
1294.112214,7179.997637,-5699.585753,1302.362347
1294.112544,7328.038826,-6439.791695,919.314598
1294.112875,7402.059420,-6217.729913,1149.143247
1294.113205,7328.038826,-6439.791695,842.705048
1294.113535,7105.977043,-6439.791695,383.047749
1294.113865,7105.977043,-6217.729913,1378.971896
1294.114196,7550.100608,-6439.791695,995.924147
1294.114526,7328.038826,-6661.853478,1378.971896
1294.114856,7031.956449,-6365.771101,995.924147
1294.115187,7476.080014,-6587.832884,1455.581446
1294.115517,6883.915261,-6069.688724,1149.143247
1294.115847,6735.874072,-5773.606348,842.705048
1294.116178,6587.832884,-6365.771101,842.705048
1294.116508,6735.874072,-7031.956449,995.924147
1294.116838,6957.935855,-6439.791695,1149.143247
1294.117168,6735.874072,-6809.894666,1072.533697
1294.117499,6957.935855,-6587.832884,1378.971896
1294.117829,6735.874072,-7179.997637,919.314598
1294.118159,6883.915261,-7328.038826,1302.362347
1294.118490,6439.791695,-7105.977043,842.705048
1294.118820,6661.853478,-6809.894666,919.314598
1294.119150,7105.977043,-6809.894666,919.314598
1294.119480,6809.894666,-6587.832884,1302.362347
1294.119811,7179.997637,-6735.874072,1149.143247
1294.120141,7031.956449,-6513.812290,1455.581446
1294.120471,7105.977043,-6809.894666,842.705048
1294.120802,6809.894666,-6883.915261,689.485948
1294.121132,6735.874072,-6513.812290,1225.752797
1294.121462,7031.956449,-6513.812290,689.485948
1294.121793,7105.977043,-6587.832884,1225.752797
1294.122123,7031.956449,-6661.853478,1149.143247
1294.122453,6957.935855,-6365.771101,1149.143247
1294.122783,6883.915261,-6735.874072,1302.362347
1294.123114,6957.935855,-6365.771101,995.924147
1294.123444,6217.729913,-6069.688724,459.657299
1294.123774,6809.894666,-6365.771101,1225.752797
1294.124105,6883.915261,-6957.935855,995.924147
1294.124435,7402.059420,-6587.832884,1149.143247
1294.124765,7031.956449,-6735.874072,1072.533697
1294.125095,6957.935855,-6735.874072,1225.752797
1294.125426,7105.977043,-7105.977043,766.095498
1294.125756,6809.894666,-6587.832884,689.485948
1294.126086,6661.853478,-7105.977043,842.705048
1294.126417,7179.997637,-6661.853478,766.095498
1294.126747,7402.059420,-6513.812290,1378.971896
1294.127077,7328.038826,-6365.771101,995.924147
1294.127408,6883.915261,-6217.729913,1532.190996
1294.127738,7105.977043,-6291.750507,612.876398
1294.128068,6957.935855,-6291.750507,766.095498
1294.128398,7105.977043,-6439.791695,1149.143247
1294.128729,7624.121203,-5403.503377,536.266849
1294.129059,7254.018232,-6217.729913,1072.533697
1294.129389,7105.977043,-5921.647536,1685.410096
1294.129720,6809.894666,-6291.750507,1378.971896
1294.130050,7179.997637,-6365.771101,1225.752797
1294.130380,6439.791695,-5699.585753,1149.143247
1294.130710,6587.832884,-6661.853478,383.047749
1294.131041,6661.853478,-6957.935855,919.314598
1294.131371,6957.935855,-6883.915261,1532.190996
1294.131701,7031.956449,-6735.874072,766.095498
1294.132032,6809.894666,-6587.832884,842.705048
1294.132362,6809.894666,-6735.874072,1149.143247
1294.132692,6661.853478,-7031.956449,842.705048
1294.133023,6217.729913,-6809.894666,612.876398
1294.133353,6439.791695,-6883.915261,995.924147
1294.133683,7179.997637,-6957.935855,536.266849
1294.134013,7254.018232,-7031.956449,1072.533697
1294.134344,7254.018232,-6957.935855,919.314598
1294.134674,7328.038826,-6883.915261,1225.752797
1294.135004,6809.894666,-6143.709319,1762.019645
1294.135335,6957.935855,-6957.935855,919.314598
1294.135665,6661.853478,-6735.874072,1149.143247
1294.135995,6957.935855,-6291.750507,995.924147
1294.136325,7105.977043,-6291.750507,1455.581446
1294.136656,7031.956449,-6217.729913,1149.143247
1294.136986,7105.977043,-6143.709319,1225.752797
1294.137316,7179.997637,-6365.771101,1455.581446
1294.137647,6439.791695,-6513.812290,612.876398
1294.137977,6587.832884,-6661.853478,612.876398
1294.138307,6587.832884,-6809.894666,995.924147
1294.138638,6883.915261,-6957.935855,1149.143247
1294.138968,7031.956449,-6735.874072,919.314598
1294.139298,6365.771101,-6809.894666,1532.190996
1294.139628,7105.977043,-7031.956449,1225.752797
1294.139959,6883.915261,-6809.894666,842.705048
1294.140289,6735.874072,-6883.915261,689.485948
1294.140619,6587.832884,-6809.894666,842.705048
1294.140950,6957.935855,-6883.915261,842.705048
1294.141280,7254.018232,-6513.812290,1532.190996
1294.141610,7254.018232,-6143.709319,919.314598
1294.141940,7476.080014,-5995.668130,1072.533697
1294.142271,7624.121203,-6439.791695,919.314598
1294.142601,7402.059420,-6661.853478,842.705048
1294.142931,6883.915261,-6661.853478,842.705048
1294.143262,7254.018232,-6143.709319,1149.143247
1294.143592,7476.080014,-6365.771101,1149.143247
1294.143922,7328.038826,-5773.606348,995.924147
1294.144253,7328.038826,-6439.791695,1149.143247
1294.144583,7402.059420,-6365.771101,1149.143247
1294.144913,7179.997637,-6217.729913,919.314598
1294.145243,6735.874072,-6661.853478,612.876398
1294.145574,6587.832884,-6439.791695,306.438199
1294.145904,6735.874072,-7179.997637,1378.971896
1294.146234,7031.956449,-7031.956449,1302.362347
1294.146565,7105.977043,-6661.853478,1378.971896
1294.146895,6735.874072,-6587.832884,1455.581446
1294.147225,6735.874072,-6735.874072,1072.533697
1294.147555,6365.771101,-7105.977043,995.924147
1294.147886,6661.853478,-6957.935855,842.705048
1294.148212,6883.915261,-6809.894666,919.314598
1294.148541,7328.038826,-6143.709319,1225.752797
1294.148871,7105.977043,-6587.832884,1225.752797
1294.149201,7105.977043,-6883.915261,1149.143247
1294.149530,7254.018232,-6291.750507,919.314598
1294.149860,6957.935855,-6809.894666,842.705048
1294.150189,6957.935855,-6809.894666,1149.143247
1294.150519,7031.956449,-6069.688724,1149.143247
1294.150849,7402.059420,-6513.812290,995.924147
1294.151178,7031.956449,-6587.832884,1149.143247
1294.151508,7105.977043,-6069.688724,1072.533697
1294.151838,7254.018232,-6513.812290,689.485948
1294.152167,7105.977043,-6513.812290,919.314598
1294.152497,6513.812290,-6587.832884,1532.190996
1294.152826,6513.812290,-6809.894666,1072.533697
1294.153156,6661.853478,-6661.853478,766.095498
1294.153486,6809.894666,-7105.977043,1149.143247
1294.153815,6735.874072,-6439.791695,919.314598
1294.154145,6809.894666,-6439.791695,1149.143247
1294.154474,6291.750507,-6291.750507,1225.752797
1294.154804,6735.874072,-6735.874072,842.705048
1294.155134,6661.853478,-6883.915261,1225.752797
1294.155463,6883.915261,-6809.894666,153.219100
1294.155793,7105.977043,-6587.832884,1072.533697
1294.156123,7105.977043,-6513.812290,1302.362347
1294.156452,7402.059420,-6513.812290,1149.143247
1294.156782,7328.038826,-6587.832884,1302.362347
1294.157111,7328.038826,-6439.791695,995.924147
1294.157441,7105.977043,-6365.771101,1149.143247
1294.157771,7328.038826,-5921.647536,1378.971896
1294.158100,7179.997637,-5995.668130,919.314598
1294.158430,7328.038826,-5847.626942,1149.143247
1294.158760,7179.997637,-6291.750507,1225.752797
1294.159089,7179.997637,-6143.709319,1072.533697
1294.159419,7105.977043,-6365.771101,1225.752797
1294.159748,6735.874072,-6439.791695,153.219100
1294.160078,6513.812290,-6809.894666,842.705048
1294.160408,6587.832884,-6735.874072,842.705048
1294.160737,7105.977043,-6661.853478,1149.143247
1294.161067,7105.977043,-6809.894666,1149.143247
1294.161396,7031.956449,-6439.791695,1225.752797
1294.161726,6735.874072,-6883.915261,1149.143247
1294.162056,6587.832884,-6809.894666,842.705048
1294.162385,6661.853478,-7179.997637,612.876398
1294.162715,6883.915261,-6957.935855,919.314598
1294.163045,7105.977043,-6735.874072,995.924147
1294.163374,7179.997637,-6809.894666,1225.752797
1294.163704,7179.997637,-6883.915261,1608.800546
1294.164033,7328.038826,-6587.832884,1149.143247
1294.164363,7031.956449,-6661.853478,842.705048
1294.164693,6883.915261,-6809.894666,766.095498
1294.165022,7105.977043,-6291.750507,995.924147
1294.165352,7402.059420,-6069.688724,383.047749
1294.165681,6735.874072,-6365.771101,1455.581446
1294.166011,7105.977043,-6217.729913,1225.752797
1294.166341,6809.894666,-6809.894666,1072.533697
1294.166670,6661.853478,-6143.709319,1225.752797
1294.167000,6809.894666,-6365.771101,919.314598
1294.167330,6439.791695,-6809.894666,842.705048
1294.167659,6439.791695,-7031.956449,766.095498
1294.167989,6809.894666,-6809.894666,1072.533697
1294.168318,7698.141797,-6809.894666,1225.752797
1294.168648,7031.956449,-6809.894666,1149.143247
1294.168978,6809.894666,-6883.915261,1149.143247
1294.169307,6661.853478,-6883.915261,689.485948
1294.169637,6957.935855,-6365.771101,766.095498
1294.169967,6365.771101,-6809.894666,612.876398
1294.170296,7105.977043,-6513.812290,995.924147
1294.170626,7105.977043,-6291.750507,919.314598
1294.170955,7254.018232,-6513.812290,1149.143247
1294.171285,7179.997637,-6439.791695,1685.410096
1294.171615,7402.059420,-6143.709319,995.924147
1294.171944,7105.977043,-6513.812290,842.705048
1294.172274,7105.977043,-6513.812290,1072.533697
1294.172603,7402.059420,-6513.812290,995.924147
1294.172933,7624.121203,-5995.668130,1455.581446
1294.173263,7328.038826,-6291.750507,1149.143247
1294.173592,7105.977043,-6365.771101,1532.190996
1294.173922,6883.915261,-6365.771101,1378.971896
1294.174252,6365.771101,-6291.750507,919.314598
1294.174581,6587.832884,-6291.750507,766.095498
1294.174911,6809.894666,-6587.832884,842.705048
1294.175240,6883.915261,-6735.874072,1072.533697
1294.175570,6883.915261,-6883.915261,1378.971896
1294.175900,6957.935855,-5995.668130,995.924147
1294.176229,6661.853478,-7031.956449,1072.533697
1294.176559,6735.874072,-7328.038826,689.485948
1294.176888,6365.771101,-7254.018232,842.705048
1294.177218,6735.874072,-6883.915261,995.924147
1294.177548,7254.018232,-6587.832884,536.266849
1294.177877,7179.997637,-6439.791695,1149.143247
1294.178207,7105.977043,-6513.812290,995.924147
1294.178537,7105.977043,-6217.729913,1072.533697
1294.178866,7031.956449,-6143.709319,1378.971896
1294.179196,6587.832884,-6513.812290,612.876398
1294.179525,7031.956449,-6587.832884,1149.143247
1294.179855,7105.977043,-6069.688724,1149.143247
1294.180185,7476.080014,-6513.812290,1072.533697
1294.180514,7105.977043,-6069.688724,1532.190996
1294.180844,7105.977043,-6735.874072,1149.143247
1294.181174,7254.018232,-6439.791695,1225.752797
1294.181503,7105.977043,-6513.812290,842.705048
1294.181833,6809.894666,-6513.812290,536.266849
1294.182162,6587.832884,-6883.915261,1149.143247
1294.182492,7031.956449,-6587.832884,919.314598
1294.182822,6883.915261,-6661.853478,1072.533697
1294.183151,6809.894666,-6439.791695,1072.533697
1294.183481,7031.956449,-7031.956449,995.924147
1294.183810,6883.915261,-6957.935855,1072.533697
1294.184140,6587.832884,-6957.935855,919.314598
1294.184470,6883.915261,-6883.915261,842.705048
1294.184799,7179.997637,-6661.853478,995.924147
1294.185129,7179.997637,-6513.812290,1455.581446
1294.185459,7254.018232,-6587.832884,919.314598
1294.185788,7328.038826,-6365.771101,1762.019645
1294.186118,7254.018232,-6439.791695,1072.533697
1294.186447,7179.997637,-6365.771101,229.828649
1294.186777,6809.894666,-6291.750507,995.924147
1294.187107,6809.894666,-6291.750507,1072.533697
1294.187436,7105.977043,-6143.709319,1302.362347
1294.187766,6735.874072,-5995.668130,1225.752797
1294.188095,7031.956449,-5921.647536,1225.752797
1294.188425,7179.997637,-6143.709319,919.314598
1294.188755,6809.894666,-6439.791695,1149.143247
1294.189084,6513.812290,-6291.750507,919.314598
1294.189414,6735.874072,-6661.853478,1455.581446
1294.189744,7031.956449,-6883.915261,1225.752797
1294.190073,7031.956449,-6883.915261,766.095498
1294.190403,7105.977043,-6735.874072,1149.143247
1294.190732,6957.935855,-6883.915261,1225.752797
1294.191062,6513.812290,-6809.894666,1149.143247
1294.191392,6439.791695,-6957.935855,842.705048
1294.191721,6735.874072,-6809.894666,919.314598
1294.192051,6957.935855,-6809.894666,842.705048
1294.192381,7254.018232,-6587.832884,1455.581446
1294.192710,6883.915261,-6735.874072,1225.752797
1294.193040,7254.018232,-6217.729913,995.924147
1294.193369,7254.018232,-6439.791695,842.705048
1294.193699,7105.977043,-6883.915261,842.705048
1294.194029,6809.894666,-5995.668130,842.705048
1294.194358,7179.997637,-6587.832884,919.314598
1294.194688,7328.038826,-6587.832884,995.924147
1294.195017,6957.935855,-6217.729913,995.924147
1294.195347,7105.977043,-6735.874072,1225.752797
1294.195677,7179.997637,-6735.874072,1072.533697
1294.196006,6587.832884,-6143.709319,306.438199
1294.196336,6439.791695,-6365.771101,536.266849
1294.196666,6365.771101,-6809.894666,995.924147
1294.196995,6883.915261,-6735.874072,1685.410096
1294.197325,7031.956449,-6809.894666,1072.533697
1294.197654,7105.977043,-6513.812290,766.095498
1294.197984,7031.956449,-6365.771101,1149.143247
1294.198314,6883.915261,-7031.956449,689.485948
1294.198643,6957.935855,-5995.668130,1455.581446
1294.198973,7179.997637,-5995.668130,995.924147
1294.199302,7994.224174,-5773.606348,1072.533697
1294.199632,8364.327145,-5329.482782,1455.581446
1294.199962,8512.368333,-5699.585753,612.876398
1294.200291,7550.100608,-6143.709319,612.876398
1294.200621,6513.812290,-6883.915261,153.219100
1294.200951,5921.647536,-6883.915261,-229.828649
1294.201280,6291.750507,-6957.935855,689.485948
1294.201610,8068.244768,-6883.915261,1915.238745
1294.201939,8512.368333,-5995.668130,1762.019645
1294.202269,8734.430116,-4811.338623,1991.848295
1294.202599,8734.430116,-3775.050304,1685.410096
1294.202928,8438.347739,-4367.215058,1378.971896
1294.203258,8512.368333,-4219.173869,1532.190996
1294.203588,8512.368333,-4515.256246,1302.362347
1294.203917,8438.347739,-4959.379811,1225.752797
1294.204247,8216.285956,-4737.318029,766.095498
1294.204576,8290.306550,-5847.626942,1225.752797
1294.204906,8438.347739,-4663.297435,919.314598
1294.205236,8660.409521,-5329.482782,1455.581446
1294.205565,8364.327145,-5699.585753,919.314598
1294.205895,7772.162391,-5625.565159,383.047749
1294.206224,7254.018232,-6365.771101,-76.609550
1294.206554,7328.038826,-5699.585753,459.657299
1294.206884,7550.100608,-5699.585753,612.876398
1294.207213,8512.368333,-4737.318029,995.924147
1294.207543,9474.636058,-4589.276840,1838.629195
1294.207873,9844.739029,-4367.215058,1762.019645
1294.208202,9770.718434,-3182.885551,1378.971896
1294.208532,9400.615463,-3701.029710,1532.190996
1294.208861,9474.636058,-2664.741391,1225.752797
1294.209191,9696.697840,-2442.679609,1608.800546
1294.209521,9696.697840,-3627.009116,1608.800546
1294.209850,9474.636058,-3552.988522,1149.143247
1294.210180,9548.656652,-4811.338623,1149.143247
1294.210509,9030.512492,-4737.318029,1608.800546
1294.210839,8586.388927,-5403.503377,919.314598
1294.211169,8068.244768,-5551.544565,995.924147
1294.211498,7846.182985,-6217.729913,842.705048
1294.211828,7550.100608,-6291.750507,1378.971896
1294.212158,8068.244768,-5255.462188,919.314598
1294.212487,8290.306550,-4737.318029,1072.533697
1294.212817,8956.491898,-4219.173869,1302.362347
1294.213146,8808.450710,-4293.194464,1072.533697
1294.213476,8882.471304,-4515.256246,1072.533697
1294.213806,9548.656652,-3923.091493,229.828649
1294.214135,9326.594869,-4663.297435,306.438199
1294.214465,9474.636058,-4367.215058,766.095498
1294.214795,9474.636058,-5181.441594,459.657299
1294.215124,9548.656652,-5255.462188,153.219100
1294.215454,8956.491898,-5107.421000,0.000000
1294.215783,8882.471304,-5329.482782,76.609550
1294.216113,9252.574275,-4737.318029,612.876398
1294.216443,9104.533087,-5329.482782,1072.533697
1294.216772,9400.615463,-3478.967927,2834.553343
1294.217102,9474.636058,-3923.091493,1991.848295
1294.217431,9474.636058,-3478.967927,2298.286494
1294.217761,9474.636058,-2294.638420,1685.410096
1294.218091,9474.636058,-3034.844362,1762.019645
1294.218420,9252.574275,-2442.679609,1455.581446
1294.218750,9622.677246,-3108.864956,1685.410096
1294.219080,9844.739029,-3108.864956,995.924147
1294.219409,9178.553681,-3478.967927,459.657299
1294.219739,8882.471304,-4663.297435,-383.047749
1294.220068,8142.265362,-5477.523971,-459.657299
1294.220398,8364.327145,-5329.482782,-536.266849
1294.220728,8290.306550,-6661.853478,229.828649
1294.221057,8808.450710,-6809.894666,76.609550
1294.221387,8956.491898,-6513.812290,1149.143247
1294.221716,8660.409521,-6365.771101,1838.629195
1294.222046,8734.430116,-5921.647536,1991.848295
1294.222376,8808.450710,-5107.421000,2068.457845
1294.222705,8808.450710,-4737.318029,2145.067394
1294.223035,8734.430116,-3108.864956,1762.019645
1294.223365,9326.594869,-2072.576638,1455.581446
1294.223694,9770.718434,-1776.494261,689.485948
1294.224024,9770.718434,-1924.535449,459.657299
1294.224353,9992.780217,-2516.700203,306.438199
1294.224683,10066.800811,-3182.885551,229.828649
1294.225013,9696.697840,-4589.276840,-229.828649
1294.225342,8808.450710,-5403.503377,76.609550
1294.225672,8512.368333,-7550.100608,-229.828649
1294.226002,7476.080014,-8660.409521,995.924147
1294.226331,7105.977043,-8882.471304,1455.581446
1294.226661,6365.771101,-9474.636058,1455.581446
1294.226990,5921.647536,-7328.038826,919.314598
1294.227320,5551.544565,-7105.977043,459.657299
1294.227650,6291.750507,-6513.812290,612.876398
1294.227979,6735.874072,-5255.462188,1149.143247
1294.228309,7698.141797,-4367.215058,1072.533697
1294.228638,8364.327145,-3256.906145,1532.190996
1294.228968,9326.594869,-1850.514855,1149.143247
1294.229298,10288.862594,-2442.679609,1149.143247
1294.229627,11251.130318,-2886.803174,1685.410096
1294.229957,11325.150913,-3330.926739,1149.143247
1294.230287,10658.965565,-4071.132681,842.705048
1294.230616,9252.574275,-5255.462188,383.047749
1294.230946,7994.224174,-6809.894666,229.828649
1294.231275,6809.894666,-8364.327145,919.314598
1294.231605,6143.709319,-8216.285956,1685.410096
1294.231935,6291.750507,-7846.182985,2068.457845
1294.232264,5921.647536,-7476.080014,1838.629195
1294.232594,5699.585753,-7254.018232,1225.752797
1294.232923,5329.482782,-7179.997637,459.657299
1294.233253,5625.565159,-6809.894666,76.609550
1294.233583,6217.729913,-5921.647536,-76.609550
1294.233912,7105.977043,-6143.709319,229.828649
1294.234242,8142.265362,-5995.668130,1302.362347
1294.234572,8808.450710,-5477.523971,1302.362347
1294.234901,8956.491898,-4663.297435,766.095498
1294.235231,8808.450710,-4515.256246,689.485948
1294.235560,9696.697840,-4663.297435,766.095498
1294.235890,10140.821405,-5329.482782,1455.581446
1294.236220,9474.636058,-5551.544565,1991.848295
1294.236549,8438.347739,-6143.709319,995.924147
1294.236879,7105.977043,-6661.853478,1608.800546
1294.237209,5921.647536,-6883.915261,1149.143247
1294.237538,4737.318029,-7698.141797,842.705048
1294.237868,3997.112087,-7402.059420,1532.190996
1294.238197,4663.297435,-7772.162391,306.438199
1294.238527,5403.503377,-7846.182985,612.876398
1294.238857,5847.626942,-6809.894666,306.438199
1294.239186,7105.977043,-6513.812290,1302.362347
1294.239516,7846.182985,-5847.626942,2451.505594
1294.239845,8364.327145,-4515.256246,1762.019645
1294.240175,7402.059420,-3997.112087,1149.143247
1294.240505,7550.100608,-4145.153275,1149.143247
1294.240834,8364.327145,-5107.421000,1302.362347
1294.241164,8290.306550,-6291.750507,1302.362347
1294.241494,7846.182985,-6143.709319,1685.410096
1294.241823,7476.080014,-7105.977043,1685.410096
1294.242153,7254.018232,-7624.121203,2145.067394
1294.242482,6291.750507,-8586.388927,2604.724693
1294.242812,5181.441594,-8438.347739,1838.629195
1294.243142,4367.215058,-8512.368333,76.609550
1294.243471,3552.988522,-8364.327145,-306.438199
1294.243801,3775.050304,-9104.533087,-689.485948
1294.244130,4959.379811,-8290.306550,0.000000
1294.244460,5773.606348,-7179.997637,76.609550
1294.244790,6587.832884,-7476.080014,689.485948
1294.245119,7179.997637,-5921.647536,1608.800546
1294.245449,8586.388927,-4071.132681,2068.457845
1294.245779,9178.553681,-3775.050304,1991.848295
1294.246108,9326.594869,-3108.864956,1455.581446
1294.246438,9622.677246,-3552.988522,1532.190996
1294.246767,9326.594869,-4441.235652,1608.800546
1294.247097,9474.636058,-4515.256246,1072.533697
1294.247427,8216.285956,-7179.997637,2145.067394
1294.247756,7402.059420,-8068.244768,1991.848295
1294.248086,6069.688724,-9178.553681,1302.362347
1294.248416,4737.318029,-8660.409521,612.876398
1294.248745,3997.112087,-8882.471304,-766.095498
1294.249075,3552.988522,-8290.306550,-995.924147
1294.249404,4145.153275,-7994.224174,-689.485948
1294.249734,4663.297435,-7772.162391,-153.219100
1294.250064,5551.544565,-6587.832884,536.266849
1294.250393,6809.894666,-6365.771101,919.314598
1294.250722,7772.162391,-5033.400406,1225.752797
1294.251052,8956.491898,-4811.338623,1991.848295
1294.251381,10214.842000,-4441.235652,2221.676944
1294.251710,10658.965565,-3701.029710,1991.848295
1294.252040,10584.944971,-4367.215058,1378.971896
1294.252369,9474.636058,-5921.647536,1915.238745
1294.252698,8734.430116,-6513.812290,1685.410096
1294.253028,7476.080014,-7254.018232,2068.457845
1294.253357,5847.626942,-7846.182985,919.314598
1294.253686,4515.256246,-8364.327145,-689.485948
1294.254016,3552.988522,-9326.594869,0.000000
1294.254345,3552.988522,-9400.615463,-536.266849
1294.254674,3552.988522,-7772.162391,-689.485948
1294.255004,4219.173869,-7550.100608,-306.438199
1294.255333,5255.462188,-7402.059420,842.705048
1294.255662,6809.894666,-5847.626942,1455.581446
1294.255991,7698.141797,-4367.215058,1915.238745
1294.256321,9622.677246,-3478.967927,1991.848295
1294.256650,11029.068536,-3108.864956,1915.238745
1294.256979,11251.130318,-3404.947333,2298.286494
1294.257309,9918.759623,-4663.297435,2145.067394
1294.257638,9474.636058,-5921.647536,2145.067394
1294.257967,7772.162391,-7476.080014,1532.190996
1294.258297,6143.709319,-8586.388927,995.924147
1294.258626,4515.256246,-9030.512492,153.219100
1294.258955,3552.988522,-8586.388927,-919.314598
1294.259285,3552.988522,-8660.409521,-1225.752797
1294.259614,4145.153275,-8956.491898,0.000000
1294.259943,5033.400406,-7698.141797,76.609550
1294.260273,6291.750507,-6809.894666,612.876398
1294.260602,6735.874072,-5181.441594,383.047749
1294.260931,7402.059420,-4737.318029,1762.019645
1294.261261,8808.450710,-4293.194464,2145.067394
1294.261590,9918.759623,-3627.009116,2068.457845
1294.261919,10066.800811,-2812.782580,1455.581446
1294.262249,9844.739029,-4663.297435,1915.238745
1294.262578,9918.759623,-5847.626942,2451.505594
1294.262907,9474.636058,-6587.832884,2834.553343
1294.263237,7772.162391,-7920.203579,2298.286494
1294.263566,5773.606348,-7846.182985,1608.800546
1294.263895,4293.194464,-9326.594869,76.609550
1294.264225,2590.720797,-10140.821405,-612.876398
1294.264554,1776.494261,-10214.842000,-1072.533697
1294.264883,2738.761985,-9252.574275,-995.924147
1294.265213,4737.318029,-8290.306550,306.438199
1294.265542,6143.709319,-7031.956449,1225.752797
1294.265871,7698.141797,-4959.379811,1685.410096
1294.266201,9474.636058,-3108.864956,2068.457845
1294.266530,10881.027347,-2368.659014,1532.190996
1294.266859,11029.068536,-1850.514855,2068.457845
1294.267189,10362.883188,-2960.823768,1608.800546
1294.267518,10140.821405,-4737.318029,1149.143247
1294.267847,9030.512492,-6587.832884,1762.019645
1294.268177,7624.121203,-8956.491898,2757.943793
1294.268506,5995.668130,-9474.636058,1455.581446
1294.268835,4959.379811,-8882.471304,842.705048
1294.269165,3404.947333,-9178.553681,-766.095498
1294.269494,3256.906145,-8882.471304,-919.314598
1294.269823,3034.844362,-8142.265362,-612.876398
1294.270153,3775.050304,-7994.224174,0.000000
1294.270482,5403.503377,-6587.832884,612.876398
1294.270811,7105.977043,-4737.318029,1302.362347
1294.271141,8142.265362,-4589.276840,1915.238745
1294.271470,9104.533087,-3849.070898,2221.676944
1294.271799,10288.862594,-3627.009116,1608.800546
1294.272128,10732.986159,-3552.988522,1608.800546
1294.272458,10140.821405,-4663.297435,1838.629195
1294.272787,9622.677246,-5551.544565,2374.896044
1294.273116,8586.388927,-7698.141797,1762.019645
1294.273446,7254.018232,-8808.450710,1991.848295
1294.273775,6291.750507,-8586.388927,1532.190996
1294.274104,5107.421000,-9030.512492,459.657299
1294.274434,3404.947333,-8438.347739,-919.314598
1294.274763,2590.720797,-8586.388927,-1455.581446
1294.275092,2590.720797,-8364.327145,-1225.752797
1294.275422,3997.112087,-8364.327145,-383.047749
1294.275751,5847.626942,-7550.100608,1302.362347
1294.276080,7550.100608,-6069.688724,1532.190996
1294.276410,8586.388927,-4293.194464,1532.190996
1294.276739,9474.636058,-3478.967927,1762.019645
1294.277068,10955.047942,-3256.906145,2145.067394
1294.277398,11991.336260,-3627.009116,2604.724693
1294.277727,10807.006753,-4441.235652,2221.676944
1294.278056,9696.697840,-5921.647536,2068.457845
1294.278386,8068.244768,-7624.121203,1915.238745
1294.278715,6143.709319,-8956.491898,1378.971896
1294.279044,3701.029710,-9474.636058,612.876398
1294.279374,2590.720797,-8882.471304,-842.705048
1294.279703,2442.679609,-8586.388927,-1378.971896
1294.280032,3182.885551,-7550.100608,-612.876398
1294.280362,4737.318029,-7254.018232,153.219100
1294.280691,5329.482782,-6143.709319,689.485948
1294.281020,6957.935855,-4885.359217,842.705048
1294.281350,8290.306550,-4293.194464,1532.190996
1294.281679,9548.656652,-3923.091493,2068.457845
1294.282008,10288.862594,-4811.338623,1532.190996
1294.282338,10140.821405,-4737.318029,1838.629195
1294.282667,9992.780217,-5181.441594,1532.190996
1294.282996,9696.697840,-6587.832884,2298.286494
1294.283326,9252.574275,-6957.935855,2451.505594
1294.283655,7105.977043,-8068.244768,2374.896044
1294.283984,5551.544565,-8068.244768,1149.143247
1294.284314,3923.091493,-8512.368333,229.828649
1294.284643,3182.885551,-8364.327145,-153.219100
1294.284972,2812.782580,-8364.327145,-689.485948
1294.285302,2886.803174,-8142.265362,-536.266849
1294.285631,4219.173869,-7698.141797,229.828649
1294.285960,5921.647536,-6883.915261,995.924147
1294.286290,7476.080014,-4959.379811,1455.581446
1294.286619,8660.409521,-4515.256246,1149.143247
1294.286948,9844.739029,-4145.153275,1608.800546
1294.287278,10732.986159,-3997.112087,1608.800546
1294.287607,10658.965565,-4737.318029,1838.629195
1294.287936,10140.821405,-5181.441594,1991.848295
1294.288265,9400.615463,-6957.935855,1762.019645
1294.288595,8882.471304,-7550.100608,1915.238745
1294.288924,7402.059420,-8290.306550,2221.676944
1294.289253,5625.565159,-7772.162391,1455.581446
1294.289583,4145.153275,-7105.977043,-689.485948
1294.289912,3404.947333,-6809.894666,-1072.533697
1294.290241,3330.926739,-7105.977043,-1378.971896
1294.290571,3997.112087,-7772.162391,-383.047749
1294.290900,5477.523971,-6957.935855,229.828649
1294.291229,6069.688724,-6809.894666,842.705048
1294.291559,7476.080014,-6291.750507,1378.971896
1294.291888,8808.450710,-5107.421000,1915.238745
1294.292217,9770.718434,-4441.235652,2298.286494
1294.292547,10584.944971,-3627.009116,1991.848295
1294.292876,9992.780217,-4145.153275,1838.629195
1294.293205,9696.697840,-5329.482782,1991.848295
1294.293535,9178.553681,-5921.647536,2298.286494
1294.293864,8438.347739,-7031.956449,2757.943793
1294.294193,6957.935855,-8068.244768,1762.019645
1294.294523,4663.297435,-7698.141797,842.705048
1294.294852,3849.070898,-7179.997637,-689.485948
1294.295181,3404.947333,-7920.203579,-1072.533697
1294.295511,3404.947333,-8364.327145,-229.828649
1294.295840,4145.153275,-8660.409521,-766.095498
1294.296169,4959.379811,-8364.327145,0.000000
1294.296499,6513.812290,-7105.977043,0.000000
1294.296828,7550.100608,-6439.791695,1072.533697
1294.297157,8734.430116,-5847.626942,1838.629195
1294.297487,9622.677246,-5033.400406,1838.629195
1294.297816,9400.615463,-4737.318029,1608.800546
1294.298145,9326.594869,-3775.050304,1532.190996
1294.298475,9104.533087,-5329.482782,2681.334243
1294.298804,9030.512492,-7105.977043,2681.334243
1294.299133,7920.203579,-7254.018232,2451.505594
1294.299463,6217.729913,-7772.162391,1608.800546
1294.299792,4663.297435,-7105.977043,459.657299
1294.300121,3923.091493,-7846.182985,-612.876398
1294.300451,3849.070898,-8068.244768,-689.485948
1294.300780,4441.235652,-8216.285956,-383.047749
1294.301109,5329.482782,-7698.141797,229.828649
1294.301439,6143.709319,-6957.935855,1072.533697
1294.301768,6513.812290,-6513.812290,1225.752797
1294.302097,7105.977043,-5477.523971,1455.581446
1294.302427,8808.450710,-4663.297435,1455.581446
1294.302756,9326.594869,-3775.050304,1685.410096
1294.303085,9918.759623,-3923.091493,1608.800546
1294.303415,10214.842000,-4737.318029,2757.943793
1294.303744,10362.883188,-5033.400406,2604.724693
1294.304073,9474.636058,-6143.709319,2681.334243
1294.304403,7994.224174,-6957.935855,2681.334243
1294.304732,5921.647536,-7772.162391,1455.581446
1294.305061,3997.112087,-8142.265362,0.000000
1294.305390,2738.761985,-8882.471304,-995.924147
1294.305720,2812.782580,-9252.574275,-1302.362347
1294.306049,3775.050304,-9696.697840,0.000000
1294.306378,4589.276840,-8660.409521,1072.533697
1294.306708,5625.565159,-7254.018232,1072.533697
1294.307037,6587.832884,-4811.338623,1532.190996
1294.307366,8068.244768,-4441.235652,1608.800546
1294.307696,9548.656652,-2960.823768,1685.410096
1294.308025,9696.697840,-2516.700203,1302.362347
1294.308354,9696.697840,-3701.029710,1685.410096
1294.308684,10288.862594,-5033.400406,2374.896044
1294.309013,10732.986159,-6735.874072,3830.477490
1294.309342,9474.636058,-7328.038826,2987.772442
1294.309672,7031.956449,-7624.121203,1378.971896
1294.310001,5181.441594,-7846.182985,0.000000
1294.310330,3478.967927,-8882.471304,-1225.752797
1294.310660,3627.009116,-8586.388927,-995.924147
1294.310989,3701.029710,-8364.327145,-1302.362347
1294.311318,3923.091493,-8512.368333,-459.657299
1294.311648,4293.194464,-8660.409521,0.000000
1294.311977,5107.421000,-7698.141797,306.438199
1294.312306,6661.853478,-6587.832884,1072.533697
1294.312636,8734.430116,-4811.338623,1532.190996
1294.312965,10288.862594,-3182.885551,1991.848295
1294.313294,11029.068536,-3478.967927,2221.676944
1294.313624,11103.089130,-2886.803174,2298.286494
1294.313953,11029.068536,-4737.318029,2757.943793
1294.314282,10140.821405,-6661.853478,2834.553343
1294.314612,8586.388927,-7179.997637,2451.505594
1294.314941,5921.647536,-8142.265362,689.485948
1294.315270,3478.967927,-8290.306550,-459.657299
1294.315600,1998.556043,-9474.636058,-1532.190996
1294.315929,2146.597232,-9474.636058,-1608.800546
1294.316258,3034.844362,-9178.553681,-766.095498
1294.316588,4367.215058,-9030.512492,-76.609550
1294.316917,5847.626942,-7031.956449,536.266849
1294.317246,7254.018232,-5921.647536,766.095498
1294.317576,8734.430116,-4737.318029,1455.581446
1294.317905,10658.965565,-2960.823768,1915.238745
1294.318234,11621.233289,-1702.473667,2528.115143
1294.318564,12065.356855,-2146.597232,2221.676944
1294.318893,11177.109724,-4071.132681,2604.724693
1294.319222,10066.800811,-5921.647536,2834.553343
1294.319552,9252.574275,-7476.080014,2145.067394
1294.319881,7031.956449,-7846.182985,1455.581446
1294.320210,4367.215058,-7550.100608,153.219100
1294.320540,2368.659014,-9474.636058,-1149.143247
1294.320869,2072.576638,-9474.636058,-1225.752797
1294.321198,2960.823768,-9770.718434,-612.876398
1294.321527,3923.091493,-8808.450710,-612.876398
1294.321857,5033.400406,-7105.977043,383.047749
1294.322186,6143.709319,-7031.956449,842.705048
1294.322515,7254.018232,-5921.647536,995.924147
1294.322845,8512.368333,-4293.194464,1608.800546
1294.323174,10214.842000,-3404.947333,1685.410096
1294.323503,10584.944971,-2516.700203,2068.457845
1294.323833,10881.027347,-3108.864956,2374.896044
1294.324162,11177.109724,-5329.482782,3217.601092
1294.324491,10362.883188,-6439.791695,3140.991542
1294.324821,8438.347739,-7994.224174,2298.286494
1294.325150,6069.688724,-8216.285956,919.314598
1294.325479,2960.823768,-9030.512492,-536.266849
1294.325809,1480.411884,-10510.924376,-1991.848295
1294.326138,1258.350101,-10658.965565,-1608.800546
1294.326467,2516.700203,-10288.862594,76.609550
1294.326797,4737.318029,-8512.368333,1225.752797
1294.327126,5625.565159,-5773.606348,3064.381992
1294.327455,7254.018232,-2960.823768,1685.410096
1294.327785,9030.512492,-1924.535449,2068.457845
1294.328114,10807.006753,-962.267725,2298.286494
1294.328443,11251.130318,-2072.576638,2451.505594
1294.328773,11325.150913,-2812.782580,1915.238745
1294.329102,10214.842000,-4737.318029,1838.629195
1294.329431,8808.450710,-7476.080014,1838.629195
1294.329761,7402.059420,-9696.697840,1991.848295
1294.330090,5995.668130,-9918.759623,1455.581446
1294.330419,4367.215058,-10362.883188,306.438199
1294.330749,2442.679609,-10436.903782,-306.438199
1294.331078,1628.453072,-10140.821405,-1762.019645
1294.331407,1998.556043,-9918.759623,-1991.848295
1294.331737,2886.803174,-9104.533087,-1072.533697
1294.332066,4515.256246,-8068.244768,153.219100
1294.332395,6143.709319,-7105.977043,612.876398
1294.332725,7328.038826,-5255.462188,1455.581446
1294.333054,9326.594869,-4145.153275,1762.019645
1294.333383,11029.068536,-2368.659014,1685.410096
1294.333713,11695.253884,-1406.391290,2451.505594
1294.334042,12361.439231,-2886.803174,2528.115143
1294.334371,11769.274478,-4589.276840,3140.991542
1294.334701,9918.759623,-6439.791695,2298.286494
1294.335030,7846.182985,-7994.224174,2068.457845
1294.335359,5477.523971,-9326.594869,612.876398
1294.335689,3775.050304,-9696.697840,76.609550
1294.336018,2294.638420,-9326.594869,-842.705048
1294.336347,2738.761985,-8734.430116,-919.314598
1294.336677,3256.906145,-7254.018232,-612.876398
1294.337006,4589.276840,-6661.853478,306.438199
1294.337335,6143.709319,-5699.585753,1455.581446
1294.337664,7920.203579,-4293.194464,1762.019645
1294.337994,9548.656652,-3775.050304,1685.410096
1294.338323,10955.047942,-2368.659014,2451.505594
1294.338652,12435.459826,-2812.782580,3064.381992
1294.338982,11991.336260,-3182.885551,2451.505594
1294.339311,9992.780217,-3701.029710,1608.800546
1294.339640,9104.533087,-6587.832884,1762.019645
1294.339970,8068.244768,-8068.244768,1608.800546
1294.340299,6661.853478,-9696.697840,1302.362347
1294.340628,4219.173869,-9548.656652,459.657299
1294.340958,2368.659014,-8734.430116,-383.047749
1294.341287,1776.494261,-8808.450710,-1762.019645
1294.341616,1554.432478,-9548.656652,-1532.190996
1294.341946,2590.720797,-9326.594869,-612.876398
1294.342275,4737.318029,-8068.244768,383.047749
1294.342604,6587.832884,-6661.853478,842.705048
1294.342934,7994.224174,-5773.606348,1915.238745
1294.343263,9474.636058,-4515.256246,2068.457845
1294.343592,10584.944971,-3478.967927,2068.457845
1294.343922,11029.068536,-2960.823768,2145.067394
1294.344251,10732.986159,-3627.009116,1762.019645
1294.344580,10436.903782,-5625.565159,2451.505594
1294.344910,9548.656652,-7254.018232,2298.286494
1294.345239,7994.224174,-7920.203579,2911.162892
1294.345568,5995.668130,-8216.285956,919.314598
1294.345898,3923.091493,-8438.347739,-306.438199
1294.346227,2590.720797,-8438.347739,-1225.752797
1294.346556,1998.556043,-9770.718434,-1532.190996
1294.346886,2368.659014,-9104.533087,-1072.533697
1294.347215,3849.070898,-8290.306550,0.000000
1294.347544,5625.565159,-7179.997637,1225.752797
1294.347874,7772.162391,-5699.585753,1838.629195
1294.348203,9400.615463,-3923.091493,2757.943793
1294.348532,11399.171507,-2516.700203,3064.381992
1294.348862,12065.356855,-2294.638420,2911.162892
1294.349191,11843.295072,-2368.659014,2528.115143
1294.349520,10510.924376,-3997.112087,2068.457845
1294.349849,9696.697840,-5477.523971,2221.676944
1294.350178,7698.141797,-7105.977043,1225.752797
1294.350507,5625.565159,-10066.800811,1762.019645
1294.350837,4663.297435,-9474.636058,919.314598
1294.351166,3182.885551,-8882.471304,-383.047749
1294.351495,1702.473667,-8660.409521,-1302.362347
1294.351824,1850.514855,-8660.409521,-1455.581446
1294.352153,3701.029710,-9918.759623,-842.705048
1294.352482,4811.338623,-8808.450710,153.219100
1294.352812,5625.565159,-7254.018232,1149.143247
1294.353141,6809.894666,-6069.688724,995.924147
1294.353470,8512.368333,-4737.318029,1838.629195
1294.353799,9622.677246,-4663.297435,2298.286494
1294.354128,10807.006753,-3849.070898,2298.286494
1294.354457,11029.068536,-2442.679609,2757.943793
1294.354787,10510.924376,-3775.050304,2298.286494
1294.355116,9844.739029,-4737.318029,1915.238745
1294.355445,8438.347739,-7031.956449,1915.238745
1294.355774,7031.956449,-9178.553681,1838.629195
1294.356103,4811.338623,-9252.574275,842.705048
1294.356432,2960.823768,-8364.327145,-995.924147
1294.356762,1628.453072,-8808.450710,-1991.848295
1294.357091,2368.659014,-9474.636058,-1149.143247
1294.357420,3923.091493,-8364.327145,229.828649
1294.357749,5403.503377,-8142.265362,995.924147
1294.358078,6735.874072,-6439.791695,1685.410096
1294.358407,8142.265362,-4515.256246,1378.971896
1294.358737,9326.594869,-2516.700203,1608.800546
1294.359066,10658.965565,-2442.679609,1608.800546
1294.359395,11103.089130,-3182.885551,2145.067394
1294.359724,11251.130318,-3701.029710,2451.505594
1294.360053,10214.842000,-4811.338623,2145.067394
1294.360382,9104.533087,-5699.585753,2068.457845
1294.360712,8290.306550,-7476.080014,1532.190996
1294.361041,5625.565159,-9622.677246,1072.533697
1294.361370,4293.194464,-9030.512492,0.000000
1294.361699,3478.967927,-8734.430116,-229.828649
1294.362028,3775.050304,-8438.347739,-536.266849
1294.362357,4367.215058,-8438.347739,-229.828649
1294.362687,4811.338623,-7994.224174,536.266849
1294.363016,5551.544565,-7105.977043,1072.533697
1294.363345,7105.977043,-5921.647536,842.705048
1294.363674,7328.038826,-4219.173869,1378.971896
1294.364003,8734.430116,-3627.009116,1532.190996
1294.364332,10288.862594,-3775.050304,2145.067394
1294.364662,10807.006753,-3404.947333,2451.505594
1294.364991,9992.780217,-4515.256246,2145.067394
1294.365320,9918.759623,-5921.647536,2451.505594
1294.365649,9474.636058,-7105.977043,2604.724693
1294.365978,6957.935855,-8512.368333,1991.848295
1294.366307,4515.256246,-9326.594869,459.657299
1294.366637,2516.700203,-8882.471304,-612.876398
1294.366966,2072.576638,-9474.636058,-1378.971896
1294.367295,2960.823768,-9474.636058,-612.876398
1294.367624,4441.235652,-8808.450710,153.219100
1294.367953,6217.729913,-7550.100608,459.657299
1294.368282,6587.832884,-5477.523971,1149.143247
1294.368612,7920.203579,-4515.256246,1149.143247
1294.368941,9474.636058,-3552.988522,1685.410096
1294.369270,10066.800811,-2886.803174,1378.971896
1294.369599,10807.006753,-3478.967927,1532.190996
1294.369928,10584.944971,-4589.276840,2145.067394
1294.370257,9918.759623,-6661.853478,2451.505594
1294.370587,9104.533087,-6735.874072,2298.286494
1294.370916,7698.141797,-7846.182985,2145.067394
1294.371245,5625.565159,-8216.285956,1455.581446
1294.371574,3849.070898,-8512.368333,-306.438199
1294.371903,2960.823768,-8808.450710,-306.438199
1294.372232,2294.638420,-8882.471304,-1225.752797
1294.372562,3182.885551,-8364.327145,-766.095498
1294.372891,5181.441594,-7254.018232,76.609550
1294.373220,6957.935855,-6291.750507,459.657299
1294.373549,7328.038826,-5773.606348,1915.238745
1294.373878,8438.347739,-4737.318029,1915.238745
1294.374207,9030.512492,-3330.926739,1149.143247
1294.374537,9474.636058,-2886.803174,1455.581446
1294.374866,9696.697840,-4071.132681,1532.190996
1294.375195,10214.842000,-5181.441594,2068.457845
1294.375524,9844.739029,-6587.832884,1762.019645
1294.375853,8660.409521,-8142.265362,1991.848295
1294.376182,6661.853478,-8142.265362,1532.190996
1294.376512,4885.359217,-8734.430116,306.438199
1294.376841,3627.009116,-9104.533087,-459.657299
1294.377170,2886.803174,-9104.533087,-1378.971896
1294.377499,2590.720797,-9400.615463,-919.314598
1294.377828,3849.070898,-8512.368333,-536.266849
1294.378157,5329.482782,-7031.956449,306.438199
1294.378487,6365.771101,-6069.688724,1378.971896
1294.378816,7994.224174,-5625.565159,1455.581446
1294.379145,8956.491898,-4663.297435,2374.896044
1294.379474,9770.718434,-3182.885551,2145.067394
1294.379803,9992.780217,-3256.906145,1838.629195
1294.380132,10658.965565,-3552.988522,2145.067394
1294.380462,9992.780217,-5255.462188,2068.457845
1294.380791,8808.450710,-7254.018232,2374.896044
1294.381120,7254.018232,-8142.265362,2068.457845
1294.381449,6143.709319,-8808.450710,1455.581446
1294.381778,4737.318029,-7624.121203,229.828649
1294.382107,3849.070898,-8142.265362,-612.876398
1294.382437,3330.926739,-8438.347739,-612.876398
1294.382766,4515.256246,-7846.182985,-383.047749
1294.383095,5773.606348,-6587.832884,153.219100
1294.383424,6365.771101,-6291.750507,1302.362347
1294.383753,6809.894666,-5773.606348,995.924147
1294.384082,7402.059420,-5329.482782,1149.143247
1294.384412,7846.182985,-4515.256246,1149.143247
1294.384741,9770.718434,-4219.173869,1302.362347
1294.385070,10807.006753,-3923.091493,2145.067394
1294.385399,11103.089130,-4441.235652,2604.724693
1294.385728,9992.780217,-5773.606348,2451.505594
1294.386057,8290.306550,-6883.915261,2528.115143
1294.386387,6957.935855,-8142.265362,2068.457845
1294.386716,5033.400406,-8734.430116,766.095498
1294.387045,3330.926739,-9030.512492,-229.828649
1294.387374,2368.659014,-8882.471304,-766.095498
1294.387703,2368.659014,-8216.285956,-919.314598
1294.388032,3478.967927,-8808.450710,-306.438199
1294.388362,4885.359217,-7920.203579,766.095498
1294.388691,6291.750507,-7105.977043,995.924147
1294.389020,7105.977043,-5551.544565,1225.752797
1294.389349,8068.244768,-4071.132681,919.314598
1294.389678,9844.739029,-4071.132681,1608.800546
1294.390007,10955.047942,-3627.009116,1991.848295
1294.390337,11473.192101,-3849.070898,1915.238745
1294.390666,10955.047942,-4145.153275,1838.629195
1294.390995,9844.739029,-5403.503377,2298.286494
1294.391324,8956.491898,-7328.038826,2221.676944
1294.391653,6661.853478,-8512.368333,1532.190996
1294.391982,4071.132681,-8660.409521,306.438199
1294.392312,3034.844362,-8586.388927,-612.876398
1294.392641,3256.906145,-7846.182985,-995.924147
1294.392970,3923.091493,-8068.244768,-842.705048
1294.393299,4959.379811,-7920.203579,306.438199
1294.393628,6069.688724,-7179.997637,1072.533697
1294.393957,7328.038826,-6439.791695,1608.800546
1294.394287,7994.224174,-5255.462188,1378.971896
1294.394616,8290.306550,-4367.215058,1991.848295
1294.394945,9326.594869,-4219.173869,1149.143247
1294.395274,9696.697840,-4071.132681,1838.629195
1294.395603,9548.656652,-4515.256246,1838.629195
1294.395932,9178.553681,-6217.729913,1762.019645
1294.396262,8512.368333,-7254.018232,2451.505594
1294.396591,7402.059420,-7920.203579,1838.629195
1294.396920,5477.523971,-8734.430116,1149.143247
1294.397249,3997.112087,-8882.471304,0.000000
1294.397578,2886.803174,-8808.450710,-1455.581446
1294.397907,2886.803174,-8956.491898,-1302.362347
1294.398237,4515.256246,-8734.430116,153.219100
1294.398566,6143.709319,-7772.162391,919.314598
1294.398895,6735.874072,-6957.935855,1608.800546
1294.399224,7105.977043,-5699.585753,1455.581446
1294.399553,8364.327145,-3849.070898,1378.971896
1294.399882,9548.656652,-2812.782580,1991.848295
1294.400212,10140.821405,-2664.741391,1608.800546
1294.400541,10288.862594,-3256.906145,2298.286494
1294.400870,9770.718434,-4663.297435,1915.238745
1294.401199,8882.471304,-5699.585753,2374.896044
1294.401528,7846.182985,-7698.141797,1685.410096
1294.401857,6069.688724,-9252.574275,1915.238745
1294.402187,4959.379811,-9178.553681,612.876398
1294.402516,3552.988522,-9178.553681,-306.438199
1294.402845,2516.700203,-8216.285956,-995.924147
1294.403174,3256.906145,-8734.430116,-842.705048
1294.403503,5033.400406,-8660.409521,306.438199
1294.403832,5921.647536,-7105.977043,459.657299
1294.404162,6735.874072,-6291.750507,842.705048
1294.404491,7846.182985,-4811.338623,1149.143247
1294.404820,8512.368333,-4737.318029,995.924147
1294.405149,9178.553681,-4515.256246,1455.581446
1294.405478,9918.759623,-3849.070898,1685.410096
1294.405807,10584.944971,-3849.070898,1991.848295
1294.406137,9770.718434,-5403.503377,2451.505594
1294.406466,8290.306550,-7402.059420,2145.067394
1294.406795,7476.080014,-8290.306550,2374.896044
1294.407124,6069.688724,-8882.471304,1762.019645
1294.407453,4071.132681,-8364.327145,612.876398
1294.407782,3108.864956,-8068.244768,-459.657299
1294.408112,2960.823768,-8512.368333,-919.314598
1294.408441,4219.173869,-8438.347739,0.000000
1294.408770,5255.462188,-7698.141797,842.705048
1294.409099,6365.771101,-6513.812290,1532.190996
1294.409428,7550.100608,-5107.421000,1455.581446
1294.409757,8216.285956,-4663.297435,1149.143247
1294.410087,8512.368333,-3849.070898,1225.752797
1294.410416,9400.615463,-3552.988522,1838.629195
1294.410745,10510.924376,-3775.050304,2221.676944
1294.411074,10510.924376,-4071.132681,1838.629195
1294.411403,9474.636058,-6069.688724,2145.067394
1294.411732,8660.409521,-8142.265362,2374.896044
1294.412062,7402.059420,-8290.306550,1762.019645
1294.412391,5477.523971,-8882.471304,842.705048
1294.412720,4663.297435,-8586.388927,0.000000
1294.413049,3627.009116,-7994.224174,-995.924147
1294.413378,3627.009116,-7846.182985,-536.266849
1294.413707,4515.256246,-6957.935855,-459.657299
1294.414037,5847.626942,-6735.874072,0.000000
1294.414366,6809.894666,-6217.729913,766.095498
1294.414695,7105.977043,-4737.318029,306.438199
1294.415024,7994.224174,-4663.297435,1149.143247
1294.415353,9104.533087,-4441.235652,1762.019645
1294.415682,10066.800811,-4293.194464,2145.067394
1294.416012,9696.697840,-4737.318029,1991.848295
1294.416341,9400.615463,-5329.482782,2681.334243
1294.416670,8660.409521,-7105.977043,2451.505594
1294.416999,7550.100608,-8586.388927,1991.848295
1294.417328,5255.462188,-8660.409521,1532.190996
1294.417657,3849.070898,-8586.388927,76.609550
1294.417987,3256.906145,-8660.409521,-1149.143247
1294.418316,3182.885551,-8438.347739,-919.314598
1294.418645,3997.112087,-8734.430116,-306.438199
1294.418974,5255.462188,-7550.100608,306.438199
1294.419303,6439.791695,-6883.915261,919.314598
1294.419632,7624.121203,-5773.606348,1225.752797
1294.419962,8142.265362,-4737.318029,1762.019645
1294.420291,9548.656652,-4219.173869,1378.971896
1294.420620,10140.821405,-3478.967927,1915.238745
1294.420949,10955.047942,-3108.864956,1762.019645
1294.421278,10955.047942,-4441.235652,2451.505594
1294.421607,10584.944971,-5699.585753,2757.943793
1294.421937,8660.409521,-6957.935855,2528.115143
1294.422266,6513.812290,-7698.141797,1685.410096
1294.422595,5181.441594,-7772.162391,1149.143247
1294.422924,3997.112087,-8290.306550,-229.828649
1294.423253,2960.823768,-7994.224174,-1225.752797
1294.423582,2886.803174,-8142.265362,-766.095498
1294.423912,4811.338623,-7846.182985,-306.438199
1294.424241,5403.503377,-7179.997637,306.438199
1294.424570,6513.812290,-6439.791695,1149.143247
1294.424899,7254.018232,-5477.523971,1302.362347
1294.425228,8290.306550,-5255.462188,995.924147
1294.425557,8660.409521,-3849.070898,1455.581446
1294.425887,9474.636058,-4367.215058,1302.362347
1294.426216,10288.862594,-4293.194464,1915.238745
1294.426545,10436.903782,-4737.318029,2451.505594
1294.426874,9030.512492,-6883.915261,2374.896044
1294.427203,7994.224174,-7846.182985,2298.286494
1294.427532,6809.894666,-8512.368333,1685.410096
1294.427862,4441.235652,-9252.574275,306.438199
1294.428191,2516.700203,-8734.430116,-1149.143247
1294.428520,1702.473667,-9548.656652,-766.095498
1294.428849,3034.844362,-9696.697840,-1149.143247
1294.429178,4293.194464,-8660.409521,0.000000
1294.429507,5477.523971,-8216.285956,459.657299
1294.429837,6809.894666,-6661.853478,995.924147
1294.430166,7846.182985,-4811.338623,1532.190996
1294.430495,8660.409521,-4071.132681,1685.410096
1294.430824,9992.780217,-3330.926739,1685.410096
1294.431153,10807.006753,-3330.926739,1915.238745
1294.431482,10584.944971,-3775.050304,2221.676944
1294.431812,9992.780217,-4885.359217,2068.457845
1294.432141,9104.533087,-6661.853478,2068.457845
1294.432470,7920.203579,-8216.285956,2068.457845
1294.432799,5773.606348,-9178.553681,1532.190996
1294.433128,3775.050304,-8068.244768,-536.266849
1294.433457,3034.844362,-8364.327145,-1455.581446
1294.433787,4145.153275,-8142.265362,-919.314598
1294.434116,4885.359217,-8660.409521,0.000000
1294.434445,5403.503377,-7179.997637,612.876398
1294.434774,5995.668130,-6069.688724,383.047749
1294.435103,6957.935855,-5329.482782,612.876398
1294.435432,7846.182985,-4219.173869,919.314598
1294.435762,8734.430116,-4145.153275,1608.800546
1294.436091,9992.780217,-3775.050304,2068.457845
1294.436420,10362.883188,-3330.926739,2145.067394
1294.436749,10362.883188,-4441.235652,2451.505594
1294.437078,9844.739029,-5847.626942,2681.334243
1294.437407,8438.347739,-7328.038826,2681.334243
1294.437737,5847.626942,-8586.388927,995.924147
1294.438066,4145.153275,-8956.491898,689.485948
1294.438395,3108.864956,-8882.471304,-306.438199
1294.438724,2590.720797,-8882.471304,-1378.971896
1294.439053,3478.967927,-8882.471304,-842.705048
1294.439382,4663.297435,-8586.388927,-76.609550
1294.439712,5847.626942,-8882.471304,842.705048
1294.440041,6439.791695,-6439.791695,1149.143247
1294.440370,6883.915261,-5107.421000,766.095498
1294.440699,7550.100608,-3923.091493,1455.581446
1294.441028,9178.553681,-3923.091493,1455.581446
1294.441357,10510.924376,-3552.988522,2068.457845
1294.441687,10584.944971,-3478.967927,1915.238745
1294.442016,11029.068536,-4071.132681,2834.553343
1294.442345,10066.800811,-5847.626942,2681.334243
1294.442674,7994.224174,-7328.038826,2451.505594
1294.443003,6291.750507,-8216.285956,1455.581446
1294.443332,4663.297435,-8142.265362,306.438199
1294.443662,4071.132681,-8216.285956,-766.095498
1294.443991,3034.844362,-7920.203579,-766.095498
1294.444320,4293.194464,-7920.203579,-306.438199
1294.444649,5699.585753,-7994.224174,919.314598
1294.444978,6439.791695,-7031.956449,919.314598
1294.445307,7105.977043,-5995.668130,1149.143247
1294.445637,7254.018232,-4737.318029,689.485948
1294.445966,8438.347739,-4515.256246,842.705048
1294.446295,9178.553681,-4589.276840,1302.362347
1294.446624,9474.636058,-4071.132681,2451.505594
1294.446953,10140.821405,-5551.544565,2221.676944
1294.447282,9622.677246,-5847.626942,2681.334243
1294.447612,8364.327145,-7402.059420,2145.067394
1294.447941,6809.894666,-8290.306550,1685.410096
1294.448270,5107.421000,-8734.430116,1072.533697
1294.448599,3627.009116,-9548.656652,-612.876398
1294.448928,2738.761985,-8956.491898,-1225.752797
1294.449257,3182.885551,-8956.491898,-1378.971896
1294.449587,4737.318029,-8364.327145,-536.266849
1294.449916,5551.544565,-7994.224174,766.095498
1294.450245,5847.626942,-7624.121203,1149.143247
1294.450574,6513.812290,-5403.503377,995.924147
1294.450903,7550.100608,-4737.318029,1072.533697
1294.451232,9030.512492,-3404.947333,1838.629195
1294.451561,10214.842000,-3182.885551,2528.115143
1294.451890,11251.130318,-3552.988522,2681.334243
1294.452220,11029.068536,-4293.194464,2681.334243
1294.452549,9178.553681,-5551.544565,2145.067394
1294.452878,7476.080014,-7105.977043,1991.848295
1294.453207,5033.400406,-7698.141797,766.095498
1294.453536,3997.112087,-8734.430116,536.266849
1294.453865,3108.864956,-9104.533087,-459.657299
1294.454194,3108.864956,-9030.512492,-766.095498
1294.454523,3997.112087,-8142.265362,0.000000
1294.454852,5403.503377,-8068.244768,766.095498
1294.455181,6587.832884,-6809.894666,766.095498
1294.455510,7105.977043,-5921.647536,919.314598
1294.455840,7179.997637,-4663.297435,842.705048
1294.456169,7994.224174,-4811.338623,1302.362347
1294.456498,9178.553681,-3997.112087,1378.971896
1294.456827,9622.677246,-3923.091493,1302.362347
1294.457156,10584.944971,-4737.318029,3064.381992
1294.457485,10214.842000,-5551.544565,3294.210641
1294.457814,9326.594869,-6661.853478,3064.381992
1294.458143,7402.059420,-7105.977043,2298.286494
1294.458472,5477.523971,-7476.080014,612.876398
1294.458801,3849.070898,-8512.368333,-919.314598
1294.459130,1924.535449,-9030.512492,-995.924147
1294.459459,2368.659014,-9770.718434,-1378.971896
1294.459789,3478.967927,-9474.636058,-689.485948
1294.460118,4811.338623,-8216.285956,536.266849
1294.460447,6365.771101,-7179.997637,1072.533697
1294.460776,7402.059420,-6291.750507,1378.971896
1294.461105,8068.244768,-5551.544565,1685.410096
1294.461434,9326.594869,-3997.112087,1455.581446
1294.461763,9844.739029,-3256.906145,1685.410096
1294.462092,10732.986159,-3108.864956,2145.067394
1294.462421,10732.986159,-5477.523971,2604.724693
1294.462750,10436.903782,-5847.626942,2451.505594
1294.463079,8882.471304,-7031.956449,2451.505594
1294.463409,7179.997637,-7698.141797,1072.533697
1294.463738,5403.503377,-7994.224174,383.047749
1294.464067,3775.050304,-8586.388927,-842.705048
1294.464396,3701.029710,-7994.224174,-995.924147
1294.464725,4071.132681,-7994.224174,-766.095498
1294.465054,4811.338623,-7179.997637,153.219100
1294.465383,5625.565159,-7105.977043,689.485948
1294.465712,6217.729913,-6217.729913,766.095498
1294.466041,6883.915261,-5255.462188,1378.971896
1294.466370,8734.430116,-4589.276840,1685.410096
1294.466699,9400.615463,-3849.070898,2068.457845
1294.467028,10288.862594,-3552.988522,2374.896044
1294.467358,10436.903782,-3627.009116,2374.896044
1294.467687,10288.862594,-5033.400406,2528.115143
1294.468016,9696.697840,-6661.853478,2451.505594
1294.468345,7402.059420,-7550.100608,2145.067394
1294.468674,5551.544565,-8808.450710,612.876398
1294.469003,4071.132681,-9104.533087,-306.438199
1294.469332,2886.803174,-8956.491898,-689.485948
1294.469661,2960.823768,-9548.656652,-1302.362347
1294.469990,3627.009116,-9252.574275,-306.438199
1294.470319,4663.297435,-8808.450710,229.828649
1294.470648,5477.523971,-7772.162391,842.705048
1294.470978,6809.894666,-5847.626942,1455.581446
1294.471307,8290.306550,-5107.421000,1378.971896
1294.471636,9326.594869,-3256.906145,1608.800546
1294.471965,10140.821405,-2960.823768,1838.629195
1294.472294,11251.130318,-3182.885551,2221.676944
1294.472623,11029.068536,-3849.070898,2528.115143
1294.472952,10288.862594,-5551.544565,2681.334243
1294.473281,8956.491898,-6587.832884,2528.115143
1294.473610,7328.038826,-8068.244768,2068.457845
1294.473939,5329.482782,-8586.388927,536.266849
1294.474268,3552.988522,-9326.594869,-536.266849
1294.474598,2812.782580,-8438.347739,-1225.752797
1294.474927,2886.803174,-8512.368333,-1072.533697
1294.475256,4219.173869,-8364.327145,-536.266849
1294.475585,5921.647536,-7254.018232,995.924147
1294.475914,6809.894666,-5921.647536,1608.800546
1294.476243,7846.182985,-5033.400406,1455.581446
1294.476572,8512.368333,-3923.091493,1302.362347
1294.476901,9178.553681,-3627.009116,1455.581446
1294.477230,9696.697840,-4515.256246,1532.190996
1294.477559,10214.842000,-3034.844362,1685.410096
1294.477888,9696.697840,-6513.812290,2298.286494
1294.478217,8956.491898,-7105.977043,2298.286494
1294.478547,8216.285956,-7772.162391,2298.286494
1294.478876,6957.935855,-8660.409521,1685.410096
1294.479205,4589.276840,-8364.327145,459.657299
1294.479534,2738.761985,-9326.594869,-766.095498
1294.479863,2442.679609,-8956.491898,-1378.971896
1294.480192,2960.823768,-8364.327145,-842.705048
1294.480521,4145.153275,-8734.430116,0.000000
1294.480850,5255.462188,-7994.224174,995.924147
1294.481179,6513.812290,-6661.853478,1072.533697
1294.481508,7624.121203,-5107.421000,1225.752797
1294.481837,8956.491898,-4367.215058,1608.800546
1294.482167,10288.862594,-3923.091493,2451.505594
1294.482496,10807.006753,-3256.906145,1762.019645
1294.482825,9844.739029,-4367.215058,2374.896044
1294.483154,9844.739029,-4589.276840,2298.286494
1294.483483,9178.553681,-6587.832884,2145.067394
1294.483812,7550.100608,-7550.100608,2374.896044
1294.484141,5329.482782,-8290.306550,842.705048
1294.484470,4145.153275,-7846.182985,-306.438199
1294.484799,3330.926739,-7920.203579,-1149.143247
1294.485128,3330.926739,-8660.409521,-612.876398
1294.485457,4441.235652,-7846.182985,153.219100
1294.485787,5551.544565,-7031.956449,842.705048
1294.486116,6439.791695,-5773.606348,1072.533697
1294.486445,7105.977043,-4663.297435,1225.752797
1294.486774,7994.224174,-4885.359217,1532.190996
1294.487103,9548.656652,-4441.235652,1915.238745
1294.487432,10140.821405,-3627.009116,2221.676944
1294.487761,10066.800811,-3552.988522,2451.505594
1294.488090,10214.842000,-4663.297435,2451.505594
1294.488419,9474.636058,-6661.853478,2757.943793
1294.488748,8216.285956,-7772.162391,2298.286494
1294.489077,5773.606348,-8068.244768,1608.800546
1294.489406,4145.153275,-8438.347739,76.609550
1294.489736,2812.782580,-9622.677246,-1302.362347
1294.490065,1850.514855,-9770.718434,-1225.752797
1294.490394,2664.741391,-9178.553681,-1991.848295
1294.490723,4071.132681,-9104.533087,-383.047749
1294.491052,5773.606348,-7994.224174,842.705048
1294.491381,6883.915261,-6809.894666,1225.752797
1294.491710,8512.368333,-5255.462188,1378.971896
1294.492039,9400.615463,-4219.173869,1072.533697
1294.492368,9992.780217,-3552.988522,1455.581446
1294.492697,10658.965565,-3404.947333,1762.019645
1294.493026,11177.109724,-3404.947333,2221.676944
1294.493356,10510.924376,-5255.462188,1991.848295
1294.493685,9696.697840,-5995.668130,2451.505594
1294.494014,7994.224174,-7994.224174,1991.848295
1294.494343,5921.647536,-8586.388927,1149.143247
1294.494672,4071.132681,-8068.244768,-306.438199
1294.495001,3256.906145,-7772.162391,-1378.971896
1294.495330,3182.885551,-8364.327145,-1915.238745
1294.495659,4811.338623,-7698.141797,153.219100
1294.495988,5773.606348,-7550.100608,612.876398
1294.496317,6809.894666,-6069.688724,1455.581446
1294.496646,7254.018232,-4959.379811,1762.019645
1294.496976,8512.368333,-4663.297435,1225.752797
1294.497305,9104.533087,-3997.112087,1378.971896
1294.497634,9326.594869,-4219.173869,1685.410096
1294.497963,9474.636058,-3923.091493,2221.676944
1294.498292,9474.636058,-5033.400406,2221.676944
1294.498621,9178.553681,-6365.771101,1915.238745
1294.498950,8512.368333,-7698.141797,2145.067394
1294.499279,6217.729913,-9252.574275,1455.581446
1294.499608,4663.297435,-9474.636058,612.876398
1294.499937,3182.885551,-9622.677246,-383.047749
1294.500266,2664.741391,-9030.512492,-1225.752797
1294.500595,3034.844362,-8882.471304,-459.657299
1294.500925,4441.235652,-8438.347739,0.000000
1294.501254,6217.729913,-7476.080014,1149.143247
1294.501583,7105.977043,-6069.688724,1608.800546
1294.501912,7994.224174,-4737.318029,1225.752797
1294.502241,8512.368333,-3627.009116,1302.362347
1294.502570,9844.739029,-2960.823768,1838.629195
1294.502899,11251.130318,-3404.947333,2374.896044
1294.503228,11769.274478,-3330.926739,2681.334243
1294.503557,11029.068536,-4663.297435,2604.724693
1294.503886,9400.615463,-6365.771101,2528.115143
1294.504215,7105.977043,-7105.977043,2221.676944
1294.504545,4589.276840,-9474.636058,766.095498
1294.504874,2960.823768,-9474.636058,-153.219100
1294.505203,2516.700203,-9548.656652,-1072.533697
1294.505532,2960.823768,-9474.636058,-919.314598
1294.505861,3849.070898,-8216.285956,0.000000
1294.506190,5477.523971,-7772.162391,612.876398
1294.506519,6513.812290,-6587.832884,1762.019645
1294.506848,7550.100608,-5477.523971,842.705048
1294.507177,8216.285956,-3997.112087,689.485948
1294.507506,9326.594869,-3404.947333,1302.362347
1294.507835,10140.821405,-3182.885551,1378.971896
1294.508165,10510.924376,-3849.070898,2221.676944
1294.508494,10658.965565,-4441.235652,2451.505594
1294.508823,10584.944971,-6069.688724,2068.457845
1294.509152,9030.512492,-7624.121203,2451.505594
1294.509481,6291.750507,-8438.347739,1838.629195
1294.509810,3923.091493,-9548.656652,76.609550
1294.510139,2368.659014,-9474.636058,0.000000
1294.510468,1850.514855,-9400.615463,-1378.971896
1294.510797,2590.720797,-8956.491898,-689.485948
1294.511126,4367.215058,-8438.347739,995.924147
1294.511455,5847.626942,-7476.080014,1302.362347
1294.511784,6809.894666,-6439.791695,2451.505594
1294.512114,7550.100608,-3627.009116,1915.238745
1294.512443,9030.512492,-2960.823768,995.924147
1294.512772,10362.883188,-2294.638420,1455.581446
1294.513101,10584.944971,-2738.761985,1302.362347
1294.513430,10732.986159,-4515.256246,2221.676944
1294.513759,9918.759623,-5033.400406,1991.848295
1294.514088,9030.512492,-7698.141797,2145.067394
1294.514417,7624.121203,-9326.594869,2068.457845
1294.514746,5477.523971,-9918.759623,2068.457845
1294.515075,4071.132681,-9844.739029,459.657299
1294.515404,2516.700203,-9400.615463,-842.705048
1294.515734,2294.638420,-8364.327145,-995.924147
1294.516063,3701.029710,-7920.203579,-1455.581446
1294.516392,4663.297435,-7179.997637,153.219100
1294.516721,5921.647536,-7105.977043,689.485948
1294.517050,7402.059420,-5625.565159,1378.971896
1294.517379,8586.388927,-4589.276840,1608.800546
1294.517708,9474.636058,-2812.782580,1915.238745
1294.518037,10140.821405,-2664.741391,1838.629195
1294.518366,10584.944971,-3404.947333,2145.067394
1294.518695,10881.027347,-3404.947333,2145.067394
1294.519024,9992.780217,-5921.647536,2451.505594
1294.519353,9030.512492,-6735.874072,2298.286494
1294.519683,6957.935855,-8586.388927,1302.362347
1294.520012,5255.462188,-9104.533087,766.095498
1294.520341,3849.070898,-8586.388927,0.000000
1294.520670,2738.761985,-8660.409521,-536.266849
1294.520999,2960.823768,-8364.327145,-612.876398
1294.521328,3478.967927,-8216.285956,-919.314598
1294.521657,5033.400406,-8734.430116,306.438199
1294.521986,6513.812290,-6513.812290,229.828649
1294.522315,8216.285956,-5033.400406,766.095498
1294.522644,9548.656652,-3849.070898,1838.629195
1294.522973,10732.986159,-2590.720797,1991.848295
1294.523303,11547.212695,-2368.659014,1991.848295
1294.523632,11251.130318,-2960.823768,1991.848295
1294.523961,10436.903782,-4367.215058,1532.190996
1294.524290,9178.553681,-6513.812290,2068.457845
1294.524619,7550.100608,-7920.203579,1991.848295
1294.524948,5699.585753,-9622.677246,1762.019645
1294.525277,4219.173869,-9030.512492,1072.533697
1294.525606,3034.844362,-8734.430116,-306.438199
1294.525935,2368.659014,-9400.615463,-995.924147
1294.526264,3034.844362,-8808.450710,-1149.143247
1294.526593,4071.132681,-7994.224174,0.000000
1294.526923,4885.359217,-7402.059420,612.876398
1294.527252,6735.874072,-6217.729913,536.266849
1294.527581,8142.265362,-5181.441594,1455.581446
1294.527910,9622.677246,-4737.318029,1685.410096
1294.528239,10510.924376,-3923.091493,2145.067394
1294.528568,10658.965565,-3108.864956,1149.143247
1294.528897,9918.759623,-4737.318029,1762.019645
1294.529226,9918.759623,-5551.544565,2451.505594
1294.529555,8882.471304,-7402.059420,2298.286494
1294.529884,7328.038826,-8068.244768,2374.896044
1294.530213,5403.503377,-8068.244768,1149.143247
1294.530542,4145.153275,-8956.491898,459.657299
1294.530872,2664.741391,-8586.388927,-536.266849
1294.531201,2442.679609,-9474.636058,-1225.752797
1294.531530,3775.050304,-8068.244768,-536.266849
1294.531859,5033.400406,-8068.244768,229.828649
1294.532188,6513.812290,-6809.894666,1225.752797
1294.532517,7624.121203,-5329.482782,1532.190996
1294.532846,8586.388927,-3775.050304,1455.581446
1294.533175,9326.594869,-3627.009116,1838.629195
1294.533504,9992.780217,-3849.070898,1915.238745
1294.533833,10066.800811,-3627.009116,2068.457845
1294.534162,9326.594869,-4441.235652,2145.067394
1294.534492,8882.471304,-5847.626942,2528.115143
1294.534821,7772.162391,-7105.977043,2068.457845
1294.535150,6513.812290,-8734.430116,1915.238745
1294.535479,5255.462188,-8660.409521,766.095498
1294.535808,4737.318029,-8438.347739,0.000000
1294.536137,3552.988522,-8734.430116,-612.876398
1294.536466,3404.947333,-8586.388927,-536.266849
1294.536795,4663.297435,-8068.244768,0.000000
1294.537124,5699.585753,-7105.977043,536.266849
1294.537453,6513.812290,-6291.750507,1149.143247
1294.537782,7550.100608,-5033.400406,1378.971896
1294.538112,8142.265362,-4515.256246,1378.971896
1294.538441,8734.430116,-4071.132681,1455.581446
1294.538770,9474.636058,-3775.050304,1225.752797
1294.539099,9474.636058,-4219.173869,1762.019645
1294.539428,9622.677246,-5181.441594,2604.724693
1294.539757,9326.594869,-6365.771101,2757.943793
1294.540086,8586.388927,-7254.018232,2451.505594
1294.540415,6365.771101,-7846.182985,2221.676944
1294.540744,4737.318029,-8808.450710,612.876398
1294.541073,3775.050304,-8660.409521,-536.266849
1294.541402,3330.926739,-8586.388927,-1302.362347
1294.541731,4071.132681,-9104.533087,-383.047749
1294.542061,5033.400406,-7698.141797,536.266849
1294.542390,5847.626942,-7402.059420,612.876398
1294.542719,6809.894666,-6143.709319,1302.362347
1294.543048,7179.997637,-4737.318029,1149.143247
1294.543377,7994.224174,-4219.173869,1072.533697
1294.543706,8660.409521,-3404.947333,1838.629195
1294.544035,10140.821405,-3701.029710,1915.238745
1294.544364,11103.089130,-4219.173869,2451.505594
1294.544693,10584.944971,-5181.441594,2911.162892
1294.545022,10066.800811,-7031.956449,2987.772442
1294.545351,8142.265362,-7846.182985,2451.505594
1294.545681,5847.626942,-7920.203579,766.095498
1294.546010,4145.153275,-8068.244768,-536.266849
1294.546339,3330.926739,-8068.244768,-689.485948
1294.546668,3775.050304,-8808.450710,-383.047749
1294.546997,3997.112087,-8586.388927,-536.266849
1294.547326,4219.173869,-8660.409521,459.657299
1294.547655,4737.318029,-5847.626942,-153.219100
1294.547984,6217.729913,-7105.977043,612.876398
1294.548313,6957.935855,-5477.523971,1072.533697
1294.548642,8586.388927,-4441.235652,1149.143247
1294.548971,10362.883188,-3627.009116,1685.410096
1294.549301,10584.944971,-3701.029710,2221.676944
1294.549630,10140.821405,-5625.565159,2451.505594
1294.549959,10584.944971,-5107.421000,2834.553343
1294.550288,9178.553681,-6661.853478,2145.067394
1294.550616,7254.018232,-7994.224174,1915.238745
1294.550945,5921.647536,-8438.347739,0.000000
1294.551274,4293.194464,-8290.306550,-1225.752797
1294.551603,2960.823768,-8660.409521,-1532.190996
1294.551932,2590.720797,-9178.553681,-919.314598
1294.552261,4071.132681,-8660.409521,0.000000
1294.552590,4885.359217,-7846.182985,76.609550
1294.552919,5921.647536,-7105.977043,919.314598
1294.553248,7328.038826,-4737.318029,842.705048
1294.553577,8364.327145,-4737.318029,1149.143247
1294.553906,9548.656652,-3627.009116,1532.190996
1294.554235,11103.089130,-3182.885551,2681.334243
1294.554564,11843.295072,-3923.091493,2987.772442
1294.554893,11177.109724,-4811.338623,2681.334243
1294.555222,9252.574275,-6957.935855,2681.334243
1294.555551,7550.100608,-8068.244768,2298.286494
1294.555880,4811.338623,-9104.533087,919.314598
1294.556209,3256.906145,-8882.471304,-306.438199
1294.556538,2664.741391,-8290.306550,-1149.143247
1294.556867,3404.947333,-8808.450710,-1302.362347
1294.557196,4219.173869,-8882.471304,-612.876398
1294.557525,5255.462188,-8142.265362,612.876398
1294.557854,6217.729913,-6957.935855,229.828649
1294.558183,6365.771101,-5995.668130,689.485948
1294.558512,7624.121203,-4737.318029,842.705048
1294.558841,9030.512492,-4145.153275,1378.971896
1294.559170,10214.842000,-4071.132681,2068.457845
1294.559498,10658.965565,-3701.029710,2604.724693
1294.559827,10955.047942,-4293.194464,2834.553343
1294.560156,9918.759623,-5329.482782,3064.381992
1294.560485,8216.285956,-6217.729913,2604.724693
1294.560814,6069.688724,-7476.080014,1532.190996
1294.561143,4071.132681,-9030.512492,459.657299
1294.561472,3182.885551,-9474.636058,-536.266849
1294.561801,2294.638420,-8882.471304,-995.924147
1294.562130,3404.947333,-8586.388927,-612.876398
1294.562459,4293.194464,-8586.388927,0.000000
1294.562788,5477.523971,-8660.409521,995.924147
1294.563117,6513.812290,-7476.080014,1455.581446
1294.563446,7254.018232,-5773.606348,919.314598
1294.563775,7994.224174,-4219.173869,1149.143247
1294.564104,9030.512492,-3552.988522,1225.752797
1294.564433,10214.842000,-3775.050304,2451.505594
1294.564762,11325.150913,-3849.070898,2834.553343
1294.565091,10732.986159,-4811.338623,2911.162892
1294.565420,9178.553681,-6439.791695,2834.553343
1294.565749,7994.224174,-7105.977043,1991.848295
1294.566078,5699.585753,-8364.327145,1072.533697
1294.566407,3775.050304,-8364.327145,-383.047749
1294.566736,3034.844362,-8734.430116,-919.314598
1294.567065,3701.029710,-8660.409521,-919.314598
1294.567394,4663.297435,-8364.327145,76.609550
1294.567723,5551.544565,-8216.285956,612.876398
1294.568052,5921.647536,-7105.977043,842.705048
1294.568380,6217.729913,-5847.626942,1072.533697
1294.568709,7031.956449,-5033.400406,689.485948
1294.569038,8438.347739,-3775.050304,1991.848295
1294.569367,9918.759623,-2664.741391,1762.019645
1294.569696,10510.924376,-2812.782580,2451.505594
1294.570025,10807.006753,-4219.173869,2681.334243
1294.570354,10436.903782,-5329.482782,3294.210641
1294.570683,9474.636058,-6957.935855,2987.772442
1294.571012,7105.977043,-7105.977043,1991.848295
1294.571341,5107.421000,-7994.224174,306.438199
1294.571670,3478.967927,-9474.636058,-612.876398
1294.571999,2886.803174,-9252.574275,-995.924147
1294.572328,3034.844362,-9548.656652,-1608.800546
1294.572657,4145.153275,-9104.533087,-383.047749
1294.572986,5107.421000,-8290.306550,153.219100
1294.573315,5995.668130,-7179.997637,689.485948
1294.573644,7254.018232,-4959.379811,612.876398
1294.573973,8438.347739,-4219.173869,1149.143247
1294.574302,9844.739029,-3701.029710,1608.800546
1294.574631,10584.944971,-2960.823768,2068.457845
1294.574960,10807.006753,-3182.885551,1762.019645
1294.575289,10807.006753,-5181.441594,1915.238745
1294.575618,9992.780217,-7328.038826,2604.724693
1294.575947,8660.409521,-7698.141797,2451.505594
1294.576276,6661.853478,-8290.306550,1608.800546
1294.576605,4293.194464,-7772.162391,766.095498
1294.576934,2960.823768,-8438.347739,-1225.752797
1294.577262,2220.617826,-8660.409521,-1838.629195
1294.577591,2812.782580,-8660.409521,-536.266849
1294.577920,4737.318029,-8438.347739,0.000000
1294.578249,6513.812290,-6883.915261,842.705048
1294.578578,6809.894666,-5699.585753,1455.581446
1294.578907,8290.306550,-5107.421000,1149.143247
1294.579236,9252.574275,-3701.029710,1225.752797
1294.579565,9696.697840,-3256.906145,1378.971896
1294.579894,10658.965565,-3330.926739,1838.629195
1294.580223,11399.171507,-4145.153275,2604.724693
1294.580552,10732.986159,-5847.626942,2987.772442
1294.580881,9400.615463,-6957.935855,2834.553343
1294.581210,7328.038826,-8068.244768,2451.505594
1294.581539,5255.462188,-8882.471304,842.705048
1294.581868,2812.782580,-9104.533087,-383.047749
1294.582197,1554.432478,-8586.388927,-1302.362347
1294.582526,1554.432478,-9548.656652,-1455.581446
1294.582855,2738.761985,-9252.574275,-306.438199
1294.583184,4663.297435,-7920.203579,689.485948
1294.583513,6439.791695,-6809.894666,995.924147
1294.583842,7846.182985,-4885.359217,1532.190996
1294.584171,8586.388927,-3701.029710,1685.410096
1294.584500,10214.842000,-2812.782580,1532.190996
1294.584829,10584.944971,-3108.864956,1838.629195
1294.585158,11251.130318,-3701.029710,2451.505594
1294.585487,11325.150913,-4515.256246,2451.505594
1294.585816,10066.800811,-6365.771101,3294.210641
1294.586144,8068.244768,-7476.080014,2145.067394
1294.586473,5921.647536,-8512.368333,1455.581446
1294.586802,4293.194464,-8586.388927,-229.828649
1294.587131,3108.864956,-8734.430116,-842.705048
1294.587460,2072.576638,-8882.471304,-1302.362347
1294.587789,3404.947333,-7846.182985,-1225.752797
1294.588118,4293.194464,-8660.409521,-153.219100
1294.588447,5625.565159,-8142.265362,1378.971896
1294.588776,6809.894666,-6809.894666,612.876398
1294.589105,8142.265362,-5033.400406,1532.190996
1294.589434,9178.553681,-3997.112087,1685.410096
1294.589763,9918.759623,-3849.070898,2221.676944
1294.590092,10658.965565,-3627.009116,2145.067394
1294.590421,10658.965565,-3997.112087,2528.115143
1294.590750,10214.842000,-5329.482782,2834.553343
1294.591079,9400.615463,-5921.647536,2451.505594
1294.591408,6957.935855,-7920.203579,1991.848295
1294.591737,4663.297435,-9252.574275,1302.362347
1294.592066,3108.864956,-9326.594869,0.000000
1294.592395,2220.617826,-8808.450710,-1532.190996
1294.592724,2146.597232,-9178.553681,-1455.581446
1294.593053,3552.988522,-8956.491898,-459.657299
1294.593382,5329.482782,-8438.347739,842.705048
1294.593711,6735.874072,-7031.956449,919.314598
1294.594040,7772.162391,-5403.503377,1378.971896
1294.594369,8734.430116,-4145.153275,1455.581446
1294.594697,9548.656652,-2442.679609,1378.971896
1294.595026,10807.006753,-2664.741391,1762.019645
1294.595355,11325.150913,-2738.761985,2451.505594
1294.595684,11473.192101,-3701.029710,2834.553343
1294.596013,10436.903782,-5921.647536,2834.553343
1294.596342,8586.388927,-6291.750507,2298.286494
1294.596671,5921.647536,-7994.224174,1225.752797
1294.597000,3775.050304,-9104.533087,0.000000
1294.597329,2368.659014,-9474.636058,-766.095498
1294.597658,2664.741391,-9252.574275,-536.266849
1294.597987,3478.967927,-8512.368333,-306.438199
1294.598316,4959.379811,-8216.285956,153.219100
1294.598645,5921.647536,-7698.141797,1225.752797
1294.598974,6809.894666,-6587.832884,1532.190996
1294.599303,7772.162391,-4441.235652,1302.362347
1294.599632,8438.347739,-3923.091493,1455.581446
1294.599961,9326.594869,-3330.926739,1302.362347
1294.600290,10066.800811,-3256.906145,1838.629195
1294.600619,10510.924376,-4145.153275,2374.896044
1294.600948,10807.006753,-5033.400406,2528.115143
1294.601277,9400.615463,-6217.729913,1838.629195
1294.601606,7328.038826,-7624.121203,1608.800546
1294.601935,5329.482782,-9400.615463,1225.752797
1294.602264,3701.029710,-9400.615463,-229.828649
1294.602593,2516.700203,-9400.615463,-1455.581446
1294.602922,2368.659014,-9474.636058,-1225.752797
1294.603251,3552.988522,-9104.533087,-612.876398
1294.603579,4811.338623,-8808.450710,383.047749
1294.603908,6143.709319,-7624.121203,1072.533697
1294.604237,7550.100608,-5699.585753,1225.752797
1294.604566,8882.471304,-4219.173869,1225.752797
1294.604895,9844.739029,-2812.782580,1762.019645
1294.605224,10362.883188,-2516.700203,1915.238745
1294.605553,11177.109724,-2368.659014,2374.896044
1294.605882,10732.986159,-3330.926739,2451.505594
1294.606211,9770.718434,-5847.626942,2221.676944
1294.606540,8290.306550,-7105.977043,2145.067394
1294.606869,6217.729913,-8956.491898,1225.752797
1294.607198,3997.112087,-9770.718434,-76.609550
1294.607527,3108.864956,-9326.594869,-689.485948
1294.607856,2960.823768,-9474.636058,-995.924147
1294.608185,4145.153275,-8216.285956,-919.314598
1294.608514,5551.544565,-8586.388927,306.438199
1294.608843,5847.626942,-7550.100608,306.438199
1294.609172,6439.791695,-6365.771101,842.705048
1294.609501,7402.059420,-4737.318029,612.876398
1294.609830,8660.409521,-3330.926739,1149.143247
1294.610159,9400.615463,-4293.194464,1838.629195
1294.610488,10288.862594,-3701.029710,1991.848295
1294.610817,10584.944971,-4367.215058,2374.896044
1294.611146,10066.800811,-5403.503377,2681.334243
1294.611475,9326.594869,-6069.688724,2374.896044
1294.611804,7254.018232,-8216.285956,2145.067394
1294.612133,4737.318029,-8956.491898,1225.752797
1294.612461,3034.844362,-9622.677246,0.000000
1294.612790,2220.617826,-9622.677246,-919.314598
1294.613119,2590.720797,-9400.615463,-536.266849
1294.613448,3404.947333,-9400.615463,-383.047749
1294.613777,4737.318029,-7402.059420,0.000000
1294.614106,5625.565159,-7328.038826,919.314598
1294.614435,6957.935855,-5625.565159,1455.581446
1294.614764,8512.368333,-3552.988522,1838.629195
1294.615093,9548.656652,-3108.864956,1762.019645
1294.615422,10955.047942,-2590.720797,2374.896044
1294.615751,11325.150913,-2960.823768,2528.115143
1294.616080,11177.109724,-3182.885551,2911.162892
1294.616409,10881.027347,-4959.379811,3064.381992
1294.616738,9326.594869,-6291.750507,2451.505594
1294.617067,6957.935855,-7402.059420,1762.019645
1294.617396,4589.276840,-8808.450710,383.047749
1294.617725,3034.844362,-8586.388927,-459.657299
1294.618054,2812.782580,-9252.574275,-1532.190996
1294.618383,3182.885551,-9104.533087,-1072.533697
1294.618712,3775.050304,-8734.430116,-306.438199
1294.619041,5551.544565,-8512.368333,919.314598
1294.619370,6365.771101,-7254.018232,1225.752797
1294.619699,7772.162391,-6069.688724,1608.800546
1294.620028,8586.388927,-4219.173869,1915.238745
1294.620357,9400.615463,-3552.988522,2145.067394
1294.620686,10066.800811,-3108.864956,1455.581446
1294.621015,10288.862594,-3478.967927,1991.848295
1294.621343,10140.821405,-5033.400406,2681.334243
1294.621672,10140.821405,-6587.832884,2298.286494
1294.622001,8142.265362,-7476.080014,3140.991542
1294.622330,5847.626942,-7994.224174,612.876398
1294.622659,4071.132681,-9252.574275,-536.266849
1294.622988,2812.782580,-9918.759623,-842.705048
1294.623317,2294.638420,-9622.677246,-1455.581446
1294.623646,2738.761985,-9548.656652,-459.657299
1294.623975,4441.235652,-8068.244768,-153.219100
1294.624304,5847.626942,-7624.121203,612.876398
1294.624633,7105.977043,-5847.626942,1225.752797
1294.624962,8660.409521,-4811.338623,1685.410096
1294.625291,9844.739029,-2516.700203,1685.410096
1294.625620,11177.109724,-2368.659014,2451.505594
1294.625949,11251.130318,-2590.720797,2528.115143
1294.626278,11251.130318,-3701.029710,2528.115143
1294.626607,10732.986159,-5551.544565,2528.115143
1294.626936,9178.553681,-6883.915261,2451.505594
1294.627265,7031.956449,-8290.306550,1991.848295
1294.627594,5181.441594,-8734.430116,919.314598
1294.627923,3256.906145,-9104.533087,-842.705048
1294.628252,2886.803174,-9030.512492,-1302.362347
1294.628581,2590.720797,-9252.574275,-995.924147
1294.628910,3997.112087,-9178.553681,-459.657299
1294.629239,5181.441594,-8068.244768,383.047749
1294.629568,6587.832884,-6883.915261,1072.533697
1294.629897,7550.100608,-5773.606348,1378.971896
1294.630225,9104.533087,-4441.235652,2068.457845
1294.630554,9252.574275,-3775.050304,1302.362347
1294.630883,9844.739029,-2886.803174,1685.410096
1294.631212,10881.027347,-2886.803174,1455.581446
1294.631541,10362.883188,-4959.379811,2221.676944
1294.631870,9548.656652,-6513.812290,2451.505594
1294.632199,8142.265362,-7994.224174,2298.286494
1294.632528,6587.832884,-8586.388927,1225.752797
1294.632857,4515.256246,-9844.739029,383.047749
1294.633186,2516.700203,-9474.636058,-536.266849
1294.633515,1480.411884,-9030.512492,-1302.362347
1294.633844,2590.720797,-9104.533087,-842.705048
1294.634173,3997.112087,-7476.080014,76.609550
1294.634502,6143.709319,-7254.018232,842.705048
1294.634831,7550.100608,-5847.626942,1838.629195
1294.635160,8808.450710,-4219.173869,1685.410096
1294.635489,9104.533087,-2886.803174,1532.190996
1294.635818,9770.718434,-3330.926739,1838.629195
1294.636147,10288.862594,-3404.947333,1991.848295
1294.636476,10584.944971,-3849.070898,2374.896044
1294.636805,10140.821405,-4663.297435,2145.067394
1294.637134,9030.512492,-6513.812290,2068.457845
1294.637463,7624.121203,-7698.141797,1532.190996
1294.637792,5329.482782,-8808.450710,306.438199
1294.638121,3997.112087,-9548.656652,0.000000
1294.638450,3034.844362,-8882.471304,-689.485948
1294.638779,3034.844362,-8438.347739,-612.876398
1294.639107,3849.070898,-8364.327145,-383.047749
1294.639436,4811.338623,-7994.224174,459.657299
1294.639765,6587.832884,-7476.080014,919.314598
1294.640094,7624.121203,-5033.400406,1838.629195
1294.640423,7920.203579,-4219.173869,1225.752797
1294.640752,8956.491898,-3330.926739,1225.752797
1294.641081,9400.615463,-3923.091493,1762.019645
1294.641410,9548.656652,-4589.276840,1838.629195
1294.641739,9548.656652,-5255.462188,2528.115143
1294.642068,9474.636058,-6439.791695,2374.896044
1294.642397,7994.224174,-7105.977043,1608.800546
1294.642726,5847.626942,-9400.615463,1378.971896
1294.643055,4441.235652,-9844.739029,842.705048
1294.643384,2886.803174,-9548.656652,-689.485948
1294.643713,2516.700203,-8882.471304,-1072.533697
1294.644042,3330.926739,-8438.347739,-383.047749
1294.644371,4959.379811,-8364.327145,-153.219100
1294.644700,6661.853478,-7476.080014,842.705048
1294.645029,7476.080014,-5995.668130,1455.581446
1294.645358,8512.368333,-4441.235652,1378.971896
1294.645687,8660.409521,-3330.926739,1608.800546
1294.646016,9178.553681,-2886.803174,1455.581446
1294.646345,10436.903782,-2738.761985,1532.190996
1294.646674,11103.089130,-3552.988522,2528.115143
1294.647003,10955.047942,-4737.318029,1991.848295
1294.647332,9622.677246,-6439.791695,2451.505594
1294.647661,7846.182985,-7105.977043,2068.457845
1294.647989,5773.606348,-8882.471304,1225.752797
1294.648318,3849.070898,-9178.553681,153.219100
1294.648647,3034.844362,-8438.347739,-383.047749
1294.648976,3108.864956,-8734.430116,-536.266849
1294.649305,3849.070898,-7476.080014,689.485948
1294.649634,4959.379811,-7402.059420,229.828649
1294.649963,5699.585753,-6661.853478,612.876398
1294.650292,7105.977043,-5403.503377,1149.143247
1294.650621,7920.203579,-4811.338623,995.924147
1294.650950,8660.409521,-4589.276840,1608.800546
1294.651279,9326.594869,-4071.132681,1532.190996
1294.651608,10066.800811,-4367.215058,1608.800546
1294.651937,9992.780217,-5033.400406,1991.848295
1294.652266,9770.718434,-6957.935855,2068.457845
1294.652595,8734.430116,-7846.182985,2221.676944
1294.652924,6809.894666,-8734.430116,2068.457845
1294.653253,4811.338623,-9178.553681,766.095498
1294.653582,3478.967927,-8882.471304,689.485948
1294.653910,2738.761985,-8512.368333,76.609550
1294.654239,3256.906145,-8290.306550,-536.266849
1294.654568,3997.112087,-8142.265362,0.000000
1294.654897,5181.441594,-6809.894666,0.000000
1294.655226,6661.853478,-5847.626942,919.314598
1294.655555,8512.368333,-4737.318029,1685.410096
1294.655884,9474.636058,-4071.132681,2068.457845
1294.656213,9844.739029,-3552.988522,2068.457845
1294.656542,10362.883188,-3182.885551,1915.238745
1294.656871,11177.109724,-3478.967927,2374.896044
1294.657200,10584.944971,-5329.482782,2528.115143
1294.657528,9474.636058,-6291.750507,2528.115143
1294.657857,7846.182985,-7105.977043,2068.457845
1294.658186,5995.668130,-8512.368333,1378.971896
1294.658515,4441.235652,-8290.306550,612.876398
1294.658844,3256.906145,-8808.450710,-536.266849
1294.659173,2960.823768,-8216.285956,-1225.752797
1294.659502,3552.988522,-8290.306550,-842.705048
1294.659831,4663.297435,-7846.182985,-842.705048
1294.660160,4811.338623,-7402.059420,229.828649
1294.660489,7031.956449,-6365.771101,842.705048
1294.660818,7994.224174,-5551.544565,842.705048
1294.661147,8734.430116,-4515.256246,1762.019645
1294.661475,9696.697840,-3997.112087,2374.896044
1294.661804,9622.677246,-4367.215058,1608.800546
1294.662133,9622.677246,-4515.256246,1838.629195
1294.662462,9326.594869,-5477.523971,2298.286494
1294.662791,8512.368333,-7550.100608,2528.115143
1294.663120,6735.874072,-8586.388927,2528.115143
1294.663449,4737.318029,-9474.636058,1149.143247
1294.663778,3478.967927,-9474.636058,306.438199
1294.664107,3108.864956,-8882.471304,-536.266849
1294.664436,3552.988522,-8808.450710,-1302.362347
1294.664765,3997.112087,-8216.285956,-536.266849
1294.665093,4959.379811,-8364.327145,306.438199
1294.665422,6735.874072,-7179.997637,842.705048
1294.665751,7994.224174,-5329.482782,1455.581446
1294.666080,8808.450710,-3627.009116,1532.190996
1294.666409,9548.656652,-3108.864956,1685.410096
1294.666738,9992.780217,-2664.741391,1838.629195
1294.667067,10288.862594,-3256.906145,1608.800546
1294.667396,10584.944971,-4367.215058,2221.676944
1294.667725,9770.718434,-5773.606348,2298.286494
1294.668054,8882.471304,-6735.874072,2528.115143
1294.668383,7105.977043,-7179.997637,1762.019645
1294.668712,5699.585753,-8142.265362,1149.143247
1294.669040,5033.400406,-8068.244768,229.828649
1294.669369,4441.235652,-7328.038826,-612.876398
1294.669698,3849.070898,-7179.997637,-842.705048
1294.670027,3923.091493,-7772.162391,-766.095498
1294.670356,4663.297435,-8512.368333,383.047749
1294.670685,5773.606348,-7698.141797,612.876398
1294.671014,6513.812290,-5921.647536,1225.752797
1294.671343,7920.203579,-4441.235652,1685.410096
1294.671672,8660.409521,-3775.050304,1302.362347
1294.672001,9178.553681,-3701.029710,1915.238745
1294.672330,9622.677246,-4737.318029,2298.286494
1294.672658,9844.739029,-4811.338623,2145.067394
1294.672987,9696.697840,-6291.750507,2528.115143
1294.673316,8586.388927,-7179.997637,2451.505594
1294.673645,7105.977043,-8586.388927,1991.848295
1294.673974,5107.421000,-9252.574275,689.485948
1294.674303,3404.947333,-8734.430116,-919.314598
1294.674632,2812.782580,-9030.512492,-1225.752797
1294.674961,3478.967927,-8364.327145,-612.876398
1294.675290,4589.276840,-8956.491898,0.000000
1294.675619,5255.462188,-7994.224174,306.438199
1294.675948,6365.771101,-6513.812290,383.047749
1294.676276,7550.100608,-5033.400406,1149.143247
1294.676605,8956.491898,-3775.050304,1991.848295
1294.676934,9992.780217,-3330.926739,1685.410096
1294.677263,11103.089130,-2368.659014,1915.238745
1294.677592,10955.047942,-3108.864956,2374.896044
1294.677921,11177.109724,-4441.235652,2451.505594
1294.678250,10066.800811,-6217.729913,2757.943793
1294.678579,7994.224174,-7698.141797,2451.505594
1294.678908,5107.421000,-8364.327145,919.314598
1294.679237,3478.967927,-8142.265362,-383.047749
1294.679566,2812.782580,-8956.491898,-536.266849
1294.679895,3478.967927,-9252.574275,-689.485948
1294.680223,4071.132681,-8438.347739,0.000000
1294.680552,5255.462188,-7328.038826,306.438199
1294.680881,5773.606348,-7031.956449,459.657299
1294.681210,6809.894666,-6365.771101,1225.752797
1294.681539,7994.224174,-4219.173869,1225.752797
1294.681868,9104.533087,-4515.256246,1608.800546
1294.682197,9770.718434,-3182.885551,1685.410096
1294.682526,10584.944971,-3849.070898,2757.943793
1294.682855,10955.047942,-5107.421000,3524.039291
1294.683184,10436.903782,-5551.544565,3140.991542
1294.683513,8364.327145,-6735.874072,2374.896044
1294.683841,5847.626942,-7624.121203,1685.410096
1294.684170,4071.132681,-8438.347739,995.924147
1294.684499,2738.761985,-9548.656652,-459.657299
1294.684828,1998.556043,-9474.636058,-995.924147
1294.685157,2516.700203,-9622.677246,-1302.362347
1294.685486,3849.070898,-9030.512492,0.000000
1294.685815,5699.585753,-8364.327145,842.705048
1294.686144,6587.832884,-6883.915261,919.314598
1294.686473,7105.977043,-4737.318029,612.876398
1294.686802,8216.285956,-4293.194464,1072.533697
1294.687131,9844.739029,-3849.070898,1838.629195
1294.687460,11177.109724,-3627.009116,2068.457845
1294.687788,11399.171507,-3923.091493,2528.115143
1294.688117,10658.965565,-4737.318029,2604.724693
1294.688446,9474.636058,-6069.688724,2451.505594
1294.688775,7179.997637,-7105.977043,1838.629195
1294.689104,5477.523971,-8142.265362,766.095498
1294.689433,4219.173869,-8290.306550,-306.438199
1294.689762,3182.885551,-8142.265362,-1225.752797
1294.690091,3701.029710,-8808.450710,-689.485948
1294.690420,4737.318029,-8586.388927,76.609550
1294.690749,5773.606348,-7328.038826,383.047749
1294.691078,6069.688724,-6661.853478,306.438199
1294.691406,6957.935855,-5847.626942,689.485948
1294.691735,7550.100608,-4959.379811,1762.019645
1294.692064,8660.409521,-4737.318029,1608.800546
1294.692393,9400.615463,-3849.070898,1838.629195
1294.692722,9770.718434,-3997.112087,1762.019645
1294.693051,10288.862594,-5033.400406,2681.334243
1294.693380,9474.636058,-6365.771101,2681.334243
1294.693709,8142.265362,-7550.100608,2221.676944
1294.694038,6143.709319,-7698.141797,1608.800546
1294.694367,4589.276840,-9030.512492,306.438199
1294.694696,3997.112087,-9104.533087,0.000000
1294.695025,3404.947333,-8956.491898,-766.095498
1294.695353,3330.926739,-9030.512492,-1149.143247
1294.695682,4441.235652,-8364.327145,-306.438199
1294.696011,5625.565159,-8290.306550,689.485948
1294.696340,7105.977043,-6291.750507,1149.143247
1294.696669,7920.203579,-4885.359217,1072.533697
1294.696998,8364.327145,-3997.112087,919.314598
1294.697327,9104.533087,-2664.741391,1685.410096
1294.697656,10362.883188,-2886.803174,2298.286494
1294.697985,11251.130318,-3108.864956,2604.724693
1294.698314,11029.068536,-4293.194464,2681.334243
1294.698643,9918.759623,-6069.688724,2911.162892
1294.698971,8364.327145,-7031.956449,2528.115143
1294.699300,5773.606348,-7994.224174,1685.410096
1294.699629,3627.009116,-8142.265362,76.609550
1294.699958,3701.029710,-8364.327145,-1225.752797
1294.700287,3627.009116,-8808.450710,-459.657299
1294.700616,4441.235652,-8734.430116,229.828649
1294.700945,4959.379811,-7846.182985,306.438199
1294.701274,5995.668130,-7031.956449,995.924147
1294.701603,6661.853478,-6365.771101,689.485948
1294.701932,7550.100608,-5477.523971,1149.143247
1294.702261,7920.203579,-3256.906145,1838.629195
1294.702589,9770.718434,-3701.029710,1225.752797
1294.702918,10362.883188,-3552.988522,2374.896044
1294.703247,10658.965565,-4441.235652,2145.067394
1294.703576,10066.800811,-6143.709319,2145.067394
1294.703905,8586.388927,-6957.935855,2451.505594
1294.704234,7105.977043,-8290.306550,1455.581446
1294.704563,5033.400406,-8808.450710,459.657299
1294.704892,3627.009116,-9770.718434,-306.438199
1294.705221,3478.967927,-9844.739029,-1149.143247
1294.705550,2960.823768,-9474.636058,-459.657299
1294.705879,3552.988522,-9326.594869,-536.266849
1294.706208,4441.235652,-8734.430116,0.000000
1294.706536,5329.482782,-7846.182985,689.485948
1294.706865,7031.956449,-5847.626942,919.314598
1294.707194,8290.306550,-4293.194464,1149.143247
1294.707523,9696.697840,-2960.823768,1915.238745
1294.707852,10955.047942,-2738.761985,2451.505594
1294.708181,11695.253884,-2294.638420,2451.505594
1294.708510,11029.068536,-3552.988522,2528.115143
1294.708839,9474.636058,-5551.544565,1915.238745
1294.709168,8068.244768,-6809.894666,1685.410096
1294.709497,6143.709319,-8142.265362,1532.190996
1294.709826,4515.256246,-8364.327145,766.095498
1294.710154,3775.050304,-8808.450710,-383.047749
1294.710483,3627.009116,-8882.471304,-995.924147
1294.710812,3997.112087,-8290.306550,-689.485948
1294.711141,4515.256246,-7846.182985,306.438199
1294.711470,5921.647536,-7179.997637,842.705048
1294.711799,6735.874072,-5921.647536,1072.533697
1294.712128,7328.038826,-5181.441594,1455.581446
1294.712457,8586.388927,-3849.070898,1302.362347
1294.712786,9474.636058,-3701.029710,1225.752797
1294.713115,10214.842000,-3330.926739,2451.505594
1294.713444,10807.006753,-4145.153275,2374.896044
1294.713773,10510.924376,-5477.523971,3064.381992
1294.714101,8956.491898,-6439.791695,2681.334243
1294.714430,6735.874072,-7772.162391,1455.581446
1294.714759,4737.318029,-8512.368333,612.876398
1294.715088,3330.926739,-9400.615463,-459.657299
1294.715417,2368.659014,-9770.718434,-1378.971896
1294.715746,2146.597232,-9622.677246,-459.657299
1294.716075,3775.050304,-9844.739029,-919.314598
1294.716404,4589.276840,-9770.718434,612.876398
1294.716733,5699.585753,-8068.244768,842.705048
1294.717062,6513.812290,-6439.791695,766.095498
1294.717391,8364.327145,-4145.153275,1072.533697
1294.717719,9400.615463,-3478.967927,1838.629195
1294.718048,11029.068536,-3256.906145,1915.238745
1294.718377,11843.295072,-2590.720797,2681.334243
1294.718706,11769.274478,-3478.967927,2298.286494
1294.719035,10584.944971,-4367.215058,2911.162892
1294.719364,8882.471304,-6661.853478,2681.334243
1294.719693,6809.894666,-7772.162391,1685.410096
1294.720022,4737.318029,-7994.224174,229.828649
1294.720351,3404.947333,-8882.471304,-689.485948
1294.720680,2812.782580,-7328.038826,-1608.800546
1294.721009,3256.906145,-9104.533087,-612.876398
1294.721338,4959.379811,-9030.512492,689.485948
1294.721666,5995.668130,-7105.977043,689.485948
1294.721995,7254.018232,-6809.894666,2298.286494
1294.722324,8068.244768,-4811.338623,2068.457845
1294.722653,8142.265362,-4663.297435,1532.190996
1294.722982,8586.388927,-3478.967927,1532.190996
1294.723311,9474.636058,-3256.906145,1838.629195
1294.723640,11103.089130,-3923.091493,2681.334243
1294.723969,11251.130318,-4663.297435,3370.820191
1294.724298,10436.903782,-6439.791695,2757.943793
1294.724627,8216.285956,-6809.894666,2145.067394
1294.724956,5699.585753,-8290.306550,766.095498
1294.725284,3256.906145,-9474.636058,-612.876398
1294.725613,2220.617826,-9178.553681,-1302.362347
1294.725942,2146.597232,-9770.718434,-1455.581446
1294.726271,3478.967927,-9474.636058,-612.876398
1294.726600,4515.256246,-9400.615463,536.266849
1294.726929,5921.647536,-8512.368333,1302.362347
1294.727258,6513.812290,-6291.750507,1072.533697
1294.727587,7105.977043,-4293.194464,1149.143247
1294.727916,8808.450710,-2886.803174,1072.533697
1294.728245,9918.759623,-2738.761985,1685.410096
1294.728574,11547.212695,-2442.679609,2987.772442
1294.728902,11991.336260,-3627.009116,3064.381992
1294.729231,11251.130318,-4737.318029,3064.381992
1294.729560,9400.615463,-6069.688724,1915.238745
1294.729889,6439.791695,-8216.285956,1149.143247
1294.730218,4071.132681,-8808.450710,0.000000
1294.730547,3256.906145,-9178.553681,-919.314598
1294.730876,3478.967927,-9400.615463,-1302.362347
1294.731205,3182.885551,-9030.512492,-306.438199
1294.731534,4071.132681,-9400.615463,0.000000
1294.731863,5847.626942,-8216.285956,766.095498
1294.732192,6069.688724,-7105.977043,919.314598
1294.732521,6957.935855,-4811.338623,1532.190996
1294.732849,8364.327145,-4293.194464,1762.019645
1294.733178,9326.594869,-2960.823768,1378.971896
1294.733507,9992.780217,-3552.988522,1685.410096
1294.733836,10732.986159,-3627.009116,2145.067394
1294.734165,11029.068536,-4737.318029,2528.115143
1294.734494,9844.739029,-6587.832884,2604.724693
1294.734823,8142.265362,-7179.997637,2221.676944
1294.735152,5625.565159,-8438.347739,689.485948
1294.735481,3552.988522,-9622.677246,-459.657299
1294.735810,2442.679609,-10140.821405,-1149.143247
1294.736139,2220.617826,-10066.800811,-1149.143247
1294.736467,3182.885551,-9696.697840,-842.705048
1294.736796,4663.297435,-9474.636058,383.047749
1294.737125,5773.606348,-8216.285956,919.314598
1294.737454,6661.853478,-6291.750507,1302.362347
1294.737783,8068.244768,-4441.235652,1378.971896
1294.738112,9252.574275,-2960.823768,1149.143247
1294.738441,10140.821405,-2146.597232,1762.019645
1294.738770,11029.068536,-2516.700203,2221.676944
1294.739099,11325.150913,-3627.009116,2451.505594
1294.739428,10584.944971,-4811.338623,2451.505594
1294.739757,8216.285956,-7031.956449,1915.238745
1294.740086,6883.915261,-8216.285956,1838.629195
1294.740414,4737.318029,-8734.430116,536.266849
1294.740743,3404.947333,-9696.697840,-612.876398
1294.741072,2886.803174,-8882.471304,-1149.143247
1294.741401,3404.947333,-8734.430116,-1149.143247
1294.741730,5107.421000,-8586.388927,0.000000
1294.742059,6365.771101,-7179.997637,1532.190996
1294.742388,7105.977043,-6217.729913,1608.800546
1294.742717,7476.080014,-4959.379811,1685.410096
1294.743046,8364.327145,-3256.906145,1149.143247
1294.743375,8734.430116,-2664.741391,1378.971896
1294.743704,9400.615463,-3108.864956,1685.410096
1294.744032,10288.862594,-3552.988522,2681.334243
1294.744361,10214.842000,-5329.482782,2451.505594
1294.744690,8660.409521,-6439.791695,2834.553343
1294.745019,7105.977043,-8734.430116,1685.410096
1294.745348,5107.421000,-8660.409521,536.266849
1294.745677,2664.741391,-10955.047942,0.000000
1294.746006,2294.638420,-9622.677246,-1225.752797
1294.746335,3330.926739,-8808.450710,-1072.533697
1294.746664,4293.194464,-10362.883188,0.000000
1294.746993,5107.421000,-8808.450710,306.438199
1294.747322,5625.565159,-7772.162391,842.705048
1294.747651,6513.812290,-5477.523971,1149.143247
1294.747979,7550.100608,-3775.050304,919.314598
1294.748308,9400.615463,-3330.926739,1532.190996
1294.748637,10584.944971,-1998.556043,2374.896044
1294.748966,11769.274478,-2442.679609,2221.676944
1294.749295,11917.315666,-2886.803174,2451.505594
1294.749624,10881.027347,-4071.132681,2834.553343
1294.749953,9400.615463,-7402.059420,2528.115143
1294.750282,7105.977043,-8142.265362,1838.629195
1294.750611,4441.235652,-8882.471304,766.095498
1294.750940,2886.803174,-9622.677246,-612.876398
1294.751269,2516.700203,-8438.347739,-1149.143247
1294.751598,3108.864956,-9400.615463,-689.485948
1294.751927,4663.297435,-8438.347739,0.000000
1294.752256,5403.503377,-7476.080014,0.000000
1294.752585,6513.812290,-6439.791695,689.485948
1294.752914,7031.956449,-5403.503377,1072.533697
1294.753243,8438.347739,-4219.173869,1685.410096
1294.753572,10140.821405,-2368.659014,1225.752797
1294.753902,10658.965565,-2886.803174,2068.457845
1294.754231,11177.109724,-3701.029710,2451.505594
1294.754560,10881.027347,-4811.338623,2145.067394
1294.754889,9474.636058,-6439.791695,2604.724693
1294.755218,8290.306550,-7550.100608,2221.676944
1294.755547,5847.626942,-9104.533087,1762.019645
1294.755876,3849.070898,-9622.677246,306.438199
1294.756205,2590.720797,-9474.636058,-919.314598
1294.756534,1850.514855,-9178.553681,-766.095498
1294.756863,2516.700203,-9252.574275,-1225.752797
1294.757192,3923.091493,-9474.636058,0.000000
1294.757521,5551.544565,-8660.409521,766.095498
1294.757850,6291.750507,-7105.977043,1225.752797
1294.758179,7402.059420,-5181.441594,1838.629195
1294.758508,9326.594869,-3330.926739,1991.848295
1294.758837,10807.006753,-2738.761985,2221.676944
1294.759167,11695.253884,-3034.844362,2604.724693
1294.759496,11177.109724,-3923.091493,2681.334243
1294.759825,9770.718434,-5181.441594,2145.067394
1294.760154,8438.347739,-6143.709319,2451.505594
1294.760483,6957.935855,-7402.059420,1762.019645
1294.760812,5107.421000,-8290.306550,842.705048
1294.761141,4219.173869,-8364.327145,0.000000
1294.761470,3552.988522,-8586.388927,-995.924147
1294.761799,3330.926739,-8290.306550,-766.095498
1294.762128,4071.132681,-8290.306550,-229.828649
1294.762457,5847.626942,-7550.100608,306.438199
1294.762786,6291.750507,-6439.791695,1072.533697
1294.763115,6809.894666,-6291.750507,1225.752797
1294.763444,8216.285956,-5329.482782,1685.410096
1294.763773,9104.533087,-3701.029710,1685.410096
1294.764102,9474.636058,-3478.967927,1915.238745
1294.764432,9770.718434,-3701.029710,1991.848295
1294.764761,9696.697840,-4885.359217,2681.334243
1294.765090,9178.553681,-6143.709319,2681.334243
1294.765419,7846.182985,-7179.997637,2374.896044
1294.765748,6957.935855,-7179.997637,1455.581446
1294.766077,4885.359217,-8956.491898,612.876398
1294.766406,3404.947333,-9252.574275,-612.876398
1294.766735,2442.679609,-9252.574275,-1225.752797
1294.767064,2590.720797,-9474.636058,-1302.362347
1294.767393,3997.112087,-9474.636058,0.000000
1294.767722,5255.462188,-8438.347739,536.266849
1294.768051,6439.791695,-7402.059420,612.876398
1294.768380,7328.038826,-5921.647536,766.095498
1294.768709,8438.347739,-4071.132681,1455.581446
1294.769038,9400.615463,-3182.885551,1762.019645
1294.769367,11103.089130,-2294.638420,2068.457845
1294.769697,11695.253884,-3404.947333,2451.505594
1294.770026,11103.089130,-4293.194464,3064.381992
1294.770355,9918.759623,-5699.585753,2911.162892
1294.770684,8808.450710,-6957.935855,2451.505594
1294.771013,6957.935855,-7550.100608,1991.848295
1294.771342,5107.421000,-7624.121203,306.438199
1294.771671,3701.029710,-8438.347739,-153.219100
1294.772000,2812.782580,-8512.368333,-383.047749
1294.772329,3775.050304,-9030.512492,-229.828649
1294.772658,4663.297435,-8068.244768,0.000000
1294.772987,5477.523971,-6883.915261,766.095498
1294.773316,6587.832884,-5551.544565,842.705048
1294.773645,7402.059420,-5033.400406,689.485948
1294.773974,7846.182985,-4145.153275,1225.752797
1294.774303,8660.409521,-3849.070898,1455.581446
1294.774632,9992.780217,-4071.132681,1838.629195
1294.774962,10510.924376,-3923.091493,2911.162892
1294.775291,9992.780217,-5847.626942,2757.943793
1294.775620,9474.636058,-6735.874072,2834.553343
1294.775949,8142.265362,-7254.018232,1991.848295
1294.776278,6439.791695,-7994.224174,1608.800546
1294.776607,4515.256246,-9104.533087,306.438199
1294.776936,3034.844362,-8808.450710,-995.924147
1294.777265,2220.617826,-9696.697840,-842.705048
1294.777594,2664.741391,-9696.697840,-536.266849
1294.777923,4145.153275,-8660.409521,383.047749
1294.778252,5107.421000,-7402.059420,229.828649
1294.778581,6661.853478,-5551.544565,766.095498
1294.778910,7994.224174,-4441.235652,1149.143247
1294.779239,9104.533087,-3627.009116,1532.190996
1294.779568,9918.759623,-3034.844362,2221.676944
1294.779897,11029.068536,-3404.947333,2374.896044
1294.780227,11473.192101,-4515.256246,2757.943793
1294.780556,10214.842000,-6069.688724,2757.943793
1294.780885,8512.368333,-7698.141797,2374.896044
1294.781214,6513.812290,-8068.244768,1378.971896
1294.781543,4145.153275,-8512.368333,383.047749
1294.781872,3997.112087,-9104.533087,-306.438199
1294.782201,3478.967927,-8586.388927,-383.047749
1294.782530,3775.050304,-8068.244768,-919.314598
1294.782859,4663.297435,-8216.285956,0.000000
1294.783188,5847.626942,-7031.956449,306.438199
1294.783517,7031.956449,-6661.853478,766.095498
1294.783846,7254.018232,-4589.276840,1149.143247
1294.784175,8586.388927,-4071.132681,1072.533697
1294.784504,9548.656652,-3775.050304,1685.410096
1294.784833,10584.944971,-3404.947333,1915.238745
1294.785162,11251.130318,-3923.091493,2528.115143
1294.785492,10584.944971,-4515.256246,2604.724693
1294.785821,9474.636058,-5699.585753,2528.115143
1294.786150,7920.203579,-7105.977043,2528.115143
1294.786479,5847.626942,-8364.327145,1455.581446
1294.786808,3701.029710,-8882.471304,536.266849
1294.787137,2738.761985,-9474.636058,-1225.752797
1294.787466,2220.617826,-9770.718434,-383.047749
1294.787795,2738.761985,-9622.677246,-689.485948
1294.788124,4145.153275,-9548.656652,0.000000
1294.788453,5181.441594,-7624.121203,919.314598
1294.788782,6587.832884,-6069.688724,459.657299
1294.789111,8216.285956,-4515.256246,612.876398
1294.789440,9474.636058,-2886.803174,1378.971896
1294.789769,10436.903782,-3404.947333,1762.019645
1294.790098,11621.233289,-3330.926739,2374.896044
1294.790427,10955.047942,-4293.194464,2298.286494
1294.790757,9844.739029,-5995.668130,2604.724693
1294.791086,8216.285956,-7328.038826,2298.286494
1294.791415,6587.832884,-8216.285956,2068.457845
1294.791744,4071.132681,-9252.574275,689.485948
1294.792073,3256.906145,-8882.471304,-306.438199
1294.792402,3404.947333,-8956.491898,-1072.533697
1294.792731,3701.029710,-8956.491898,-306.438199
1294.793060,4663.297435,-8734.430116,0.000000
1294.793389,5847.626942,-7328.038826,612.876398
1294.793718,6883.915261,-6661.853478,689.485948
1294.794047,7698.141797,-5329.482782,1225.752797
1294.794376,8290.306550,-4071.132681,1149.143247
1294.794705,9474.636058,-3404.947333,1685.410096
1294.795034,10214.842000,-3552.988522,2298.286494
1294.795363,10658.965565,-3775.050304,2298.286494
1294.795692,9474.636058,-4515.256246,2374.896044
1294.796022,8586.388927,-5921.647536,2145.067394
1294.796351,7328.038826,-7550.100608,1991.848295
1294.796680,5773.606348,-8364.327145,1915.238745
1294.797009,4589.276840,-8808.450710,766.095498
1294.797338,3997.112087,-8808.450710,-229.828649
1294.797667,3404.947333,-8660.409521,-1072.533697
1294.797996,3627.009116,-9178.553681,-536.266849
1294.798325,4885.359217,-8364.327145,153.219100
1294.798654,6217.729913,-7105.977043,689.485948
1294.798983,7105.977043,-5551.544565,1225.752797
1294.799312,7772.162391,-4663.297435,1225.752797
1294.799641,8512.368333,-3849.070898,1455.581446
1294.799970,9844.739029,-3330.926739,1838.629195
1294.800299,10362.883188,-3108.864956,2374.896044
1294.800628,11251.130318,-4293.194464,2757.943793
1294.800957,10066.800811,-5033.400406,2987.772442
1294.801287,8586.388927,-6439.791695,2681.334243
1294.801616,6365.771101,-8142.265362,1608.800546
1294.801945,4515.256246,-8808.450710,689.485948
1294.802274,3478.967927,-8438.347739,-536.266849
1294.802603,3552.988522,-9252.574275,-689.485948
1294.802932,3478.967927,-9252.574275,-612.876398
1294.803261,4071.132681,-9178.553681,0.000000
1294.803590,5255.462188,-7994.224174,0.000000
1294.803919,5995.668130,-6957.935855,766.095498
1294.804248,7105.977043,-5107.421000,1149.143247
1294.804577,7994.224174,-4441.235652,689.485948
1294.804906,8882.471304,-3849.070898,919.314598
1294.805235,9178.553681,-3627.009116,1225.752797
1294.805564,9918.759623,-3997.112087,1991.848295
1294.805893,10584.944971,-4441.235652,2451.505594
1294.806223,9992.780217,-5847.626942,2834.553343
1294.806552,8734.430116,-6809.894666,2681.334243
1294.806881,6883.915261,-8364.327145,2068.457845
1294.807210,5255.462188,-8364.327145,919.314598
1294.807539,3849.070898,-8882.471304,0.000000
1294.807868,3256.906145,-9474.636058,-995.924147
1294.808197,3627.009116,-9252.574275,-919.314598
1294.808526,3849.070898,-9474.636058,-76.609550
1294.808855,4885.359217,-8068.244768,459.657299
1294.809184,6291.750507,-6883.915261,689.485948
1294.809513,8216.285956,-4737.318029,1685.410096
1294.809842,8882.471304,-3182.885551,919.314598
1294.810171,9548.656652,-3108.864956,1532.190996
1294.810500,9918.759623,-3034.844362,1685.410096
1294.810829,10214.842000,-4515.256246,2374.896044
1294.811158,10140.821405,-5033.400406,3140.991542
1294.811488,9474.636058,-5551.544565,2374.896044
1294.811817,7920.203579,-7031.956449,1915.238745
1294.812146,5847.626942,-7698.141797,1072.533697
1294.812475,4145.153275,-9178.553681,0.000000
1294.812804,3997.112087,-8364.327145,-306.438199
1294.813133,4515.256246,-8068.244768,0.000000
1294.813462,5181.441594,-8068.244768,-76.609550
1294.813791,5773.606348,-7624.121203,536.266849
1294.814120,6587.832884,-6661.853478,1302.362347
1294.814449,7179.997637,-5255.462188,1072.533697
1294.814778,7402.059420,-4367.215058,766.095498
1294.815107,7920.203579,-3775.050304,459.657299
1294.815436,8438.347739,-4515.256246,842.705048
1294.815765,9548.656652,-4737.318029,2298.286494
1294.816094,9770.718434,-5551.544565,2834.553343
1294.816423,9252.574275,-6291.750507,2987.772442
1294.816753,8290.306550,-6513.812290,2451.505594
1294.817082,6661.853478,-7624.121203,1532.190996
1294.817411,4737.318029,-8734.430116,612.876398
1294.817740,3182.885551,-9252.574275,-383.047749
1294.818069,2664.741391,-9474.636058,-1378.971896
1294.818398,3330.926739,-9326.594869,-689.485948
1294.818727,5403.503377,-9474.636058,689.485948
1294.819056,6365.771101,-7846.182985,766.095498
1294.819385,6883.915261,-6439.791695,919.314598
1294.819714,7402.059420,-5181.441594,842.705048
1294.820043,8438.347739,-3552.988522,919.314598
1294.820372,9326.594869,-2368.659014,612.876398
1294.820701,9844.739029,-3478.967927,1608.800546
1294.821030,10214.842000,-4441.235652,2221.676944
1294.821359,9548.656652,-6143.709319,2681.334243
1294.821688,9178.553681,-6809.894666,3140.991542
1294.822018,7476.080014,-7698.141797,2374.896044
1294.822347,6291.750507,-7920.203579,1455.581446
1294.822676,4663.297435,-8216.285956,76.609550
1294.823005,3923.091493,-8438.347739,-306.438199
1294.823334,4293.194464,-7846.182985,0.000000
1294.823663,5107.421000,-7624.121203,-536.266849
1294.823992,5921.647536,-7105.977043,383.047749
1294.824321,6513.812290,-7179.997637,612.876398
1294.824650,7179.997637,-6291.750507,766.095498
1294.824979,7328.038826,-5033.400406,1302.362347
1294.825308,8290.306550,-4441.235652,842.705048
1294.825637,9104.533087,-3849.070898,1225.752797
1294.825966,9178.553681,-3997.112087,2068.457845
1294.826295,10288.862594,-4663.297435,1608.800546
1294.826624,9844.739029,-5477.523971,2451.505594
1294.826953,8882.471304,-6957.935855,2604.724693
1294.827283,7328.038826,-7920.203579,1915.238745
1294.827612,5477.523971,-7846.182985,766.095498
1294.827941,4219.173869,-8142.265362,-459.657299
1294.828270,3775.050304,-8882.471304,-536.266849
1294.828599,4145.153275,-9104.533087,0.000000
1294.828928,5033.400406,-8512.368333,-76.609550
1294.829257,5625.565159,-6809.894666,153.219100
1294.829586,5921.647536,-6587.832884,229.828649
1294.829915,6809.894666,-5625.565159,842.705048
1294.830244,7550.100608,-4515.256246,995.924147
1294.830573,8586.388927,-3775.050304,1302.362347
1294.830902,9622.677246,-3478.967927,2221.676944
1294.831231,10288.862594,-4219.173869,2451.505594
1294.831560,10066.800811,-5699.585753,2451.505594
1294.831889,9030.512492,-7105.977043,2681.334243
1294.832218,7476.080014,-6957.935855,1991.848295
1294.832548,5995.668130,-7920.203579,1072.533697
1294.832877,4811.338623,-8364.327145,153.219100
1294.833206,4441.235652,-7994.224174,-612.876398
1294.833535,4885.359217,-8438.347739,-383.047749
1294.833864,5329.482782,-8068.244768,0.000000
1294.834193,5477.523971,-7994.224174,153.219100
1294.834522,6143.709319,-7698.141797,612.876398
1294.834851,6217.729913,-6513.812290,536.266849
1294.835180,6217.729913,-5625.565159,536.266849
1294.835509,7624.121203,-4737.318029,919.314598
1294.835838,8660.409521,-4663.297435,1149.143247
1294.836167,9992.780217,-4589.276840,2374.896044
1294.836496,10658.965565,-4441.235652,2987.772442
1294.836825,10732.986159,-5107.421000,2451.505594
1294.837154,9474.636058,-6143.709319,2987.772442
1294.837483,7698.141797,-7179.997637,2451.505594
1294.837813,6069.688724,-7624.121203,1225.752797
1294.838142,4367.215058,-8068.244768,-229.828649
1294.838471,3849.070898,-8808.450710,-995.924147
1294.838800,3478.967927,-8956.491898,-612.876398
1294.839129,3552.988522,-9326.594869,0.000000
1294.839458,4145.153275,-8364.327145,-76.609550
1294.839787,5403.503377,-7254.018232,536.266849
1294.840116,6217.729913,-5847.626942,766.095498
1294.840445,7772.162391,-4515.256246,1455.581446
1294.840774,9696.697840,-4219.173869,1915.238745
1294.841103,10288.862594,-3034.844362,2374.896044
1294.841432,11325.150913,-3552.988522,2681.334243
1294.841761,11325.150913,-4737.318029,2681.334243
1294.842090,10362.883188,-5551.544565,2757.943793
1294.842419,8734.430116,-6439.791695,2451.505594
1294.842748,6809.894666,-7328.038826,1532.190996
1294.843078,4663.297435,-7920.203579,306.438199
1294.843407,3849.070898,-8808.450710,-612.876398
1294.843736,3701.029710,-8290.306550,-536.266849
1294.844065,3404.947333,-8882.471304,-919.314598
1294.844394,3997.112087,-8660.409521,-536.266849
1294.844723,4441.235652,-8956.491898,612.876398
1294.845052,5403.503377,-7179.997637,1149.143247
1294.845381,6513.812290,-5921.647536,612.876398
1294.845710,7624.121203,-5255.462188,1225.752797
1294.846039,9030.512492,-4219.173869,1302.362347
1294.846368,9918.759623,-4293.194464,1838.629195
1294.846697,10140.821405,-4367.215058,2374.896044
1294.847026,9918.759623,-5329.482782,2451.505594
1294.847355,9178.553681,-6365.771101,2145.067394
1294.847684,7698.141797,-6957.935855,2374.896044
1294.848013,5995.668130,-7994.224174,1072.533697
1294.848343,4441.235652,-8364.327145,0.000000
1294.848672,3404.947333,-8956.491898,-842.705048
1294.849001,2738.761985,-9400.615463,-76.609550
1294.849330,3775.050304,-8956.491898,-536.266849
1294.849659,4737.318029,-8068.244768,0.000000
1294.849988,5403.503377,-7105.977043,842.705048
1294.850317,6587.832884,-5995.668130,1149.143247
1294.850646,7920.203579,-3923.091493,1225.752797
1294.850975,9844.739029,-3404.947333,1685.410096
1294.851304,11177.109724,-2368.659014,2451.505594
1294.851633,11621.233289,-2368.659014,2681.334243
1294.851962,11399.171507,-3849.070898,2834.553343
1294.852291,10658.965565,-5181.441594,3217.601092
1294.852620,8882.471304,-6661.853478,2604.724693
1294.852949,6809.894666,-7698.141797,1378.971896
1294.853278,4367.215058,-8882.471304,0.000000
1294.853607,3108.864956,-9252.574275,-1072.533697
1294.853937,2442.679609,-9474.636058,-1072.533697
1294.854266,3256.906145,-9474.636058,-689.485948
1294.854595,4737.318029,-9178.553681,0.000000
1294.854924,5773.606348,-7994.224174,1225.752797
1294.855253,6661.853478,-6217.729913,612.876398
1294.855582,7031.956449,-5403.503377,459.657299
1294.855911,8216.285956,-4441.235652,919.314598
1294.856240,8956.491898,-3923.091493,1225.752797
1294.856569,10288.862594,-2738.761985,1762.019645
1294.856898,10881.027347,-3849.070898,2145.067394
1294.857227,10732.986159,-5329.482782,2604.724693
1294.857556,9696.697840,-6365.771101,2374.896044
1294.857885,7698.141797,-7328.038826,1685.410096
1294.858214,5773.606348,-8142.265362,1302.362347
1294.858543,3478.967927,-9178.553681,-229.828649
1294.858872,2368.659014,-9474.636058,-1072.533697
1294.859201,2220.617826,-9770.718434,-842.705048
1294.859530,3034.844362,-9548.656652,76.609550
1294.859859,4737.318029,-8290.306550,459.657299
1294.860188,5699.585753,-7624.121203,766.095498
1294.860517,6587.832884,-5699.585753,1302.362347
1294.860847,8068.244768,-4145.153275,919.314598
1294.861176,9326.594869,-2442.679609,1378.971896
1294.861505,10436.903782,-2220.617826,2145.067394
1294.861834,11695.253884,-3182.885551,2528.115143
1294.862163,11991.336260,-3627.009116,3370.820191
1294.862492,11251.130318,-5255.462188,3370.820191
1294.862821,9252.574275,-6661.853478,2298.286494
1294.863150,6661.853478,-7476.080014,919.314598
1294.863479,4367.215058,-8808.450710,0.000000
1294.863808,3034.844362,-9400.615463,-612.876398
1294.864137,2960.823768,-8660.409521,-1378.971896
1294.864466,3404.947333,-9400.615463,-919.314598
1294.864795,4367.215058,-8956.491898,-153.219100
1294.865124,5625.565159,-7920.203579,536.266849
1294.865453,5773.606348,-6587.832884,842.705048
1294.865782,7550.100608,-5107.421000,1149.143247
1294.866111,7994.224174,-4293.194464,919.314598
1294.866440,9326.594869,-3627.009116,1225.752797
1294.866769,10362.883188,-3849.070898,2145.067394
1294.867098,11547.212695,-4219.173869,2221.676944
1294.867427,10955.047942,-5033.400406,2987.772442
1294.867757,9696.697840,-6439.791695,2681.334243
1294.868086,7402.059420,-7698.141797,1378.971896
1294.868415,4811.338623,-8290.306550,689.485948
1294.868744,2886.803174,-10140.821405,-919.314598
1294.869073,1628.453072,-10362.883188,-1455.581446
1294.869402,1628.453072,-9474.636058,-1608.800546
1294.869731,2886.803174,-10140.821405,-842.705048
1294.870060,4737.318029,-8290.306550,229.828649
1294.870389,6439.791695,-7624.121203,1072.533697
1294.870718,7402.059420,-5847.626942,1149.143247
1294.871047,8734.430116,-3330.926739,919.314598
1294.871376,9992.780217,-2220.617826,1991.848295
1294.871705,11103.089130,-2368.659014,2451.505594
1294.872034,11547.212695,-2886.803174,2757.943793
1294.872363,11769.274478,-3404.947333,2911.162892
1294.872692,10955.047942,-5477.523971,3140.991542
1294.873021,8882.471304,-6365.771101,2681.334243
1294.873350,5995.668130,-7402.059420,689.485948
1294.873679,3701.029710,-9474.636058,0.000000
1294.874008,2812.782580,-9252.574275,-536.266849
1294.874337,2516.700203,-9178.553681,-1149.143247
1294.874667,2664.741391,-8586.388927,-536.266849
1294.874996,4071.132681,-9178.553681,383.047749
1294.875325,5773.606348,-8512.368333,919.314598
1294.875654,6661.853478,-7328.038826,1302.362347
1294.875983,7105.977043,-5699.585753,1225.752797
1294.876312,8290.306550,-4293.194464,1149.143247
1294.876641,8956.491898,-3404.947333,1455.581446
1294.876970,10140.821405,-3552.988522,2068.457845
1294.877299,11251.130318,-3552.988522,2451.505594
1294.877628,10658.965565,-4219.173869,3294.210641
1294.877957,9622.677246,-5625.565159,2604.724693
1294.878286,7920.203579,-7254.018232,2374.896044
1294.878615,5995.668130,-7994.224174,1149.143247
1294.878944,4293.194464,-9030.512492,153.219100
1294.879273,2738.761985,-8364.327145,-689.485948
1294.879602,2368.659014,-8956.491898,-1072.533697
1294.879931,2886.803174,-9844.739029,-612.876398
1294.880260,4293.194464,-8586.388927,0.000000
1294.880589,5625.565159,-8290.306550,766.095498
1294.880918,7105.977043,-6217.729913,1149.143247
1294.881247,8438.347739,-4663.297435,1762.019645
1294.881577,9030.512492,-3034.844362,2145.067394
1294.881906,10288.862594,-2220.617826,1608.800546
1294.882235,11177.109724,-2220.617826,2221.676944
1294.882564,11547.212695,-3404.947333,2451.505594
1294.882893,10658.965565,-4885.359217,2528.115143
1294.883222,9400.615463,-6513.812290,2451.505594
1294.883551,7624.121203,-7920.203579,1685.410096
1294.883880,5107.421000,-8808.450710,842.705048
1294.884209,3701.029710,-9178.553681,-536.266849
1294.884538,2960.823768,-9030.512492,-1225.752797
1294.884867,3330.926739,-9252.574275,-842.705048
1294.885196,4589.276840,-9622.677246,0.000000
1294.885525,5847.626942,-8586.388927,306.438199
1294.885854,6439.791695,-7402.059420,842.705048
1294.886183,6513.812290,-5773.606348,536.266849
1294.886512,7105.977043,-4959.379811,919.314598
1294.886841,8512.368333,-3923.091493,766.095498
1294.887170,9474.636058,-3849.070898,1455.581446
1294.887499,10214.842000,-3627.009116,1838.629195
1294.887828,10732.986159,-4145.153275,2604.724693
1294.888157,10362.883188,-5625.565159,3294.210641
1294.888487,8956.491898,-6883.915261,2834.553343
1294.888816,6439.791695,-7920.203579,1532.190996
1294.889145,4737.318029,-8290.306550,153.219100
1294.889474,3923.091493,-8512.368333,0.000000
1294.889803,3182.885551,-9474.636058,-766.095498
1294.890132,3034.844362,-9844.739029,-536.266849
