#time,accel_x,accel_y,accel_z
1395.577942,7105.977043,-5995.668130,919.314598
1395.578273,7328.038826,-6069.688724,1378.971896
1395.578603,6957.935855,-6217.729913,1072.533697
1395.578934,6587.832884,-6439.791695,1072.533697
1395.579265,6661.853478,-6439.791695,766.095498
1395.579595,7031.956449,-6587.832884,1072.533697
1395.579926,7179.997637,-6439.791695,1762.019645
1395.580256,7105.977043,-6735.874072,766.095498
1395.580587,7179.997637,-6661.853478,1225.752797
1395.580917,7031.956449,-6587.832884,766.095498
1395.581248,7105.977043,-7031.956449,1225.752797
1395.581579,6587.832884,-6883.915261,919.314598
1395.581909,7105.977043,-6883.915261,766.095498
1395.582240,7105.977043,-6661.853478,1378.971896
1395.582570,7105.977043,-6439.791695,1149.143247
1395.582901,7328.038826,-6365.771101,995.924147
1395.583231,7105.977043,-5995.668130,1149.143247
1395.583562,6809.894666,-6587.832884,689.485948
1395.583893,6957.935855,-6365.771101,766.095498
1395.584223,7105.977043,-6217.729913,1225.752797
1395.584554,7179.997637,-6513.812290,1072.533697
1395.584884,7105.977043,-6365.771101,1149.143247
1395.585215,6883.915261,-6513.812290,1378.971896
1395.585545,7031.956449,-6587.832884,1072.533697
1395.585876,6513.812290,-5699.585753,1225.752797
1395.586206,6513.812290,-6291.750507,995.924147
1395.586537,6217.729913,-6809.894666,1072.533697
1395.586868,6661.853478,-6661.853478,1225.752797
1395.587198,6957.935855,-7179.997637,995.924147
1395.587529,6957.935855,-6291.750507,536.266849
1395.587859,6661.853478,-6513.812290,1455.581446
1395.588190,6735.874072,-6661.853478,842.705048
1395.588520,6439.791695,-7179.997637,689.485948
1395.588851,6661.853478,-6809.894666,995.924147
1395.589182,6587.832884,-6883.915261,919.314598
1395.589512,7105.977043,-6809.894666,1072.533697
1395.589843,7550.100608,-6661.853478,1072.533697
1395.590173,7328.038826,-6883.915261,995.924147
1395.590504,7624.121203,-6069.688724,1149.143247
1395.590834,7105.977043,-6661.853478,1072.533697
1395.591165,7031.956449,-6439.791695,919.314598
1395.591496,7031.956449,-5921.647536,995.924147
1395.591826,7476.080014,-6217.729913,536.266849
1395.592157,7402.059420,-6217.729913,1455.581446
1395.592487,7179.997637,-6217.729913,919.314598
1395.592818,7105.977043,-6143.709319,919.314598
1395.593148,6883.915261,-6513.812290,919.314598
1395.593479,6809.894666,-6513.812290,536.266849
1395.593809,6883.915261,-6587.832884,919.314598
1395.594140,7031.956449,-7254.018232,1225.752797
1395.594471,7105.977043,-6439.791695,1455.581446
1395.594801,7254.018232,-6587.832884,995.924147
1395.595132,7105.977043,-6661.853478,995.924147
1395.595462,6809.894666,-6587.832884,1072.533697
1395.595793,6809.894666,-6883.915261,842.705048
1395.596123,6513.812290,-6661.853478,995.924147
1395.596454,7031.956449,-6513.812290,1302.362347
1395.596785,7254.018232,-6513.812290,1149.143247
1395.597115,7254.018232,-5995.668130,1225.752797
1395.597446,6957.935855,-5995.668130,1608.800546
1395.597776,7105.977043,-6217.729913,1455.581446
1395.598107,7179.997637,-6291.750507,995.924147
1395.598437,7031.956449,-6365.771101,919.314598
1395.598768,6957.935855,-6439.791695,919.314598
1395.599098,6883.915261,-6587.832884,689.485948
1395.599429,6883.915261,-6291.750507,689.485948
1395.599760,6883.915261,-6291.750507,1378.971896
1395.600090,6587.832884,-5995.668130,995.924147
1395.600421,6809.894666,-6217.729913,1302.362347
1395.600751,7031.956449,-6291.750507,919.314598
1395.601082,6587.832884,-6513.812290,842.705048
1395.601412,6513.812290,-6661.853478,1072.533697
1395.601743,6735.874072,-7179.997637,995.924147
1395.602074,6735.874072,-7031.956449,995.924147
1395.602404,6809.894666,-7254.018232,995.924147
1395.602735,7105.977043,-6809.894666,536.266849
1395.603065,6957.935855,-7105.977043,766.095498
1395.603396,6883.915261,-7179.997637,536.266849
1395.603726,6439.791695,-7179.997637,919.314598
1395.604057,6439.791695,-6809.894666,1378.971896
1395.604388,7179.997637,-6439.791695,1378.971896
1395.604718,7179.997637,-6439.791695,1225.752797
1395.605049,7476.080014,-6513.812290,1225.752797
1395.605379,7328.038826,-6291.750507,919.314598
1395.605710,7105.977043,-6217.729913,1072.533697
1395.606040,6735.874072,-6291.750507,766.095498
1395.606371,7105.977043,-6587.832884,919.314598
1395.606701,7328.038826,-6957.935855,1225.752797
1395.607032,7328.038826,-6069.688724,1532.190996
1395.607363,7254.018232,-6217.729913,1225.752797
1395.607693,7105.977043,-6217.729913,1149.143247
1395.608024,7031.956449,-6069.688724,1149.143247
1395.608354,6883.915261,-6291.750507,766.095498
1395.608685,7031.956449,-6217.729913,1532.190996
1395.609015,6809.894666,-6143.709319,1225.752797
1395.609346,6883.915261,-6439.791695,995.924147
1395.609677,6809.894666,-6365.771101,689.485948
1395.610007,7031.956449,-7105.977043,919.314598
1395.610338,6809.894666,-6587.832884,1149.143247
1395.610668,6735.874072,-7031.956449,612.876398
1395.610999,7031.956449,-6883.915261,842.705048
1395.611329,7031.956449,-7328.038826,1225.752797
1395.611660,7698.141797,-7254.018232,842.705048
1395.611991,7624.121203,-6587.832884,1302.362347
1395.612321,7179.997637,-6513.812290,1072.533697
1395.612652,7328.038826,-6217.729913,1149.143247
1395.612982,6809.894666,-6217.729913,842.705048
1395.613313,7031.956449,-5847.626942,919.314598
1395.613643,6735.874072,-5921.647536,919.314598
1395.613974,7031.956449,-6217.729913,995.924147
1395.614304,6957.935855,-6513.812290,1072.533697
1395.614635,6957.935855,-6291.750507,1378.971896
1395.614966,7105.977043,-6365.771101,1378.971896
1395.615296,6957.935855,-6809.894666,1455.581446
1395.615627,6883.915261,-6883.915261,1149.143247
1395.615957,6957.935855,-6809.894666,612.876398
1395.616288,6735.874072,-7105.977043,1302.362347
1395.616618,6439.791695,-7254.018232,1532.190996
1395.616949,6735.874072,-6957.935855,612.876398
1395.617280,6513.812290,-6809.894666,919.314598
1395.617610,6439.791695,-6661.853478,1072.533697
1395.617941,6513.812290,-6587.832884,459.657299
1395.618271,6439.791695,-6735.874072,919.314598
1395.618602,6513.812290,-7105.977043,842.705048
1395.618932,6957.935855,-6661.853478,766.095498
1395.619263,7105.977043,-6365.771101,1991.848295
1395.619593,7624.121203,-6735.874072,1149.143247
1395.619924,7328.038826,-6735.874072,1302.362347
1395.620255,7254.018232,-6587.832884,1149.143247
1395.620585,7105.977043,-6661.853478,842.705048
1395.620916,7179.997637,-5699.585753,1149.143247
1395.621246,7105.977043,-6439.791695,919.314598
1395.621577,7179.997637,-6217.729913,1149.143247
1395.621907,7031.956449,-6587.832884,1149.143247
1395.622238,7105.977043,-6587.832884,919.314598
1395.622569,7105.977043,-6217.729913,1302.362347
1395.622899,6957.935855,-5995.668130,1149.143247
1395.623230,6587.832884,-6365.771101,842.705048
1395.623560,6957.935855,-6587.832884,842.705048
1395.623891,7254.018232,-6957.935855,1225.752797
1395.624221,7254.018232,-6661.853478,1149.143247
1395.624552,7105.977043,-6365.771101,1072.533697
1395.624883,7105.977043,-6809.894666,1072.533697
1395.625213,7031.956449,-7031.956449,919.314598
1395.625544,6883.915261,-7031.956449,919.314598
1395.625874,6735.874072,-7105.977043,842.705048
1395.626205,6809.894666,-6809.894666,536.266849
1395.626535,7105.977043,-5921.647536,1378.971896
1395.626866,7254.018232,-6661.853478,919.314598
1395.627196,7105.977043,-6365.771101,1072.533697
1395.627527,7328.038826,-6069.688724,919.314598
1395.627858,7105.977043,-6365.771101,842.705048
1395.628188,7105.977043,-6291.750507,766.095498
1395.628519,7105.977043,-6291.750507,536.266849
1395.628849,7105.977043,-6587.832884,919.314598
1395.629180,6957.935855,-6291.750507,1378.971896
1395.629510,7031.956449,-6661.853478,1072.533697
1395.629841,6809.894666,-6365.771101,1149.143247
1395.630172,6957.935855,-6513.812290,1072.533697
1395.630502,6661.853478,-6217.729913,1072.533697
1395.630833,6513.812290,-6513.812290,612.876398
1395.631163,6217.729913,-6809.894666,919.314598
1395.631494,7105.977043,-6365.771101,1608.800546
1395.631824,6735.874072,-6809.894666,995.924147
1395.632155,7105.977043,-6735.874072,1149.143247
1395.632486,6883.915261,-7105.977043,842.705048
1395.632816,6513.812290,-7105.977043,995.924147
1395.633147,6291.750507,-7254.018232,612.876398
1395.633477,6957.935855,-7179.997637,689.485948
1395.633808,7105.977043,-6809.894666,1225.752797
1395.634138,7105.977043,-6735.874072,1685.410096
1395.634469,7105.977043,-6587.832884,1455.581446
1395.634799,6883.915261,-6217.729913,1149.143247
1395.635130,6957.935855,-6513.812290,689.485948
1395.635461,6809.894666,-6143.709319,995.924147
1395.635791,7179.997637,-6143.709319,842.705048
1395.636122,7402.059420,-6217.729913,1149.143247
1395.636452,7254.018232,-6365.771101,1225.752797
1395.636783,6883.915261,-6587.832884,919.314598
1395.637113,7179.997637,-5921.647536,995.924147
1395.637444,6809.894666,-6365.771101,1532.190996
1395.637775,6735.874072,-6587.832884,842.705048
1395.638105,6809.894666,-6809.894666,1072.533697
1395.638436,6957.935855,-6809.894666,1149.143247
1395.638766,7105.977043,-6439.791695,1072.533697
1395.639097,7031.956449,-6217.729913,995.924147
1395.639427,6809.894666,-6439.791695,1225.752797
1395.639758,6883.915261,-6587.832884,1072.533697
1395.640088,7105.977043,-6365.771101,766.095498
1395.640419,6735.874072,-6661.853478,842.705048
1395.640750,7105.977043,-6809.894666,919.314598
1395.641080,7179.997637,-6661.853478,842.705048
1395.641411,7179.997637,-6365.771101,995.924147
1395.641741,7328.038826,-6661.853478,1072.533697
1395.642072,7402.059420,-6217.729913,919.314598
1395.642402,7328.038826,-6883.915261,1302.362347
1395.642733,7328.038826,-6217.729913,919.314598
1395.643064,6587.832884,-6069.688724,919.314598
1395.643394,7031.956449,-6217.729913,1225.752797
1395.643725,7105.977043,-6513.812290,1302.362347
1395.644055,7179.997637,-6291.750507,1149.143247
1395.644386,7179.997637,-6291.750507,1225.752797
1395.644716,6883.915261,-6587.832884,1455.581446
1395.645045,6957.935855,-6587.832884,1149.143247
1395.645375,6439.791695,-6661.853478,689.485948
1395.645705,6365.771101,-6883.915261,1072.533697
1395.646035,6809.894666,-6809.894666,1149.143247
1395.646364,6735.874072,-7031.956449,919.314598
1395.646694,6957.935855,-7031.956449,1072.533697
1395.647024,6661.853478,-6809.894666,1072.533697
1395.647353,6587.832884,-6957.935855,689.485948
1395.647683,6291.750507,-6735.874072,919.314598
1395.648013,6365.771101,-6957.935855,459.657299
1395.648343,6735.874072,-6883.915261,995.924147
1395.648672,6439.791695,-6365.771101,689.485948
1395.649002,7105.977043,-6587.832884,1149.143247
1395.649332,7105.977043,-6587.832884,1302.362347
1395.649662,7031.956449,-6439.791695,1608.800546
1395.649991,6809.894666,-6587.832884,919.314598
1395.650321,6809.894666,-6661.853478,995.924147
1395.650651,7254.018232,-7105.977043,1149.143247
1395.650981,7179.997637,-6587.832884,1225.752797
1395.651310,7328.038826,-6513.812290,1532.190996
1395.651640,7105.977043,-6069.688724,842.705048
1395.651970,7031.956449,-6291.750507,1302.362347
1395.652300,6735.874072,-6069.688724,1072.533697
1395.652629,6661.853478,-6365.771101,383.047749
1395.652959,7105.977043,-6883.915261,689.485948
1395.653289,6661.853478,-6661.853478,919.314598
1395.653618,6883.915261,-7105.977043,919.314598
1395.653948,6957.935855,-6883.915261,1072.533697
1395.654278,7031.956449,-6291.750507,919.314598
1395.654608,7105.977043,-7031.956449,689.485948
1395.654937,6883.915261,-7031.956449,1072.533697
1395.655267,6957.935855,-6809.894666,842.705048
1395.655597,7105.977043,-6587.832884,919.314598
1395.655927,7179.997637,-6513.812290,1225.752797
1395.656256,7179.997637,-6513.812290,1149.143247
1395.656586,7179.997637,-6439.791695,1149.143247
1395.656916,7328.038826,-6217.729913,1149.143247
1395.657246,7624.121203,-6439.791695,995.924147
1395.657575,7105.977043,-6069.688724,1072.533697
1395.657905,7031.956449,-6587.832884,1072.533697
1395.658235,6957.935855,-6217.729913,919.314598
1395.658565,7179.997637,-6365.771101,1149.143247
1395.658894,6809.894666,-5921.647536,1378.971896
1395.659224,7105.977043,-6439.791695,842.705048
1395.659554,7031.956449,-6587.832884,995.924147
1395.659884,6587.832884,-6661.853478,995.924147
1395.660213,6735.874072,-6735.874072,1302.362347
1395.660543,6587.832884,-7031.956449,919.314598
1395.660873,6883.915261,-6809.894666,1532.190996
1395.661202,7031.956449,-6809.894666,766.095498
1395.661532,7031.956449,-6883.915261,1225.752797
1395.661862,6661.853478,-6291.750507,536.266849
1395.662192,6735.874072,-7105.977043,842.705048
1395.662521,6661.853478,-7179.997637,842.705048
1395.662851,6661.853478,-6883.915261,1149.143247
1395.663181,7254.018232,-6587.832884,919.314598
1395.663511,7476.080014,-6513.812290,842.705048
1395.663840,7105.977043,-6809.894666,766.095498
1395.664170,7105.977043,-6439.791695,995.924147
1395.664500,6957.935855,-6809.894666,919.314598
1395.664830,6809.894666,-6365.771101,1762.019645
1395.665159,7105.977043,-6217.729913,1149.143247
1395.665489,7328.038826,-6439.791695,995.924147
1395.665819,7105.977043,-6291.750507,1149.143247
1395.666149,7105.977043,-6439.791695,1149.143247
1395.666478,7105.977043,-5551.544565,995.924147
1395.666808,7105.977043,-6439.791695,1072.533697
1395.667138,6957.935855,-6217.729913,1532.190996
1395.667467,6883.915261,-6291.750507,842.705048
1395.667797,7105.977043,-7031.956449,689.485948
1395.668127,6957.935855,-6587.832884,1149.143247
1395.668457,7031.956449,-6587.832884,1072.533697
1395.668786,7031.956449,-6365.771101,842.705048
1395.669116,6809.894666,-6661.853478,1149.143247
1395.669446,7105.977043,-7179.997637,459.657299
1395.669776,6735.874072,-6291.750507,383.047749
1395.670105,6809.894666,-6883.915261,766.095498
1395.670435,7105.977043,-6735.874072,766.095498
1395.670765,7402.059420,-5699.585753,1838.629195
1395.671095,7550.100608,-6513.812290,1072.533697
1395.671424,7328.038826,-6587.832884,1149.143247
1395.671754,7402.059420,-6513.812290,995.924147
1395.672084,7179.997637,-6365.771101,842.705048
1395.672414,6957.935855,-5625.565159,919.314598
1395.672743,6957.935855,-6143.709319,995.924147
1395.673073,7179.997637,-6513.812290,383.047749
1395.673403,6957.935855,-6439.791695,1225.752797
1395.673733,6957.935855,-6069.688724,919.314598
1395.674062,7105.977043,-6217.729913,536.266849
1395.674392,6809.894666,-6365.771101,919.314598
1395.674722,6735.874072,-6883.915261,1072.533697
1395.675051,6587.832884,-6957.935855,995.924147
1395.675381,6587.832884,-6291.750507,995.924147
1395.675711,6809.894666,-6291.750507,995.924147
1395.676041,6957.935855,-6883.915261,1225.752797
1395.676370,6661.853478,-6957.935855,1225.752797
1395.676700,6809.894666,-6365.771101,383.047749
1395.677030,6291.750507,-6809.894666,1455.581446
1395.677360,6365.771101,-6957.935855,995.924147
1395.677689,6661.853478,-6735.874072,842.705048
1395.678019,7105.977043,-6513.812290,1378.971896
1395.678349,7254.018232,-6735.874072,1149.143247
1395.678679,7179.997637,-6217.729913,995.924147
1395.679008,7179.997637,-6809.894666,1225.752797
1395.679338,7179.997637,-6735.874072,919.314598
1395.679668,6957.935855,-6365.771101,842.705048
1395.679998,7476.080014,-6513.812290,842.705048
1395.680327,7105.977043,-6291.750507,842.705048
1395.680657,6957.935855,-6513.812290,995.924147
1395.680987,6957.935855,-6365.771101,1225.752797
1395.681316,7105.977043,-6661.853478,1225.752797
1395.681646,7105.977043,-6587.832884,1149.143247
1395.681976,6661.853478,-6439.791695,766.095498
1395.682306,6735.874072,-6661.853478,842.705048
1395.682635,7105.977043,-6735.874072,919.314598
1395.682965,6957.935855,-6809.894666,919.314598
1395.683295,7031.956449,-6291.750507,1072.533697
1395.683625,7105.977043,-6291.750507,995.924147
1395.683954,6957.935855,-7105.977043,842.705048
1395.684284,6809.894666,-6809.894666,766.095498
1395.684614,7031.956449,-7031.956449,766.095498
1395.684944,6809.894666,-7031.956449,766.095498
1395.685273,7031.956449,-6587.832884,995.924147
1395.685603,7254.018232,-6513.812290,1149.143247
1395.685933,7402.059420,-6513.812290,842.705048
1395.686263,7476.080014,-6439.791695,1149.143247
1395.686592,7328.038826,-6439.791695,919.314598
1395.686922,7402.059420,-6069.688724,766.095498
1395.687252,6957.935855,-6217.729913,1072.533697
1395.687582,6735.874072,-5995.668130,919.314598
1395.687911,6883.915261,-6439.791695,1072.533697
1395.688241,7105.977043,-6439.791695,1149.143247
1395.688571,6957.935855,-6143.709319,919.314598
1395.688900,6587.832884,-6143.709319,1532.190996
1395.689230,6735.874072,-5995.668130,995.924147
1395.689560,6661.853478,-6809.894666,919.314598
1395.689890,6883.915261,-7031.956449,995.924147
1395.690219,6883.915261,-6439.791695,1532.190996
1395.690549,6883.915261,-6217.729913,766.095498
1395.690879,7031.956449,-6809.894666,1149.143247
1395.691209,6883.915261,-6809.894666,1072.533697
1395.691538,6735.874072,-7105.977043,1072.533697
1395.691868,6513.812290,-7105.977043,766.095498
1395.692198,6587.832884,-7105.977043,1072.533697
1395.692528,6809.894666,-7031.956449,459.657299
1395.692857,6957.935855,-6587.832884,1455.581446
1395.693187,7254.018232,-6513.812290,1149.143247
1395.693517,7698.141797,-6587.832884,1455.581446
1395.693847,7254.018232,-6735.874072,1072.533697
1395.694176,7031.956449,-6513.812290,842.705048
1395.694506,6809.894666,-6291.750507,1149.143247
1395.694836,7031.956449,-6513.812290,766.095498
1395.695165,7328.038826,-5329.482782,919.314598
1395.695495,7328.038826,-5551.544565,1072.533697
1395.695825,7994.224174,-5329.482782,1455.581446
1395.696155,8512.368333,-5033.400406,1225.752797
1395.696484,7920.203579,-6291.750507,1685.410096
1395.696814,7179.997637,-6069.688724,459.657299
1395.697144,5847.626942,-7328.038826,229.828649
1395.697474,5847.626942,-7254.018232,383.047749
1395.697803,6513.812290,-6809.894666,383.047749
1395.698133,7624.121203,-6143.709319,995.924147
1395.698463,8216.285956,-5995.668130,1762.019645
1395.698793,8290.306550,-5551.544565,1532.190996
1395.699122,8142.265362,-4219.173869,995.924147
1395.699452,7254.018232,-4885.359217,689.485948
1395.699782,7550.100608,-4515.256246,536.266849
1395.700112,8734.430116,-4145.153275,1149.143247
1395.700441,9178.553681,-4885.359217,1302.362347
1395.700771,8882.471304,-4367.215058,1149.143247
1395.701101,7994.224174,-5847.626942,612.876398
1395.701431,8142.265362,-4885.359217,612.876398
1395.701760,8512.368333,-5625.565159,76.609550
1395.702090,8734.430116,-6291.750507,1072.533697
1395.702420,8364.327145,-5625.565159,612.876398
1395.702749,8216.285956,-5847.626942,0.000000
1395.703079,8142.265362,-5181.441594,766.095498
1395.703409,8364.327145,-4959.379811,766.095498
1395.703739,8808.450710,-4515.256246,1225.752797
1395.704068,8586.388927,-4145.153275,1608.800546
1395.704398,9030.512492,-4589.276840,1378.971896
1395.704728,8956.491898,-2960.823768,1378.971896
1395.705058,9252.574275,-3849.070898,1378.971896
1395.705387,9474.636058,-3034.844362,1378.971896
1395.705717,10066.800811,-2368.659014,1608.800546
1395.706047,10066.800811,-3701.029710,1762.019645
1395.706377,9844.739029,-3256.906145,1149.143247
1395.706706,9474.636058,-4515.256246,1378.971896
1395.707036,9474.636058,-4589.276840,995.924147
1395.707366,8956.491898,-5403.503377,1455.581446
1395.707696,8364.327145,-5477.523971,919.314598
1395.708025,7624.121203,-5107.421000,536.266849
1395.708355,7550.100608,-5847.626942,842.705048
1395.708685,7994.224174,-5773.606348,536.266849
1395.709014,7920.203579,-6217.729913,919.314598
1395.709344,8068.244768,-5107.421000,995.924147
1395.709674,7698.141797,-4959.379811,0.000000
1395.710004,7846.182985,-5995.668130,306.438199
1395.710333,8216.285956,-4589.276840,689.485948
1395.710663,9696.697840,-4145.153275,612.876398
1395.710993,10510.924376,-3478.967927,1302.362347
1395.711323,10362.883188,-3627.009116,1378.971896
1395.711652,9918.759623,-4219.173869,1608.800546
1395.711982,9696.697840,-3701.029710,1225.752797
1395.712312,9178.553681,-4293.194464,1149.143247
1395.712642,9178.553681,-4663.297435,842.705048
1395.712971,8956.491898,-5033.400406,1608.800546
1395.713301,8586.388927,-4219.173869,1072.533697
1395.713631,8364.327145,-4885.359217,995.924147
1395.713961,8290.306550,-5107.421000,1838.629195
1395.714290,8586.388927,-4441.235652,1455.581446
1395.714620,9104.533087,-3849.070898,1149.143247
1395.714950,8882.471304,-3182.885551,1225.752797
1395.715279,9622.677246,-3478.967927,689.485948
1395.715609,10362.883188,-3627.009116,1072.533697
1395.715939,9992.780217,-4145.153275,919.314598
1395.716269,9622.677246,-4367.215058,-689.485948
1395.716598,8364.327145,-4441.235652,-536.266849
1395.716928,7920.203579,-5107.421000,-842.705048
1395.717258,8364.327145,-6143.709319,306.438199
1395.717588,8734.430116,-5921.647536,689.485948
1395.717917,9030.512492,-5773.606348,1455.581446
1395.718247,8882.471304,-5033.400406,1608.800546
1395.718577,8512.368333,-4811.338623,1915.238745
1395.718907,8734.430116,-4367.215058,1991.848295
1395.719236,9030.512492,-4145.153275,1302.362347
1395.719566,9030.512492,-3849.070898,2221.676944
1395.719896,9844.739029,-1924.535449,1455.581446
1395.720226,10140.821405,-1998.556043,1225.752797
1395.720555,9992.780217,-2072.576638,842.705048
1395.720885,10658.965565,-1850.514855,0.000000
1395.721215,10510.924376,-2960.823768,306.438199
1395.721545,9992.780217,-3404.947333,306.438199
1395.721874,9030.512492,-5107.421000,0.000000
1395.722204,9030.512492,-6291.750507,0.000000
1395.722534,7994.224174,-8438.347739,383.047749
1395.722863,7328.038826,-9104.533087,1149.143247
1395.723193,7105.977043,-7846.182985,842.705048
1395.723523,6809.894666,-7772.162391,0.000000
1395.723853,6217.729913,-6439.791695,1072.533697
1395.724182,7031.956449,-5255.462188,536.266849
1395.724512,8956.491898,-3478.967927,1149.143247
1395.724842,10214.842000,-2294.638420,1838.629195
1395.725172,10807.006753,-1850.514855,1991.848295
1395.725501,10807.006753,74.020594,1915.238745
1395.725831,10362.883188,0.000000,1225.752797
1395.726161,11251.130318,-370.102971,919.314598
1395.726491,12213.398043,-666.185348,1455.581446
1395.726820,12805.562797,-2368.659014,2145.067394
1395.727150,11843.295072,-2960.823768,1685.410096
1395.727480,10066.800811,-4441.235652,1149.143247
1395.727810,8364.327145,-6587.832884,1149.143247
1395.728139,7031.956449,-8290.306550,1378.971896
1395.728469,5625.565159,-9104.533087,689.485948
1395.728799,3552.988522,-9474.636058,-689.485948
1395.729128,3775.050304,-8660.409521,-1072.533697
1395.729458,5625.565159,-7920.203579,-612.876398
1395.729788,7698.141797,-6883.915261,766.095498
1395.730118,9622.677246,-5329.482782,1608.800546
1395.730447,10436.903782,-2664.741391,1762.019645
1395.730777,10732.986159,-1258.350101,1225.752797
1395.731107,10510.924376,-1036.288319,1225.752797
1395.731437,10732.986159,0.000000,1149.143247
1395.731766,12213.398043,-740.205942,306.438199
1395.732096,12509.480420,-1702.473667,1762.019645
1395.732426,13249.686362,-2664.741391,2834.553343
1395.732756,13175.665768,-3330.926739,3370.820191
1395.733085,10362.883188,-3997.112087,2451.505594
1395.733415,8068.244768,-5403.503377,842.705048
1395.733745,6143.709319,-6365.771101,229.828649
1395.734075,4811.338623,-6883.915261,-306.438199
1395.734404,4589.276840,-8068.244768,-995.924147
1395.734734,4811.338623,-7550.100608,-229.828649
1395.735064,7698.141797,-4737.318029,0.000000
1395.735394,10288.862594,-3478.967927,76.609550
1395.735723,11547.212695,-2960.823768,2068.457845
1395.736053,11473.192101,-2442.679609,1685.410096
1395.736383,11029.068536,-2294.638420,1072.533697
1395.736712,9548.656652,-2442.679609,1455.581446
1395.737042,9326.594869,-3478.967927,842.705048
1395.737372,9400.615463,-4885.359217,1149.143247
1395.737702,8808.450710,-6143.709319,1455.581446
1395.738031,7846.182985,-8364.327145,1455.581446
1395.738361,7994.224174,-7994.224174,1608.800546
1395.738691,7624.121203,-6661.853478,1532.190996
1395.739021,7402.059420,-3552.988522,229.828649
1395.739350,7179.997637,-3034.844362,-306.438199
1395.739680,8438.347739,-3330.926739,0.000000
1395.740010,9252.574275,-4441.235652,612.876398
1395.740340,9992.780217,-1628.453072,1762.019645
1395.740669,9548.656652,-2368.659014,1072.533697
1395.740999,9474.636058,-2516.700203,459.657299
1395.741329,9400.615463,-3552.988522,1072.533697
1395.741659,9696.697840,-8068.244768,2451.505594
1395.741988,9252.574275,-6217.729913,2451.505594
1395.742318,7402.059420,-6661.853478,1302.362347
1395.742648,6513.812290,-5329.482782,-459.657299
1395.742977,6439.791695,-5329.482782,-842.705048
1395.743307,7105.977043,-9622.677246,1378.971896
1395.743637,7624.121203,-9918.759623,2451.505594
1395.743967,7476.080014,-6661.853478,689.485948
1395.744296,6957.935855,-4737.318029,76.609550
1395.744626,6883.915261,-4367.215058,229.828649
1395.744956,7994.224174,-7328.038826,1225.752797
1395.745286,8586.388927,-5551.544565,842.705048
1395.745615,8438.347739,-4071.132681,536.266849
1395.745945,9104.533087,-2368.659014,842.705048
1395.746275,9844.739029,-888.247130,995.924147
1395.746605,9326.594869,-4515.256246,1838.629195
1395.746934,8882.471304,-5699.585753,1149.143247
1395.747263,7624.121203,-7328.038826,1455.581446
1395.747592,8068.244768,-5625.565159,919.314598
1395.747922,8290.306550,-5403.503377,1225.752797
1395.748251,8068.244768,-6661.853478,1685.410096
1395.748580,7254.018232,-7624.121203,1072.533697
1395.748910,6291.750507,-6661.853478,689.485948
1395.749239,6069.688724,-5033.400406,0.000000
1395.749568,7698.141797,-4811.338623,1072.533697
1395.749898,7624.121203,-6291.750507,1915.238745
1395.750227,6143.709319,-6883.915261,919.314598
1395.750556,4293.194464,-6809.894666,-306.438199
1395.750885,4145.153275,-6883.915261,76.609550
1395.751215,6957.935855,-8364.327145,612.876398
1395.751544,7920.203579,-7402.059420,1608.800546
1395.751873,7772.162391,-7105.977043,1149.143247
1395.752203,7179.997637,-7402.059420,383.047749
1395.752532,7328.038826,-7550.100608,1532.190996
1395.752861,7920.203579,-7698.141797,1302.362347
1395.753190,7476.080014,-6809.894666,766.095498
1395.753520,6291.750507,-5773.606348,306.438199
1395.753849,5995.668130,-5699.585753,842.705048
1395.754178,7254.018232,-6365.771101,2528.115143
1395.754508,8290.306550,-5551.544565,2681.334243
1395.754837,7920.203579,-2294.638420,2145.067394
1395.755166,7994.224174,-1332.370696,689.485948
1395.755495,8290.306550,-2886.803174,1608.800546
1395.755825,7994.224174,-5699.585753,2987.772442
1395.756154,7105.977043,-7254.018232,995.924147
1395.756483,5477.523971,-5921.647536,-306.438199
1395.756813,5551.544565,-7550.100608,-229.828649
1395.757142,6809.894666,-9474.636058,2374.896044
1395.757471,7994.224174,-9400.615463,2987.772442
1395.757801,7254.018232,-8364.327145,1455.581446
1395.758130,6809.894666,-4959.379811,76.609550
1395.758459,6587.832884,-5921.647536,-306.438199
1395.758788,5995.668130,-8808.450710,1991.848295
1395.759118,5329.482782,-8364.327145,1225.752797
1395.759447,4959.379811,-6439.791695,-612.876398
1395.759776,4737.318029,-6069.688724,-306.438199
1395.760106,5847.626942,-8216.285956,1915.238745
1395.760435,7328.038826,-8660.409521,2451.505594
1395.760764,7920.203579,-6513.812290,1608.800546
1395.761093,7402.059420,-4441.235652,-383.047749
1395.761423,8068.244768,-4589.276840,766.095498
1395.761752,8734.430116,-8216.285956,3677.258390
1395.762081,8364.327145,-8660.409521,2145.067394
1395.762411,6291.750507,-5107.421000,76.609550
1395.762740,5033.400406,-4219.173869,-612.876398
1395.763069,6217.729913,-7105.977043,1608.800546
1395.763398,8216.285956,-8216.285956,3907.087040
1395.763728,8216.285956,-5625.565159,1762.019645
1395.764057,7105.977043,-3256.906145,-383.047749
1395.764386,6439.791695,-4737.318029,76.609550
1395.764716,7179.997637,-7328.038826,1915.238745
1395.765045,6661.853478,-8660.409521,1302.362347
1395.765374,5551.544565,-6069.688724,-689.485948
1395.765704,4737.318029,-5699.585753,-1838.629195
1395.766033,6439.791695,-8142.265362,689.485948
1395.766362,8808.450710,-9252.574275,2451.505594
1395.766691,8956.491898,-7328.038826,1685.410096
1395.767021,8290.306550,-4293.194464,153.219100
1395.767350,7698.141797,-4959.379811,229.828649
1395.767679,7846.182985,-7031.956449,2068.457845
1395.768009,7031.956449,-8734.430116,2068.457845
1395.768338,5625.565159,-6217.729913,-383.047749
1395.768667,4441.235652,-3997.112087,-1302.362347
1395.768996,5699.585753,-7254.018232,995.924147
1395.769326,8290.306550,-8808.450710,3677.258390
1395.769655,9104.533087,-6661.853478,1762.019645
1395.769984,7105.977043,-3701.029710,-612.876398
1395.770314,5773.606348,-4811.338623,0.000000
1395.770643,6587.832884,-7031.956449,995.924147
1395.770972,7105.977043,-9030.512492,1225.752797
1395.771301,6217.729913,-6883.915261,-459.657299
1395.771631,5699.585753,-5255.462188,-306.438199
1395.771960,7179.997637,-7920.203579,1532.190996
1395.772289,8512.368333,-8956.491898,2681.334243
1395.772619,8808.450710,-6217.729913,1072.533697
1395.772948,7476.080014,-4441.235652,0.000000
1395.773277,7624.121203,-5699.585753,919.314598
1395.773607,8438.347739,-7105.977043,2374.896044
1395.773936,7179.997637,-8142.265362,1762.019645
1395.774265,5773.606348,-6217.729913,-459.657299
1395.774594,5181.441594,-5625.565159,-459.657299
1395.774924,5921.647536,-7994.224174,1225.752797
1395.775253,6883.915261,-8586.388927,2068.457845
1395.775582,7179.997637,-6587.832884,383.047749
1395.775912,6661.853478,-4219.173869,-766.095498
1395.776241,6217.729913,-5699.585753,689.485948
1395.776570,7254.018232,-8068.244768,3217.601092
1395.776899,7772.162391,-6143.709319,2374.896044
1395.777229,6883.915261,-4145.153275,229.828649
1395.777558,6365.771101,-3478.967927,459.657299
1395.777887,7624.121203,-6439.791695,2298.286494
1395.778217,9326.594869,-7624.121203,3217.601092
1395.778546,8364.327145,-4811.338623,1378.971896
1395.778875,6957.935855,-4293.194464,76.609550
1395.779204,6439.791695,-6291.750507,1685.410096
1395.779534,6735.874072,-10066.800811,2298.286494
1395.779863,5477.523971,-9548.656652,842.705048
1395.780192,3701.029710,-6513.812290,-1225.752797
1395.780522,3997.112087,-6661.853478,-766.095498
1395.780851,6069.688724,-8586.388927,2451.505594
1395.781180,7698.141797,-8216.285956,3064.381992
1395.781510,8734.430116,-4737.318029,1149.143247
1395.781839,8290.306550,-3108.864956,0.000000
1395.782168,7698.141797,-5625.565159,1072.533697
1395.782497,7698.141797,-8586.388927,2834.553343
1395.782827,7698.141797,-7476.080014,1072.533697
1395.783156,6217.729913,-4959.379811,-842.705048
1395.783485,6069.688724,-5773.606348,-459.657299
1395.783815,7550.100608,-8068.244768,2145.067394
1395.784144,9104.533087,-8660.409521,2681.334243
1395.784473,8808.450710,-6809.894666,1225.752797
1395.784802,7105.977043,-3923.091493,-76.609550
1395.785132,6735.874072,-6513.812290,1072.533697
1395.785461,7105.977043,-9104.533087,2757.943793
1395.785790,5699.585753,-8882.471304,689.485948
1395.786120,3552.988522,-5995.668130,-1685.410096
1395.786449,4071.132681,-5625.565159,0.000000
1395.786778,7031.956449,-7031.956449,2528.115143
1395.787107,9252.574275,-7031.956449,2298.286494
1395.787437,8956.491898,-4515.256246,1378.971896
1395.787766,7772.162391,-4145.153275,0.000000
1395.788095,7994.224174,-5033.400406,1149.143247
1395.788425,8068.244768,-7105.977043,2374.896044
1395.788754,7179.997637,-7105.977043,536.266849
1395.789083,6365.771101,-4441.235652,-1532.190996
1395.789412,5255.462188,-6957.935855,-153.219100
1395.789742,6439.791695,-8808.450710,1915.238745
1395.790071,7920.203579,-8142.265362,2145.067394
1395.790400,7254.018232,-5773.606348,0.000000
1395.790730,6217.729913,-5033.400406,0.000000
1395.791059,6661.853478,-7254.018232,1225.752797
1395.791388,7105.977043,-8808.450710,2068.457845
1395.791718,5773.606348,-8216.285956,766.095498
1395.792047,4737.318029,-5773.606348,-459.657299
1395.792376,5773.606348,-5403.503377,536.266849
1395.792705,8142.265362,-7105.977043,2221.676944
1395.793035,9326.594869,-6883.915261,2298.286494
1395.793364,8660.409521,-4663.297435,306.438199
1395.793693,7550.100608,-4145.153275,383.047749
1395.794023,7920.203579,-5181.441594,1838.629195
1395.794352,7920.203579,-7402.059420,2221.676944
1395.794681,6291.750507,-7105.977043,459.657299
1395.795010,4515.256246,-5921.647536,-1991.848295
1395.795340,4441.235652,-6957.935855,-383.047749
1395.795669,7031.956449,-7550.100608,2374.896044
1395.795998,9104.533087,-6809.894666,1838.629195
1395.796328,8438.347739,-4589.276840,383.047749
1395.796657,7105.977043,-4441.235652,536.266849
1395.796986,7550.100608,-7031.956449,1149.143247
1395.797315,7772.162391,-9326.594869,2145.067394
1395.797645,5995.668130,-8068.244768,612.876398
1395.797974,5255.462188,-6587.832884,-766.095498
1395.798303,6069.688724,-6365.771101,1149.143247
1395.798633,7550.100608,-7920.203579,2451.505594
1395.798962,7920.203579,-7254.018232,2451.505594
1395.799291,7328.038826,-4515.256246,306.438199
1395.799621,6735.874072,-3182.885551,-383.047749
1395.799950,6365.771101,-5921.647536,842.705048
1395.800279,6513.812290,-8512.368333,2374.896044
1395.800608,5921.647536,-7772.162391,229.828649
1395.800938,4441.235652,-6513.812290,-383.047749
1395.801267,5921.647536,-6291.750507,919.314598
1395.801596,8290.306550,-7476.080014,2374.896044
1395.801926,9474.636058,-7328.038826,2451.505594
1395.802255,8216.285956,-5625.565159,766.095498
1395.802584,7105.977043,-4737.318029,153.219100
1395.802913,7105.977043,-7105.977043,1149.143247
1395.803243,6809.894666,-8956.491898,1838.629195
1395.803572,5699.585753,-7254.018232,306.438199
1395.803901,4663.297435,-6513.812290,-383.047749
1395.804231,5625.565159,-7476.080014,689.485948
1395.804560,6587.832884,-9474.636058,2298.286494
1395.804889,6735.874072,-6735.874072,1378.971896
1395.805218,7031.956449,-4663.297435,-995.924147
1395.805548,6439.791695,-3923.091493,-229.828649
1395.805877,7254.018232,-6513.812290,2298.286494
1395.806206,8956.491898,-7846.182985,3677.258390
1395.806536,8364.327145,-5625.565159,1532.190996
1395.806865,7105.977043,-2886.803174,306.438199
1395.807194,7402.059420,-4589.276840,2374.896044
1395.807524,8882.471304,-6735.874072,3294.210641
1395.807853,9104.533087,-6291.750507,3064.381992
1395.808182,7846.182985,-4071.132681,306.438199
1395.808511,7328.038826,-3404.947333,383.047749
1395.808841,7772.162391,-7698.141797,2221.676944
1395.809170,5033.400406,-11251.130318,2145.067394
1395.809499,3330.926739,-8216.285956,-612.876398
1395.809829,2368.659014,-6883.915261,-1915.238745
1395.810158,4589.276840,-8216.285956,459.657299
1395.810487,7624.121203,-8734.430116,2681.334243
1395.810816,9400.615463,-6883.915261,2221.676944
1395.811146,9030.512492,-3108.864956,0.000000
1395.811475,8586.388927,-4071.132681,689.485948
1395.811804,8808.450710,-5921.647536,2374.896044
1395.812134,7698.141797,-7402.059420,2374.896044
1395.812463,6957.935855,-5329.482782,-153.219100
1395.812792,5921.647536,-4663.297435,-766.095498
1395.813121,6957.935855,-7105.977043,1532.190996
1395.813451,8734.430116,-8808.450710,3064.381992
1395.813780,8808.450710,-7328.038826,2298.286494
1395.814109,6661.853478,-5551.544565,0.000000
1395.814439,5699.585753,-5699.585753,-229.828649
1395.814768,5403.503377,-9548.656652,1455.581446
1395.815097,4737.318029,-11029.068536,1378.971896
1395.815427,4219.173869,-8068.244768,-995.924147
1395.815756,4145.153275,-5995.668130,-1149.143247
1395.816085,5995.668130,-7031.956449,2068.457845
1395.816414,8956.491898,-8290.306550,3370.820191
1395.816744,9252.574275,-5699.585753,1762.019645
1395.817073,7698.141797,-3775.050304,153.219100
1395.817402,7846.182985,-3923.091493,383.047749
1395.817732,8586.388927,-5551.544565,2451.505594
1395.818061,7550.100608,-7994.224174,1532.190996
1395.818390,6143.709319,-6217.729913,-76.609550
1395.818719,5847.626942,-6587.832884,-536.266849
1395.819049,6513.812290,-7994.224174,1455.581446
1395.819378,7624.121203,-8882.471304,2911.162892
1395.819707,7846.182985,-7624.121203,1532.190996
1395.820037,7031.956449,-5107.421000,-689.485948
1395.820366,5847.626942,-5107.421000,0.000000
1395.820695,5995.668130,-8364.327145,1838.629195
1395.821024,5995.668130,-8586.388927,2221.676944
1395.821354,6809.894666,-5107.421000,76.609550
1395.821683,6439.791695,-4663.297435,0.000000
1395.822012,7402.059420,-5921.647536,2374.896044
1395.822342,9548.656652,-7476.080014,3753.867940
1395.822671,9770.718434,-4737.318029,1532.190996
1395.823000,8290.306550,-2146.597232,-766.095498
1395.823330,7624.121203,-4293.194464,1378.971896
1395.823659,8290.306550,-7846.182985,2528.115143
1395.823988,6365.771101,-8956.491898,1302.362347
1395.824317,5033.400406,-6883.915261,-842.705048
1395.824647,4737.318029,-6291.750507,-842.705048
1395.824976,6291.750507,-7772.162391,1838.629195
1395.825305,7105.977043,-8068.244768,2911.162892
1395.825635,8142.265362,-5995.668130,842.705048
1395.825964,7550.100608,-4071.132681,0.000000
1395.826293,7624.121203,-5921.647536,1072.533697
1395.826622,7624.121203,-8438.347739,2681.334243
1395.826952,6143.709319,-8364.327145,459.657299
1395.827281,4367.215058,-6661.853478,-1608.800546
1395.827610,4145.153275,-6513.812290,-1225.752797
1395.827940,5847.626942,-9178.553681,1532.190996
1395.828269,8142.265362,-8364.327145,3064.381992
1395.828598,8512.368333,-6513.812290,1302.362347
1395.828927,7328.038826,-4663.297435,76.609550
1395.829257,7254.018232,-4737.318029,995.924147
1395.829586,6809.894666,-8512.368333,2451.505594
1395.829915,6217.729913,-7698.141797,1685.410096
1395.830245,5255.462188,-5329.482782,-1302.362347
1395.830574,5403.503377,-5403.503377,-229.828649
1395.830903,7179.997637,-7105.977043,2145.067394
1395.831233,8438.347739,-8068.244768,3217.601092
1395.831562,9252.574275,-5329.482782,1685.410096
1395.831891,8290.306550,-4219.173869,229.828649
1395.832220,7550.100608,-5921.647536,1378.971896
1395.832550,7328.038826,-8142.265362,2757.943793
1395.832879,6513.812290,-8586.388927,1455.581446
1395.833208,5477.523971,-5773.606348,-689.485948
1395.833538,4737.318029,-7772.162391,0.000000
1395.833867,6365.771101,-8512.368333,2145.067394
1395.834196,7772.162391,-7920.203579,2374.896044
1395.834525,7920.203579,-6661.853478,842.705048
1395.834855,7105.977043,-4145.153275,-383.047749
1395.835184,6217.729913,-5181.441594,612.876398
1395.835513,6957.935855,-7476.080014,2528.115143
1395.835843,7105.977043,-6513.812290,1455.581446
1395.836172,6883.915261,-3552.988522,-459.657299
1395.836501,7105.977043,-4071.132681,153.219100
1395.836830,8586.388927,-6513.812290,3140.991542
1395.837160,9474.636058,-7328.038826,3064.381992
1395.837489,8956.491898,-5329.482782,1455.581446
1395.837818,7105.977043,-4441.235652,0.000000
1395.838148,6883.915261,-6661.853478,1685.410096
1395.838477,6661.853478,-10066.800811,2451.505594
1395.838806,4959.379811,-8808.450710,383.047749
1395.839136,4293.194464,-5995.668130,-1532.190996
1395.839465,4367.215058,-6217.729913,-459.657299
1395.839794,6587.832884,-7254.018232,2374.896044
1395.840123,8438.347739,-7179.997637,2374.896044
1395.840453,8216.285956,-4515.256246,612.876398
1395.840782,7105.977043,-3108.864956,0.000000
1395.841111,7254.018232,-4885.359217,995.924147
1395.841441,7402.059420,-7031.956449,2298.286494
1395.841770,6883.915261,-7179.997637,919.314598
1395.842099,6883.915261,-5995.668130,-459.657299
1395.842428,6735.874072,-6957.935855,1225.752797
1395.842758,7994.224174,-8216.285956,3064.381992
1395.843087,9104.533087,-7920.203579,2834.553343
1395.843416,8512.368333,-4959.379811,612.876398
1395.843746,6809.894666,-4811.338623,76.609550
1395.844075,6439.791695,-7698.141797,1991.848295
1395.844404,6513.812290,-9400.615463,2681.334243
1395.844733,5699.585753,-7994.224174,383.047749
1395.845063,3182.885551,-5699.585753,-995.924147
1395.845392,2960.823768,-7105.977043,-459.657299
1395.845721,5255.462188,-9400.615463,1532.190996
1395.846050,7031.956449,-7698.141797,1455.581446
1395.846379,7179.997637,-4959.379811,306.438199
1395.846708,7846.182985,-4219.173869,0.000000
1395.847038,8882.471304,-5995.668130,1225.752797
1395.847367,8290.306550,-8586.388927,2298.286494
1395.847696,6957.935855,-7772.162391,536.266849
1395.848025,6291.750507,-5107.421000,-1072.533697
1395.848354,6883.915261,-6143.709319,153.219100
1395.848683,8512.368333,-7402.059420,3140.991542
1395.849012,9918.759623,-6883.915261,2451.505594
1395.849341,8956.491898,-4663.297435,766.095498
1395.849670,7624.121203,-3997.112087,1149.143247
1395.849999,6661.853478,-6143.709319,1838.629195
1395.850329,5921.647536,-7254.018232,1225.752797
1395.850658,4959.379811,-6143.709319,-536.266849
1395.850987,4293.194464,-5921.647536,-1608.800546
1395.851316,5403.503377,-6365.771101,306.438199
1395.851645,7328.038826,-8808.450710,2834.553343
1395.851974,8438.347739,-7698.141797,1762.019645
1395.852303,8290.306550,-3701.029710,0.000000
1395.852632,8512.368333,-5107.421000,689.485948
1395.852961,8660.409521,-6735.874072,2221.676944
1395.853290,8142.265362,-8216.285956,2451.505594
1395.853620,6735.874072,-5403.503377,-306.438199
1395.853949,6587.832884,-3478.967927,-1225.752797
1395.854278,7179.997637,-6513.812290,1455.581446
1395.854607,8142.265362,-7105.977043,2834.553343
1395.854936,8216.285956,-7772.162391,1762.019645
1395.855265,8068.244768,-3627.009116,76.609550
1395.855594,7105.977043,-3997.112087,153.219100
1395.855923,6587.832884,-8068.244768,1225.752797
1395.856252,5847.626942,-9030.512492,1532.190996
1395.856581,4441.235652,-8660.409521,-1302.362347
1395.856911,4367.215058,-7624.121203,-612.876398
1395.857240,5625.565159,-8068.244768,766.095498
1395.857569,8142.265362,-9770.718434,3217.601092
1395.857898,9178.553681,-7994.224174,2681.334243
1395.858227,7772.162391,-4737.318029,306.438199
1395.858556,6957.935855,-3997.112087,0.000000
1395.858885,6735.874072,-7254.018232,2068.457845
1395.859214,7254.018232,-6957.935855,1915.238745
1395.859543,6809.894666,-5477.523971,-689.485948
1395.859872,6439.791695,-4219.173869,0.000000
1395.860202,7550.100608,-6069.688724,919.314598
1395.860531,7698.141797,-8438.347739,2681.334243
1395.860860,7624.121203,-6513.812290,1455.581446
1395.861189,7254.018232,-4515.256246,-766.095498
1395.861518,7031.956449,-6365.771101,153.219100
1395.861847,6809.894666,-8808.450710,2451.505594
1395.862176,6957.935855,-9918.759623,1838.629195
1395.862505,6217.729913,-6883.915261,0.000000
1395.862834,4959.379811,-6883.915261,-383.047749
1395.863163,5921.647536,-7994.224174,1608.800546
1395.863493,7105.977043,-7698.141797,2757.943793
1395.863822,7328.038826,-6217.729913,612.876398
1395.864151,7031.956449,-3849.070898,-383.047749
1395.864480,7476.080014,-4441.235652,689.485948
1395.864809,8290.306550,-6365.771101,1608.800546
1395.865138,7846.182985,-7254.018232,2757.943793
1395.865467,7105.977043,-3849.070898,-229.828649
1395.865796,6883.915261,-3552.988522,-766.095498
1395.866125,7402.059420,-5773.606348,2681.334243
1395.866454,9474.636058,-7920.203579,3983.696590
1395.866784,9474.636058,-6439.791695,2145.067394
1395.867113,8142.265362,-3627.009116,689.485948
1395.867442,7031.956449,-5403.503377,689.485948
1395.867771,6809.894666,-8808.450710,2451.505594
1395.868100,5847.626942,-8586.388927,1685.410096
1395.868429,4367.215058,-6587.832884,-1762.019645
1395.868758,3923.091493,-6291.750507,-766.095498
1395.869087,5625.565159,-8216.285956,1685.410096
1395.869416,7772.162391,-9030.512492,2451.505594
1395.869745,7402.059420,-6291.750507,766.095498
1395.870075,6365.771101,-4959.379811,-766.095498
1395.870404,7105.977043,-4737.318029,76.609550
1395.870733,7698.141797,-7031.956449,1838.629195
1395.871062,7772.162391,-8068.244768,1455.581446
1395.871391,6661.853478,-5477.523971,-229.828649
1395.871720,6291.750507,-5625.565159,-612.876398
1395.872049,7105.977043,-7031.956449,1915.238745
1395.872378,9104.533087,-7920.203579,3217.601092
1395.872707,9474.636058,-5847.626942,2298.286494
1395.873036,8068.244768,-3701.029710,689.485948
1395.873366,7105.977043,-5773.606348,1378.971896
1395.873695,7105.977043,-7698.141797,2604.724693
1395.874024,6143.709319,-8956.491898,1762.019645
1395.874353,3923.091493,-6809.894666,-1149.143247
1395.874682,2960.823768,-7031.956449,-689.485948
1395.875011,4811.338623,-8438.347739,1378.971896
1395.875340,6883.915261,-8512.368333,2221.676944
1395.875669,6883.915261,-6883.915261,919.314598
1395.875998,6883.915261,-4737.318029,-536.266849
1395.876327,7105.977043,-5403.503377,842.705048
1395.876657,8142.265362,-7328.038826,1608.800546
1395.876986,7105.977043,-7994.224174,842.705048
1395.877315,6217.729913,-5995.668130,-689.485948
1395.877644,6587.832884,-6735.874072,-229.828649
1395.877973,8068.244768,-7254.018232,1838.629195
1395.878302,9030.512492,-7698.141797,2987.772442
1395.878631,8660.409521,-5477.523971,919.314598
1395.878960,7772.162391,-2812.782580,76.609550
1395.879289,7550.100608,-5625.565159,1455.581446
1395.879618,7698.141797,-7624.121203,2374.896044
1395.879948,5921.647536,-7402.059420,1302.362347
1395.880277,4367.215058,-6513.812290,-1072.533697
1395.880606,4441.235652,-5699.585753,-459.657299
1395.880935,7031.956449,-8142.265362,1838.629195
1395.881264,8512.368333,-7476.080014,3753.867940
1395.881593,8142.265362,-4737.318029,306.438199
1395.881922,7328.038826,-3552.988522,-383.047749
1395.882251,7550.100608,-5107.421000,919.314598
1395.882580,7772.162391,-7994.224174,1838.629195
1395.882909,6809.894666,-7179.997637,1685.410096
1395.883239,6291.750507,-5625.565159,-229.828649
1395.883568,6809.894666,-6291.750507,612.876398
1395.883897,7846.182985,-6809.894666,2298.286494
1395.884226,8734.430116,-7179.997637,3140.991542
1395.884555,8512.368333,-3849.070898,-229.828649
1395.884884,7105.977043,-3997.112087,-153.219100
1395.885213,6957.935855,-6661.853478,1225.752797
1395.885542,7328.038826,-8734.430116,2145.067394
1395.885871,6587.832884,-8290.306550,766.095498
1395.886200,4811.338623,-7105.977043,-995.924147
1395.886530,4811.338623,-7846.182985,153.219100
1395.886859,7328.038826,-8660.409521,2604.724693
1395.887188,8216.285956,-9400.615463,2221.676944
1395.887517,5921.647536,-5551.544565,-229.828649
1395.887846,5181.441594,-4737.318029,-1532.190996
1395.888175,5921.647536,-7105.977043,229.828649
1395.888504,6883.915261,-9178.553681,2528.115143
1395.888833,7624.121203,-7698.141797,1455.581446
1395.889162,7179.997637,-4293.194464,0.000000
1395.889491,7550.100608,-5329.482782,689.485948
1395.889821,8290.306550,-7402.059420,2451.505594
1395.890150,8512.368333,-6957.935855,2451.505594
1395.890479,7624.121203,-4737.318029,842.705048
1395.890808,7550.100608,-3997.112087,-76.609550
1395.891137,8216.285956,-6661.853478,2451.505594
1395.891466,8438.347739,-8808.450710,3140.991542
1395.891795,7105.977043,-8290.306550,536.266849
1395.892124,5329.482782,-6587.832884,-229.828649
1395.892453,4811.338623,-7105.977043,306.438199
1395.892782,5699.585753,-8216.285956,1915.238745
1395.893111,6143.709319,-7254.018232,1685.410096
1395.893441,5847.626942,-4811.338623,-689.485948
1395.893770,6217.729913,-4737.318029,-76.609550
1395.894099,7624.121203,-6069.688724,2068.457845
1395.894428,8364.327145,-7994.224174,3140.991542
1395.894757,7994.224174,-5477.523971,1532.190996
1395.895086,7105.977043,-4071.132681,-459.657299
1395.895415,7550.100608,-5033.400406,842.705048
1395.895744,9030.512492,-7328.038826,3524.039291
1395.896073,9474.636058,-7179.997637,3140.991542
1395.896402,8216.285956,-3775.050304,229.828649
1395.896732,6365.771101,-4737.318029,766.095498
1395.897061,6217.729913,-7698.141797,1608.800546
1395.897390,5773.606348,-9770.718434,2221.676944
1395.897719,4515.256246,-7550.100608,229.828649
1395.898048,4219.173869,-6809.894666,-1225.752797
1395.898377,5181.441594,-6365.771101,689.485948
1395.898706,7328.038826,-7698.141797,2528.115143
1395.899035,8216.285956,-6365.771101,1378.971896
1395.899364,7994.224174,-3701.029710,76.609550
1395.899693,7402.059420,-3552.988522,0.000000
1395.900023,8216.285956,-5921.647536,1608.800546
1395.900352,8364.327145,-7772.162391,2604.724693
1395.900681,7105.977043,-7031.956449,536.266849
1395.901010,5551.544565,-5773.606348,0.000000
1395.901339,5847.626942,-7105.977043,689.485948
1395.901668,7179.997637,-8956.491898,2528.115143
1395.901997,8290.306550,-7328.038826,2298.286494
1395.902326,7328.038826,-3849.070898,0.000000
1395.902655,6513.812290,-5181.441594,0.000000
1395.902984,7105.977043,-8290.306550,2451.505594
1395.903314,6883.915261,-8808.450710,2068.457845
1395.903643,5477.523971,-7846.182985,0.000000
1395.903972,4515.256246,-6291.750507,0.000000
1395.904301,5773.606348,-8438.347739,766.095498
1395.904630,7254.018232,-8808.450710,2681.334243
1395.904959,7105.977043,-7476.080014,1762.019645
1395.905288,6809.894666,-4737.318029,-383.047749
1395.905617,7550.100608,-4367.215058,229.828649
1395.905946,7105.977043,-6587.832884,1685.410096
1395.906275,7105.977043,-8142.265362,2068.457845
1395.906605,6217.729913,-6365.771101,229.828649
1395.906934,5625.565159,-5403.503377,-766.095498
1395.907263,6291.750507,-6661.853478,919.314598
1395.907592,7105.977043,-8956.491898,3140.991542
1395.907921,7476.080014,-7031.956449,1991.848295
1395.908250,6587.832884,-3849.070898,-229.828649
1395.908579,6883.915261,-5477.523971,766.095498
1395.908908,7994.224174,-7402.059420,1991.848295
1395.909237,8290.306550,-7994.224174,2834.553343
1395.909566,7031.956449,-5477.523971,612.876398
1395.909896,6143.709319,-4737.318029,-459.657299
1395.910225,6957.935855,-6291.750507,2145.067394
1395.910554,7920.203579,-7031.956449,2834.553343
1395.910883,8290.306550,-5329.482782,1608.800546
1395.911212,7846.182985,-3108.864956,0.000000
1395.911541,7698.141797,-4293.194464,919.314598
1395.911870,7550.100608,-7698.141797,2451.505594
1395.912199,6809.894666,-7920.203579,1991.848295
1395.912528,5773.606348,-6217.729913,-842.705048
1395.912857,5107.421000,-6439.791695,0.000000
1395.913187,6513.812290,-7476.080014,1225.752797
1395.913516,8364.327145,-8956.491898,2911.162892
1395.913845,9030.512492,-6439.791695,1378.971896
1395.914174,7772.162391,-3997.112087,0.000000
1395.914503,7698.141797,-5847.626942,689.485948
1395.914832,7624.121203,-7624.121203,2451.505594
1395.915161,7031.956449,-8512.368333,1378.971896
1395.915490,5773.606348,-6069.688724,-919.314598
1395.915819,4737.318029,-5773.606348,-842.705048
1395.916148,6365.771101,-7920.203579,1378.971896
1395.916478,7920.203579,-8586.388927,2757.943793
1395.916807,8216.285956,-5625.565159,1072.533697
1395.917136,6513.812290,-4219.173869,-919.314598
1395.917465,5995.668130,-5107.421000,0.000000
1395.917794,6661.853478,-8512.368333,2298.286494
1395.918123,6809.894666,-8956.491898,1532.190996
1395.918452,5625.565159,-6365.771101,-459.657299
1395.918781,6069.688724,-5551.544565,0.000000
1395.919110,7698.141797,-8438.347739,1455.581446
1395.919439,8216.285956,-8808.450710,2911.162892
1395.919769,8216.285956,-5551.544565,1225.752797
1395.920098,7994.224174,-3478.967927,-842.705048
1395.920427,7772.162391,-5033.400406,842.705048
1395.920756,7772.162391,-8068.244768,2298.286494
1395.921085,6735.874072,-8808.450710,1225.752797
1395.921414,5551.544565,-5551.544565,-919.314598
1395.921743,4737.318029,-6439.791695,-536.266849
1395.922072,6291.750507,-8142.265362,2451.505594
1395.922401,7994.224174,-8068.244768,2604.724693
1395.922730,8512.368333,-5699.585753,842.705048
1395.923060,7328.038826,-3182.885551,0.000000
1395.923389,6883.915261,-5033.400406,1072.533697
1395.923718,7105.977043,-7402.059420,2451.505594
1395.924047,6809.894666,-6883.915261,1378.971896
1395.924376,5995.668130,-5551.544565,-689.485948
1395.924705,6143.709319,-5403.503377,229.828649
1395.925034,7179.997637,-7031.956449,2451.505594
1395.925363,8142.265362,-7105.977043,2681.334243
1395.925692,8882.471304,-4663.297435,689.485948
1395.926021,7994.224174,-3997.112087,689.485948
1395.926351,7105.977043,-6217.729913,766.095498
1395.926680,6291.750507,-8660.409521,2068.457845
1395.927009,5255.462188,-8438.347739,229.828649
1395.927338,4811.338623,-5773.606348,-1532.190996
1395.927667,5329.482782,-7105.977043,459.657299
1395.927996,7328.038826,-8660.409521,3064.381992
1395.928325,8142.265362,-7846.182985,3064.381992
1395.928654,7254.018232,-4737.318029,153.219100
1395.928983,6809.894666,-3627.009116,-229.828649
1395.929312,7105.977043,-5181.441594,1149.143247
1395.929642,7328.038826,-7550.100608,2145.067394
1395.929971,6439.791695,-7105.977043,612.876398
1395.930300,5921.647536,-5255.462188,-842.705048
1395.930629,6809.894666,-5773.606348,459.657299
1395.930958,8364.327145,-8438.347739,3064.381992
1395.931287,9104.533087,-8068.244768,2834.553343
1395.931616,8068.244768,-5699.585753,229.828649
1395.931945,6439.791695,-5033.400406,0.000000
1395.932274,6587.832884,-7254.018232,1302.362347
1395.932603,7179.997637,-9474.636058,3217.601092
1395.932933,6883.915261,-8142.265362,842.705048
1395.933262,4737.318029,-6069.688724,-383.047749
1395.933591,4737.318029,-6587.832884,306.438199
1395.933920,7031.956449,-8290.306550,2604.724693
1395.934249,8512.368333,-6661.853478,2528.115143
1395.934578,7179.997637,-4663.297435,229.828649
1395.934907,5773.606348,-4367.215058,0.000000
1395.935236,6365.771101,-5699.585753,919.314598
1395.935565,6513.812290,-8364.327145,2298.286494
1395.935894,7031.956449,-6957.935855,689.485948
1395.936224,6957.935855,-5625.565159,-842.705048
1395.936553,7328.038826,-5699.585753,919.314598
1395.936882,8364.327145,-8068.244768,2604.724693
1395.937211,8808.450710,-7328.038826,2221.676944
1395.937540,7846.182985,-4589.276840,536.266849
1395.937869,6735.874072,-4515.256246,0.000000
1395.938198,7550.100608,-6587.832884,1991.848295
1395.938527,7624.121203,-9474.636058,3140.991542
1395.938856,5847.626942,-6513.812290,689.485948
1395.939185,4663.297435,-4959.379811,-689.485948
1395.939515,5699.585753,-5699.585753,383.047749
1395.939844,7772.162391,-6809.894666,2834.553343
1395.940173,8512.368333,-6587.832884,1991.848295
1395.940502,7402.059420,-3627.009116,536.266849
1395.940831,7105.977043,-4293.194464,229.828649
1395.941160,7254.018232,-7031.956449,1608.800546
1395.941489,7031.956449,-7550.100608,2068.457845
1395.941818,5995.668130,-7328.038826,-383.047749
1395.942147,5181.441594,-6365.771101,-1149.143247
1395.942476,5625.565159,-7254.018232,612.876398
1395.942806,7624.121203,-8882.471304,2451.505594
1395.943135,8586.388927,-7328.038826,1915.238745
1395.943464,8438.347739,-4515.256246,1072.533697
1395.943793,7402.059420,-4811.338623,0.000000
1395.944122,7328.038826,-7105.977043,1685.410096
1395.944451,6957.935855,-9178.553681,1762.019645
1395.944780,6217.729913,-7550.100608,-536.266849
1395.945109,5033.400406,-5921.647536,-689.485948
1395.945438,5551.544565,-7772.162391,383.047749
1395.945767,7179.997637,-9252.574275,2298.286494
1395.946096,7624.121203,-6883.915261,2145.067394
1395.946425,7105.977043,-3849.070898,-306.438199
1395.946754,6513.812290,-4589.276840,-153.219100
1395.947083,6661.853478,-7328.038826,1608.800546
1395.947412,6735.874072,-8512.368333,1532.190996
1395.947741,6143.709319,-6735.874072,-766.095498
1395.948070,5625.565159,-6143.709319,-383.047749
1395.948399,6883.915261,-7624.121203,1225.752797
1395.948728,8364.327145,-8438.347739,2604.724693
1395.949057,8734.430116,-6809.894666,2298.286494
1395.949386,8290.306550,-4219.173869,-229.828649
1395.949715,6957.935855,-5033.400406,306.438199
1395.950044,6513.812290,-8216.285956,1608.800546
1395.950373,6883.915261,-8660.409521,1991.848295
1395.950702,5995.668130,-5625.565159,-1149.143247
1395.951031,4737.318029,-5033.400406,-1149.143247
1395.951360,6439.791695,-7402.059420,1455.581446
1395.951689,8660.409521,-8216.285956,2757.943793
1395.952018,8216.285956,-5551.544565,1225.752797
1395.952347,7105.977043,-2812.782580,-383.047749
1395.952676,7105.977043,-3552.988522,-306.438199
1395.953006,7994.224174,-6291.750507,1991.848295
1395.953335,8068.244768,-8142.265362,2604.724693
1395.953664,7476.080014,-5181.441594,612.876398
1395.953993,7550.100608,-4441.235652,0.000000
1395.954322,7179.997637,-7698.141797,1991.848295
1395.954651,8142.265362,-8068.244768,3294.210641
1395.954980,8216.285956,-6069.688724,1225.752797
1395.955309,6661.853478,-4219.173869,0.000000
1395.955638,6143.709319,-5477.523971,-76.609550
1395.955967,5551.544565,-10214.842000,2145.067394
1395.956296,5107.421000,-9548.656652,919.314598
1395.956625,4737.318029,-7254.018232,-1378.971896
1395.956954,4737.318029,-6365.771101,306.438199
1395.957283,6513.812290,-8734.430116,1608.800546
1395.957612,8734.430116,-7772.162391,2911.162892
1395.957941,8586.388927,-4959.379811,1608.800546
1395.958270,7254.018232,-3034.844362,-612.876398
1395.958599,8068.244768,-3775.050304,842.705048
1395.958928,8142.265362,-7105.977043,2221.676944
1395.959257,8142.265362,-7179.997637,2528.115143
1395.959586,7179.997637,-5329.482782,0.000000
1395.959915,6735.874072,-5181.441594,-306.438199
1395.960244,7031.956449,-7254.018232,2145.067394
1395.960573,7402.059420,-8216.285956,2681.334243
1395.960902,7550.100608,-6439.791695,1072.533697
1395.961231,6217.729913,-4737.318029,-1072.533697
1395.961560,5255.462188,-7254.018232,1149.143247
1395.961889,5847.626942,-9696.697840,2298.286494
1395.962218,5625.565159,-10288.862594,1378.971896
1395.962547,4811.338623,-7105.977043,-383.047749
1395.962876,4515.256246,-6661.853478,153.219100
1395.963205,6587.832884,-8068.244768,2068.457845
1395.963534,8586.388927,-7105.977043,2757.943793
1395.963863,8438.347739,-4441.235652,1072.533697
1395.964192,8068.244768,-2960.823768,0.000000
1395.964521,8734.430116,-3330.926739,1378.971896
1395.964850,8808.450710,-7402.059420,3140.991542
1395.965179,7624.121203,-7254.018232,1685.410096
1395.965508,5995.668130,-5625.565159,-229.828649
1395.965837,4737.318029,-7031.956449,-306.438199
1395.966166,6291.750507,-8808.450710,2145.067394
1395.966495,7402.059420,-8734.430116,2451.505594
1395.966824,6735.874072,-5921.647536,153.219100
1395.967153,5921.647536,-4737.318029,-306.438199
1395.967482,7031.956449,-6217.729913,1302.362347
1395.967811,7328.038826,-8660.409521,2987.772442
1395.968140,6587.832884,-8068.244768,1915.238745
1395.968470,5255.462188,-6143.709319,-383.047749
1395.968799,5847.626942,-5329.482782,0.000000
1395.969128,8142.265362,-7698.141797,2757.943793
1395.969457,10066.800811,-6513.812290,3447.429741
1395.969786,9326.594869,-3701.029710,1302.362347
1395.970115,7698.141797,-2812.782580,76.609550
1395.970444,7476.080014,-4737.318029,995.924147
1395.970773,6735.874072,-8290.306550,1762.019645
1395.971102,5255.462188,-8808.450710,1149.143247
1395.971431,4367.215058,-6883.915261,-689.485948
1395.971760,5181.441594,-7105.977043,229.828649
1395.972089,7772.162391,-8142.265362,3140.991542
1395.972418,9030.512492,-7105.977043,2528.115143
1395.972747,7550.100608,-4219.173869,306.438199
1395.973076,6439.791695,-3108.864956,-995.924147
1395.973405,6735.874072,-6661.853478,919.314598
1395.973734,7179.997637,-7994.224174,2298.286494
1395.974063,6809.894666,-8586.388927,1455.581446
1395.974392,6513.812290,-6291.750507,76.609550
1395.974721,6291.750507,-6735.874072,766.095498
1395.975050,7920.203579,-8586.388927,2451.505594
1395.975379,8068.244768,-6513.812290,2145.067394
1395.975708,7328.038826,-4071.132681,-459.657299
1395.976037,6587.832884,-4145.153275,-766.095498
1395.976366,6661.853478,-6143.709319,612.876398
1395.976695,7105.977043,-9252.574275,2451.505594
1395.977024,6957.935855,-6883.915261,459.657299
1395.977353,5847.626942,-5847.626942,-229.828649
1395.977682,6735.874072,-7105.977043,919.314598
1395.978011,8142.265362,-7179.997637,2604.724693
1395.978340,8364.327145,-6587.832884,2221.676944
1395.978669,7179.997637,-4219.173869,-612.876398
1395.978998,7254.018232,-4737.318029,-459.657299
1395.979327,7698.141797,-6661.853478,1838.629195
1395.979656,6957.935855,-10066.800811,2681.334243
1395.979985,5403.503377,-8364.327145,459.657299
1395.980314,4811.338623,-6809.894666,-919.314598
1395.980643,4959.379811,-9178.553681,153.219100
1395.980972,6809.894666,-8882.471304,3064.381992
1395.981301,7550.100608,-6957.935855,1608.800546
1395.981630,7624.121203,-3478.967927,-689.485948
1395.981959,6809.894666,-3182.885551,0.000000
1395.982288,7772.162391,-5995.668130,1762.019645
1395.982617,8364.327145,-7031.956449,2911.162892
1395.982946,8364.327145,-4811.338623,1378.971896
1395.983275,7402.059420,-3923.091493,0.000000
1395.983604,7476.080014,-5773.606348,1225.752797
1395.983934,8956.491898,-6291.750507,3524.039291
1395.984263,8660.409521,-5847.626942,2221.676944
1395.984592,7328.038826,-4885.359217,0.000000
1395.984921,6365.771101,-5847.626942,306.438199
1395.985250,5995.668130,-8660.409521,1532.190996
1395.985579,5033.400406,-10955.047942,1762.019645
1395.985908,3552.988522,-8512.368333,0.000000
1395.986237,3997.112087,-7698.141797,-1225.752797
1395.986566,5847.626942,-7624.121203,1072.533697
1395.986895,8142.265362,-8660.409521,2757.943793
1395.987224,9252.574275,-5773.606348,2757.943793
1395.987553,8586.388927,-2072.576638,-229.828649
1395.987882,7550.100608,-3034.844362,0.000000
1395.988211,7698.141797,-5847.626942,1991.848295
1395.988540,8068.244768,-7846.182985,2528.115143
1395.988869,6661.853478,-6587.832884,612.876398
1395.989198,5551.544565,-5551.544565,0.000000
1395.989527,6143.709319,-7254.018232,766.095498
1395.989856,7476.080014,-8216.285956,2757.943793
1395.990185,7624.121203,-6883.915261,2374.896044
1395.990514,7328.038826,-4811.338623,229.828649
1395.990843,6809.894666,-6069.688724,919.314598
1395.991172,6513.812290,-7994.224174,2451.505594
1395.991501,6291.750507,-9474.636058,2451.505594
1395.991830,5995.668130,-7698.141797,0.000000
1395.992159,4663.297435,-7105.977043,-536.266849
1395.992488,5477.523971,-7624.121203,1225.752797
1395.992817,8142.265362,-7920.203579,3140.991542
1395.993146,8660.409521,-5403.503377,2451.505594
1395.993475,7179.997637,-3997.112087,-842.705048
1395.993804,6365.771101,-3627.009116,-459.657299
1395.994133,7179.997637,-6883.915261,1455.581446
1395.994462,7624.121203,-8882.471304,2145.067394
1395.994791,6809.894666,-7105.977043,0.000000
1395.995120,5403.503377,-5403.503377,-459.657299
1395.995449,6069.688724,-7846.182985,995.924147
1395.995778,7772.162391,-8956.491898,2145.067394
1395.996107,8216.285956,-6365.771101,2757.943793
1395.996436,8068.244768,-3627.009116,-306.438199
1395.996765,7846.182985,-3552.988522,1455.581446
1395.997094,7698.141797,-7254.018232,2451.505594
1395.997423,6513.812290,-8956.491898,1915.238745
1395.997752,5995.668130,-4219.173869,76.609550
1395.998081,5773.606348,-5995.668130,-1149.143247
1395.998410,6809.894666,-6735.874072,2374.896044
1395.998739,8808.450710,-7624.121203,3677.258390
1395.999068,8660.409521,-5033.400406,766.095498
1395.999397,6957.935855,-1702.473667,-689.485948
1395.999727,5551.544565,-5995.668130,-383.047749
1396.000056,7328.038826,-7624.121203,1378.971896
1396.000385,6809.894666,-8882.471304,1762.019645
1396.000714,6365.771101,-7920.203579,383.047749
1396.001043,5995.668130,-5403.503377,-919.314598
1396.001372,7105.977043,-8512.368333,1915.238745
1396.001701,8364.327145,-8142.265362,2757.943793
1396.002030,8808.450710,-5847.626942,919.314598
1396.002359,8512.368333,-2368.659014,153.219100
1396.002688,7179.997637,-6217.729913,612.876398
1396.003017,7105.977043,-8660.409521,2145.067394
1396.003346,6513.812290,-8660.409521,1685.410096
1396.003675,5551.544565,-6661.853478,-612.876398
1396.004004,5181.441594,-5847.626942,-919.314598
1396.004333,5847.626942,-8216.285956,1608.800546
1396.004662,7772.162391,-8734.430116,2528.115143
1396.004991,7846.182985,-5107.421000,229.828649
1396.005320,7254.018232,-4441.235652,-842.705048
1396.005649,6735.874072,-5773.606348,842.705048
1396.005978,7254.018232,-8660.409521,1915.238745
1396.006307,6735.874072,-8734.430116,1991.848295
1396.006636,5921.647536,-4885.359217,229.828649
1396.006965,6661.853478,-5403.503377,76.609550
1396.007294,7994.224174,-7031.956449,2298.286494
1396.007623,8882.471304,-7328.038826,3140.991542
1396.007952,8882.471304,-4663.297435,1378.971896
1396.008281,7698.141797,-2738.761985,-383.047749
1396.008610,6143.709319,-5625.565159,1378.971896
1396.008939,6587.832884,-8512.368333,2451.505594
1396.009268,5995.668130,-8364.327145,1149.143247
1396.009597,4959.379811,-6513.812290,-766.095498
1396.009926,4663.297435,-7624.121203,-383.047749
1396.010255,6217.729913,-8734.430116,1991.848295
1396.010584,6957.935855,-9104.533087,2221.676944
1396.010913,7105.977043,-5329.482782,0.000000
1396.011242,7550.100608,-2886.803174,-612.876398
1396.011571,7698.141797,-6661.853478,1762.019645
1396.011900,7698.141797,-8216.285956,3524.039291
1396.012229,7698.141797,-6217.729913,1685.410096
1396.012558,6735.874072,-3256.906145,-995.924147
1396.012887,6587.832884,-3923.091493,229.828649
1396.013216,8216.285956,-7254.018232,3294.210641
1396.013545,9400.615463,-7846.182985,3907.087040
1396.013874,8586.388927,-4145.153275,1225.752797
1396.014203,6883.915261,-3182.885551,-383.047749
1396.014532,6809.894666,-6439.791695,689.485948
1396.014861,6587.832884,-10066.800811,2374.896044
1396.015191,5329.482782,-9474.636058,459.657299
1396.015520,4737.318029,-7328.038826,-1378.971896
1396.015849,5255.462188,-7254.018232,689.485948
1396.016178,6661.853478,-9326.594869,1991.848295
1396.016507,7328.038826,-7772.162391,1915.238745
1396.016836,6587.832884,-4737.318029,-612.876398
1396.017165,6513.812290,-3849.070898,-536.266849
1396.017494,7179.997637,-5699.585753,919.314598
1396.017823,8216.285956,-7920.203579,3140.991542
1396.018152,8068.244768,-6735.874072,1302.362347
1396.018481,5921.647536,-4811.338623,-1149.143247
1396.018810,5255.462188,-6439.791695,76.609550
1396.019139,7105.977043,-8586.388927,2681.334243
1396.019468,9770.718434,-7254.018232,3064.381992
1396.019797,9400.615463,-4737.318029,766.095498
1396.020126,7254.018232,-4589.276840,0.000000
1396.020455,6439.791695,-7994.224174,2068.457845
1396.020784,6735.874072,-10658.965565,3064.381992
1396.021113,5477.523971,-8068.244768,229.828649
1396.021442,4293.194464,-4737.318029,-995.924147
1396.021771,5255.462188,-7105.977043,153.219100
1396.022100,6439.791695,-8364.327145,2451.505594
1396.022429,6661.853478,-8438.347739,2374.896044
1396.022758,6587.832884,-4219.173869,-612.876398
1396.023087,6735.874072,-3478.967927,-766.095498
1396.023416,6883.915261,-6809.894666,2451.505594
1396.023745,7698.141797,-9474.636058,2757.943793
1396.024074,7328.038826,-7846.182985,612.876398
1396.024403,6365.771101,-5033.400406,-842.705048
1396.024732,6957.935855,-6439.791695,1072.533697
1396.025061,8734.430116,-7920.203579,3370.820191
1396.025390,8956.491898,-6587.832884,2451.505594
1396.025719,7772.162391,-4219.173869,0.000000
1396.026048,6661.853478,-3849.070898,-76.609550
1396.026377,7105.977043,-6587.832884,2221.676944
1396.026706,7402.059420,-8956.491898,2834.553343
1396.027035,6365.771101,-5773.606348,612.876398
1396.027364,4811.338623,-4589.276840,-1072.533697
1396.027693,5181.441594,-7105.977043,842.705048
1396.028022,7105.977043,-9326.594869,2604.724693
1396.028351,7994.224174,-7476.080014,1991.848295
1396.028680,7402.059420,-4219.173869,0.000000
1396.029009,6365.771101,-4737.318029,76.609550
1396.029338,5995.668130,-7328.038826,1302.362347
1396.029667,6143.709319,-8882.471304,2604.724693
1396.029996,6587.832884,-6957.935855,0.000000
1396.030325,6291.750507,-4441.235652,-689.485948
1396.030654,7105.977043,-5847.626942,1149.143247
1396.030984,9178.553681,-8216.285956,3447.429741
1396.031313,8882.471304,-5625.565159,2374.896044
1396.031642,8216.285956,-3552.988522,229.828649
1396.031971,7624.121203,-3701.029710,383.047749
1396.032300,7846.182985,-6883.915261,2145.067394
1396.032629,7772.162391,-9252.574275,2374.896044
1396.032958,5847.626942,-7994.224174,383.047749
1396.033287,4885.359217,-7402.059420,-153.219100
1396.033616,5477.523971,-7846.182985,536.266849
1396.033945,6883.915261,-9178.553681,2604.724693
1396.034274,7550.100608,-7179.997637,1072.533697
1396.034603,6143.709319,-4515.256246,-1225.752797
1396.034932,5847.626942,-5625.565159,0.000000
1396.035261,7031.956449,-7179.997637,1685.410096
1396.035590,7105.977043,-8290.306550,1838.629195
1396.035919,6365.771101,-6735.874072,153.219100
1396.036248,5773.606348,-5033.400406,-536.266849
1396.036577,7179.997637,-7105.977043,1149.143247
1396.036906,9400.615463,-7624.121203,3753.867940
1396.037235,8882.471304,-5551.544565,2068.457845
1396.037564,8216.285956,-2812.782580,-383.047749
1396.037893,7846.182985,-4293.194464,383.047749
1396.038222,7772.162391,-8438.347739,2298.286494
1396.038551,7698.141797,-9548.656652,2068.457845
1396.038880,5477.523971,-6735.874072,153.219100
1396.039209,4367.215058,-6069.688724,-842.705048
1396.039538,5181.441594,-8142.265362,1302.362347
1396.039867,6587.832884,-8956.491898,2451.505594
1396.040196,6809.894666,-7179.997637,1149.143247
1396.040525,6513.812290,-4071.132681,-383.047749
1396.040854,6587.832884,-4219.173869,383.047749
1396.041183,7624.121203,-6587.832884,1991.848295
1396.041512,7179.997637,-7105.977043,2298.286494
1396.041841,6735.874072,-5329.482782,0.000000
1396.042170,7105.977043,-4959.379811,76.609550
1396.042499,8512.368333,-7105.977043,2604.724693
1396.042828,9548.656652,-7772.162391,3983.696590
1396.043157,8512.368333,-3997.112087,1838.629195
1396.043486,6883.915261,-3552.988522,-383.047749
1396.043815,7031.956449,-5477.523971,153.219100
1396.044144,8512.368333,-7328.038826,2757.943793
1396.044473,7550.100608,-8586.388927,2604.724693
1396.044802,4663.297435,-6513.812290,-1149.143247
1396.045131,3034.844362,-6957.935855,-995.924147
1396.045460,4367.215058,-8438.347739,842.705048
1396.045789,6069.688724,-8660.409521,1685.410096
1396.046118,7254.018232,-6291.750507,1378.971896
1396.046448,7254.018232,-3108.864956,-612.876398
1396.046777,7105.977043,-4663.297435,229.828649
1396.047106,7698.141797,-7031.956449,1915.238745
1396.047435,7476.080014,-7994.224174,2374.896044
1396.047764,7328.038826,-6217.729913,-306.438199
1396.048093,6217.729913,-6143.709319,0.000000
1396.048422,7476.080014,-7476.080014,1762.019645
1396.048751,9178.553681,-7994.224174,2681.334243
1396.049080,8956.491898,-5107.421000,2068.457845
1396.049409,7550.100608,-4071.132681,0.000000
1396.049738,7179.997637,-5921.647536,842.705048
1396.050067,7105.977043,-8364.327145,2068.457845
1396.050396,5181.441594,-8808.450710,1072.533697
1396.050725,3923.091493,-6217.729913,-842.705048
1396.051054,4663.297435,-7105.977043,-919.314598
1396.051383,6513.812290,-8882.471304,1762.019645
1396.051713,7846.182985,-7328.038826,2987.772442
1396.052042,8068.244768,-4811.338623,612.876398
1396.052371,7550.100608,-3627.009116,-383.047749
1396.052700,7105.977043,-5181.441594,612.876398
1396.053029,6809.894666,-8586.388927,1685.410096
1396.053358,6365.771101,-8290.306550,1225.752797
1396.053687,5625.565159,-6143.709319,0.000000
1396.054016,5995.668130,-7105.977043,0.000000
1396.054345,7328.038826,-7254.018232,1685.410096
1396.054674,8216.285956,-7698.141797,2068.457845
1396.055003,8364.327145,-5477.523971,689.485948
1396.055332,7179.997637,-3404.947333,-229.828649
1396.055661,7550.100608,-5107.421000,995.924147
1396.055990,7624.121203,-8586.388927,2604.724693
1396.056319,6217.729913,-7920.203579,1455.581446
1396.056648,5477.523971,-5625.565159,-612.876398
1396.056977,5477.523971,-7179.997637,842.705048
1396.057307,7254.018232,-7254.018232,2987.772442
1396.057636,8512.368333,-6291.750507,2757.943793
1396.057965,7772.162391,-4145.153275,919.314598
1396.058294,7550.100608,-2442.679609,229.828649
1396.058623,7328.038826,-5921.647536,919.314598
1396.058952,6513.812290,-7920.203579,2298.286494
1396.059281,5551.544565,-7920.203579,612.876398
1396.059610,6069.688724,-5551.544565,-1072.533697
1396.059939,6513.812290,-6587.832884,306.438199
1396.060268,7550.100608,-8438.347739,2374.896044
1396.060597,8808.450710,-7328.038826,2451.505594
1396.060926,8512.368333,-4293.194464,153.219100
1396.061255,7698.141797,-3256.906145,-459.657299
1396.061584,7698.141797,-5181.441594,1378.971896
1396.061913,7698.141797,-9178.553681,2451.505594
1396.062242,7179.997637,-8290.306550,1302.362347
1396.062572,5773.606348,-6291.750507,0.000000
1396.062901,5625.565159,-7105.977043,459.657299
1396.063230,7105.977043,-8142.265362,2604.724693
1396.063559,7772.162391,-7624.121203,2374.896044
1396.063888,6957.935855,-5033.400406,-459.657299
1396.064217,6365.771101,-4367.215058,-306.438199
1396.064546,6069.688724,-6735.874072,919.314598
1396.064875,6735.874072,-8808.450710,2068.457845
1396.065204,6735.874072,-8512.368333,766.095498
1396.065533,5181.441594,-5699.585753,-689.485948
1396.065862,5329.482782,-6809.894666,-383.047749
1396.066191,7476.080014,-8438.347739,2681.334243
1396.066520,8734.430116,-7328.038826,2604.724693
1396.066849,8512.368333,-4515.256246,229.828649
1396.067178,7105.977043,-3775.050304,1149.143247
1396.067507,7031.956449,-7254.018232,1685.410096
1396.067836,6957.935855,-9400.615463,2528.115143
1396.068166,6143.709319,-7105.977043,689.485948
1396.068495,5255.462188,-5625.565159,-995.924147
1396.068824,5773.606348,-6365.771101,1608.800546
1396.069153,7476.080014,-8290.306550,2757.943793
1396.069482,7698.141797,-7031.956449,2145.067394
1396.069811,7031.956449,-3478.967927,-229.828649
1396.070140,7031.956449,-3552.988522,-306.438199
1396.070469,7402.059420,-5921.647536,1762.019645
1396.070798,7031.956449,-8660.409521,3294.210641
1396.071127,6957.935855,-6513.812290,689.485948
1396.071456,6661.853478,-5107.421000,-689.485948
1396.071785,6439.791695,-6143.709319,1072.533697
1396.072114,7402.059420,-8808.450710,2987.772442
1396.072443,7846.182985,-7105.977043,2068.457845
1396.072772,7328.038826,-3182.885551,-306.438199
1396.073101,6957.935855,-4737.318029,0.000000
1396.073431,7920.203579,-7698.141797,2451.505594
1396.073760,7179.997637,-9030.512492,2681.334243
1396.074089,5995.668130,-7402.059420,383.047749
1396.074418,5181.441594,-4811.338623,-995.924147
1396.074747,6069.688724,-6513.812290,766.095498
1396.075076,7772.162391,-8734.430116,2451.505594
1396.075405,8364.327145,-6883.915261,2221.676944
1396.075734,7624.121203,-3997.112087,-536.266849
1396.076063,7105.977043,-3701.029710,0.000000
1396.076392,7328.038826,-6439.791695,1532.190996
1396.076721,7476.080014,-9104.533087,2834.553343
1396.077050,6587.832884,-6217.729913,229.828649
1396.077379,5625.565159,-5699.585753,-536.266849
1396.077708,6291.750507,-7031.956449,995.924147
1396.078037,6883.915261,-8808.450710,2528.115143
1396.078366,7402.059420,-7105.977043,1991.848295
1396.078695,7402.059420,-3997.112087,-459.657299
1396.079025,6883.915261,-5699.585753,383.047749
1396.079354,7254.018232,-7550.100608,2911.162892
1396.079683,6735.874072,-10140.821405,2298.286494
1396.080012,6217.729913,-6587.832884,0.000000
1396.080341,5625.565159,-6365.771101,-229.828649
1396.080670,6513.812290,-7846.182985,1149.143247
1396.080999,7698.141797,-9104.533087,2298.286494
1396.081328,7105.977043,-7254.018232,1225.752797
1396.081657,7624.121203,-3849.070898,-229.828649
1396.081986,6883.915261,-4367.215058,229.828649
1396.082315,6735.874072,-7105.977043,1762.019645
1396.082644,6291.750507,-8808.450710,1762.019645
1396.082973,5995.668130,-6513.812290,-383.047749
1396.083302,5625.565159,-5033.400406,-1378.971896
1396.083631,6587.832884,-6661.853478,1225.752797
1396.083960,8216.285956,-8586.388927,2834.553343
1396.084290,8216.285956,-6587.832884,1072.533697
1396.084619,7772.162391,-4663.297435,153.219100
1396.084948,7698.141797,-6069.688724,689.485948
1396.085277,7698.141797,-8808.450710,3294.210641
1396.085606,6809.894666,-8364.327145,2068.457845
1396.085935,5255.462188,-6069.688724,-842.705048
1396.086264,5033.400406,-5107.421000,-612.876398
1396.086593,7031.956449,-7105.977043,1991.848295
1396.086922,8660.409521,-7698.141797,3217.601092
1396.087251,8068.244768,-5181.441594,1762.019645
1396.087580,7402.059420,-1998.556043,-612.876398
1396.087909,7105.977043,-4589.276840,153.219100
1396.088238,7105.977043,-7254.018232,2528.115143
1396.088567,7179.997637,-8586.388927,1915.238745
1396.088896,5995.668130,-5551.544565,-1149.143247
1396.089225,5107.421000,-4515.256246,-766.095498
1396.089555,6661.853478,-8142.265362,1302.362347
1396.089884,9326.594869,-8068.244768,3294.210641
1396.090213,8808.450710,-6513.812290,1455.581446
1396.090542,7624.121203,-4737.318029,-306.438199
1396.090871,7254.018232,-4367.215058,536.266849
1396.091200,7254.018232,-8290.306550,2451.505594
1396.091529,6883.915261,-8882.471304,2374.896044
1396.091858,5773.606348,-5699.585753,-689.485948
1396.092187,5403.503377,-6439.791695,-306.438199
1396.092516,7105.977043,-7402.059420,2221.676944
1396.092845,8438.347739,-8438.347739,3830.477490
1396.093174,8142.265362,-5255.462188,919.314598
1396.093503,5773.606348,-4367.215058,-1608.800546
1396.093832,5255.462188,-6587.832884,766.095498
1396.094161,5995.668130,-9030.512492,1762.019645
1396.094490,6439.791695,-9252.574275,1532.190996
1396.094819,6217.729913,-6291.750507,-229.828649
1396.095149,5625.565159,-6365.771101,-612.876398
1396.095478,6291.750507,-8364.327145,1455.581446
1396.095807,7328.038826,-9030.512492,3370.820191
1396.096136,8808.450710,-5329.482782,612.876398
1396.096465,8660.409521,-2812.782580,153.219100
1396.096794,7994.224174,-5033.400406,1762.019645
1396.097123,7402.059420,-8216.285956,2604.724693
1396.097452,7105.977043,-8216.285956,2068.457845
1396.097781,5921.647536,-5477.523971,-459.657299
1396.098110,5403.503377,-4959.379811,76.609550
1396.098439,6513.812290,-7328.038826,1915.238745
1396.098768,7920.203579,-7698.141797,2451.505594
1396.099097,7476.080014,-5403.503377,153.219100
1396.099426,6587.832884,-4367.215058,-306.438199
1396.099755,6735.874072,-4811.338623,536.266849
1396.100084,7105.977043,-8216.285956,2298.286494
1396.100414,7254.018232,-7402.059420,1532.190996
1396.100743,7105.977043,-5403.503377,-536.266849
1396.101072,6291.750507,-5625.565159,306.438199
1396.101401,7105.977043,-7772.162391,2681.334243
1396.101730,8586.388927,-7846.182985,3447.429741
1396.102059,9622.677246,-4219.173869,1991.848295
1396.102388,8512.368333,-3256.906145,383.047749
1396.102717,6587.832884,-6365.771101,919.314598
1396.103046,5625.565159,-9030.512492,1685.410096
1396.103375,5477.523971,-9252.574275,0.000000
1396.103704,5033.400406,-5847.626942,-1378.971896
1396.104033,5255.462188,-6291.750507,306.438199
1396.104362,6661.853478,-9326.594869,2528.115143
1396.104691,7624.121203,-8364.327145,2068.457845
1396.105020,6957.935855,-4293.194464,0.000000
1396.105349,7105.977043,-3256.906145,-383.047749
1396.105678,7550.100608,-5329.482782,1455.581446
1396.106008,7476.080014,-8586.388927,2757.943793
1396.106337,7105.977043,-8068.244768,1302.362347
1396.106666,6661.853478,-4885.359217,-306.438199
1396.106995,6735.874072,-5329.482782,766.095498
1396.107324,7846.182985,-7698.141797,3447.429741
1396.107653,9474.636058,-7328.038826,3600.648841
1396.107982,9400.615463,-3552.988522,766.095498
1396.108311,7254.018232,-3108.864956,0.000000
1396.108640,6365.771101,-6143.709319,1608.800546
1396.108969,5773.606348,-9104.533087,1762.019645
1396.109298,5255.462188,-8068.244768,-383.047749
1396.109627,4515.256246,-6587.832884,-689.485948
1396.109956,4959.379811,-8216.285956,229.828649
1396.110285,6809.894666,-9326.594869,2451.505594
1396.110614,7550.100608,-7920.203579,2374.896044
1396.110943,7624.121203,-4145.153275,-383.047749
1396.111273,7772.162391,-2812.782580,0.000000
1396.111602,7402.059420,-6439.791695,1915.238745
1396.111931,7105.977043,-9400.615463,2451.505594
1396.112260,7105.977043,-7105.977043,689.485948
1396.112589,6661.853478,-5403.503377,-536.266849
1396.112918,6439.791695,-6587.832884,1072.533697
1396.113247,7105.977043,-8290.306550,2987.772442
1396.113576,7994.224174,-7846.182985,2145.067394
1396.113905,7105.977043,-4219.173869,-306.438199
1396.114234,6735.874072,-4293.194464,-995.924147
1396.114563,6735.874072,-7772.162391,1685.410096
1396.114892,6809.894666,-9844.739029,2604.724693
1396.115221,5699.585753,-8290.306550,0.000000
1396.115550,4441.235652,-5699.585753,-1072.533697
1396.115879,5625.565159,-7328.038826,689.485948
1396.116208,8142.265362,-9030.512492,2834.553343
1396.116537,8364.327145,-6957.935855,2451.505594
1396.116867,7550.100608,-3701.029710,0.000000
1396.117196,7254.018232,-3256.906145,-153.219100
1396.117525,7624.121203,-5033.400406,1762.019645
1396.117854,7846.182985,-7550.100608,2451.505594
1396.118183,7698.141797,-5995.668130,536.266849
1396.118512,6809.894666,-5033.400406,-229.828649
1396.118841,7105.977043,-6069.688724,919.314598
1396.119170,8142.265362,-7846.182985,2604.724693
1396.119499,8438.347739,-5847.626942,2068.457845
1396.119828,7402.059420,-4663.297435,-612.876398
1396.120157,6365.771101,-5255.462188,-153.219100
1396.120486,6069.688724,-7846.182985,1991.848295
1396.120815,6883.915261,-10214.842000,1225.752797
1396.121144,6587.832884,-6735.874072,306.438199
1396.121473,5033.400406,-7031.956449,0.000000
1396.121802,5329.482782,-8586.388927,842.705048
1396.122132,6809.894666,-7994.224174,1991.848295
1396.122461,7476.080014,-6217.729913,1302.362347
1396.122790,8290.306550,-3034.844362,-766.095498
1396.123119,8290.306550,-4663.297435,689.485948
1396.123448,8364.327145,-6735.874072,2757.943793
1396.123777,7476.080014,-7994.224174,2451.505594
1396.124106,6661.853478,-5995.668130,459.657299
1396.124435,5773.606348,-5255.462188,-689.485948
1396.124764,5995.668130,-6661.853478,995.924147
1396.125093,8068.244768,-7476.080014,2451.505594
1396.125422,8956.491898,-7550.100608,1915.238745
1396.125751,8290.306550,-4737.318029,306.438199
1396.126080,7328.038826,-4737.318029,1072.533697
1396.126409,7624.121203,-7994.224174,1991.848295
1396.126738,6809.894666,-8882.471304,1991.848295
1396.127067,4441.235652,-7846.182985,-689.485948
1396.127396,3775.050304,-7328.038826,-995.924147
1396.127726,4959.379811,-7994.224174,1455.581446
1396.128055,6883.915261,-8364.327145,2298.286494
1396.128384,7476.080014,-6883.915261,1225.752797
1396.128713,7179.997637,-4515.256246,0.000000
1396.129042,7105.977043,-5107.421000,536.266849
1396.129371,8364.327145,-6883.915261,2451.505594
1396.129700,8068.244768,-7105.977043,2451.505594
1396.130029,7846.182985,-5033.400406,229.828649
1396.130358,7105.977043,-4515.256246,383.047749
1396.130687,7031.956449,-6365.771101,2681.334243
1396.131016,8586.388927,-7994.224174,3140.991542
1396.131345,8216.285956,-6069.688724,1991.848295
1396.131674,7328.038826,-3404.947333,306.438199
1396.132003,6883.915261,-5847.626942,766.095498
1396.132332,6365.771101,-8364.327145,2451.505594
1396.132661,5255.462188,-10288.862594,1455.581446
1396.132991,3923.091493,-6291.750507,-1532.190996
1396.133320,3923.091493,-6291.750507,-842.705048
1396.133649,6365.771101,-8364.327145,1915.238745
1396.133978,8290.306550,-8216.285956,2911.162892
1396.134307,8142.265362,-5995.668130,1378.971896
1396.134636,7846.182985,-3775.050304,0.000000
1396.134965,8068.244768,-5033.400406,536.266849
1396.135294,8808.450710,-5995.668130,2298.286494
1396.135623,7550.100608,-7105.977043,1455.581446
1396.135952,7031.956449,-5921.647536,0.000000
1396.136281,6661.853478,-5181.441594,383.047749
1396.136610,6883.915261,-7179.997637,2145.067394
1396.136939,7772.162391,-8290.306550,2911.162892
1396.137268,7105.977043,-6957.935855,919.314598
1396.137597,5847.626942,-6439.791695,-383.047749
1396.137926,4293.194464,-7698.141797,0.000000
1396.138255,4441.235652,-11177.109724,2145.067394
1396.138585,5033.400406,-10510.924376,995.924147
1396.138914,4071.132681,-8660.409521,-766.095498
1396.139243,3923.091493,-9030.512492,-459.657299
1396.139572,5181.441594,-9844.739029,1225.752797
1396.139901,6217.729913,-9474.636058,2068.457845
1396.140230,5921.647536,-6883.915261,0.000000
1396.140559,6143.709319,-4663.297435,-1378.971896
1396.140888,7031.956449,-5847.626942,0.000000
1396.141217,7846.182985,-8290.306550,2068.457845
1396.141546,7254.018232,-9178.553681,1838.629195
1396.141875,6291.750507,-7698.141797,689.485948
1396.142204,5995.668130,-6217.729913,1149.143247
1396.142533,6143.709319,-7550.100608,2298.286494
1396.142862,7105.977043,-8142.265362,3677.258390
1396.143191,7920.203579,-5107.421000,2451.505594
1396.143520,7105.977043,-2664.741391,229.828649
1396.143850,6661.853478,-4441.235652,1302.362347
1396.144179,7105.977043,-8216.285956,2834.553343
1396.144508,6513.812290,-8882.471304,1838.629195
1396.144837,3701.029710,-7920.203579,-536.266849
1396.145166,1480.411884,-9770.718434,-459.657299
1396.145495,2368.659014,-11843.295072,689.485948
1396.145824,4441.235652,-12509.480420,2451.505594
1396.146153,3997.112087,-9696.697840,1302.362347
1396.146482,4145.153275,-6365.771101,-536.266849
1396.146811,3701.029710,-8142.265362,0.000000
1396.147140,4145.153275,-10214.842000,2221.676944
1396.147469,4737.318029,-10955.047942,2145.067394
1396.147798,4441.235652,-8068.244768,1072.533697
1396.148127,2960.823768,-7550.100608,76.609550
1396.148457,3256.906145,-8956.491898,995.924147
1396.148786,5847.626942,-10288.862594,3447.429741
1396.149115,7402.059420,-8956.491898,2451.505594
1396.149444,6883.915261,-6291.750507,1225.752797
1396.149773,5921.647536,-4737.318029,842.705048
1396.150102,5995.668130,-7105.977043,1225.752797
1396.150431,6735.874072,-8364.327145,1378.971896
1396.150760,5625.565159,-9622.677246,1608.800546
1396.151089,4811.338623,-8956.491898,1225.752797
1396.151418,3923.091493,-8512.368333,536.266849
1396.151747,3478.967927,-8586.388927,229.828649
1396.152076,3552.988522,-9400.615463,-76.609550
1396.152406,3627.009116,-9992.780217,536.266849
1396.152735,2960.823768,-10436.903782,1072.533697
1396.153064,4071.132681,-10658.965565,1608.800546
1396.153393,5625.565159,-8364.327145,1225.752797
1396.153722,6809.894666,-6957.935855,1225.752797
1396.154051,5699.585753,-7698.141797,689.485948
1396.154380,5995.668130,-8956.491898,2834.553343
1396.154709,6513.812290,-8290.306550,1838.629195
1396.155038,6291.750507,-6883.915261,766.095498
1396.155367,5181.441594,-6735.874072,689.485948
1396.155696,4663.297435,-7772.162391,76.609550
1396.156025,4219.173869,-10807.006753,766.095498
1396.156354,4071.132681,-11621.233289,1685.410096
1396.156684,4885.359217,-8734.430116,1225.752797
1396.157013,4885.359217,-6365.771101,612.876398
1396.157342,4293.194464,-6587.832884,306.438199
1396.157671,4663.297435,-7846.182985,383.047749
1396.158000,5329.482782,-8068.244768,1225.752797
1396.158329,6069.688724,-6735.874072,919.314598
1396.158658,6809.894666,-7031.956449,1685.410096
1396.158987,7328.038826,-7105.977043,1915.238745
1396.159316,6661.853478,-9844.739029,1685.410096
1396.159645,4959.379811,-11103.089130,1378.971896
1396.159974,3034.844362,-10584.944971,766.095498
1396.160303,3034.844362,-9770.718434,-459.657299
1396.160633,2664.741391,-9770.718434,-536.266849
1396.160962,2738.761985,-11399.171507,766.095498
1396.161291,2960.823768,-11991.336260,1685.410096
1396.161620,3775.050304,-10955.047942,2451.505594
1396.161949,4219.173869,-8068.244768,2145.067394
1396.162278,5329.482782,-5551.544565,1378.971896
1396.162607,6513.812290,-4145.153275,1149.143247
1396.162936,6143.709319,-4589.276840,842.705048
1396.163265,6661.853478,-6069.688724,919.314598
1396.163594,6365.771101,-7031.956449,1378.971896
1396.163923,6661.853478,-8586.388927,1072.533697
1396.164252,5847.626942,-9696.697840,1838.629195
1396.164581,4589.276840,-11399.171507,1532.190996
1396.164911,3182.885551,-13027.624579,383.047749
1396.165240,2368.659014,-12879.583391,-229.828649
1396.165569,2590.720797,-11473.192101,-919.314598
1396.165898,3701.029710,-10658.965565,0.000000
1396.166227,3923.091493,-10362.883188,1072.533697
1396.166556,3552.988522,-9770.718434,1532.190996
1396.166885,4071.132681,-7698.141797,2374.896044
1396.167214,5181.441594,-5699.585753,2911.162892
1396.167543,7105.977043,-4959.379811,3370.820191
1396.167872,8068.244768,-3997.112087,3370.820191
1396.168201,7328.038826,-4219.173869,2451.505594
1396.168530,5995.668130,-5255.462188,842.705048
1396.168859,4811.338623,-7476.080014,153.219100
1396.169189,4441.235652,-9252.574275,0.000000
1396.169518,4293.194464,-11547.212695,689.485948
1396.169847,4071.132681,-12731.542202,689.485948
1396.170176,4441.235652,-11695.253884,1532.190996
1396.170505,4959.379811,-11843.295072,1455.581446
1396.170834,5107.421000,-10436.903782,1225.752797
1396.171163,4293.194464,-9474.636058,536.266849
1396.171492,3034.844362,-8364.327145,-689.485948
1396.171821,2368.659014,-8660.409521,-689.485948
1396.172150,3330.926739,-9992.780217,306.438199
1396.172479,4737.318029,-9474.636058,1762.019645
1396.172808,5921.647536,-6735.874072,1225.752797
1396.173138,6661.853478,-5403.503377,2374.896044
1396.173467,7698.141797,-3923.091493,2145.067394
1396.173796,7846.182985,-4145.153275,2145.067394
1396.174125,7254.018232,-5995.668130,2221.676944
1396.174454,6217.729913,-7402.059420,1991.848295
1396.174783,5403.503377,-8734.430116,1225.752797
1396.175112,4885.359217,-10436.903782,1685.410096
1396.175441,4589.276840,-11695.253884,2681.334243
1396.175770,4811.338623,-11029.068536,1455.581446
1396.176099,4515.256246,-9474.636058,1455.581446
1396.176428,2886.803174,-8290.306550,536.266849
1396.176757,2886.803174,-8586.388927,-306.438199
1396.177086,3182.885551,-7772.162391,-536.266849
1396.177416,3404.947333,-7698.141797,-536.266849
1396.177745,3923.091493,-7031.956449,-383.047749
1396.178074,5699.585753,-8216.285956,612.876398
1396.178403,7105.977043,-9252.574275,1762.019645
1396.178732,7328.038826,-9326.594869,1915.238745
1396.179061,6809.894666,-8882.471304,2298.286494
1396.179390,6291.750507,-8512.368333,1532.190996
1396.179719,5107.421000,-9326.594869,1378.971896
1396.180048,4959.379811,-9326.594869,2451.505594
1396.180377,5477.523971,-8734.430116,2834.553343
1396.180706,5625.565159,-7328.038826,2681.334243
1396.181035,5255.462188,-6809.894666,2451.505594
1396.181364,5699.585753,-7031.956449,2374.896044
1396.181694,5477.523971,-7254.018232,2145.067394
1396.182023,5033.400406,-7550.100608,1685.410096
1396.182352,4515.256246,-7402.059420,1378.971896
1396.182681,3997.112087,-8660.409521,1149.143247
1396.183010,3849.070898,-9548.656652,1225.752797
1396.183339,3775.050304,-10732.986159,1302.362347
1396.183668,3997.112087,-10732.986159,2068.457845
1396.183997,4367.215058,-10955.047942,2298.286494
1396.184326,5255.462188,-10214.842000,2911.162892
1396.184655,6291.750507,-8142.265362,4290.134789
1396.184984,7031.956449,-7105.977043,4596.572988
1396.185313,6883.915261,-5329.482782,4443.353888
1396.185643,6365.771101,-5107.421000,3447.429741
1396.185972,6217.729913,-5625.565159,2911.162892
1396.186301,6587.832884,-5181.441594,2604.724693
1396.186630,6217.729913,-6661.853478,2068.457845
1396.186959,5551.544565,-7476.080014,1608.800546
1396.187288,5625.565159,-8882.471304,2374.896044
1396.187617,6143.709319,-9178.553681,2757.943793
1396.187946,5921.647536,-8660.409521,3677.258390
1396.188275,5995.668130,-7698.141797,3447.429741
1396.188604,5477.523971,-7698.141797,3524.039291
1396.188933,5551.544565,-7624.121203,3064.381992
1396.189262,6217.729913,-6661.853478,4366.744339
1396.189591,7179.997637,-4885.359217,4749.792088
1396.189921,8882.471304,-3775.050304,4749.792088
1396.190250,8808.450710,-3478.967927,5132.839837
1396.190579,9178.553681,-3552.988522,5056.230287
1396.190908,9030.512492,-3330.926739,4673.182538
1396.191237,8660.409521,-3552.988522,4596.572988
1396.191566,8290.306550,-5329.482782,3907.087040
1396.191895,8142.265362,-6217.729913,4290.134789
1396.192224,7328.038826,-8216.285956,4060.306139
1396.192553,6513.812290,-9326.594869,3600.648841
1396.192882,5255.462188,-9326.594869,2987.772442
1396.193211,4293.194464,-10658.965565,3064.381992
1396.193540,3849.070898,-9696.697840,3217.601092
1396.193870,3404.947333,-9770.718434,3447.429741
1396.194199,3923.091493,-8882.471304,3677.258390
1396.194528,4811.338623,-6883.915261,4596.572988
1396.194857,6439.791695,-6143.709319,5209.449386
1396.195186,8586.388927,-4441.235652,5822.325785
1396.195515,9992.780217,-3775.050304,6741.640382
1396.195844,10732.986159,-2590.720797,5669.106685
1396.196173,9474.636058,-2886.803174,5439.278036
1396.196502,9252.574275,-4071.132681,5362.668486
1396.196831,8290.306550,-4441.235652,4673.182538
1396.197160,7402.059420,-6291.750507,4366.744339
1396.197489,7105.977043,-7328.038826,4749.792088
1396.197818,6291.750507,-8364.327145,4290.134789
1396.198148,5625.565159,-9696.697840,4366.744339
1396.198477,4663.297435,-9474.636058,4213.525239
1396.198806,3923.091493,-10584.944971,3830.477490
1396.199135,2960.823768,-9844.739029,3217.601092
1396.199464,2072.576638,-9030.512492,2757.943793
1396.199793,3330.926739,-8586.388927,3140.991542
1396.200122,5847.626942,-6587.832884,4136.915689
1396.200451,7624.121203,-5403.503377,4673.182538
1396.200780,9548.656652,-3701.029710,5745.716235
1396.201109,10140.821405,-3034.844362,5745.716235
1396.201438,10362.883188,-2294.638420,5822.325785
1396.201767,9400.615463,-2220.617826,5056.230287
1396.202096,8808.450710,-3997.112087,4519.963438
1396.202426,7624.121203,-5551.544565,3907.087040
1396.202755,6513.812290,-7772.162391,3370.820191
1396.203084,5921.647536,-8216.285956,2681.334243
1396.203413,5329.482782,-8660.409521,2604.724693
1396.203742,4737.318029,-9992.780217,2987.772442
1396.204071,4885.359217,-9548.656652,3217.601092
1396.204400,5477.523971,-8290.306550,3447.429741
1396.204729,6661.853478,-7550.100608,4366.744339
1396.205058,8142.265362,-5181.441594,4673.182538
1396.205387,9400.615463,-4219.173869,4519.963438
1396.205716,9548.656652,-3701.029710,4290.134789
1396.206045,8512.368333,-3997.112087,3447.429741
1396.206375,8364.327145,-5107.421000,2757.943793
1396.206704,6735.874072,-5995.668130,2374.896044
1396.207033,5551.544565,-7254.018232,2145.067394
1396.207362,5551.544565,-8290.306550,2681.334243
1396.207691,5773.606348,-8734.430116,3370.820191
1396.208020,6069.688724,-8956.491898,4136.915689
1396.208349,7550.100608,-7402.059420,4673.182538
1396.208678,8364.327145,-6735.874072,4673.182538
1396.209007,8216.285956,-6217.729913,4213.525239
1396.209336,7920.203579,-5181.441594,3677.258390
1396.209665,7624.121203,-3849.070898,3524.039291
1396.209994,7772.162391,-3627.009116,3064.381992
1396.210323,7920.203579,-2812.782580,4213.525239
1396.210653,8364.327145,-3923.091493,3753.867940
1396.210982,8586.388927,-4293.194464,4366.744339
1396.211311,8142.265362,-6365.771101,4366.744339
1396.211640,6809.894666,-8956.491898,3524.039291
1396.211969,5033.400406,-10288.862594,3294.210641
1396.212298,3701.029710,-10584.944971,2681.334243
1396.212627,3182.885551,-10214.842000,1915.238745
1396.212956,2368.659014,-8808.450710,2298.286494
1396.213285,4441.235652,-7550.100608,2681.334243
1396.213614,6217.729913,-6439.791695,3600.648841
1396.213943,7624.121203,-5329.482782,4749.792088
1396.214272,8660.409521,-5033.400406,5439.278036
1396.214602,9178.553681,-3849.070898,5515.887586
1396.214931,9252.574275,-2738.761985,5439.278036
1396.215260,9696.697840,-2368.659014,4673.182538
1396.215589,9696.697840,-3256.906145,4826.401637
1396.215918,9326.594869,-4663.297435,4519.963438
1396.216247,7772.162391,-6883.915261,3447.429741
1396.216576,6143.709319,-9178.553681,3140.991542
1396.216905,4811.338623,-11325.150913,3524.039291
1396.217234,3775.050304,-12139.377449,3294.210641
1396.217563,3701.029710,-11547.212695,3677.258390
1396.217892,3923.091493,-9918.759623,3677.258390
1396.218221,4441.235652,-7105.977043,2987.772442
1396.218550,6143.709319,-5181.441594,4060.306139
1396.218880,8660.409521,-3923.091493,5592.497135
1396.219209,10066.800811,-2960.823768,5898.935335
1396.219538,9992.780217,-1998.556043,6052.154434
1396.219867,9992.780217,-814.226536,5362.668486
1396.220196,9326.594869,-2442.679609,4903.011187
1396.220525,8216.285956,-5255.462188,4903.011187
1396.220854,7846.182985,-7920.203579,4903.011187
1396.221183,7920.203579,-8808.450710,4366.744339
1396.221512,7328.038826,-9622.677246,4366.744339
1396.221841,5995.668130,-9992.780217,3447.429741
1396.222170,4737.318029,-8734.430116,3064.381992
1396.222499,3849.070898,-7920.203579,2145.067394
1396.222828,3552.988522,-7328.038826,2911.162892
1396.223158,5625.565159,-5921.647536,3753.867940
1396.223487,7328.038826,-5255.462188,4519.963438
1396.223816,7772.162391,-4811.338623,4826.401637
1396.224145,7179.997637,-4959.379811,4290.134789
1396.224474,7105.977043,-4811.338623,4443.353888
1396.224803,8142.265362,-4885.359217,4903.011187
1396.225132,8734.430116,-3997.112087,4596.572988
1396.225461,8142.265362,-4219.173869,3294.210641
1396.225790,6809.894666,-5847.626942,2604.724693
1396.226119,6587.832884,-8438.347739,3294.210641
1396.226448,6513.812290,-9474.636058,3294.210641
1396.226777,6883.915261,-8364.327145,2987.772442
1396.227107,6069.688724,-7994.224174,2451.505594
1396.227436,5033.400406,-8290.306550,2068.457845
1396.227765,4737.318029,-7994.224174,1608.800546
1396.228094,5403.503377,-7254.018232,2451.505594
1396.228423,6809.894666,-5329.482782,1685.410096
1396.228752,7179.997637,-2368.659014,1455.581446
1396.229081,6809.894666,-3034.844362,1302.362347
1396.229410,8216.285956,-4737.318029,1838.629195
1396.229739,9104.533087,-7105.977043,3524.039291
1396.230068,9992.780217,-8068.244768,4366.744339
1396.230397,9178.553681,-7105.977043,3677.258390
1396.230726,7179.997637,-7476.080014,2451.505594
1396.231055,5181.441594,-9474.636058,1455.581446
1396.231385,4589.276840,-8808.450710,689.485948
1396.231714,5847.626942,-7550.100608,1378.971896
1396.232043,7698.141797,-5847.626942,2068.457845
1396.232372,8142.265362,-3552.988522,2374.896044
1396.232701,7846.182985,-5477.523971,2145.067394
1396.233030,7179.997637,-6957.935855,2145.067394
1396.233359,6439.791695,-6217.729913,1762.019645
1396.233688,6883.915261,-5403.503377,306.438199
1396.234017,6957.935855,-6217.729913,459.657299
1396.234346,7624.121203,-6587.832884,1149.143247
1396.234675,7254.018232,-6069.688724,153.219100
1396.235004,5995.668130,-6365.771101,-306.438199
1396.235333,5847.626942,-6217.729913,-536.266849
1396.235663,6513.812290,-7476.080014,-536.266849
1396.235992,7179.997637,-8142.265362,1378.971896
1396.236321,7105.977043,-8660.409521,2451.505594
1396.236650,7328.038826,-9474.636058,2451.505594
1396.236979,6809.894666,-8290.306550,1532.190996
1396.237308,5625.565159,-7031.956449,842.705048
1396.237637,6217.729913,-4441.235652,1149.143247
1396.237966,7254.018232,-3256.906145,612.876398
1396.238295,7698.141797,-3701.029710,0.000000
1396.238624,7179.997637,-4293.194464,459.657299
1396.238953,7994.224174,-4811.338623,995.924147
1396.239282,9252.574275,-4737.318029,1915.238745
1396.239612,7698.141797,-5699.585753,842.705048
1396.239941,6217.729913,-9030.512492,842.705048
1396.240270,6735.874072,-10140.821405,612.876398
1396.240599,6661.853478,-7846.182985,153.219100
1396.240928,6143.709319,-6439.791695,-306.438199
1396.241257,5847.626942,-7328.038826,76.609550
1396.241586,6217.729913,-7328.038826,76.609550
1396.241915,7031.956449,-7698.141797,1072.533697
1396.242244,7031.956449,-7772.162391,2145.067394
1396.242573,7624.121203,-6735.874072,1685.410096
1396.242902,6587.832884,-8956.491898,2145.067394
1396.243231,6587.832884,-8660.409521,2604.724693
1396.243560,7550.100608,-4367.215058,1838.629195
1396.243890,8142.265362,-2960.823768,1378.971896
1396.244219,8068.244768,-3182.885551,689.485948
1396.244548,7772.162391,-5921.647536,1149.143247
1396.244877,7772.162391,-6735.874072,1455.581446
1396.245206,7328.038826,-5403.503377,612.876398
1396.245535,6587.832884,-5773.606348,0.000000
1396.245864,6069.688724,-9326.594869,1149.143247
1396.246193,6587.832884,-10288.862594,1685.410096
1396.246522,7624.121203,-7105.977043,1915.238745
1396.246851,7402.059420,-4737.318029,919.314598
1396.247180,6661.853478,-5773.606348,76.609550
1396.247510,6365.771101,-8142.265362,1072.533697
1396.247839,6513.812290,-7402.059420,1762.019645
1396.248168,6587.832884,-5033.400406,1225.752797
1396.248497,6661.853478,-5403.503377,919.314598
1396.248826,5551.544565,-7698.141797,2068.457845
1396.249156,5403.503377,-9474.636058,3140.991542
1396.249485,6587.832884,-6291.750507,3140.991542
1396.249814,7254.018232,-2960.823768,1685.410096
1396.250143,7402.059420,-3849.070898,1072.533697
1396.250473,7328.038826,-5921.647536,1608.800546
1396.250802,7105.977043,-6069.688724,1532.190996
1396.251131,7105.977043,-4663.297435,383.047749
1396.251460,6513.812290,-4737.318029,-306.438199
1396.251789,6439.791695,-8734.430116,612.876398
1396.252119,7328.038826,-9770.718434,1378.971896
1396.252448,7476.080014,-8364.327145,1915.238745
1396.252777,7624.121203,-5995.668130,1149.143247
1396.253106,7476.080014,-5329.482782,153.219100
1396.253435,6365.771101,-7550.100608,1225.752797
1396.253765,7179.997637,-6809.894666,1532.190996
1396.254094,7624.121203,-5625.565159,766.095498
1396.254423,7105.977043,-6217.729913,842.705048
1396.254752,5921.647536,-8438.347739,1378.971896
1396.255081,6069.688724,-7698.141797,1838.629195
1396.255411,7402.059420,-5033.400406,1608.800546
1396.255740,7994.224174,-3775.050304,842.705048
1396.256069,7994.224174,-4737.318029,919.314598
1396.256398,8068.244768,-7624.121203,1302.362347
1396.256727,7402.059420,-7179.997637,1455.581446
1396.257057,7179.997637,-4589.276840,-306.438199
1396.257386,6513.812290,-6883.915261,-612.876398
1396.257715,6143.709319,-10214.842000,383.047749
1396.258044,6217.729913,-10288.862594,536.266849
1396.258373,7105.977043,-7254.018232,995.924147
1396.258703,7254.018232,-4589.276840,0.000000
1396.259032,6439.791695,-5625.565159,153.219100
1396.259361,6217.729913,-7550.100608,459.657299
1396.259690,6439.791695,-6217.729913,919.314598
1396.260019,6735.874072,-4515.256246,383.047749
1396.260349,6143.709319,-6069.688724,536.266849
1396.260678,6439.791695,-7476.080014,2451.505594
1396.261007,6809.894666,-7476.080014,2451.505594
1396.261336,7402.059420,-5329.482782,1608.800546
1396.261665,7476.080014,-2960.823768,995.924147
1396.261995,8142.265362,-5403.503377,842.705048
1396.262324,8364.327145,-6957.935855,842.705048
1396.262653,7105.977043,-5995.668130,1149.143247
1396.262982,5847.626942,-5995.668130,-612.876398
1396.263311,5403.503377,-7476.080014,-842.705048
1396.263641,5107.421000,-10658.965565,1072.533697
1396.263970,6883.915261,-9548.656652,919.314598
1396.264299,7105.977043,-5551.544565,76.609550
1396.264628,7105.977043,-3849.070898,0.000000
1396.264958,7105.977043,-6439.791695,0.000000
1396.265287,7846.182985,-7328.038826,1302.362347
1396.265616,7920.203579,-6439.791695,1072.533697
1396.265945,8142.265362,-5107.421000,383.047749
1396.266274,7402.059420,-6439.791695,1225.752797
1396.266604,6143.709319,-10288.862594,1915.238745
1396.266933,6587.832884,-7698.141797,2451.505594
1396.267262,7772.162391,-4515.256246,1378.971896
1396.267591,8290.306550,-3330.926739,536.266849
1396.267920,7254.018232,-6143.709319,1149.143247
1396.268250,6661.853478,-7772.162391,1608.800546
1396.268579,6883.915261,-4811.338623,1302.362347
1396.268908,6513.812290,-3923.091493,-383.047749
1396.269237,5995.668130,-6661.853478,459.657299
1396.269566,6735.874072,-9474.636058,1762.019645
1396.269896,8216.285956,-8808.450710,1991.848295
1396.270225,8364.327145,-4515.256246,1378.971896
1396.270554,7328.038826,-4441.235652,459.657299
1396.270883,7031.956449,-6365.771101,536.266849
1396.271212,6143.709319,-8512.368333,766.095498
1396.271542,6439.791695,-6809.894666,2145.067394
1396.271871,6143.709319,-5329.482782,153.219100
1396.272200,5329.482782,-8364.327145,2068.457845
1396.272529,4959.379811,-10436.903782,2987.772442
1396.272858,6587.832884,-7772.162391,2451.505594
1396.273188,7624.121203,-4885.359217,1762.019645
1396.273517,7476.080014,-2516.700203,1072.533697
1396.273846,7031.956449,-5181.441594,612.876398
1396.274175,6587.832884,-6069.688724,1072.533697
1396.274504,6587.832884,-4589.276840,1838.629195
1396.274834,7254.018232,-4219.173869,-383.047749
1396.275163,6587.832884,-6883.915261,612.876398
1396.275492,6587.832884,-11325.150913,2298.286494
1396.275821,8290.306550,-9252.574275,2681.334243
1396.276150,8660.409521,-4811.338623,1378.971896
1396.276480,6957.935855,-4737.318029,76.609550
1396.276809,6143.709319,-7179.997637,459.657299
1396.277138,6439.791695,-8438.347739,842.705048
1396.277467,6587.832884,-6217.729913,1532.190996
1396.277796,6661.853478,-5033.400406,689.485948
1396.278126,6439.791695,-7624.121203,1149.143247
1396.278455,6735.874072,-9548.656652,2221.676944
1396.278784,6809.894666,-7772.162391,2451.505594
1396.279113,8142.265362,-2812.782580,2298.286494
1396.279443,8364.327145,-3478.967927,153.219100
1396.279772,7550.100608,-6439.791695,1072.533697
1396.280101,6809.894666,-6735.874072,1608.800546
1396.280430,7031.956449,-4737.318029,0.000000
1396.280759,6439.791695,-4071.132681,-1302.362347
1396.281089,5329.482782,-8438.347739,153.219100
1396.281418,6957.935855,-10732.986159,1225.752797
1396.281747,7920.203579,-7328.038826,1302.362347
1396.282076,7994.224174,-5625.565159,2145.067394
1396.282405,7920.203579,-5255.462188,1072.533697
1396.282735,7476.080014,-6587.832884,919.314598
1396.283064,6735.874072,-7402.059420,1455.581446
1396.283393,6439.791695,-4071.132681,689.485948
1396.283722,7179.997637,-3404.947333,76.609550
1396.284051,5699.585753,-7031.956449,536.266849
1396.284381,5773.606348,-9696.697840,1915.238745
1396.284710,7698.141797,-7550.100608,2757.943793
1396.285039,8586.388927,-4071.132681,919.314598
1396.285368,7328.038826,-4811.338623,612.876398
1396.285697,7031.956449,-8068.244768,1302.362347
1396.286027,7105.977043,-8364.327145,536.266849
1396.286356,6143.709319,-5847.626942,-689.485948
1396.286685,5255.462188,-5921.647536,-919.314598
1396.287014,5773.606348,-8512.368333,-612.876398
1396.287343,7328.038826,-10214.842000,1302.362347
1396.287673,7920.203579,-7994.224174,2374.896044
1396.288002,8216.285956,-4441.235652,612.876398
1396.288331,7772.162391,-4515.256246,0.000000
1396.288660,6439.791695,-7624.121203,766.095498
1396.288989,7105.977043,-7031.956449,1149.143247
1396.289319,8142.265362,-4515.256246,919.314598
1396.289648,7550.100608,-5551.544565,-536.266849
1396.289977,5995.668130,-7920.203579,919.314598
1396.290306,6291.750507,-10140.821405,1532.190996
1396.290635,7105.977043,-7031.956449,1378.971896
1396.290965,7476.080014,-4145.153275,919.314598
1396.291294,7550.100608,-5329.482782,1455.581446
1396.291623,7105.977043,-8216.285956,1532.190996
1396.291952,6957.935855,-7328.038826,1608.800546
1396.292281,6365.771101,-4737.318029,383.047749
1396.292611,5773.606348,-3775.050304,-383.047749
1396.292940,5625.565159,-6735.874072,229.828649
1396.293269,6217.729913,-8660.409521,689.485948
1396.293598,7846.182985,-6439.791695,1838.629195
1396.293928,8660.409521,-3478.967927,1149.143247
1396.294257,7698.141797,-5033.400406,842.705048
1396.294586,6809.894666,-8364.327145,1838.629195
1396.294915,7179.997637,-8068.244768,2221.676944
1396.295244,7846.182985,-5995.668130,766.095498
1396.295574,5699.585753,-6809.894666,995.924147
1396.295903,5033.400406,-8364.327145,1072.533697
1396.296232,5995.668130,-8882.471304,1302.362347
1396.296561,7550.100608,-6143.709319,2145.067394
1396.296890,8142.265362,-2590.720797,2068.457845
1396.297220,9178.553681,-4441.235652,1762.019645
1396.297549,7994.224174,-7031.956449,2757.943793
1396.297878,7179.997637,-6365.771101,2221.676944
1396.298207,6957.935855,-3923.091493,612.876398
1396.298536,6809.894666,-5107.421000,306.438199
1396.298866,6217.729913,-9178.553681,1762.019645
1396.299195,6365.771101,-9992.780217,1302.362347
1396.299524,6957.935855,-6809.894666,842.705048
1396.299853,7031.956449,-3849.070898,0.000000
1396.300182,7105.977043,-6291.750507,0.000000
1396.300512,6735.874072,-9400.615463,1685.410096
1396.300841,7179.997637,-8290.306550,2451.505594
1396.301170,7179.997637,-5995.668130,1838.629195
1396.301499,6513.812290,-5921.647536,1072.533697
1396.301828,6069.688724,-9030.512492,1991.848295
1396.302158,6735.874072,-7846.182985,2145.067394
1396.302487,7328.038826,-5329.482782,995.924147
1396.302816,7994.224174,-2812.782580,842.705048
1396.303145,7550.100608,-4737.318029,1455.581446
1396.303474,6513.812290,-7698.141797,1685.410096
1396.303804,6439.791695,-6957.935855,1762.019645
1396.304133,6365.771101,-5847.626942,76.609550
1396.304462,6291.750507,-7031.956449,383.047749
1396.304791,6809.894666,-10436.903782,1455.581446
1396.305120,7179.997637,-10288.862594,1991.848295
1396.305450,7402.059420,-5107.421000,919.314598
1396.305779,6735.874072,-2960.823768,-459.657299
1396.306108,6143.709319,-4737.318029,-459.657299
1396.306437,6143.709319,-7105.977043,919.314598
1396.306766,6883.915261,-6809.894666,2451.505594
1396.307096,8364.327145,-4589.276840,1455.581446
1396.307425,7920.203579,-6809.894666,1685.410096
1396.307754,6883.915261,-9844.739029,2298.286494
1396.308083,7254.018232,-9474.636058,1608.800546
1396.308413,7179.997637,-5847.626942,1149.143247
1396.308742,7105.977043,-3108.864956,-612.876398
1396.309071,6513.812290,-5033.400406,-459.657299
1396.309400,6735.874072,-6587.832884,766.095498
1396.309729,6957.935855,-7105.977043,536.266849
1396.310059,7105.977043,-5329.482782,459.657299
1396.310388,6957.935855,-6143.709319,689.485948
1396.310717,7031.956449,-8956.491898,919.314598
1396.311046,8364.327145,-8660.409521,2221.676944
1396.311375,9030.512492,-5329.482782,1685.410096
1396.311705,8364.327145,-2738.761985,0.000000
1396.312034,6661.853478,-4811.338623,-229.828649
1396.312363,6217.729913,-6365.771101,383.047749
1396.312692,7698.141797,-6661.853478,1149.143247
1396.313021,7476.080014,-5551.544565,306.438199
1396.313351,6143.709319,-7994.224174,689.485948
1396.313680,5773.606348,-10584.944971,1532.190996
1396.314009,7254.018232,-9326.594869,1915.238745
1396.314338,7772.162391,-5625.565159,1072.533697
1396.314667,7105.977043,-3923.091493,0.000000
1396.314997,6809.894666,-5107.421000,76.609550
1396.315326,6291.750507,-6439.791695,-536.266849
1396.315655,6143.709319,-6809.894666,689.485948
1396.315984,6883.915261,-4589.276840,306.438199
1396.316313,6587.832884,-7179.997637,0.000000
1396.316643,5847.626942,-10362.883188,1532.190996
1396.316972,7105.977043,-9326.594869,1838.629195
1396.317301,8734.430116,-5551.544565,919.314598
1396.317630,7254.018232,-4145.153275,0.000000
1396.317959,5477.523971,-6513.812290,153.219100
1396.318289,6365.771101,-6513.812290,306.438199
1396.318618,7402.059420,-5329.482782,459.657299
1396.318947,7179.997637,-5403.503377,766.095498
1396.319276,6439.791695,-7476.080014,1149.143247
1396.319605,6587.832884,-9474.636058,1608.800546
1396.319935,7105.977043,-8216.285956,2451.505594
1396.320264,8438.347739,-4811.338623,2145.067394
1396.320593,8364.327145,-3404.947333,919.314598
1396.320922,7624.121203,-6661.853478,919.314598
1396.321251,6365.771101,-6661.853478,995.924147
1396.321581,5847.626942,-4885.359217,0.000000
1396.321910,5773.606348,-4885.359217,-229.828649
1396.322239,5403.503377,-6883.915261,689.485948
1396.322568,6809.894666,-10362.883188,1455.581446
1396.322897,8216.285956,-8290.306550,1608.800546
1396.323227,8068.244768,-4515.256246,1149.143247
1396.323556,7254.018232,-4293.194464,229.828649
1396.323885,6661.853478,-5921.647536,0.000000
1396.324214,6365.771101,-7031.956449,612.876398
1396.324544,7994.224174,-5329.482782,612.876398
1396.324873,8216.285956,-4959.379811,842.705048
1396.325202,7624.121203,-7624.121203,2068.457845
1396.325531,7031.956449,-9400.615463,2221.676944
1396.325860,7624.121203,-7772.162391,2298.286494
1396.326190,8290.306550,-4293.194464,1762.019645
1396.326519,8364.327145,-3997.112087,1532.190996
1396.326848,7031.956449,-7476.080014,1378.971896
1396.327177,6513.812290,-6735.874072,1072.533697
1396.327506,6217.729913,-5107.421000,842.705048
1396.327836,6513.812290,-4515.256246,0.000000
1396.328165,5995.668130,-7698.141797,766.095498
1396.328494,6069.688724,-9918.759623,2145.067394
1396.328823,6809.894666,-7402.059420,2145.067394
1396.329152,7105.977043,-3552.988522,0.000000
1396.329482,6809.894666,-4737.318029,306.438199
1396.329811,7031.956449,-7920.203579,1149.143247
1396.330140,7105.977043,-8438.347739,1149.143247
1396.330469,7031.956449,-6513.812290,1302.362347
1396.330798,6291.750507,-6661.853478,306.438199
1396.331128,5995.668130,-8734.430116,842.705048
1396.331457,6143.709319,-10584.944971,2374.896044
1396.331786,7402.059420,-7698.141797,2145.067394
1396.332115,9252.574275,-3849.070898,1455.581446
1396.332444,7994.224174,-4663.297435,1072.533697
1396.332774,6957.935855,-6143.709319,1072.533697
1396.333103,6365.771101,-7105.977043,1072.533697
1396.333432,6587.832884,-3849.070898,689.485948
1396.333761,5477.523971,-4589.276840,-995.924147
1396.334090,4811.338623,-8290.306550,459.657299
1396.334420,6439.791695,-8734.430116,1225.752797
1396.334749,7476.080014,-7624.121203,1532.190996
1396.335078,7920.203579,-4071.132681,1378.971896
1396.335407,7328.038826,-5625.565159,229.828649
1396.335736,7105.977043,-8734.430116,919.314598
1396.336066,7105.977043,-7698.141797,1685.410096
1396.336395,7402.059420,-6883.915261,1149.143247
1396.336724,7105.977043,-5329.482782,536.266849
1396.337053,6291.750507,-7994.224174,1225.752797
1396.337382,5995.668130,-9696.697840,1378.971896
1396.337712,6809.894666,-5255.462188,1685.410096
1396.338041,7254.018232,-2368.659014,842.705048
1396.338370,7920.203579,-4293.194464,459.657299
1396.338699,7179.997637,-6439.791695,919.314598
1396.339029,7254.018232,-7624.121203,1378.971896
1396.339358,6957.935855,-4589.276840,229.828649
1396.339687,6291.750507,-5107.421000,-919.314598
1396.340016,5995.668130,-9252.574275,76.609550
1396.340345,7031.956449,-9770.718434,1608.800546
1396.340675,8438.347739,-6587.832884,1455.581446
1396.341004,8142.265362,-3552.988522,766.095498
1396.341333,6883.915261,-5329.482782,536.266849
1396.341662,7179.997637,-7994.224174,1302.362347
1396.341991,7179.997637,-7402.059420,2068.457845
1396.342321,7402.059420,-4811.338623,995.924147
1396.342650,7105.977043,-5403.503377,0.000000
1396.342979,5995.668130,-8512.368333,1302.362347
1396.343308,6439.791695,-8586.388927,1455.581446
1396.343637,7254.018232,-5699.585753,1532.190996
1396.343967,7994.224174,-3997.112087,536.266849
1396.344296,7402.059420,-5329.482782,459.657299
1396.344625,6735.874072,-8734.430116,842.705048
1396.344954,6661.853478,-8364.327145,1455.581446
1396.345283,6439.791695,-5847.626942,0.000000
1396.345613,5551.544565,-6661.853478,459.657299
1396.345942,5329.482782,-8808.450710,1149.143247
1396.346271,6513.812290,-9400.615463,1685.410096
1396.346600,8216.285956,-5773.606348,1455.581446
1396.346929,7772.162391,-3108.864956,842.705048
1396.347259,6735.874072,-5551.544565,536.266849
1396.347588,6587.832884,-7105.977043,1762.019645
1396.347917,6957.935855,-6365.771101,1762.019645
1396.348246,7402.059420,-5329.482782,1225.752797
1396.348575,6809.894666,-6291.750507,1838.629195
1396.348905,5625.565159,-9548.656652,2298.286494
1396.349232,6365.771101,-9400.615463,1762.019645
1396.349561,7476.080014,-5625.565159,1685.410096
1396.349890,8216.285956,-2590.720797,766.095498
1396.350219,7476.080014,-5477.523971,1149.143247
1396.350549,6439.791695,-8068.244768,1838.629195
1396.350878,6513.812290,-6957.935855,995.924147
1396.351207,6809.894666,-4663.297435,306.438199
1396.351536,6143.709319,-5921.647536,1072.533697
1396.351866,5551.544565,-9918.759623,1991.848295
1396.352195,6957.935855,-10288.862594,1991.848295
1396.352524,7105.977043,-5625.565159,1149.143247
1396.352853,6661.853478,-3552.988522,0.000000
1396.353182,6513.812290,-6365.771101,536.266849
1396.353512,6587.832884,-7772.162391,1455.581446
1396.353841,7179.997637,-7550.100608,1685.410096
1396.354170,7920.203579,-5551.544565,1532.190996
1396.354499,7105.977043,-6217.729913,612.876398
1396.354828,5477.523971,-8956.491898,2145.067394
1396.355158,6809.894666,-7994.224174,2298.286494
1396.355487,8512.368333,-4737.318029,2068.457845
1396.355816,8438.347739,-3330.926739,1149.143247
1396.356145,7476.080014,-5699.585753,1149.143247
1396.356474,7031.956449,-6957.935855,995.924147
1396.356804,7179.997637,-6587.832884,306.438199
1396.357133,6809.894666,-4737.318029,383.047749
1396.357462,5699.585753,-7105.977043,459.657299
1396.357791,5921.647536,-9474.636058,1608.800546
1396.358120,6809.894666,-9178.553681,1762.019645
1396.358450,7550.100608,-5551.544565,1378.971896
1396.358779,7772.162391,-3923.091493,229.828649
1396.359108,6587.832884,-6513.812290,1149.143247
1396.359437,6735.874072,-8512.368333,1838.629195
1396.359767,7105.977043,-6291.750507,1762.019645
1396.360096,7105.977043,-4885.359217,536.266849
1396.360425,6143.709319,-6069.688724,689.485948
1396.360754,5551.544565,-8216.285956,1685.410096
1396.361083,6883.915261,-7994.224174,1685.410096
1396.361413,7846.182985,-4367.215058,1762.019645
1396.361742,8068.244768,-3849.070898,842.705048
1396.362071,7846.182985,-6809.894666,842.705048
1396.362400,7550.100608,-7994.224174,1455.581446
1396.362729,7105.977043,-7105.977043,995.924147
1396.363059,6217.729913,-5699.585753,76.609550
1396.363388,5329.482782,-7402.059420,153.219100
1396.363717,6069.688724,-8882.471304,689.485948
1396.364046,7105.977043,-7994.224174,1915.238745
1396.364375,7698.141797,-3997.112087,1072.533697
1396.364705,6735.874072,-2590.720797,0.000000
1396.365034,6513.812290,-6883.915261,1302.362347
1396.365363,7105.977043,-7105.977043,1455.581446
1396.365692,7402.059420,-6291.750507,1532.190996
1396.366022,7105.977043,-6291.750507,1302.362347
1396.366351,5921.647536,-7476.080014,306.438199
1396.366680,5625.565159,-10732.986159,842.705048
1396.367009,6439.791695,-8586.388927,1455.581446
1396.367338,7254.018232,-4515.256246,995.924147
1396.367668,8142.265362,-4737.318029,153.219100
1396.367997,7624.121203,-6217.729913,1378.971896
1396.368326,7328.038826,-7698.141797,1378.971896
1396.368655,7698.141797,-5329.482782,1072.533697
1396.368984,7105.977043,-3701.029710,76.609550
1396.369314,6513.812290,-7328.038826,766.095498
1396.369643,7105.977043,-8956.491898,1991.848295
1396.369972,7402.059420,-6217.729913,1532.190996
1396.370301,7105.977043,-3478.967927,-766.095498
1396.370630,5995.668130,-3404.947333,-995.924147
1396.370960,6513.812290,-8068.244768,612.876398
1396.371289,8068.244768,-8068.244768,2374.896044
1396.371618,8364.327145,-6957.935855,2528.115143
1396.371947,7772.162391,-6587.832884,1838.629195
1396.372276,6069.688724,-8438.347739,1302.362347
1396.372606,5329.482782,-9844.739029,1532.190996
1396.372935,6365.771101,-6143.709319,1302.362347
1396.373264,8216.285956,-3034.844362,612.876398
1396.373593,8290.306550,-2960.823768,842.705048
1396.373923,6809.894666,-5551.544565,153.219100
1396.374252,6143.709319,-6587.832884,919.314598
1396.374581,7179.997637,-5107.421000,536.266849
1396.374910,7105.977043,-6883.915261,612.876398
1396.375239,5847.626942,-8660.409521,1455.581446
1396.375569,6143.709319,-10140.821405,1302.362347
1396.375898,7402.059420,-7846.182985,689.485948
1396.376227,7846.182985,-4515.256246,459.657299
1396.376556,6587.832884,-6069.688724,0.000000
1396.376885,6291.750507,-7994.224174,459.657299
1396.377215,6587.832884,-7031.956449,536.266849
1396.377544,7031.956449,-5699.585753,1838.629195
1396.377873,7105.977043,-6069.688724,1378.971896
1396.378202,6587.832884,-8364.327145,2374.896044
1396.378531,6513.812290,-8882.471304,2528.115143
1396.378861,7772.162391,-6143.709319,1455.581446
1396.379190,7994.224174,-1776.494261,995.924147
1396.379519,8216.285956,-3923.091493,842.705048
1396.379848,7624.121203,-7624.121203,1608.800546
1396.380178,7179.997637,-7328.038826,1762.019645
1396.380507,6809.894666,-5921.647536,0.000000
1396.380836,6439.791695,-5181.441594,0.000000
1396.381165,5477.523971,-9474.636058,919.314598
1396.381494,6513.812290,-11399.171507,919.314598
1396.381824,7179.997637,-7031.956449,1762.019645
1396.382153,7624.121203,-4885.359217,459.657299
1396.382482,6735.874072,-5033.400406,76.609550
1396.382811,6291.750507,-7031.956449,1455.581446
1396.383140,7179.997637,-6217.729913,1532.190996
1396.383470,7920.203579,-3997.112087,1302.362347
1396.383799,6809.894666,-5773.606348,1915.238745
1396.384128,5773.606348,-8216.285956,1838.629195
1396.384457,5625.565159,-8068.244768,2145.067394
1396.384786,6957.935855,-5181.441594,1915.238745
1396.385116,8512.368333,-3404.947333,1685.410096
1396.385445,8068.244768,-5107.421000,1072.533697
1396.385774,7402.059420,-7698.141797,2068.457845
1396.386103,7476.080014,-7105.977043,1455.581446
1396.386433,7179.997637,-5181.441594,153.219100
1396.386762,5403.503377,-5847.626942,-689.485948
1396.387091,5551.544565,-9474.636058,536.266849
1396.387420,6883.915261,-9548.656652,1685.410096
1396.387749,7846.182985,-6661.853478,689.485948
1396.388079,7698.141797,-4737.318029,689.485948
1396.388408,7698.141797,-5773.606348,995.924147
1396.388737,7105.977043,-8438.347739,612.876398
1396.389066,6513.812290,-7772.162391,1762.019645
1396.389395,6513.812290,-5921.647536,1455.581446
1396.389725,6661.853478,-6513.812290,306.438199
1396.390054,6217.729913,-7920.203579,1532.190996
