#time,accel_x,accel_y,accel_z
1467.298168,7179.997637,-6883.915261,919.314598
1467.298498,7105.977043,-6365.771101,1149.143247
1467.298829,6957.935855,-6809.894666,995.924147
1467.299159,7105.977043,-6365.771101,766.095498
1467.299490,7105.977043,-6217.729913,1685.410096
1467.299820,7179.997637,-6291.750507,1072.533697
1467.300150,7254.018232,-6365.771101,842.705048
1467.300481,7031.956449,-6735.874072,1378.971896
1467.300811,7031.956449,-6217.729913,919.314598
1467.301141,6735.874072,-6661.853478,1072.533697
1467.301472,6365.771101,-6217.729913,612.876398
1467.301802,6587.832884,-6661.853478,1072.533697
1467.302133,7031.956449,-6883.915261,766.095498
1467.302463,6661.853478,-6809.894666,1532.190996
1467.302793,7105.977043,-6439.791695,612.876398
1467.303124,6809.894666,-7105.977043,1302.362347
1467.303454,6883.915261,-7031.956449,842.705048
1467.303785,6957.935855,-6957.935855,842.705048
1467.304115,6587.832884,-6143.709319,995.924147
1467.304445,6735.874072,-7179.997637,995.924147
1467.304776,7105.977043,-6735.874072,1149.143247
1467.305106,7105.977043,-6291.750507,1149.143247
1467.305436,7031.956449,-6365.771101,459.657299
1467.305767,7105.977043,-6217.729913,766.095498
1467.306097,7402.059420,-6365.771101,1302.362347
1467.306428,7254.018232,-6661.853478,1225.752797
1467.306758,7402.059420,-6143.709319,1225.752797
1467.307088,7550.100608,-5847.626942,536.266849
1467.307419,7105.977043,-6439.791695,1149.143247
1467.307749,6957.935855,-6217.729913,1149.143247
1467.308079,6957.935855,-6735.874072,1149.143247
1467.308410,6661.853478,-5995.668130,1149.143247
1467.308740,6661.853478,-6143.709319,1149.143247
1467.309071,6661.853478,-6291.750507,919.314598
1467.309401,6735.874072,-6513.812290,1149.143247
1467.309731,7105.977043,-6513.812290,1149.143247
1467.310062,6957.935855,-6587.832884,459.657299
1467.310392,6809.894666,-6587.832884,1072.533697
1467.310723,6957.935855,-6513.812290,1302.362347
1467.311053,7105.977043,-6957.935855,1072.533697
1467.311383,6957.935855,-6809.894666,842.705048
1467.311714,6809.894666,-6661.853478,689.485948
1467.312044,7031.956449,-6957.935855,842.705048
1467.312374,7105.977043,-6513.812290,1149.143247
1467.312705,7031.956449,-6587.832884,995.924147
1467.313035,7105.977043,-6661.853478,766.095498
1467.313366,7105.977043,-6291.750507,919.314598
1467.313696,7105.977043,-6809.894666,459.657299
1467.314026,7105.977043,-6217.729913,995.924147
1467.314357,7179.997637,-6143.709319,1072.533697
1467.314687,7105.977043,-6217.729913,1608.800546
1467.315017,7031.956449,-6365.771101,1072.533697
1467.315348,7105.977043,-6513.812290,766.095498
1467.315678,7179.997637,-6291.750507,995.924147
1467.316009,7328.038826,-6809.894666,1072.533697
1467.316339,6587.832884,-6513.812290,995.924147
1467.316669,6587.832884,-6809.894666,1072.533697
1467.317000,6735.874072,-6661.853478,1302.362347
1467.317330,6661.853478,-6809.894666,919.314598
1467.317661,6587.832884,-6735.874072,1378.971896
1467.317991,6661.853478,-7031.956449,1302.362347
1467.318321,6883.915261,-6513.812290,1072.533697
1467.318652,6439.791695,-6809.894666,919.314598
1467.318982,6587.832884,-7031.956449,1378.971896
1467.319312,7105.977043,-6439.791695,995.924147
1467.319643,7179.997637,-6587.832884,1532.190996
1467.319973,7105.977043,-6217.729913,995.924147
1467.320304,7105.977043,-6439.791695,766.095498
1467.320634,7254.018232,-6143.709319,612.876398
1467.320964,7179.997637,-6883.915261,919.314598
1467.321295,7179.997637,-6291.750507,1072.533697
1467.321625,7031.956449,-6365.771101,1225.752797
1467.321956,7179.997637,-6291.750507,1072.533697
1467.322286,7031.956449,-6217.729913,1838.629195
1467.322616,6883.915261,-6513.812290,1225.752797
1467.322947,6957.935855,-6069.688724,306.438199
1467.323277,7105.977043,-5921.647536,689.485948
1467.323607,7328.038826,-6439.791695,842.705048
1467.323938,7105.977043,-6217.729913,766.095498
1467.324268,7031.956449,-7031.956449,1302.362347
1467.324599,7105.977043,-6809.894666,1225.752797
1467.324929,6809.894666,-6661.853478,995.924147
1467.325259,6513.812290,-6661.853478,1532.190996
1467.325590,6883.915261,-7179.997637,1072.533697
1467.325920,6957.935855,-6661.853478,766.095498
1467.326250,6587.832884,-6513.812290,842.705048
1467.326581,6809.894666,-6883.915261,919.314598
1467.326911,7105.977043,-6735.874072,1072.533697
1467.327242,7031.956449,-6143.709319,1302.362347
1467.327572,7105.977043,-6587.832884,842.705048
1467.327902,7179.997637,-6217.729913,1225.752797
1467.328233,7328.038826,-6291.750507,1225.752797
1467.328563,7031.956449,-6809.894666,919.314598
1467.328894,7105.977043,-6217.729913,995.924147
1467.329224,7105.977043,-6513.812290,919.314598
1467.329554,7105.977043,-6587.832884,766.095498
1467.329885,7105.977043,-6513.812290,1225.752797
1467.330215,6883.915261,-6365.771101,1149.143247
1467.330545,7105.977043,-6217.729913,1149.143247
1467.330876,6883.915261,-6365.771101,1149.143247
1467.331206,6587.832884,-6439.791695,1072.533697
1467.331537,6735.874072,-6587.832884,919.314598
1467.331867,6809.894666,-6735.874072,1149.143247
1467.332197,6735.874072,-6661.853478,766.095498
1467.332528,6513.812290,-7031.956449,919.314598
1467.332858,7031.956449,-6957.935855,995.924147
1467.333188,6957.935855,-7105.977043,1149.143247
1467.333519,6735.874072,-6735.874072,612.876398
1467.333849,6513.812290,-6883.915261,536.266849
1467.334180,7476.080014,-7105.977043,995.924147
1467.334510,7328.038826,-6439.791695,1149.143247
1467.334840,7105.977043,-6587.832884,995.924147
1467.335171,7328.038826,-6587.832884,1149.143247
1467.335501,7254.018232,-6291.750507,1072.533697
1467.335832,7105.977043,-6069.688724,1685.410096
1467.336162,6957.935855,-6217.729913,1072.533697
1467.336492,7254.018232,-6069.688724,1149.143247
1467.336823,7476.080014,-6291.750507,1149.143247
1467.337153,7550.100608,-6587.832884,1225.752797
1467.337483,6735.874072,-6069.688724,919.314598
1467.337814,7031.956449,-6439.791695,766.095498
1467.338144,6809.894666,-6365.771101,842.705048
1467.338475,6513.812290,-6291.750507,1072.533697
1467.338805,6957.935855,-6735.874072,766.095498
1467.339135,7105.977043,-6217.729913,1455.581446
1467.339466,6809.894666,-6439.791695,995.924147
1467.339796,6809.894666,-6735.874072,1149.143247
1467.340126,7031.956449,-6513.812290,1225.752797
1467.340457,7254.018232,-6883.915261,459.657299
1467.340787,6735.874072,-7105.977043,689.485948
1467.341118,6735.874072,-6661.853478,1072.533697
1467.341448,7031.956449,-7031.956449,1072.533697
1467.341778,6957.935855,-6217.729913,1302.362347
1467.342109,7105.977043,-6439.791695,842.705048
1467.342439,7254.018232,-6365.771101,306.438199
1467.342770,7402.059420,-6513.812290,1149.143247
1467.343100,6957.935855,-6587.832884,1149.143247
1467.343430,6883.915261,-5477.523971,1608.800546
1467.343761,7105.977043,-5995.668130,1072.533697
1467.344091,7105.977043,-6513.812290,689.485948
1467.344421,6957.935855,-6217.729913,995.924147
1467.344752,6957.935855,-6735.874072,1149.143247
1467.345082,7105.977043,-6661.853478,842.705048
1467.345413,7031.956449,-6661.853478,919.314598
1467.345743,6809.894666,-6513.812290,1302.362347
1467.346073,6587.832884,-6513.812290,919.314598
1467.346404,6513.812290,-6217.729913,1608.800546
1467.346734,6735.874072,-6661.853478,1378.971896
1467.347064,6513.812290,-6883.915261,842.705048
1467.347395,6735.874072,-6661.853478,1225.752797
1467.347725,6809.894666,-6809.894666,1455.581446
1467.348056,7105.977043,-7031.956449,1149.143247
1467.348386,6513.812290,-6513.812290,919.314598
1467.348716,6587.832884,-7105.977043,919.314598
1467.349047,7031.956449,-6587.832884,995.924147
1467.349377,7254.018232,-6217.729913,1149.143247
1467.349708,7476.080014,-6957.935855,919.314598
1467.350038,7328.038826,-6513.812290,1149.143247
1467.350368,7105.977043,-6809.894666,1149.143247
1467.350699,7105.977043,-6661.853478,842.705048
1467.351029,7402.059420,-6143.709319,1608.800546
1467.351359,7179.997637,-6217.729913,1072.533697
1467.351690,7179.997637,-5995.668130,766.095498
1467.352020,7031.956449,-6291.750507,1072.533697
1467.352351,7254.018232,-6513.812290,766.095498
1467.352681,6661.853478,-6365.771101,1302.362347
1467.353011,6957.935855,-6069.688724,689.485948
1467.353342,6809.894666,-6513.812290,689.485948
1467.353672,6957.935855,-7031.956449,995.924147
1467.354002,7031.956449,-6661.853478,1225.752797
1467.354333,6809.894666,-6883.915261,1072.533697
1467.354663,6957.935855,-6661.853478,1302.362347
1467.354994,6957.935855,-6439.791695,1378.971896
1467.355324,6957.935855,-6883.915261,766.095498
1467.355654,6883.915261,-6587.832884,383.047749
1467.355985,6661.853478,-6661.853478,995.924147
1467.356315,7031.956449,-6883.915261,536.266849
1467.356646,7254.018232,-6513.812290,1225.752797
1467.356976,7105.977043,-6217.729913,1302.362347
1467.357306,7328.038826,-6883.915261,1225.752797
1467.357637,7254.018232,-6587.832884,1455.581446
1467.357967,7105.977043,-6587.832884,766.095498
1467.358297,7105.977043,-6365.771101,919.314598
1467.358628,7550.100608,-5995.668130,1072.533697
1467.358958,7105.977043,-6217.729913,995.924147
1467.359289,6883.915261,-6291.750507,1302.362347
1467.359619,6513.812290,-6217.729913,1072.533697
1467.359949,6809.894666,-6439.791695,919.314598
1467.360280,6661.853478,-6217.729913,1225.752797
1467.360610,6513.812290,-6291.750507,766.095498
1467.360941,6587.832884,-6587.832884,766.095498
1467.361271,6883.915261,-6957.935855,1302.362347
1467.361601,6883.915261,-6957.935855,1532.190996
1467.361932,6883.915261,-7105.977043,766.095498
1467.362262,6661.853478,-7031.956449,1302.362347
1467.362592,6587.832884,-6883.915261,995.924147
1467.362923,6809.894666,-7550.100608,842.705048
1467.363253,6661.853478,-6587.832884,1455.581446
1467.363584,7031.956449,-7031.956449,766.095498
1467.363914,7105.977043,-6291.750507,842.705048
1467.364239,6883.915261,-6291.750507,1225.752797
1467.364569,7402.059420,-6661.853478,1455.581446
1467.364898,7328.038826,-6365.771101,919.314598
1467.365228,7031.956449,-6809.894666,919.314598
1467.365557,6809.894666,-6735.874072,842.705048
1467.365887,7105.977043,-6291.750507,1302.362347
1467.366216,7105.977043,-6513.812290,1455.581446
1467.366546,7254.018232,-6439.791695,1149.143247
1467.366875,7031.956449,-6661.853478,1225.752797
1467.367205,7179.997637,-6587.832884,995.924147
1467.367534,7105.977043,-6143.709319,842.705048
1467.367864,6735.874072,-5847.626942,766.095498
1467.368193,6809.894666,-6587.832884,995.924147
1467.368523,6957.935855,-6513.812290,1149.143247
1467.368852,7031.956449,-6513.812290,1149.143247
1467.369182,7031.956449,-6661.853478,919.314598
1467.369511,6957.935855,-6661.853478,919.314598
1467.369841,7031.956449,-7624.121203,1072.533697
1467.370170,6883.915261,-7254.018232,766.095498
1467.370500,6883.915261,-6661.853478,1072.533697
1467.370829,7179.997637,-7031.956449,766.095498
1467.371159,7402.059420,-6883.915261,1149.143247
1467.371488,7254.018232,-6365.771101,1225.752797
1467.371818,7328.038826,-6587.832884,459.657299
1467.372147,7105.977043,-6069.688724,1149.143247
1467.372477,7105.977043,-6661.853478,1225.752797
1467.372806,7105.977043,-6513.812290,1072.533697
1467.373136,7105.977043,-6069.688724,919.314598
1467.373465,7105.977043,-6217.729913,766.095498
1467.373795,6883.915261,-6513.812290,1455.581446
1467.374124,6809.894666,-6513.812290,1378.971896
1467.374454,7105.977043,-6587.832884,995.924147
1467.374784,6957.935855,-6661.853478,1225.752797
1467.375113,6661.853478,-6291.750507,1608.800546
1467.375443,7031.956449,-6587.832884,459.657299
1467.375772,6809.894666,-7105.977043,1302.362347
1467.376102,6587.832884,-6661.853478,1532.190996
1467.376431,6735.874072,-6661.853478,995.924147
1467.376761,6735.874072,-6143.709319,995.924147
1467.377090,6587.832884,-6439.791695,1225.752797
1467.377420,6809.894666,-6957.935855,919.314598
1467.377749,6513.812290,-6661.853478,1225.752797
1467.378079,6587.832884,-6809.894666,1149.143247
1467.378408,6883.915261,-6661.853478,995.924147
1467.378738,7179.997637,-6587.832884,1225.752797
1467.379067,7031.956449,-6587.832884,1149.143247
1467.379397,7179.997637,-6883.915261,1149.143247
1467.379726,7179.997637,-6365.771101,919.314598
1467.380056,7031.956449,-6439.791695,1072.533697
1467.380385,7105.977043,-6217.729913,919.314598
1467.380715,7179.997637,-6143.709319,995.924147
1467.381044,7105.977043,-6513.812290,919.314598
1467.381374,7105.977043,-6365.771101,612.876398
1467.381703,7328.038826,-6291.750507,919.314598
1467.382033,7105.977043,-6217.729913,919.314598
1467.382362,7105.977043,-6587.832884,995.924147
1467.382692,6735.874072,-6513.812290,842.705048
1467.383021,6809.894666,-6587.832884,995.924147
1467.383351,6957.935855,-6957.935855,1225.752797
1467.383680,6957.935855,-6661.853478,919.314598
1467.384010,7031.956449,-6587.832884,919.314598
1467.384339,7179.997637,-7031.956449,1302.362347
1467.384669,7105.977043,-6809.894666,995.924147
1467.384998,6809.894666,-6735.874072,689.485948
1467.385328,6735.874072,-6661.853478,1225.752797
1467.385657,7105.977043,-6513.812290,842.705048
1467.385987,7476.080014,-6587.832884,1455.581446
1467.386317,7031.956449,-6587.832884,1072.533697
1467.386646,7179.997637,-6439.791695,995.924147
1467.386976,7476.080014,-6587.832884,919.314598
1467.387305,7328.038826,-6513.812290,766.095498
1467.387635,6883.915261,-6439.791695,1072.533697
1467.387964,7105.977043,-6069.688724,1072.533697
1467.388294,7179.997637,-6809.894666,919.314598
1467.388623,6957.935855,-6143.709319,919.314598
1467.388953,6957.935855,-6587.832884,1225.752797
1467.389282,7105.977043,-6143.709319,1225.752797
1467.389612,7031.956449,-5995.668130,842.705048
1467.389941,6365.771101,-6143.709319,1072.533697
1467.390271,6513.812290,-6587.832884,1072.533697
1467.390600,7254.018232,-6735.874072,1225.752797
1467.390930,6809.894666,-6661.853478,1378.971896
1467.391259,6661.853478,-6809.894666,1302.362347
1467.391589,6883.915261,-6661.853478,1225.752797
1467.391918,7105.977043,-6883.915261,1149.143247
1467.392248,6735.874072,-7476.080014,689.485948
1467.392577,6587.832884,-6883.915261,1072.533697
1467.392907,6587.832884,-6883.915261,612.876398
1467.393236,7105.977043,-6661.853478,995.924147
1467.393566,7105.977043,-6365.771101,1225.752797
1467.393895,6957.935855,-6439.791695,842.705048
1467.394225,7179.997637,-6513.812290,1302.362347
1467.394554,7105.977043,-6661.853478,919.314598
1467.394884,7328.038826,-6661.853478,1225.752797
1467.395213,6883.915261,-5995.668130,1149.143247
1467.395543,7402.059420,-6365.771101,1225.752797
1467.395872,7105.977043,-6883.915261,1225.752797
1467.396202,7031.956449,-6439.791695,1149.143247
1467.396531,7031.956449,-6143.709319,766.095498
1467.396861,6809.894666,-6587.832884,919.314598
1467.397191,6957.935855,-6291.750507,1072.533697
1467.397520,6809.894666,-6587.832884,842.705048
1467.397850,7179.997637,-7105.977043,1302.362347
1467.398179,7105.977043,-6439.791695,1532.190996
1467.398509,6735.874072,-6513.812290,1149.143247
1467.398838,6957.935855,-7105.977043,1149.143247
1467.399168,6957.935855,-6661.853478,1072.533697
1467.399497,7179.997637,-6735.874072,919.314598
1467.399827,6957.935855,-6513.812290,689.485948
1467.400156,6883.915261,-6957.935855,919.314598
1467.400486,7179.997637,-7031.956449,919.314598
1467.400815,7105.977043,-6661.853478,1455.581446
1467.401145,7031.956449,-6513.812290,766.095498
1467.401474,7476.080014,-6513.812290,1072.533697
1467.401804,7254.018232,-6439.791695,1455.581446
1467.402133,7031.956449,-6587.832884,766.095498
1467.402463,7402.059420,-5773.606348,842.705048
1467.402792,7254.018232,-6069.688724,995.924147
1467.403122,7402.059420,-6217.729913,995.924147
1467.403451,7105.977043,-6069.688724,842.705048
1467.403781,7031.956449,-6513.812290,1302.362347
1467.404110,7031.956449,-6217.729913,1225.752797
1467.404440,6883.915261,-6661.853478,1225.752797
1467.404769,6809.894666,-6439.791695,919.314598
1467.405099,6957.935855,-6957.935855,1149.143247
1467.405428,7105.977043,-7254.018232,842.705048
1467.405758,6883.915261,-6291.750507,1225.752797
1467.406087,6587.832884,-6661.853478,919.314598
1467.406417,6883.915261,-6587.832884,1302.362347
1467.406746,6587.832884,-7031.956449,766.095498
1467.407076,6735.874072,-6365.771101,536.266849
1467.407405,6365.771101,-6587.832884,995.924147
1467.407735,6957.935855,-6883.915261,1149.143247
1467.408064,7179.997637,-6587.832884,1225.752797
1467.408394,6957.935855,-6069.688724,1378.971896
1467.408724,7254.018232,-7105.977043,1072.533697
1467.409053,7402.059420,-6513.812290,1072.533697
1467.409383,7031.956449,-7031.956449,919.314598
1467.409712,6809.894666,-6513.812290,1072.533697
1467.410042,7179.997637,-5995.668130,2298.286494
1467.410371,7105.977043,-6661.853478,919.314598
1467.410701,6957.935855,-6365.771101,1149.143247
1467.411030,7031.956449,-6439.791695,1072.533697
1467.411360,6883.915261,-6587.832884,612.876398
1467.411689,7105.977043,-6217.729913,1302.362347
1467.412019,6957.935855,-6217.729913,995.924147
1467.412348,7179.997637,-6809.894666,1302.362347
1467.412678,6957.935855,-6735.874072,1225.752797
1467.413007,7031.956449,-6735.874072,1378.971896
1467.413337,7105.977043,-6735.874072,995.924147
1467.413666,6735.874072,-6809.894666,1149.143247
1467.413996,7105.977043,-6957.935855,919.314598
1467.414325,6957.935855,-6809.894666,689.485948
1467.414655,6957.935855,-5033.400406,919.314598
1467.414984,7772.162391,-6143.709319,919.314598
1467.415314,8660.409521,-5625.565159,1149.143247
1467.415643,8734.430116,-5403.503377,1762.019645
1467.415973,7920.203579,-6291.750507,536.266849
1467.416302,6957.935855,-6217.729913,536.266849
1467.416632,6069.688724,-7179.997637,76.609550
1467.416961,6439.791695,-6809.894666,459.657299
1467.417291,7550.100608,-6587.832884,995.924147
1467.417620,8734.430116,-6143.709319,1302.362347
1467.417950,8364.327145,-5477.523971,1762.019645
1467.418279,8882.471304,-3997.112087,1532.190996
1467.418609,8438.347739,-4071.132681,1455.581446
1467.418938,7920.203579,-4737.318029,1072.533697
1467.419268,8438.347739,-3849.070898,842.705048
1467.419597,8438.347739,-4737.318029,1149.143247
1467.419927,8734.430116,-4811.338623,842.705048
1467.420257,8142.265362,-5255.462188,766.095498
1467.420586,8586.388927,-5255.462188,1072.533697
1467.420916,8364.327145,-5403.503377,536.266849
1467.421245,8142.265362,-6439.791695,1225.752797
1467.421575,7476.080014,-6735.874072,842.705048
1467.421904,7328.038826,-6291.750507,0.000000
1467.422234,7402.059420,-6439.791695,1149.143247
1467.422563,7476.080014,-5477.523971,536.266849
1467.422893,8290.306550,-4737.318029,766.095498
1467.423222,8956.491898,-4589.276840,1608.800546
1467.423552,9400.615463,-4515.256246,1455.581446
1467.423881,9474.636058,-2960.823768,1378.971896
1467.424211,9326.594869,-3478.967927,1302.362347
1467.424540,9548.656652,-3182.885551,1302.362347
1467.424870,10140.821405,-2590.720797,1302.362347
1467.425199,10510.924376,-3849.070898,1838.629195
1467.425529,10066.800811,-3552.988522,1762.019645
1467.425858,9844.739029,-4145.153275,1072.533697
1467.426188,9326.594869,-4589.276840,1455.581446
1467.426517,8808.450710,-5255.462188,995.924147
1467.426847,8290.306550,-6513.812290,995.924147
1467.427176,7476.080014,-5033.400406,536.266849
1467.427506,7179.997637,-6069.688724,1149.143247
1467.427835,7550.100608,-4737.318029,689.485948
1467.428165,7994.224174,-4145.153275,842.705048
1467.428494,8290.306550,-4737.318029,1915.238745
1467.428824,9104.533087,-4219.173869,995.924147
1467.429153,8586.388927,-4737.318029,842.705048
1467.429483,8216.285956,-4145.153275,459.657299
1467.429812,9030.512492,-4589.276840,459.657299
1467.430142,10066.800811,-3997.112087,306.438199
1467.430471,10140.821405,-4071.132681,919.314598
1467.430801,10436.903782,-4737.318029,689.485948
1467.431131,9474.636058,-4219.173869,1455.581446
1467.431460,9252.574275,-4515.256246,-306.438199
1467.431790,8660.409521,-4367.215058,612.876398
1467.432119,8734.430116,-4737.318029,919.314598
1467.432449,8734.430116,-4737.318029,1302.362347
1467.432778,8956.491898,-3923.091493,1608.800546
1467.433108,8808.450710,-3923.091493,1838.629195
1467.433437,8808.450710,-4145.153275,1762.019645
1467.433767,9030.512492,-4071.132681,2145.067394
1467.434096,9030.512492,-3552.988522,1608.800546
1467.434426,9178.553681,-2812.782580,1532.190996
1467.434755,9474.636058,-3997.112087,919.314598
1467.435085,9400.615463,-3404.947333,1378.971896
1467.435414,8882.471304,-4515.256246,0.000000
1467.435744,9104.533087,-4737.318029,612.876398
1467.436073,8734.430116,-5181.441594,76.609550
1467.436403,8660.409521,-6513.812290,76.609550
1467.436732,8216.285956,-6217.729913,536.266849
1467.437062,8290.306550,-7105.977043,612.876398
1467.437391,8808.450710,-6735.874072,612.876398
1467.437721,8734.430116,-5107.421000,1685.410096
1467.438050,8808.450710,-5329.482782,1685.410096
1467.438380,8734.430116,-4737.318029,2374.896044
1467.438709,9178.553681,-3849.070898,2451.505594
1467.439039,9918.759623,-2294.638420,1991.848295
1467.439368,10066.800811,-1258.350101,1685.410096
1467.439698,10066.800811,-1184.329507,536.266849
1467.440027,10288.862594,-1332.370696,229.828649
1467.440357,10362.883188,-2368.659014,-229.828649
1467.440686,10807.006753,-2368.659014,0.000000
1467.441016,10288.862594,-4367.215058,536.266849
1467.441345,9326.594869,-5921.647536,689.485948
1467.441675,8142.265362,-7105.977043,689.485948
1467.442004,7105.977043,-7846.182985,1149.143247
1467.442334,6587.832884,-8512.368333,1072.533697
1467.442664,6513.812290,-8808.450710,766.095498
1467.442993,6143.709319,-7402.059420,153.219100
1467.443323,6365.771101,-6069.688724,383.047749
1467.443652,7624.121203,-4737.318029,842.705048
1467.443982,8512.368333,-3478.967927,1608.800546
1467.444311,9178.553681,-2590.720797,1685.410096
1467.444641,10288.862594,-740.205942,1225.752797
1467.444970,11103.089130,148.041188,689.485948
1467.445300,11473.192101,-222.061783,919.314598
1467.445629,12435.459826,-666.185348,1149.143247
1467.445959,13323.706956,-1480.411884,1685.410096
1467.446288,13101.645173,-962.267725,1225.752797
1467.446618,11547.212695,-3404.947333,1762.019645
1467.446947,9844.739029,-6143.709319,1838.629195
1467.447277,8364.327145,-8142.265362,1455.581446
1467.447606,5699.585753,-8734.430116,766.095498
1467.447936,3034.844362,-8882.471304,-229.828649
1467.448265,2886.803174,-8660.409521,-1378.971896
1467.448595,4515.256246,-7550.100608,-842.705048
1467.448924,6883.915261,-6809.894666,76.609550
1467.449254,9400.615463,-5403.503377,1915.238745
1467.449583,10955.047942,-3404.947333,2528.115143
1467.449913,11103.089130,-1924.535449,1838.629195
1467.450242,10362.883188,-1554.432478,1762.019645
1467.450572,10658.965565,-370.102971,995.924147
1467.450901,11251.130318,-1110.308913,536.266849
1467.451231,11473.192101,-1258.350101,1455.581446
1467.451560,12879.583391,-2516.700203,2757.943793
1467.451890,13397.727550,-3256.906145,2911.162892
1467.452219,11843.295072,-3182.885551,2528.115143
1467.452549,8808.450710,-4885.359217,1532.190996
1467.452878,6587.832884,-7031.956449,383.047749
1467.453208,4589.276840,-7179.997637,-383.047749
1467.453537,3552.988522,-7476.080014,-1378.971896
1467.453867,4367.215058,-8512.368333,-842.705048
1467.454197,7031.956449,-6365.771101,459.657299
1467.454526,9622.677246,-4737.318029,0.000000
1467.454856,11251.130318,-3478.967927,1455.581446
1467.455185,11547.212695,-1850.514855,1685.410096
1467.455515,12213.398043,-1850.514855,1838.629195
1467.455844,10140.821405,-2516.700203,1685.410096
1467.456174,10140.821405,-2368.659014,1455.581446
1467.456503,9770.718434,-3627.009116,612.876398
1467.456833,9030.512492,-5329.482782,1072.533697
1467.457162,8586.388927,-7179.997637,2068.457845
1467.457492,8068.244768,-8142.265362,2374.896044
1467.457821,7698.141797,-7698.141797,2374.896044
1467.458151,5995.668130,-5181.441594,306.438199
1467.458480,6217.729913,-2812.782580,0.000000
1467.458810,7402.059420,-3034.844362,-229.828649
1467.459139,9104.533087,-3775.050304,383.047749
1467.459469,9770.718434,-3701.029710,1762.019645
1467.459798,10436.903782,-1036.288319,612.876398
1467.460128,11473.192101,-1998.556043,689.485948
1467.460457,10955.047942,-2886.803174,1072.533697
1467.460787,11103.089130,-4441.235652,1532.190996
1467.461116,11029.068536,-5625.565159,1838.629195
1467.461446,9326.594869,-4663.297435,995.924147
1467.461775,7994.224174,-4885.359217,76.609550
1467.462105,7920.203579,-5551.544565,0.000000
1467.462434,7994.224174,-6365.771101,995.924147
1467.462764,7624.121203,-9252.574275,2145.067394
1467.463093,7105.977043,-8068.244768,2145.067394
1467.463423,6809.894666,-4367.215058,0.000000
1467.463752,5625.565159,-4219.173869,-1378.971896
1467.464082,6439.791695,-5403.503377,153.219100
1467.464411,8216.285956,-6143.709319,1378.971896
1467.464741,9918.759623,-2812.782580,1225.752797
1467.465070,10214.842000,-1480.411884,1532.190996
1467.465400,11399.171507,296.082377,1532.190996
1467.465730,11621.233289,-1702.473667,689.485948
1467.466059,10881.027347,-3478.967927,1838.629195
1467.466388,10214.842000,-3997.112087,1302.362347
1467.466718,10288.862594,-4515.256246,1225.752797
1467.467047,10214.842000,-3849.070898,1991.848295
1467.467377,10066.800811,-4737.318029,1915.238745
1467.467706,9696.697840,-5699.585753,1915.238745
1467.468035,8142.265362,-5329.482782,689.485948
1467.468365,7402.059420,-5403.503377,689.485948
1467.468694,8290.306550,-3627.009116,689.485948
1467.469024,8364.327145,-5403.503377,306.438199
1467.469353,6883.915261,-5255.462188,0.000000
1467.469682,6365.771101,-4663.297435,-536.266849
1467.470012,6809.894666,-6217.729913,-612.876398
1467.470341,8660.409521,-6735.874072,1378.971896
1467.470671,9474.636058,-3849.070898,2068.457845
1467.471000,10362.883188,-3552.988522,1225.752797
1467.471330,10362.883188,-4441.235652,1762.019645
1467.471659,9770.718434,-5477.523971,1991.848295
1467.471988,8808.450710,-6661.853478,1991.848295
1467.472318,7772.162391,-4515.256246,1378.971896
1467.472647,8586.388927,-1554.432478,306.438199
1467.472977,9104.533087,-3923.091493,1302.362347
1467.473306,9474.636058,-4367.215058,2298.286494
1467.473635,10140.821405,-1924.535449,2374.896044
1467.473965,11103.089130,-1406.391290,995.924147
1467.474294,11325.150913,-2146.597232,1608.800546
1467.474624,9030.512492,-3552.988522,1608.800546
1467.474953,7846.182985,-4737.318029,153.219100
1467.475282,7476.080014,-4663.297435,0.000000
1467.475612,8586.388927,-4885.359217,153.219100
1467.475941,10584.944971,-4811.338623,1149.143247
1467.476271,11399.171507,-6217.729913,2528.115143
1467.476600,10066.800811,-5921.647536,1915.238745
1467.476929,7624.121203,-5329.482782,689.485948
1467.477259,5995.668130,-5329.482782,-536.266849
1467.477588,6069.688724,-4959.379811,-689.485948
1467.477918,7105.977043,-5995.668130,383.047749
1467.478247,8364.327145,-4737.318029,842.705048
1467.478576,9252.574275,-5847.626942,1302.362347
1467.478906,9178.553681,-5033.400406,2221.676944
1467.479235,9104.533087,-5625.565159,1378.971896
1467.479565,8068.244768,-6661.853478,1378.971896
1467.479894,7031.956449,-5773.606348,1072.533697
1467.480223,7328.038826,-6291.750507,689.485948
1467.480553,8216.285956,-6217.729913,1225.752797
1467.480882,7846.182985,-5255.462188,1225.752797
1467.481212,8512.368333,-4959.379811,536.266849
1467.481541,8808.450710,-3775.050304,153.219100
1467.481870,8068.244768,-3775.050304,153.219100
1467.482200,8216.285956,-5477.523971,1378.971896
1467.482529,8882.471304,-5033.400406,1378.971896
1467.482859,9104.533087,-3997.112087,0.000000
1467.483188,8142.265362,-4293.194464,0.000000
1467.483517,8438.347739,-5255.462188,459.657299
1467.483847,7846.182985,-7328.038826,76.609550
1467.484176,7105.977043,-6883.915261,1838.629195
1467.484506,7772.162391,-7179.997637,842.705048
1467.484835,7624.121203,-6513.812290,766.095498
1467.485165,7179.997637,-7550.100608,995.924147
1467.485494,6365.771101,-8438.347739,1378.971896
1467.485823,6217.729913,-7698.141797,612.876398
1467.486153,3775.050304,-8068.244768,-842.705048
1467.486482,3552.988522,-7105.977043,0.000000
1467.486812,5699.585753,-7254.018232,153.219100
1467.487141,7402.059420,-6957.935855,536.266849
1467.487470,7402.059420,-7105.977043,1685.410096
1467.487800,8290.306550,-6217.729913,3217.601092
1467.488129,9696.697840,-3775.050304,2068.457845
1467.488459,8290.306550,-4441.235652,2681.334243
1467.488788,7624.121203,-3552.988522,2068.457845
1467.489117,7402.059420,-3775.050304,1838.629195
1467.489447,8290.306550,-4663.297435,1915.238745
1467.489776,7772.162391,-5625.565159,1991.848295
1467.490106,7846.182985,-4811.338623,2145.067394
1467.490435,6365.771101,-5625.565159,76.609550
1467.490764,5107.421000,-7105.977043,919.314598
1467.491094,6365.771101,-6439.791695,229.828649
1467.491423,8882.471304,-5625.565159,766.095498
1467.491753,8512.368333,-7105.977043,1302.362347
1467.492082,7476.080014,-6143.709319,1762.019645
1467.492411,7920.203579,-7328.038826,766.095498
1467.492741,7624.121203,-6069.688724,919.314598
1467.493070,7328.038826,-6365.771101,1302.362347
1467.493400,7476.080014,-7105.977043,1685.410096
1467.493729,7476.080014,-6809.894666,1991.848295
1467.494058,5995.668130,-8734.430116,995.924147
1467.494388,4663.297435,-7994.224174,536.266849
1467.494717,4145.153275,-8438.347739,536.266849
1467.495047,4071.132681,-9104.533087,0.000000
1467.495376,5181.441594,-7624.121203,766.095498
1467.495705,7254.018232,-7624.121203,1149.143247
1467.496035,8438.347739,-6365.771101,919.314598
1467.496364,7328.038826,-7846.182985,1838.629195
1467.496694,6365.771101,-6291.750507,229.828649
1467.497023,5033.400406,-5921.647536,-1225.752797
1467.497352,5921.647536,-7031.956449,229.828649
1467.497682,7846.182985,-5773.606348,1455.581446
1467.498011,9474.636058,-7105.977043,2451.505594
1467.498341,8882.471304,-6069.688724,2298.286494
1467.498670,7402.059420,-6883.915261,2604.724693
1467.499000,7179.997637,-5773.606348,995.924147
1467.499329,6587.832884,-5773.606348,1532.190996
1467.499658,6365.771101,-5329.482782,1838.629195
1467.499988,6809.894666,-5773.606348,536.266849
1467.500317,6291.750507,-4737.318029,76.609550
1467.500647,5847.626942,-6513.812290,1378.971896
1467.500976,7328.038826,-6587.832884,1378.971896
1467.501305,6957.935855,-6291.750507,153.219100
1467.501635,5921.647536,-7920.203579,1455.581446
1467.501964,7328.038826,-7846.182985,2145.067394
1467.502294,9252.574275,-5329.482782,1302.362347
1467.502623,8364.327145,-5329.482782,1302.362347
1467.502952,7698.141797,-5847.626942,1915.238745
1467.503282,7994.224174,-5329.482782,842.705048
1467.503611,7550.100608,-6809.894666,1608.800546
1467.503941,7179.997637,-6143.709319,2145.067394
1467.504270,7402.059420,-6069.688724,0.000000
1467.504599,6883.915261,-7179.997637,536.266849
1467.504929,5625.565159,-8068.244768,766.095498
1467.505258,5181.441594,-7772.162391,0.000000
1467.505588,3701.029710,-7476.080014,-995.924147
1467.505917,4885.359217,-8290.306550,306.438199
1467.506246,6883.915261,-7846.182985,612.876398
1467.506576,7920.203579,-7254.018232,919.314598
1467.506905,8290.306550,-6291.750507,2451.505594
1467.507235,8660.409521,-6883.915261,1455.581446
1467.507564,7476.080014,-5255.462188,689.485948
1467.507893,5847.626942,-5847.626942,689.485948
1467.508223,7105.977043,-6439.791695,995.924147
1467.508552,8956.491898,-4885.359217,306.438199
1467.508882,7624.121203,-7624.121203,1532.190996
1467.509211,7105.977043,-6291.750507,2374.896044
1467.509540,7105.977043,-5699.585753,612.876398
1467.509870,5625.565159,-7402.059420,0.000000
1467.510199,4663.297435,-7846.182985,612.876398
1467.510529,5699.585753,-7920.203579,383.047749
1467.510858,6809.894666,-7328.038826,153.219100
1467.511187,6143.709319,-6217.729913,1149.143247
1467.511517,7105.977043,-5551.544565,1302.362347
1467.511846,8068.244768,-4811.338623,153.219100
1467.512176,8068.244768,-5699.585753,1532.190996
1467.512505,8882.471304,-4515.256246,1838.629195
1467.512835,8734.430116,-4589.276840,689.485948
1467.513164,7920.203579,-5995.668130,766.095498
1467.513493,7031.956449,-6143.709319,1838.629195
1467.513823,7254.018232,-6513.812290,536.266849
1467.514152,6809.894666,-6735.874072,1455.581446
1467.514482,7105.977043,-6883.915261,2145.067394
1467.514811,8068.244768,-6513.812290,1302.362347
1467.515140,7550.100608,-6217.729913,1149.143247
1467.515470,6809.894666,-7994.224174,1991.848295
1467.515799,6513.812290,-6735.874072,536.266849
1467.516129,6291.750507,-4885.359217,0.000000
1467.516458,5625.565159,-6439.791695,536.266849
1467.516787,7624.121203,-5477.523971,1685.410096
1467.517117,8438.347739,-6143.709319,766.095498
1467.517446,7031.956449,-7402.059420,1838.629195
1467.517776,6143.709319,-7550.100608,1302.362347
1467.518105,5773.606348,-7254.018232,-383.047749
1467.518434,4811.338623,-8216.285956,229.828649
1467.518764,5847.626942,-9030.512492,995.924147
1467.519093,7994.224174,-8142.265362,2374.896044
1467.519423,8512.368333,-6957.935855,1685.410096
1467.519752,7994.224174,-6513.812290,1991.848295
1467.520081,7328.038826,-5551.544565,1072.533697
1467.520411,5921.647536,-6439.791695,0.000000
1467.520740,5329.482782,-6513.812290,383.047749
1467.521070,6513.812290,-5477.523971,459.657299
1467.521399,7105.977043,-5699.585753,1149.143247
1467.521728,6735.874072,-6069.688724,1072.533697
1467.522058,6513.812290,-6735.874072,2068.457845
1467.522387,6735.874072,-6587.832884,459.657299
1467.522717,6217.729913,-7476.080014,1225.752797
1467.523046,6513.812290,-7402.059420,1685.410096
1467.523375,7402.059420,-8068.244768,1685.410096
1467.523705,8512.368333,-7105.977043,2451.505594
1467.524034,7476.080014,-6883.915261,2528.115143
1467.524364,7254.018232,-6439.791695,1378.971896
1467.524693,7105.977043,-5329.482782,1225.752797
1467.525022,6735.874072,-4515.256246,1455.581446
1467.525352,7698.141797,-4737.318029,842.705048
1467.525681,7772.162391,-3775.050304,612.876398
1467.526011,6883.915261,-4811.338623,919.314598
1467.526340,6365.771101,-6661.853478,383.047749
1467.526670,5551.544565,-6735.874072,153.219100
1467.526999,5477.523971,-8734.430116,842.705048
1467.527328,6513.812290,-8660.409521,842.705048
1467.527658,7105.977043,-7772.162391,1149.143247
1467.527987,7105.977043,-10214.842000,1685.410096
1467.528317,7994.224174,-6439.791695,1991.848295
1467.528646,7624.121203,-6809.894666,919.314598
1467.528975,5921.647536,-6365.771101,689.485948
1467.529305,6957.935855,-4219.173869,2145.067394
1467.529634,9770.718434,-4885.359217,1762.019645
1467.529964,8142.265362,-3330.926739,995.924147
1467.530293,5551.544565,-5107.421000,1149.143247
1467.530622,6143.709319,-6439.791695,919.314598
1467.530952,5921.647536,-5699.585753,-612.876398
1467.531281,4737.318029,-9030.512492,919.314598
1467.531611,5699.585753,-8808.450710,1838.629195
1467.531940,8290.306550,-7254.018232,153.219100
1467.532269,7772.162391,-7476.080014,1532.190996
1467.532599,6513.812290,-8142.265362,1608.800546
1467.532928,7328.038826,-7328.038826,383.047749
1467.533258,6587.832884,-6069.688724,229.828649
1467.533587,5995.668130,-6217.729913,1838.629195
1467.533916,8068.244768,-5033.400406,1532.190996
1467.534246,9326.594869,-4145.153275,1991.848295
1467.534575,7920.203579,-5773.606348,2068.457845
1467.534905,7402.059420,-4441.235652,919.314598
1467.535234,6291.750507,-4885.359217,-306.438199
1467.535563,5551.544565,-6365.771101,0.000000
1467.535893,6587.832884,-8290.306550,995.924147
1467.536222,7772.162391,-7254.018232,919.314598
1467.536552,7624.121203,-8364.327145,1608.800546
1467.536881,7254.018232,-7328.038826,1378.971896
1467.537210,6513.812290,-6291.750507,306.438199
1467.537540,5403.503377,-7772.162391,229.828649
1467.537869,6587.832884,-6587.832884,1378.971896
1467.538199,8290.306550,-5107.421000,1149.143247
1467.538528,8364.327145,-5181.441594,1302.362347
1467.538857,8512.368333,-4811.338623,1685.410096
1467.539187,7920.203579,-7031.956449,1455.581446
1467.539516,6143.709319,-6883.915261,459.657299
1467.539846,4515.256246,-7179.997637,536.266849
1467.540175,5995.668130,-7624.121203,0.000000
1467.540505,7105.977043,-7846.182985,229.828649
1467.540834,6365.771101,-7846.182985,1072.533697
1467.541163,6883.915261,-7698.141797,766.095498
1467.541493,6513.812290,-7550.100608,459.657299
1467.541822,5107.421000,-7031.956449,229.828649
1467.542152,5773.606348,-5773.606348,842.705048
1467.542481,8290.306550,-4959.379811,536.266849
1467.542810,9622.677246,-4811.338623,2068.457845
1467.543140,9400.615463,-5329.482782,2604.724693
1467.543469,8438.347739,-3849.070898,1838.629195
1467.543799,7328.038826,-4293.194464,842.705048
1467.544128,7179.997637,-5329.482782,1608.800546
1467.544457,7254.018232,-6809.894666,1685.410096
1467.544787,7105.977043,-7179.997637,842.705048
1467.545116,5699.585753,-7920.203579,1225.752797
1467.545446,5255.462188,-6587.832884,229.828649
1467.545775,5329.482782,-6809.894666,-459.657299
1467.546104,5477.523971,-6661.853478,536.266849
1467.546434,7624.121203,-6439.791695,1762.019645
1467.546763,8512.368333,-5403.503377,689.485948
1467.547093,7846.182985,-4441.235652,1072.533697
1467.547422,7550.100608,-5551.544565,1302.362347
1467.547751,7920.203579,-5995.668130,1685.410096
1467.548081,7105.977043,-5699.585753,766.095498
1467.548410,6587.832884,-7624.121203,1302.362347
1467.548740,7550.100608,-8142.265362,1455.581446
1467.549069,7698.141797,-8808.450710,1149.143247
1467.549398,6957.935855,-8808.450710,1608.800546
1467.549728,5847.626942,-7920.203579,842.705048
1467.550057,5403.503377,-6661.853478,-1225.752797
1467.550387,4441.235652,-7550.100608,-536.266849
1467.550716,5107.421000,-7772.162391,612.876398
1467.551045,7402.059420,-6957.935855,229.828649
1467.551375,7698.141797,-5995.668130,383.047749
1467.551704,7105.977043,-5255.462188,1149.143247
1467.552034,7772.162391,-6291.750507,1762.019645
1467.552363,8438.347739,-5995.668130,1532.190996
1467.552692,7402.059420,-6587.832884,2221.676944
1467.553022,7550.100608,-6809.894666,1378.971896
1467.553351,7328.038826,-6291.750507,1225.752797
1467.553681,7550.100608,-7105.977043,1302.362347
1467.554010,7328.038826,-7698.141797,1915.238745
1467.554339,6809.894666,-6365.771101,459.657299
1467.554669,5551.544565,-6735.874072,612.876398
1467.554998,6291.750507,-5995.668130,1149.143247
1467.555328,7402.059420,-5551.544565,995.924147
1467.555657,7031.956449,-4589.276840,766.095498
1467.555987,6069.688724,-5181.441594,1455.581446
1467.556316,7624.121203,-6217.729913,1532.190996
1467.556645,7846.182985,-5107.421000,1149.143247
1467.556975,7550.100608,-5107.421000,1378.971896
1467.557304,8586.388927,-5921.647536,1225.752797
1467.557634,7994.224174,-6587.832884,766.095498
1467.557963,6883.915261,-9104.533087,2374.896044
1467.558292,6883.915261,-8216.285956,1378.971896
1467.558622,6513.812290,-7179.997637,536.266849
1467.558951,5033.400406,-6587.832884,536.266849
1467.559281,5255.462188,-6809.894666,229.828649
1467.559610,6513.812290,-6587.832884,-306.438199
1467.559939,6809.894666,-6291.750507,1455.581446
1467.560269,7105.977043,-7698.141797,2068.457845
1467.560598,7328.038826,-5995.668130,1149.143247
1467.560928,5181.441594,-6291.750507,0.000000
1467.561257,5625.565159,-8068.244768,689.485948
1467.561586,7402.059420,-8512.368333,1302.362347
1467.561916,7698.141797,-7105.977043,1225.752797
1467.562245,7402.059420,-7772.162391,1838.629195
1467.562575,7179.997637,-6513.812290,1149.143247
1467.562904,7179.997637,-5847.626942,306.438199
1467.563233,6217.729913,-7105.977043,919.314598
1467.563563,7254.018232,-5921.647536,1149.143247
1467.563892,8216.285956,-5329.482782,612.876398
1467.564222,7994.224174,-5847.626942,1685.410096
1467.564551,7328.038826,-5551.544565,1149.143247
1467.564880,6883.915261,-6365.771101,1072.533697
1467.565210,5773.606348,-6809.894666,689.485948
1467.565539,6217.729913,-7920.203579,1072.533697
1467.565868,7179.997637,-6587.832884,1225.752797
1467.566197,7105.977043,-5699.585753,1378.971896
1467.566526,7179.997637,-6587.832884,2145.067394
1467.566855,7624.121203,-5995.668130,1225.752797
1467.567184,7105.977043,-6809.894666,1302.362347
1467.567513,6143.709319,-4737.318029,1378.971896
1467.567842,7698.141797,-3997.112087,1225.752797
1467.568171,9030.512492,-5477.523971,2068.457845
1467.568500,8290.306550,-5921.647536,1685.410096
1467.568829,5995.668130,-6365.771101,689.485948
1467.569159,5181.441594,-6661.853478,612.876398
1467.569488,4737.318029,-6957.935855,0.000000
1467.569817,5551.544565,-7846.182985,612.876398
1467.570146,6513.812290,-8882.471304,1455.581446
1467.570475,7105.977043,-7772.162391,1685.410096
1467.570804,7624.121203,-7624.121203,2221.676944
1467.571133,7105.977043,-7476.080014,766.095498
1467.571462,6661.853478,-7031.956449,536.266849
1467.571791,6513.812290,-5921.647536,842.705048
1467.572120,7328.038826,-6069.688724,1302.362347
1467.572449,7624.121203,-5625.565159,536.266849
1467.572778,7254.018232,-5921.647536,1378.971896
1467.573108,7328.038826,-6809.894666,766.095498
1467.573437,6661.853478,-7328.038826,1072.533697
1467.573766,4663.297435,-6735.874072,919.314598
1467.574095,4737.318029,-8364.327145,0.000000
1467.574424,5107.421000,-9918.759623,1378.971896
1467.574753,6291.750507,-8438.347739,1149.143247
1467.575082,7328.038826,-6957.935855,1455.581446
1467.575411,7179.997637,-7105.977043,2145.067394
1467.575740,6439.791695,-6735.874072,536.266849
1467.576069,6587.832884,-5329.482782,459.657299
1467.576398,7846.182985,-4959.379811,1762.019645
1467.576727,8586.388927,-5107.421000,766.095498
1467.577057,8068.244768,-4589.276840,2221.676944
1467.577386,7846.182985,-4367.215058,1685.410096
1467.577715,8142.265362,-4219.173869,612.876398
1467.578044,7105.977043,-4515.256246,1685.410096
1467.578373,7846.182985,-6365.771101,1302.362347
1467.578702,7994.224174,-6365.771101,1072.533697
1467.579031,6809.894666,-6735.874072,1072.533697
1467.579360,5921.647536,-6957.935855,689.485948
1467.579689,5847.626942,-8216.285956,459.657299
1467.580018,5995.668130,-7402.059420,459.657299
1467.580347,6439.791695,-7476.080014,1608.800546
1467.580676,7624.121203,-6883.915261,1149.143247
1467.581006,8068.244768,-5847.626942,766.095498
1467.581335,7031.956449,-5107.421000,1915.238745
1467.581664,7031.956449,-5921.647536,919.314598
1467.581993,6735.874072,-5699.585753,306.438199
1467.582322,6069.688724,-6291.750507,919.314598
1467.582651,7550.100608,-7624.121203,2528.115143
1467.582980,8068.244768,-6957.935855,1532.190996
1467.583309,7031.956449,-7476.080014,1685.410096
1467.583638,5995.668130,-7846.182985,1072.533697
1467.583967,5403.503377,-7698.141797,612.876398
1467.584296,5329.482782,-8216.285956,0.000000
1467.584625,5181.441594,-8068.244768,995.924147
1467.584955,7105.977043,-6513.812290,229.828649
1467.585284,7698.141797,-6439.791695,612.876398
1467.585613,7254.018232,-6661.853478,2145.067394
1467.585942,7105.977043,-6143.709319,1225.752797
1467.586271,6513.812290,-5995.668130,459.657299
1467.586600,5699.585753,-5107.421000,383.047749
1467.586929,6809.894666,-5625.565159,995.924147
1467.587258,8216.285956,-5773.606348,1225.752797
1467.587587,8364.327145,-5551.544565,1991.848295
1467.587916,7254.018232,-6069.688724,1455.581446
1467.588245,7550.100608,-5699.585753,1149.143247
1467.588574,6883.915261,-6069.688724,842.705048
1467.588904,6365.771101,-6365.771101,1608.800546
1467.589233,7254.018232,-6069.688724,919.314598
1467.589562,7402.059420,-6513.812290,842.705048
1467.589891,6587.832884,-7550.100608,1302.362347
1467.590220,6957.935855,-5995.668130,689.485948
1467.590549,6217.729913,-6587.832884,0.000000
1467.590878,5625.565159,-6809.894666,919.314598
1467.591207,6365.771101,-7031.956449,536.266849
1467.591536,7105.977043,-6883.915261,689.485948
1467.591865,7328.038826,-6143.709319,1302.362347
1467.592194,7105.977043,-6661.853478,2068.457845
1467.592523,6957.935855,-6661.853478,766.095498
1467.592853,6439.791695,-6809.894666,1149.143247
1467.593182,7402.059420,-5847.626942,842.705048
1467.593511,8734.430116,-7105.977043,995.924147
1467.593840,8142.265362,-7254.018232,1685.410096
1467.594169,7328.038826,-7105.977043,1378.971896
1467.594498,7105.977043,-5699.585753,0.000000
1467.594827,5403.503377,-6661.853478,76.609550
1467.595156,5921.647536,-7550.100608,1225.752797
1467.595485,7328.038826,-7698.141797,1302.362347
1467.595814,6439.791695,-6365.771101,306.438199
1467.596143,5033.400406,-6661.853478,919.314598
1467.596472,5033.400406,-7920.203579,1455.581446
1467.596802,5625.565159,-6513.812290,0.000000
1467.597131,4885.359217,-6735.874072,536.266849
1467.597460,7550.100608,-6587.832884,2528.115143
1467.597789,10584.944971,-4811.338623,1455.581446
1467.598118,9400.615463,-5921.647536,2068.457845
1467.598447,7920.203579,-4885.359217,2221.676944
1467.598776,8290.306550,-5773.606348,689.485948
1467.599105,6957.935855,-6587.832884,459.657299
1467.599434,5773.606348,-6217.729913,612.876398
1467.599763,7698.141797,-7031.956449,1378.971896
1467.600092,8512.368333,-5995.668130,1378.971896
1467.600421,7105.977043,-7105.977043,1532.190996
1467.600751,5625.565159,-6587.832884,842.705048
1467.601080,5625.565159,-5329.482782,-383.047749
1467.601409,5181.441594,-6661.853478,-536.266849
1467.601738,5699.585753,-6513.812290,1149.143247
1467.602067,7402.059420,-6809.894666,1149.143247
1467.602396,8586.388927,-7105.977043,995.924147
1467.602725,7698.141797,-7402.059420,2374.896044
1467.603054,7698.141797,-6883.915261,1225.752797
1467.603383,7402.059420,-6587.832884,536.266849
1467.603712,7328.038826,-7476.080014,1685.410096
1467.604041,8586.388927,-7254.018232,1991.848295
1467.604370,8660.409521,-7105.977043,1838.629195
1467.604700,7328.038826,-6735.874072,1685.410096
1467.605029,5773.606348,-5995.668130,306.438199
1467.605358,4663.297435,-6735.874072,0.000000
1467.605687,4219.173869,-6735.874072,0.000000
1467.606016,6069.688724,-6735.874072,536.266849
1467.606345,7254.018232,-7105.977043,995.924147
1467.606674,6957.935855,-6439.791695,1915.238745
1467.607003,6291.750507,-5699.585753,1149.143247
1467.607332,6587.832884,-5403.503377,306.438199
1467.607661,6513.812290,-5995.668130,383.047749
1467.607990,7328.038826,-7031.956449,1225.752797
1467.608319,9178.553681,-7179.997637,2298.286494
1467.608649,9474.636058,-6069.688724,1838.629195
1467.608978,8512.368333,-5329.482782,2298.286494
1467.609307,8216.285956,-5625.565159,1608.800546
1467.609636,6957.935855,-5181.441594,919.314598
1467.609965,6587.832884,-5255.462188,919.314598
1467.610294,6957.935855,-4737.318029,1225.752797
1467.610623,7105.977043,-5107.421000,536.266849
1467.610952,6661.853478,-6883.915261,1072.533697
1467.611281,5995.668130,-7179.997637,1378.971896
1467.611610,5255.462188,-8660.409521,0.000000
1467.611939,4515.256246,-8364.327145,383.047749
1467.612268,5255.462188,-8882.471304,1072.533697
1467.612598,6735.874072,-9400.615463,1072.533697
1467.612927,7179.997637,-8142.265362,1302.362347
1467.613256,6661.853478,-7624.121203,1378.971896
1467.613585,6661.853478,-8068.244768,1608.800546
1467.613914,6883.915261,-6883.915261,229.828649
1467.614243,6883.915261,-5773.606348,842.705048
1467.614572,7402.059420,-4885.359217,995.924147
1467.614901,8882.471304,-5625.565159,1991.848295
1467.615230,8438.347739,-5773.606348,1455.581446
1467.615559,6735.874072,-5921.647536,766.095498
1467.615888,5625.565159,-6883.915261,459.657299
1467.616217,4367.215058,-7402.059420,0.000000
1467.616547,3775.050304,-8586.388927,0.000000
1467.616876,5477.523971,-8290.306550,1532.190996
1467.617205,8290.306550,-6587.832884,1685.410096
1467.617534,9178.553681,-6143.709319,2221.676944
1467.617863,8512.368333,-5921.647536,3600.648841
1467.618192,8068.244768,-4811.338623,1225.752797
1467.618521,7476.080014,-4145.153275,919.314598
1467.618850,7254.018232,-4515.256246,2374.896044
1467.619179,8216.285956,-5107.421000,1302.362347
1467.619508,8438.347739,-5847.626942,2298.286494
1467.619837,6661.853478,-5625.565159,1302.362347
1467.620166,5403.503377,-6439.791695,229.828649
1467.620495,5551.544565,-5477.523971,0.000000
1467.620825,5995.668130,-7994.224174,842.705048
1467.621154,6661.853478,-7624.121203,919.314598
1467.621483,6809.894666,-7328.038826,1149.143247
1467.621812,7031.956449,-7105.977043,1455.581446
1467.622141,6735.874072,-7402.059420,612.876398
1467.622470,6513.812290,-6957.935855,612.876398
1467.622799,6439.791695,-6291.750507,383.047749
1467.623128,7846.182985,-5847.626942,689.485948
1467.623457,8808.450710,-6217.729913,1225.752797
1467.623786,7846.182985,-6513.812290,1685.410096
1467.624115,7105.977043,-7328.038826,1455.581446
1467.624444,5625.565159,-7328.038826,-612.876398
1467.624774,4367.215058,-7476.080014,-383.047749
1467.625103,5551.544565,-7476.080014,1532.190996
1467.625432,7994.224174,-8068.244768,919.314598
1467.625761,7179.997637,-7772.162391,1532.190996
1467.626090,7254.018232,-6587.832884,1685.410096
1467.626419,7846.182985,-6069.688724,842.705048
1467.626748,6883.915261,-5847.626942,229.828649
1467.627077,6217.729913,-5921.647536,1302.362347
1467.627406,8142.265362,-5773.606348,995.924147
1467.627735,8586.388927,-5033.400406,919.314598
1467.628064,8142.265362,-4959.379811,2374.896044
1467.628393,8882.471304,-5699.585753,2221.676944
1467.628723,8364.327145,-5773.606348,306.438199
1467.629052,5699.585753,-7254.018232,306.438199
1467.629381,5625.565159,-8216.285956,1378.971896
1467.629710,7550.100608,-6587.832884,536.266849
1467.630039,6735.874072,-7698.141797,766.095498
1467.630368,5773.606348,-7402.059420,842.705048
1467.630697,6365.771101,-6957.935855,0.000000
1467.631026,7031.956449,-4811.338623,229.828649
1467.631355,7624.121203,-5107.421000,2068.457845
1467.631684,9474.636058,-4663.297435,2298.286494
1467.632013,9326.594869,-3849.070898,1149.143247
1467.632342,7179.997637,-5107.421000,1378.971896
1467.632672,6883.915261,-6291.750507,1149.143247
1467.633001,7254.018232,-6587.832884,842.705048
1467.633330,5995.668130,-7179.997637,536.266849
1467.633659,5625.565159,-8734.430116,1072.533697
1467.633988,7698.141797,-8734.430116,689.485948
1467.634317,7624.121203,-8142.265362,1072.533697
1467.634646,6587.832884,-8216.285956,1762.019645
1467.634975,6365.771101,-7328.038826,995.924147
1467.635304,5329.482782,-5847.626942,-383.047749
1467.635633,5107.421000,-5477.523971,76.609550
1467.635962,6809.894666,-5847.626942,919.314598
1467.636291,7994.224174,-5255.462188,1072.533697
1467.636621,8364.327145,-4959.379811,1455.581446
1467.636950,8142.265362,-5477.523971,1838.629195
1467.637279,7179.997637,-5995.668130,766.095498
1467.637608,6439.791695,-6587.832884,842.705048
1467.637937,6809.894666,-8216.285956,1149.143247
1467.638266,7105.977043,-7698.141797,459.657299
1467.638595,7179.997637,-7920.203579,383.047749
1467.638924,7254.018232,-7328.038826,2374.896044
1467.639253,7920.203579,-6217.729913,689.485948
1467.639582,6365.771101,-7179.997637,1072.533697
1467.639911,5699.585753,-5847.626942,536.266849
1467.640240,6661.853478,-5625.565159,0.000000
1467.640570,7105.977043,-4663.297435,689.485948
1467.640899,7105.977043,-4885.359217,2068.457845
1467.641228,7402.059420,-5329.482782,1225.752797
1467.641557,7105.977043,-5329.482782,919.314598
1467.641886,6069.688724,-6365.771101,1072.533697
1467.642215,7105.977043,-8438.347739,1838.629195
1467.642544,8142.265362,-8142.265362,1455.581446
1467.642873,7031.956449,-8586.388927,1685.410096
1467.643202,6143.709319,-8364.327145,1838.629195
1467.643531,6513.812290,-6809.894666,459.657299
1467.643860,6291.750507,-6365.771101,536.266849
1467.644189,7105.977043,-6365.771101,1149.143247
1467.644519,8068.244768,-4589.276840,842.705048
1467.644848,8068.244768,-4663.297435,1455.581446
1467.645177,7105.977043,-5625.565159,1762.019645
1467.645506,6809.894666,-5625.565159,842.705048
1467.645835,5181.441594,-5995.668130,76.609550
1467.646164,5995.668130,-6513.812290,1149.143247
1467.646493,7328.038826,-8142.265362,995.924147
1467.646822,7698.141797,-8364.327145,1915.238745
1467.647151,6809.894666,-8290.306550,1838.629195
1467.647480,7105.977043,-8068.244768,1072.533697
1467.647809,6735.874072,-7031.956449,306.438199
1467.648138,6217.729913,-6587.832884,1072.533697
1467.648468,7772.162391,-6587.832884,1838.629195
1467.648797,8512.368333,-4071.132681,1072.533697
1467.649126,6883.915261,-4663.297435,919.314598
1467.649455,7402.059420,-4737.318029,919.314598
1467.649784,7105.977043,-5033.400406,1225.752797
1467.650113,6143.709319,-5995.668130,459.657299
1467.650442,5403.503377,-6587.832884,612.876398
1467.650771,7031.956449,-6217.729913,689.485948
1467.651100,7772.162391,-7402.059420,229.828649
1467.651429,7624.121203,-8216.285956,1762.019645
1467.651758,7624.121203,-7772.162391,1149.143247
1467.652087,7031.956449,-7105.977043,-383.047749
1467.652417,6143.709319,-7846.182985,1072.533697
1467.652746,7550.100608,-6661.853478,842.705048
1467.653075,8364.327145,-6291.750507,1302.362347
1467.653404,7772.162391,-6957.935855,1838.629195
1467.653733,7254.018232,-5847.626942,766.095498
1467.654062,6809.894666,-5773.606348,766.095498
1467.654391,5773.606348,-4959.379811,459.657299
1467.654720,5181.441594,-7920.203579,689.485948
1467.655049,6365.771101,-7179.997637,919.314598
1467.655378,7476.080014,-7105.977043,2068.457845
1467.655707,7402.059420,-7994.224174,1455.581446
1467.656036,6957.935855,-7254.018232,1685.410096
1467.656366,6143.709319,-7328.038826,459.657299
1467.656695,6439.791695,-8216.285956,0.000000
1467.657024,7031.956449,-6587.832884,1378.971896
1467.657353,8364.327145,-5921.647536,1149.143247
1467.657682,9104.533087,-6143.709319,1608.800546
1467.658011,8216.285956,-5255.462188,2298.286494
1467.658340,6809.894666,-5921.647536,229.828649
1467.658669,5255.462188,-5921.647536,76.609550
1467.658998,4737.318029,-6513.812290,306.438199
1467.659327,6439.791695,-6883.915261,0.000000
1467.659656,6809.894666,-7920.203579,1378.971896
1467.659985,7031.956449,-6809.894666,1762.019645
1467.660315,7254.018232,-5847.626942,842.705048
1467.660644,7105.977043,-5699.585753,0.000000
1467.660973,7254.018232,-5551.544565,766.095498
1467.661302,7920.203579,-4737.318029,1072.533697
1467.661631,8512.368333,-5699.585753,995.924147
1467.661960,8512.368333,-5995.668130,2374.896044
1467.662289,8512.368333,-6513.812290,2145.067394
1467.662618,7920.203579,-6291.750507,1685.410096
1467.662947,6291.750507,-6587.832884,842.705048
1467.663276,4811.338623,-6957.935855,995.924147
1467.663605,6735.874072,-6661.853478,766.095498
1467.663934,7031.956449,-7920.203579,995.924147
1467.664264,6143.709319,-7698.141797,1378.971896
1467.664593,5033.400406,-8586.388927,459.657299
1467.664922,3775.050304,-9474.636058,-612.876398
1467.665251,3849.070898,-6957.935855,-306.438199
1467.665580,6291.750507,-7105.977043,612.876398
1467.665909,9400.615463,-5921.647536,1302.362347
1467.666238,8734.430116,-5181.441594,1838.629195
1467.666567,8438.347739,-7179.997637,1838.629195
1467.666896,8438.347739,-5921.647536,1225.752797
1467.667225,6809.894666,-5847.626942,842.705048
1467.667554,6661.853478,-7105.977043,919.314598
1467.667883,7476.080014,-8142.265362,1838.629195
1467.668213,7328.038826,-7846.182985,1532.190996
1467.668542,6809.894666,-7624.121203,2068.457845
1467.668871,6809.894666,-6513.812290,2374.896044
1467.669200,5773.606348,-5921.647536,-229.828649
1467.669529,4663.297435,-6143.709319,306.438199
1467.669858,5699.585753,-5477.523971,766.095498
1467.670187,7550.100608,-5477.523971,919.314598
1467.670516,7772.162391,-5551.544565,1072.533697
1467.670845,8068.244768,-5033.400406,2681.334243
1467.671174,8512.368333,-5329.482782,612.876398
1467.671503,6587.832884,-5625.565159,612.876398
1467.671833,6143.709319,-7254.018232,1685.410096
1467.672162,7550.100608,-6809.894666,1455.581446
1467.672491,8142.265362,-6587.832884,0.000000
1467.672820,6513.812290,-6661.853478,2145.067394
1467.673149,6957.935855,-7550.100608,1378.971896
1467.673478,6513.812290,-6809.894666,-536.266849
1467.673807,4959.379811,-6587.832884,1225.752797
1467.674136,5921.647536,-6069.688724,306.438199
1467.674465,8364.327145,-4589.276840,919.314598
1467.674794,7476.080014,-5329.482782,1072.533697
1467.675124,7328.038826,-7031.956449,2374.896044
1467.675453,7179.997637,-5699.585753,536.266849
1467.675782,5699.585753,-5921.647536,153.219100
1467.676111,7031.956449,-7254.018232,1608.800546
1467.676440,8512.368333,-6291.750507,1225.752797
1467.676769,8586.388927,-7402.059420,1225.752797
1467.677098,7105.977043,-8512.368333,2221.676944
1467.677427,7031.956449,-8586.388927,1532.190996
1467.677756,5921.647536,-7105.977043,76.609550
1467.678085,4219.173869,-7772.162391,1225.752797
1467.678414,5995.668130,-6883.915261,76.609550
1467.678744,6957.935855,-6957.935855,229.828649
1467.679073,7179.997637,-6291.750507,1302.362347
1467.679402,7328.038826,-7031.956449,1915.238745
1467.679731,8290.306550,-5033.400406,612.876398
1467.680060,6291.750507,-5625.565159,536.266849
1467.680389,6291.750507,-6217.729913,536.266849
1467.680718,7328.038826,-6809.894666,153.219100
1467.681047,7254.018232,-7328.038826,766.095498
1467.681376,7698.141797,-6587.832884,1532.190996
1467.681705,7402.059420,-7328.038826,842.705048
1467.682034,7105.977043,-7031.956449,0.000000
1467.682364,6365.771101,-7105.977043,919.314598
1467.682693,7994.224174,-6365.771101,919.314598
1467.683022,7476.080014,-5033.400406,689.485948
1467.683351,6587.832884,-5551.544565,1225.752797
1467.683680,6957.935855,-5995.668130,1455.581446
1467.684009,7328.038826,-4811.338623,-383.047749
1467.684338,5921.647536,-6069.688724,536.266849
1467.684667,6809.894666,-6069.688724,1915.238745
1467.684996,9030.512492,-6587.832884,1225.752797
1467.685325,7846.182985,-6291.750507,1455.581446
1467.685654,6587.832884,-4737.318029,1991.848295
1467.685984,7920.203579,-5921.647536,766.095498
1467.686313,7105.977043,-6587.832884,306.438199
1467.686642,6069.688724,-7179.997637,1532.190996
1467.686971,8142.265362,-5477.523971,0.000000
1467.687300,8290.306550,-7254.018232,1225.752797
1467.687629,6735.874072,-7254.018232,2068.457845
1467.687958,6439.791695,-6365.771101,1378.971896
1467.688287,6217.729913,-5921.647536,-153.219100
1467.688616,5255.462188,-6291.750507,0.000000
1467.688945,6809.894666,-7105.977043,1685.410096
1467.689274,8808.450710,-5995.668130,689.485948
1467.689604,7920.203579,-6439.791695,1149.143247
1467.689933,6809.894666,-6883.915261,1149.143247
1467.690262,7328.038826,-6587.832884,76.609550
1467.690591,6291.750507,-7624.121203,-383.047749
1467.690920,6143.709319,-7846.182985,1225.752797
1467.691249,7105.977043,-7328.038826,1072.533697
1467.691578,6957.935855,-7031.956449,76.609550
1467.691907,5107.421000,-7254.018232,612.876398
1467.692236,5921.647536,-8660.409521,995.924147
1467.692565,6439.791695,-7550.100608,0.000000
1467.692894,5255.462188,-6069.688724,919.314598
1467.693224,6217.729913,-6439.791695,1455.581446
1467.693553,8068.244768,-6513.812290,1149.143247
1467.693882,7105.977043,-6069.688724,1532.190996
1467.694211,6661.853478,-6883.915261,1532.190996
1467.694540,6587.832884,-4515.256246,-306.438199
1467.694869,6587.832884,-5551.544565,689.485948
1467.695198,7179.997637,-6809.894666,1302.362347
1467.695527,9326.594869,-5847.626942,1991.848295
1467.695856,9104.533087,-5921.647536,1608.800546
1467.696185,7328.038826,-6513.812290,2068.457845
1467.696514,6143.709319,-6809.894666,689.485948
1467.696844,6069.688724,-6291.750507,306.438199
1467.697173,5625.565159,-6439.791695,306.438199
1467.697502,6143.709319,-8290.306550,1915.238745
1467.697831,7772.162391,-5329.482782,1072.533697
1467.698160,8290.306550,-5329.482782,1608.800546
1467.698489,7846.182985,-6069.688724,2681.334243
1467.698818,7328.038826,-6883.915261,1302.362347
1467.699147,6069.688724,-5551.544565,1378.971896
1467.699476,5625.565159,-6291.750507,536.266849
1467.699805,7105.977043,-6661.853478,383.047749
1467.700134,8216.285956,-6661.853478,2145.067394
1467.700464,8586.388927,-5699.585753,1915.238745
1467.700793,6883.915261,-5921.647536,1302.362347
1467.701122,5773.606348,-7179.997637,76.609550
1467.701451,5477.523971,-7550.100608,1225.752797
1467.701780,6587.832884,-7698.141797,1225.752797
1467.702109,6217.729913,-8660.409521,1072.533697
1467.702438,6587.832884,-6291.750507,1455.581446
1467.702767,7105.977043,-5995.668130,1149.143247
1467.703096,6809.894666,-6143.709319,689.485948
1467.703425,5995.668130,-6217.729913,1838.629195
1467.703754,7476.080014,-5625.565159,1455.581446
1467.704084,7994.224174,-5181.441594,612.876398
1467.704413,6883.915261,-7031.956449,1455.581446
1467.704742,7254.018232,-5995.668130,1915.238745
1467.705071,8216.285956,-6143.709319,1455.581446
1467.705400,7105.977043,-6365.771101,1532.190996
1467.705729,6291.750507,-6365.771101,1608.800546
1467.706058,7550.100608,-5921.647536,842.705048
1467.706387,7772.162391,-6069.688724,1072.533697
1467.706716,6291.750507,-6587.832884,1915.238745
1467.707045,6735.874072,-6883.915261,1149.143247
1467.707374,6365.771101,-7031.956449,0.000000
1467.707704,5107.421000,-7031.956449,1149.143247
1467.708033,5847.626942,-7254.018232,766.095498
1467.708362,7846.182985,-6217.729913,1378.971896
1467.708691,7179.997637,-6587.832884,1149.143247
1467.709020,7624.121203,-6513.812290,1915.238745
1467.709349,8438.347739,-5403.503377,1072.533697
1467.709678,7402.059420,-6735.874072,1838.629195
1467.710007,7105.977043,-6883.915261,1455.581446
1467.710336,7624.121203,-7254.018232,1302.362347
1467.710665,7772.162391,-7105.977043,76.609550
1467.710994,6439.791695,-7254.018232,1455.581446
1467.711324,7476.080014,-7105.977043,2145.067394
1467.711653,7105.977043,-6883.915261,0.000000
1467.711982,5329.482782,-6809.894666,383.047749
1467.712311,5329.482782,-7031.956449,536.266849
1467.712640,7476.080014,-6291.750507,76.609550
1467.712969,6439.791695,-7179.997637,1149.143247
1467.713298,6735.874072,-6809.894666,1915.238745
1467.713627,7846.182985,-6809.894666,1072.533697
1467.713956,7031.956449,-5773.606348,1072.533697
1467.714285,6587.832884,-6439.791695,1838.629195
1467.714614,8290.306550,-6809.894666,1302.362347
1467.714944,8882.471304,-4515.256246,1608.800546
1467.715273,7105.977043,-4885.359217,1762.019645
1467.715602,6809.894666,-6217.729913,1762.019645
1467.715931,6513.812290,-5033.400406,-689.485948
1467.716260,5107.421000,-7031.956449,1225.752797
1467.716589,6143.709319,-6883.915261,1608.800546
1467.716918,7179.997637,-6735.874072,995.924147
1467.717247,6291.750507,-6661.853478,689.485948
1467.717576,5699.585753,-6439.791695,1378.971896
1467.717905,6143.709319,-8142.265362,306.438199
1467.718234,6365.771101,-5773.606348,-383.047749
1467.718564,6661.853478,-7254.018232,1455.581446
1467.718893,8808.450710,-8364.327145,2298.286494
1467.719222,8586.388927,-7179.997637,1302.362347
1467.719551,7254.018232,-7105.977043,2145.067394
1467.719880,7624.121203,-6439.791695,995.924147
1467.720209,6809.894666,-5255.462188,0.000000
1467.720538,5107.421000,-5847.626942,612.876398
1467.720867,6143.709319,-6513.812290,689.485948
1467.721196,7476.080014,-6809.894666,919.314598
1467.721525,6735.874072,-7254.018232,766.095498
1467.721854,6291.750507,-7402.059420,995.924147
1467.722184,6069.688724,-7105.977043,153.219100
1467.722513,5625.565159,-8068.244768,306.438199
1467.722842,5995.668130,-7920.203579,766.095498
1467.723171,7402.059420,-7179.997637,1302.362347
1467.723500,8142.265362,-6661.853478,612.876398
1467.723829,7105.977043,-6735.874072,1455.581446
1467.724158,7328.038826,-6291.750507,1302.362347
1467.724487,7254.018232,-6291.750507,689.485948
1467.724816,7179.997637,-5107.421000,1991.848295
1467.725145,8512.368333,-4959.379811,1915.238745
1467.725474,8660.409521,-4589.276840,919.314598
1467.725804,6587.832884,-5181.441594,995.924147
1467.726133,6513.812290,-5921.647536,383.047749
1467.726462,6883.915261,-5699.585753,306.438199
1467.726791,6365.771101,-7254.018232,1072.533697
1467.727120,7105.977043,-6439.791695,1378.971896
1467.727449,7920.203579,-6957.935855,919.314598
1467.727778,7105.977043,-6661.853478,689.485948
1467.728107,6291.750507,-6291.750507,1532.190996
1467.728436,7105.977043,-6957.935855,689.485948
1467.728765,6735.874072,-6143.709319,229.828649
1467.729094,5847.626942,-6365.771101,1608.800546
1467.729424,8364.327145,-5477.523971,1225.752797
1467.729753,9474.636058,-5033.400406,995.924147
1467.730082,7994.224174,-6587.832884,1838.629195
1467.730411,7402.059420,-6513.812290,1915.238745
1467.730740,6439.791695,-6809.894666,-306.438199
1467.731069,4737.318029,-6735.874072,-306.438199
1467.731398,4737.318029,-8142.265362,842.705048
1467.731727,6883.915261,-8364.327145,0.000000
1467.732056,7254.018232,-8216.285956,1378.971896
1467.732385,7402.059420,-6735.874072,2374.896044
1467.732714,9104.533087,-7105.977043,1378.971896
1467.733044,6883.915261,-6069.688724,766.095498
1467.733373,5329.482782,-6957.935855,766.095498
1467.733702,7254.018232,-5551.544565,919.314598
1467.734031,8290.306550,-5699.585753,766.095498
1467.734360,6735.874072,-6143.709319,919.314598
1467.734689,6217.729913,-7698.141797,2681.334243
1467.735018,6365.771101,-8068.244768,306.438199
1467.735347,3923.091493,-8216.285956,-383.047749
1467.735676,3478.967927,-9252.574275,995.924147
1467.736005,6069.688724,-9474.636058,1225.752797
1467.736334,7105.977043,-9104.533087,1455.581446
1467.736664,5551.544565,-8586.388927,1838.629195
1467.736993,5773.606348,-7105.977043,612.876398
1467.737322,4663.297435,-6439.791695,-1378.971896
1467.737651,3997.112087,-8142.265362,229.828649
1467.737980,5773.606348,-8586.388927,1378.971896
1467.738309,7328.038826,-6735.874072,1685.410096
1467.738638,7105.977043,-6217.729913,3524.039291
1467.738967,6809.894666,-6217.729913,3064.381992
1467.739296,6883.915261,-4145.153275,2145.067394
1467.739625,5773.606348,-4367.215058,919.314598
1467.739954,6069.688724,-4811.338623,1532.190996
1467.740284,6809.894666,-7402.059420,1685.410096
1467.740613,6661.853478,-7624.121203,1302.362347
1467.740942,5699.585753,-9474.636058,1685.410096
1467.741271,5181.441594,-10881.027347,766.095498
1467.741600,3404.947333,-10362.883188,689.485948
1467.741929,2368.659014,-9844.739029,229.828649
1467.742258,4219.173869,-10214.842000,612.876398
1467.742587,5181.441594,-9252.574275,536.266849
1467.742916,4663.297435,-9474.636058,1072.533697
1467.743245,4737.318029,-9474.636058,1532.190996
1467.743574,4441.235652,-8882.471304,689.485948
1467.743904,3701.029710,-8290.306550,1072.533697
1467.744233,3256.906145,-8438.347739,1915.238745
1467.744562,4959.379811,-9178.553681,2145.067394
1467.744891,6069.688724,-8438.347739,2451.505594
1467.745220,4959.379811,-7994.224174,2221.676944
1467.745549,5181.441594,-6883.915261,1762.019645
1467.745878,4959.379811,-6661.853478,1072.533697
1467.746207,5107.421000,-7772.162391,153.219100
1467.746536,5107.421000,-8586.388927,919.314598
1467.746865,6809.894666,-9474.636058,1915.238745
1467.747194,6439.791695,-9252.574275,1149.143247
1467.747524,5551.544565,-7624.121203,1072.533697
1467.747853,5033.400406,-6587.832884,-76.609550
1467.748182,4737.318029,-7624.121203,0.000000
1467.748511,4293.194464,-9622.677246,612.876398
1467.748840,3997.112087,-9770.718434,383.047749
1467.749169,4293.194464,-10807.006753,1302.362347
1467.749498,5033.400406,-11103.089130,919.314598
1467.749827,4737.318029,-11251.130318,1608.800546
1467.750156,3849.070898,-10584.944971,1608.800546
1467.750485,3849.070898,-8956.491898,919.314598
1467.750814,4367.215058,-7772.162391,1608.800546
1467.751144,5995.668130,-5921.647536,2145.067394
1467.751473,7550.100608,-3923.091493,2374.896044
1467.751802,8734.430116,-4441.235652,2681.334243
1467.752131,7772.162391,-5181.441594,1455.581446
1467.752460,5921.647536,-4441.235652,459.657299
1467.752789,4737.318029,-7031.956449,-383.047749
1467.753118,4071.132681,-9400.615463,76.609550
1467.753447,3404.947333,-13249.686362,612.876398
1467.753776,3034.844362,-13767.830521,-306.438199
1467.754105,2886.803174,-11991.336260,0.000000
1467.754435,3108.864956,-11917.315666,-76.609550
1467.754764,4515.256246,-12509.480420,995.924147
1467.755093,4737.318029,-10140.821405,995.924147
1467.755422,4959.379811,-8586.388927,0.000000
1467.755751,4441.235652,-7179.997637,306.438199
1467.756080,5625.565159,-6809.894666,2604.724693
1467.756409,7179.997637,-5847.626942,2221.676944
1467.756738,7105.977043,-3849.070898,2374.896044
1467.757067,6809.894666,-2738.761985,1685.410096
1467.757396,7328.038826,-3552.988522,1685.410096
1467.757725,6809.894666,-6439.791695,1532.190996
1467.758055,4663.297435,-8290.306550,1225.752797
1467.758384,3034.844362,-11695.253884,0.000000
1467.758713,2368.659014,-14137.933492,229.828649
1467.759042,1776.494261,-15544.324782,612.876398
1467.759371,2072.576638,-15692.365970,612.876398
1467.759700,2664.741391,-12435.459826,1225.752797
1467.760029,2886.803174,-11473.192101,383.047749
1467.760358,2812.782580,-11029.068536,1915.238745
1467.760687,3552.988522,-7328.038826,1915.238745
1467.761016,4219.173869,-4441.235652,1149.143247
1467.761345,5403.503377,-4219.173869,1302.362347
1467.761675,7698.141797,-1480.411884,1915.238745
1467.762004,9474.636058,-4663.297435,2987.772442
1467.762333,8068.244768,-6291.750507,2834.553343
1467.762662,6513.812290,-5181.441594,1225.752797
1467.762991,5255.462188,-7402.059420,-459.657299
1467.763320,3034.844362,-11325.150913,-306.438199
1467.763649,1924.535449,-15026.180623,153.219100
1467.763978,3627.009116,-14063.912898,1149.143247
1467.764307,5255.462188,-10807.006753,536.266849
1467.764636,5921.647536,-8586.388927,1225.752797
1467.764965,6883.915261,-7772.162391,1685.410096
1467.765295,5625.565159,-9474.636058,1149.143247
1467.765624,3182.885551,-9030.512492,842.705048
1467.765953,592.164754,-8882.471304,-612.876398
1467.766282,2220.617826,-7698.141797,-306.438199
1467.766611,4515.256246,-8142.265362,995.924147
1467.766940,6365.771101,-9770.718434,2834.553343
1467.767270,7402.059420,-7846.182985,3524.039291
1467.767599,6735.874072,-6735.874072,2528.115143
1467.767928,6883.915261,-5921.647536,1455.581446
1467.768257,6291.750507,-6069.688724,1072.533697
1467.768586,6661.853478,-7772.162391,1608.800546
1467.768916,6069.688724,-8586.388927,995.924147
1467.769245,5551.544565,-9400.615463,2145.067394
1467.769574,5329.482782,-8586.388927,2068.457845
1467.769903,5847.626942,-6661.853478,1302.362347
1467.770232,4441.235652,-6069.688724,919.314598
1467.770561,2886.803174,-8512.368333,-1225.752797
1467.770891,2516.700203,-11251.130318,-153.219100
1467.771220,3923.091493,-10955.047942,306.438199
1467.771549,5477.523971,-8660.409521,1302.362347
1467.771878,5847.626942,-6291.750507,1149.143247
1467.772207,5773.606348,-7994.224174,919.314598
1467.772537,5699.585753,-9918.759623,1685.410096
1467.772866,5995.668130,-9474.636058,2374.896044
1467.773195,7031.956449,-8660.409521,2451.505594
1467.773524,6143.709319,-6809.894666,2604.724693
1467.773853,5847.626942,-7402.059420,1838.629195
1467.774183,3627.009116,-8808.450710,1149.143247
1467.774512,2368.659014,-8956.491898,1149.143247
1467.774841,1998.556043,-9918.759623,0.000000
1467.775170,1702.473667,-9104.533087,0.000000
1467.775499,2220.617826,-10807.006753,153.219100
1467.775829,3330.926739,-12805.562797,1378.971896
1467.776158,4293.194464,-11547.212695,1455.581446
1467.776487,4959.379811,-9474.636058,1378.971896
1467.776816,5995.668130,-7179.997637,1302.362347
1467.777145,7328.038826,-6143.709319,1225.752797
1467.777474,7698.141797,-6291.750507,1532.190996
1467.777804,6957.935855,-6587.832884,689.485948
1467.778133,6217.729913,-8068.244768,1225.752797
1467.778462,6365.771101,-7772.162391,1072.533697
1467.778791,5995.668130,-8660.409521,1532.190996
1467.779120,4885.359217,-8586.388927,1455.581446
1467.779450,3849.070898,-9918.759623,459.657299
1467.779779,2368.659014,-12287.418637,76.609550
1467.780108,1998.556043,-11991.336260,0.000000
1467.780437,1850.514855,-11621.233289,-1072.533697
1467.780766,3256.906145,-10807.006753,0.000000
1467.781096,4589.276840,-10140.821405,995.924147
1467.781425,5699.585753,-8882.471304,1762.019645
1467.781754,6439.791695,-7105.977043,2911.162892
1467.782083,7179.997637,-5329.482782,2451.505594
1467.782412,7254.018232,-4441.235652,2374.896044
1467.782742,6217.729913,-4811.338623,1225.752797
1467.783071,5551.544565,-5921.647536,536.266849
1467.783400,5403.503377,-6587.832884,76.609550
1467.783729,6069.688724,-7624.121203,459.657299
1467.784058,6439.791695,-8438.347739,766.095498
1467.784388,5995.668130,-9548.656652,1149.143247
1467.784717,6291.750507,-9622.677246,1149.143247
1467.785046,5255.462188,-10436.903782,612.876398
1467.785375,3701.029710,-10436.903782,306.438199
1467.785704,2812.782580,-10955.047942,0.000000
1467.786033,2960.823768,-11029.068536,-383.047749
1467.786363,2960.823768,-10436.903782,0.000000
1467.786692,3182.885551,-11103.089130,919.314598
1467.787021,4145.153275,-9992.780217,689.485948
1467.787350,4219.173869,-7846.182985,995.924147
1467.787679,4589.276840,-6069.688724,536.266849
1467.788009,5403.503377,-4589.276840,995.924147
1467.788338,7994.224174,-3775.050304,2068.457845
1467.788667,9104.533087,-4959.379811,2987.772442
1467.788996,9474.636058,-6143.709319,3907.087040
1467.789325,7846.182985,-8068.244768,3217.601092
1467.789655,6291.750507,-8660.409521,1685.410096
1467.789984,4367.215058,-9252.574275,1302.362347
1467.790313,3997.112087,-11621.233289,1149.143247
1467.790642,3404.947333,-11917.315666,536.266849
1467.790971,2960.823768,-11547.212695,459.657299
1467.791301,2738.761985,-10288.862594,383.047749
1467.791630,2442.679609,-8808.450710,-306.438199
1467.791959,3034.844362,-8586.388927,-153.219100
1467.792288,3034.844362,-7550.100608,-536.266849
1467.792617,4145.153275,-7402.059420,153.219100
1467.792946,6217.729913,-6957.935855,1225.752797
1467.793276,7994.224174,-7698.141797,2681.334243
1467.793605,8068.244768,-8660.409521,3447.429741
1467.793934,6587.832884,-8290.306550,2911.162892
1467.794263,5255.462188,-8586.388927,1762.019645
1467.794592,4737.318029,-8660.409521,2068.457845
1467.794922,4663.297435,-9474.636058,2451.505594
1467.795251,4959.379811,-9770.718434,2911.162892
1467.795580,4737.318029,-8660.409521,2145.067394
1467.795909,4515.256246,-8660.409521,2068.457845
1467.796238,4515.256246,-7920.203579,1608.800546
1467.796568,4219.173869,-8142.265362,2068.457845
1467.796897,4367.215058,-8216.285956,1532.190996
1467.797226,4293.194464,-7476.080014,1378.971896
1467.797555,4515.256246,-8290.306550,2068.457845
1467.797884,4737.318029,-9030.512492,1838.629195
1467.798214,4737.318029,-9474.636058,2374.896044
1467.798543,4663.297435,-9326.594869,2145.067394
1467.798872,5255.462188,-8882.471304,2451.505594
1467.799201,6513.812290,-8438.347739,3447.429741
1467.799530,7550.100608,-7846.182985,4366.744339
1467.799859,7105.977043,-7254.018232,4213.525239
1467.800189,7105.977043,-6069.688724,3524.039291
1467.800518,6439.791695,-5033.400406,2528.115143
1467.800847,6513.812290,-5699.585753,2757.943793
1467.801176,6143.709319,-6291.750507,2145.067394
1467.801505,5625.565159,-7328.038826,1685.410096
1467.801835,6069.688724,-7698.141797,1762.019645
1467.802164,5847.626942,-8290.306550,2145.067394
1467.802493,5477.523971,-8808.450710,2911.162892
1467.802822,5551.544565,-7698.141797,3294.210641
1467.803151,6069.688724,-7698.141797,3217.601092
1467.803481,6365.771101,-7254.018232,4213.525239
1467.803810,7920.203579,-6735.874072,4903.011187
1467.804139,8438.347739,-5921.647536,5056.230287
1467.804468,8882.471304,-4811.338623,4673.182538
1467.804797,8364.327145,-4219.173869,4826.401637
1467.805127,8808.450710,-3701.029710,4826.401637
1467.805456,8808.450710,-4145.153275,4443.353888
1467.805785,8438.347739,-4885.359217,4443.353888
1467.806114,7994.224174,-5403.503377,4213.525239
1467.806443,7550.100608,-5773.606348,3907.087040
1467.806773,6513.812290,-7402.059420,4366.744339
1467.807102,5773.606348,-8882.471304,3983.696590
1467.807431,4737.318029,-9622.677246,3370.820191
1467.807760,4145.153275,-9992.780217,3140.991542
1467.808089,4293.194464,-10066.800811,3677.258390
1467.808418,4663.297435,-9770.718434,4366.744339
1467.808748,4737.318029,-8956.491898,4443.353888
1467.809077,4885.359217,-7772.162391,4366.744339
1467.809406,5921.647536,-6143.709319,4519.963438
1467.809735,7328.038826,-4737.318029,5056.230287
1467.810064,8882.471304,-4885.359217,6358.592633
1467.810394,9252.574275,-3552.988522,5898.935335
1467.810723,8808.450710,-3330.926739,5132.839837
1467.811052,8660.409521,-2590.720797,4903.011187
1467.811381,8364.327145,-3775.050304,4596.572988
1467.811710,7624.121203,-5699.585753,4213.525239
1467.812040,7179.997637,-6439.791695,4519.963438
1467.812369,7031.956449,-7402.059420,3907.087040
1467.812698,7031.956449,-7624.121203,4826.401637
1467.813027,6587.832884,-9474.636058,4749.792088
1467.813356,5773.606348,-10140.821405,4903.011187
1467.813686,3997.112087,-9844.739029,3370.820191
1467.814015,2368.659014,-9548.656652,2911.162892
1467.814344,2886.803174,-8882.471304,2987.772442
1467.814673,4367.215058,-8586.388927,3524.039291
1467.815002,6587.832884,-7254.018232,5209.449386
1467.815331,8512.368333,-5255.462188,5515.887586
1467.815661,9474.636058,-3701.029710,6128.763984
1467.815990,9400.615463,-2368.659014,6128.763984
1467.816319,9474.636058,-3034.844362,5362.668486
1467.816648,9030.512492,-2590.720797,4596.572988
1467.816977,8142.265362,-4441.235652,3907.087040
1467.817307,8142.265362,-6513.812290,3830.477490
1467.817636,7550.100608,-7550.100608,3447.429741
1467.817965,6661.853478,-9252.574275,2757.943793
1467.818294,5329.482782,-9622.677246,2374.896044
1467.818623,5107.421000,-9696.697840,2451.505594
1467.818953,4885.359217,-10140.821405,3140.991542
1467.819282,5551.544565,-8660.409521,3907.087040
1467.819611,6883.915261,-5625.565159,3983.696590
1467.819940,8142.265362,-3701.029710,3830.477490
1467.820269,8956.491898,-4367.215058,4596.572988
1467.820599,9400.615463,-4441.235652,4366.744339
1467.820928,9104.533087,-4441.235652,3830.477490
1467.821257,7698.141797,-4367.215058,2681.334243
1467.821586,6365.771101,-5625.565159,2374.896044
1467.821915,5403.503377,-7105.977043,3217.601092
1467.822244,5921.647536,-7624.121203,3140.991542
1467.822574,6217.729913,-7846.182985,3907.087040
1467.822903,7328.038826,-7179.997637,4673.182538
1467.823232,8068.244768,-6883.915261,4826.401637
1467.823561,7994.224174,-7402.059420,4979.620737
1467.823890,7402.059420,-6661.853478,4826.401637
1467.824220,7105.977043,-5551.544565,3830.477490
1467.824549,6513.812290,-3478.967927,2681.334243
1467.824878,7328.038826,-3256.906145,3370.820191
1467.825207,8216.285956,-3849.070898,3753.867940
1467.825536,8512.368333,-4441.235652,4136.915689
1467.825866,7920.203579,-5255.462188,3907.087040
1467.826195,7105.977043,-7254.018232,2911.162892
1467.826524,6143.709319,-9474.636058,3217.601092
1467.826853,4959.379811,-10436.903782,2757.943793
1467.827182,4145.153275,-11177.109724,3064.381992
1467.827512,4441.235652,-9400.615463,3370.820191
1467.827841,4737.318029,-8216.285956,2451.505594
1467.828170,5773.606348,-6957.935855,3447.429741
1467.828499,7328.038826,-5255.462188,4290.134789
1467.828828,8290.306550,-5107.421000,4519.963438
1467.829158,8660.409521,-4515.256246,4366.744339
1467.829487,8512.368333,-4515.256246,5822.325785
1467.829816,9548.656652,-2664.741391,5132.839837
1467.830145,10436.903782,-3034.844362,4826.401637
1467.830474,9548.656652,-4367.215058,4596.572988
1467.830803,8512.368333,-6069.688724,3907.087040
1467.831133,6439.791695,-8142.265362,2528.115143
1467.831462,4589.276840,-9474.636058,2604.724693
1467.831791,3997.112087,-10732.986159,2681.334243
1467.832120,3923.091493,-12065.356855,3600.648841
1467.832449,4145.153275,-11399.171507,4366.744339
1467.832779,4219.173869,-8808.450710,3294.210641
1467.833108,5107.421000,-6143.709319,3677.258390
1467.833437,6957.935855,-4441.235652,4749.792088
1467.833766,9178.553681,-3701.029710,5515.887586
1467.834095,9622.677246,-2220.617826,5669.106685
1467.834425,9474.636058,-1776.494261,5132.839837
1467.834754,9622.677246,-2664.741391,4903.011187
1467.835083,8808.450710,-4441.235652,5209.449386
1467.835412,7698.141797,-6661.853478,4519.963438
1467.835741,7105.977043,-8438.347739,4213.525239
1467.836071,7328.038826,-8142.265362,3600.648841
1467.836400,6587.832884,-9178.553681,3753.867940
1467.836729,5847.626942,-9252.574275,3677.258390
1467.837058,4737.318029,-7550.100608,2528.115143
1467.837387,4293.194464,-6883.915261,2987.772442
1467.837716,5255.462188,-5847.626942,3677.258390
1467.838046,7328.038826,-5625.565159,4749.792088
1467.838375,7550.100608,-5403.503377,6128.763984
1467.838704,7328.038826,-5255.462188,4903.011187
1467.839033,7105.977043,-4737.318029,4443.353888
1467.839362,7476.080014,-5107.421000,4903.011187
1467.839692,8290.306550,-5403.503377,5286.058936
1467.840021,7920.203579,-5551.544565,4519.963438
1467.840350,7105.977043,-5625.565159,3600.648841
1467.840679,6513.812290,-7476.080014,3524.039291
1467.841008,6587.832884,-9252.574275,4136.915689
1467.841338,7105.977043,-8956.491898,4903.011187
1467.841667,7105.977043,-8512.368333,4673.182538
1467.841996,6069.688724,-7328.038826,3677.258390
1467.842325,5181.441594,-7550.100608,3524.039291
1467.842654,5773.606348,-7476.080014,4366.744339
1467.842984,7179.997637,-5477.523971,4443.353888
1467.843313,7920.203579,-3997.112087,4443.353888
1467.843642,7105.977043,-3256.906145,3600.648841
1467.843971,7105.977043,-4367.215058,3600.648841
1467.844300,7994.224174,-5847.626942,4519.963438
1467.844630,9400.615463,-6513.812290,5898.935335
1467.844959,9474.636058,-6957.935855,5515.887586
1467.845288,6957.935855,-7254.018232,4826.401637
1467.845617,4885.359217,-8882.471304,3830.477490
1467.845946,4589.276840,-8586.388927,3600.648841
1467.846275,5033.400406,-7105.977043,3677.258390
1467.846605,6217.729913,-6809.894666,3447.429741
1467.846934,7179.997637,-6809.894666,4060.306139
1467.847263,6957.935855,-5995.668130,3677.258390
1467.847592,6661.853478,-5921.647536,4060.306139
1467.847921,6143.709319,-5255.462188,3600.648841
1467.848251,6365.771101,-6439.791695,3140.991542
1467.848580,7105.977043,-5773.606348,3600.648841
1467.848909,8512.368333,-4663.297435,4060.306139
1467.849238,8290.306550,-5329.482782,3753.867940
1467.849567,8438.347739,-7254.018232,3830.477490
1467.849897,7402.059420,-8586.388927,3830.477490
1467.850226,7105.977043,-8364.327145,3600.648841
1467.850555,6735.874072,-7994.224174,3600.648841
1467.850884,5847.626942,-9104.533087,3983.696590
1467.851213,5773.606348,-8142.265362,4596.572988
1467.851543,6661.853478,-5699.585753,3677.258390
1467.851872,7994.224174,-3701.029710,4903.011187
1467.852201,8882.471304,-3108.864956,4213.525239
1467.852530,8290.306550,-3478.967927,4366.744339
1467.852859,7105.977043,-4145.153275,3370.820191
1467.853188,6957.935855,-4959.379811,3294.210641
1467.853518,7179.997637,-4441.235652,4136.915689
1467.853847,7254.018232,-5403.503377,3294.210641
1467.854176,7328.038826,-7179.997637,3677.258390
1467.854505,7476.080014,-8512.368333,3907.087040
1467.854834,7105.977043,-8586.388927,2987.772442
1467.855164,5699.585753,-8438.347739,2911.162892
1467.855493,4737.318029,-10955.047942,3447.429741
1467.855822,4441.235652,-11103.089130,2911.162892
1467.856151,4071.132681,-8586.388927,3064.381992
1467.856480,5995.668130,-5551.544565,3524.039291
1467.856810,7920.203579,-4737.318029,4213.525239
1467.857139,8734.430116,-5033.400406,4903.011187
1467.857468,8660.409521,-2664.741391,4903.011187
1467.857797,8734.430116,-1110.308913,2987.772442
1467.858126,8290.306550,-1480.411884,2298.286494
1467.858456,7698.141797,-4293.194464,3217.601092
1467.858785,8882.471304,-6883.915261,3217.601092
1467.859114,9474.636058,-7105.977043,2681.334243
1467.859443,7476.080014,-8660.409521,1685.410096
1467.859772,5255.462188,-9548.656652,1532.190996
1467.860101,4515.256246,-11769.274478,1608.800546
1467.860431,4071.132681,-12287.418637,2757.943793
1467.860760,3923.091493,-9622.677246,1302.362347
1467.861089,4145.153275,-7624.121203,1455.581446
1467.861418,6069.688724,-6957.935855,3140.991542
1467.861747,8734.430116,-5921.647536,4366.744339
1467.862077,9400.615463,-4145.153275,4979.620737
1467.862406,8438.347739,-2368.659014,4060.306139
1467.862735,8364.327145,-2960.823768,2757.943793
1467.863064,8364.327145,-3034.844362,2987.772442
1467.863393,8438.347739,-3330.926739,2374.896044
1467.863723,7402.059420,-5403.503377,1302.362347
1467.864052,7105.977043,-6439.791695,995.924147
1467.864381,5847.626942,-8512.368333,0.000000
1467.864710,4811.338623,-9918.759623,153.219100
1467.865039,4811.338623,-11695.253884,612.876398
1467.865369,4959.379811,-11547.212695,1149.143247
1467.865698,5847.626942,-8808.450710,1302.362347
1467.866027,7179.997637,-7105.977043,1302.362347
1467.866356,8068.244768,-6291.750507,3294.210641
1467.866685,8512.368333,-4145.153275,3140.991542
1467.867015,8808.450710,-2220.617826,2451.505594
1467.867344,7994.224174,-1184.329507,1532.190996
1467.867673,8512.368333,-2664.741391,689.485948
1467.868002,9622.677246,-4589.276840,1838.629195
1467.868331,9400.615463,-4885.359217,842.705048
1467.868661,7994.224174,-6883.915261,919.314598
1467.868990,6439.791695,-7476.080014,0.000000
1467.869319,4737.318029,-9400.615463,-689.485948
1467.869649,3849.070898,-11547.212695,-689.485948
1467.869978,3849.070898,-11177.109724,0.000000
1467.870307,4811.338623,-10436.903782,459.657299
1467.870636,6217.729913,-9252.574275,1225.752797
1467.870966,6513.812290,-6809.894666,2451.505594
1467.871295,7624.121203,-3775.050304,1608.800546
1467.871624,8586.388927,-2220.617826,2757.943793
1467.871953,9326.594869,-2368.659014,1915.238745
1467.872283,9178.553681,-1924.535449,1838.629195
1467.872612,8956.491898,-3182.885551,1455.581446
1467.872941,7328.038826,-5773.606348,0.000000
1467.873271,5699.585753,-7550.100608,0.000000
1467.873600,5699.585753,-9030.512492,-229.828649
1467.873929,6439.791695,-10362.883188,-612.876398
1467.874258,5699.585753,-10658.965565,689.485948
1467.874588,5477.523971,-10436.903782,1532.190996
1467.874917,5551.544565,-9474.636058,536.266849
1467.875246,3849.070898,-8068.244768,0.000000
1467.875575,4293.194464,-6143.709319,536.266849
1467.875905,7624.121203,-4145.153275,1072.533697
1467.876234,10288.862594,-2590.720797,2451.505594
1467.876563,9696.697840,-2368.659014,3217.601092
1467.876893,9400.615463,-2516.700203,1991.848295
1467.877222,8290.306550,-3108.864956,153.219100
1467.877551,6439.791695,-3923.091493,-612.876398
1467.877880,5773.606348,-7550.100608,229.828649
1467.878210,7105.977043,-9474.636058,689.485948
1467.878539,7254.018232,-10362.883188,766.095498
1467.878868,6957.935855,-10436.903782,1685.410096
1467.879197,6291.750507,-10955.047942,1762.019645
1467.879527,4959.379811,-8956.491898,689.485948
1467.879856,4071.132681,-7402.059420,383.047749
1467.880185,6069.688724,-5329.482782,612.876398
1467.880515,8512.368333,-2664.741391,1455.581446
1467.880844,8660.409521,-2294.638420,2374.896044
1467.881173,9326.594869,-2368.659014,2374.896044
1467.881502,9326.594869,-3775.050304,2068.457845
1467.881832,8142.265362,-3627.009116,1225.752797
1467.882161,6957.935855,-6439.791695,919.314598
1467.882490,7105.977043,-9104.533087,1225.752797
1467.882819,7179.997637,-8956.491898,842.705048
1467.883149,6291.750507,-10066.800811,536.266849
1467.883478,4959.379811,-9992.780217,919.314598
1467.883807,4811.338623,-9400.615463,-459.657299
1467.884137,4737.318029,-9770.718434,689.485948
1467.884466,5477.523971,-7254.018232,995.924147
1467.884795,6809.894666,-5773.606348,459.657299
1467.885124,7920.203579,-3404.947333,1532.190996
1467.885454,8734.430116,-3552.988522,2451.505594
1467.885783,8882.471304,-3849.070898,1149.143247
1467.886112,7624.121203,-3627.009116,1149.143247
1467.886441,6809.894666,-4959.379811,842.705048
1467.886771,6735.874072,-7402.059420,383.047749
1467.887100,6439.791695,-8734.430116,995.924147
1467.887429,6957.935855,-9474.636058,1225.752797
1467.887759,7550.100608,-9252.574275,1455.581446
1467.888088,6513.812290,-8512.368333,1455.581446
1467.888417,5255.462188,-7328.038826,1532.190996
1467.888746,6143.709319,-6809.894666,1072.533697
1467.889076,6883.915261,-5255.462188,919.314598
1467.889405,6735.874072,-3552.988522,229.828649
1467.889734,7328.038826,-3701.029710,1455.581446
1467.890063,8290.306550,-4663.297435,766.095498
1467.890393,6513.812290,-4663.297435,842.705048
1467.890722,6439.791695,-6439.791695,1072.533697
1467.891051,7550.100608,-7254.018232,1455.581446
1467.891380,7328.038826,-7772.162391,1302.362347
1467.891710,6513.812290,-8660.409521,1455.581446
1467.892039,7402.059420,-7402.059420,1455.581446
1467.892368,6587.832884,-6735.874072,0.000000
1467.892698,5403.503377,-7254.018232,1072.533697
1467.893027,7031.956449,-7105.977043,1149.143247
1467.893356,7994.224174,-7105.977043,536.266849
1467.893685,7698.141797,-4959.379811,1378.971896
1467.894015,7179.997637,-5773.606348,766.095498
1467.894344,7994.224174,-5625.565159,1072.533697
1467.894673,6735.874072,-5403.503377,766.095498
1467.895002,5921.647536,-6661.853478,1455.581446
1467.895332,6809.894666,-6217.729913,842.705048
1467.895661,6957.935855,-6587.832884,1685.410096
1467.895990,6661.853478,-7772.162391,2145.067394
1467.896320,7624.121203,-8438.347739,2451.505594
1467.896649,7476.080014,-7624.121203,1532.190996
1467.896978,6291.750507,-5625.565159,1149.143247
1467.897307,6957.935855,-5403.503377,459.657299
1467.897637,7550.100608,-6587.832884,1455.581446
1467.897966,7550.100608,-5033.400406,995.924147
1467.898295,6809.894666,-6143.709319,612.876398
1467.898624,6883.915261,-6439.791695,766.095498
1467.898954,5773.606348,-7105.977043,612.876398
1467.899283,5921.647536,-8068.244768,842.705048
1467.899612,6217.729913,-7624.121203,919.314598
1467.899942,6513.812290,-6735.874072,842.705048
1467.900271,7105.977043,-7179.997637,1762.019645
1467.900600,7402.059420,-6883.915261,1225.752797
1467.900929,6735.874072,-5033.400406,766.095498
1467.901259,6809.894666,-5329.482782,1149.143247
1467.901588,8290.306550,-5551.544565,1455.581446
1467.901917,8364.327145,-5033.400406,2068.457845
1467.902246,8142.265362,-5477.523971,1915.238745
1467.902576,8290.306550,-5847.626942,1225.752797
1467.902905,6957.935855,-5403.503377,229.828649
1467.903234,5551.544565,-6957.935855,0.000000
1467.903564,5773.606348,-7994.224174,459.657299
1467.903893,7105.977043,-7105.977043,0.000000
1467.904222,6069.688724,-7105.977043,76.609550
1467.904551,6143.709319,-7846.182985,1072.533697
1467.904881,7179.997637,-8808.450710,1072.533697
1467.905210,6883.915261,-7328.038826,1302.362347
1467.905539,6513.812290,-6513.812290,2145.067394
1467.905868,7698.141797,-6217.729913,2221.676944
1467.906198,8734.430116,-4515.256246,1378.971896
1467.906527,7698.141797,-5329.482782,1455.581446
1467.906856,7550.100608,-5329.482782,1225.752797
1467.907186,6883.915261,-5403.503377,-153.219100
1467.907515,5329.482782,-6439.791695,306.438199
1467.907844,5773.606348,-7105.977043,842.705048
1467.908173,7031.956449,-8956.491898,306.438199
1467.908503,6735.874072,-8660.409521,1378.971896
1467.908832,6513.812290,-8142.265362,1302.362347
1467.909161,7105.977043,-7328.038826,689.485948
1467.909490,6883.915261,-7402.059420,919.314598
1467.909820,7031.956449,-6735.874072,1838.629195
1467.910149,7920.203579,-6439.791695,1532.190996
1467.910478,7994.224174,-4811.338623,2451.505594
1467.910808,7994.224174,-4219.173869,1608.800546
1467.911137,8734.430116,-4145.153275,1608.800546
1467.911466,6513.812290,-4293.194464,0.000000
1467.911795,5255.462188,-5995.668130,383.047749
1467.912125,6735.874072,-6661.853478,1685.410096
1467.912454,7402.059420,-7994.224174,1532.190996
1467.912783,6661.853478,-7698.141797,1378.971896
1467.913112,7105.977043,-8438.347739,2451.505594
1467.913442,7105.977043,-9474.636058,1378.971896
1467.913771,5773.606348,-7920.203579,1302.362347
1467.914100,5329.482782,-7105.977043,1302.362347
1467.914430,7105.977043,-4811.338623,-689.485948
1467.914759,6661.853478,-3478.967927,-306.438199
1467.915088,6587.832884,-5921.647536,1608.800546
1467.915417,8586.388927,-5107.421000,536.266849
1467.915747,7772.162391,-3923.091493,842.705048
1467.916076,6661.853478,-6069.688724,2298.286494
1467.916405,7994.224174,-6883.915261,2298.286494
1467.916734,8438.347739,-8216.285956,1838.629195
1467.917064,7254.018232,-6661.853478,383.047749
1467.917393,7105.977043,-6513.812290,306.438199
1467.917722,8290.306550,-7328.038826,383.047749
1467.918052,7105.977043,-6809.894666,0.000000
1467.918381,6143.709319,-7105.977043,842.705048
1467.918710,7920.203579,-7476.080014,842.705048
1467.919039,6587.832884,-6217.729913,76.609550
1467.919369,6439.791695,-6661.853478,919.314598
1467.919698,7402.059420,-6661.853478,1149.143247
1467.920027,7254.018232,-5625.565159,76.609550
1467.920356,5551.544565,-5847.626942,612.876398
1467.920686,5921.647536,-5921.647536,229.828649
1467.921015,7550.100608,-6069.688724,0.000000
1467.921344,7624.121203,-6217.729913,1302.362347
1467.921674,7254.018232,-6957.935855,1608.800546
1467.922003,7698.141797,-7254.018232,612.876398
1467.922332,6661.853478,-7105.977043,995.924147
1467.922661,6735.874072,-7772.162391,612.876398
1467.922991,8216.285956,-6513.812290,689.485948
1467.923320,7698.141797,-5255.462188,229.828649
1467.923649,7179.997637,-6439.791695,153.219100
1467.923978,6809.894666,-6217.729913,-383.047749
1467.924308,5921.647536,-6587.832884,0.000000
1467.924637,5551.544565,-6957.935855,153.219100
1467.924966,6587.832884,-6291.750507,1149.143247
1467.925296,7402.059420,-6661.853478,766.095498
1467.925625,7772.162391,-6069.688724,2681.334243
1467.925954,8734.430116,-5403.503377,2987.772442
1467.926283,7920.203579,-5033.400406,689.485948
1467.926613,5847.626942,-5699.585753,766.095498
1467.926942,6661.853478,-7105.977043,919.314598
1467.927271,7550.100608,-6883.915261,306.438199
1467.927600,6365.771101,-5995.668130,919.314598
1467.927930,6069.688724,-7105.977043,842.705048
1467.928259,7402.059420,-7402.059420,-536.266849
1467.928588,6143.709319,-7698.141797,306.438199
1467.928918,5625.565159,-7698.141797,995.924147
1467.929247,7920.203579,-8290.306550,1915.238745
1467.929576,8364.327145,-7328.038826,1608.800546
1467.929905,6439.791695,-6439.791695,1455.581446
1467.930235,7105.977043,-5921.647536,2145.067394
1467.930564,7772.162391,-5403.503377,1762.019645
1467.930893,6069.688724,-4663.297435,1225.752797
1467.931222,5773.606348,-5699.585753,1608.800546
1467.931552,7254.018232,-5699.585753,919.314598
1467.931881,7179.997637,-5255.462188,919.314598
1467.932210,6883.915261,-7772.162391,2221.676944
1467.932540,7328.038826,-7179.997637,536.266849
1467.932869,5625.565159,-6439.791695,0.000000
1467.933198,4737.318029,-7698.141797,1225.752797
1467.933527,6143.709319,-7254.018232,995.924147
1467.933857,7994.224174,-7031.956449,1302.362347
1467.934186,7328.038826,-7105.977043,1991.848295
1467.934515,7772.162391,-6513.812290,2681.334243
1467.934844,7624.121203,-6143.709319,2451.505594
1467.935174,6735.874072,-5329.482782,1532.190996
1467.935503,6513.812290,-6069.688724,1072.533697
1467.935832,7846.182985,-6883.915261,1149.143247
1467.936162,7920.203579,-5477.523971,1225.752797
1467.936491,6217.729913,-7254.018232,459.657299
1467.936820,6291.750507,-6735.874072,-306.438199
1467.937149,5551.544565,-5921.647536,-306.438199
1467.937479,5625.565159,-8068.244768,995.924147
1467.937808,7328.038826,-7254.018232,1608.800546
1467.938137,7698.141797,-7105.977043,2145.067394
1467.938466,8364.327145,-7698.141797,2298.286494
1467.938796,8882.471304,-5921.647536,2834.553343
1467.939125,8364.327145,-6217.729913,2298.286494
1467.939454,6883.915261,-4737.318029,842.705048
1467.939784,6513.812290,-4811.338623,459.657299
1467.940113,7105.977043,-4811.338623,229.828649
1467.940442,7402.059420,-4589.276840,766.095498
1467.940771,7476.080014,-6809.894666,1532.190996
1467.941101,7179.997637,-7105.977043,229.828649
1467.941430,4959.379811,-8216.285956,459.657299
1467.941759,4737.318029,-9178.553681,995.924147
1467.942088,6809.894666,-8364.327145,1072.533697
1467.942418,7772.162391,-7179.997637,1762.019645
1467.942747,7772.162391,-5699.585753,2145.067394
1467.943076,6957.935855,-5551.544565,1072.533697
1467.943406,6143.709319,-4071.132681,689.485948
1467.943735,5773.606348,-4737.318029,612.876398
1467.944064,7994.224174,-6883.915261,2145.067394
1467.944393,9104.533087,-5847.626942,2374.896044
1467.944723,7254.018232,-6735.874072,1685.410096
1467.945052,6661.853478,-6661.853478,76.609550
1467.945381,6735.874072,-6809.894666,-766.095498
1467.945710,5847.626942,-7402.059420,-842.705048
1467.946040,5773.606348,-7550.100608,153.219100
1467.946369,6587.832884,-8290.306550,689.485948
1467.946698,7179.997637,-8734.430116,995.924147
1467.947028,6957.935855,-7550.100608,1762.019645
1467.947357,7105.977043,-6883.915261,2145.067394
1467.947686,7254.018232,-6069.688724,2604.724693
1467.948015,6809.894666,-5107.421000,1838.629195
1467.948345,7328.038826,-4959.379811,612.876398
1467.948674,6957.935855,-3256.906145,766.095498
1467.949003,6661.853478,-5255.462188,536.266849
1467.949332,7328.038826,-7105.977043,612.876398
1467.949662,6217.729913,-6735.874072,0.000000
1467.949991,4589.276840,-7920.203579,-612.876398
1467.950320,5403.503377,-9104.533087,459.657299
1467.950650,6883.915261,-9030.512492,612.876398
1467.950979,7624.121203,-8660.409521,536.266849
1467.951308,8068.244768,-8290.306550,2374.896044
1467.951637,7402.059420,-6735.874072,2528.115143
1467.951967,6513.812290,-5403.503377,229.828649
1467.952296,5181.441594,-3775.050304,153.219100
1467.952625,6957.935855,-4885.359217,0.000000
1467.952954,9030.512492,-4515.256246,995.924147
1467.953284,8290.306550,-5329.482782,2451.505594
1467.953613,8216.285956,-5403.503377,995.924147
1467.953942,8142.265362,-6513.812290,842.705048
1467.954272,6143.709319,-8142.265362,612.876398
1467.954601,5625.565159,-7846.182985,689.485948
1467.954930,7031.956449,-8586.388927,1685.410096
1467.955259,7179.997637,-7550.100608,1072.533697
1467.955589,6809.894666,-6439.791695,919.314598
1467.955918,6587.832884,-7105.977043,2451.505594
1467.956247,7105.977043,-5403.503377,995.924147
1467.956576,6069.688724,-4737.318029,459.657299
1467.956906,6883.915261,-5329.482782,1762.019645
1467.957235,8068.244768,-4441.235652,1302.362347
1467.957564,7994.224174,-4737.318029,1455.581446
1467.957894,7254.018232,-5847.626942,1302.362347
1467.958223,7179.997637,-6809.894666,306.438199
1467.958552,6365.771101,-8808.450710,459.657299
1467.958881,5625.565159,-9992.780217,919.314598
1467.959211,5921.647536,-9400.615463,919.314598
1467.959540,7105.977043,-8142.265362,1455.581446
1467.959869,8142.265362,-7476.080014,2221.676944
1467.960198,7031.956449,-6291.750507,1608.800546
1467.960528,5995.668130,-4515.256246,1455.581446
1467.960857,6513.812290,-5107.421000,1302.362347
1467.961186,8216.285956,-3849.070898,1608.800546
1467.961515,8512.368333,-3552.988522,1991.848295
1467.961845,7402.059420,-4515.256246,1455.581446
1467.962174,7179.997637,-5773.606348,306.438199
1467.962503,6513.812290,-6143.709319,-612.876398
1467.962833,5477.523971,-8512.368333,76.609550
1467.963162,6217.729913,-9622.677246,1149.143247
1467.963491,7179.997637,-10732.986159,1915.238745
1467.963820,6661.853478,-9104.533087,1302.362347
1467.964150,6587.832884,-8438.347739,1762.019645
1467.964479,7402.059420,-8068.244768,2298.286494
1467.964808,6217.729913,-4737.318029,612.876398
1467.965137,5477.523971,-4885.359217,1149.143247
1467.965467,7698.141797,-3627.009116,1149.143247
1467.965796,8068.244768,-2886.803174,153.219100
1467.966125,7105.977043,-3775.050304,1378.971896
1467.966455,7179.997637,-5403.503377,612.876398
1467.966784,7772.162391,-7031.956449,0.000000
1467.967113,6809.894666,-8068.244768,689.485948
1467.967442,6439.791695,-8734.430116,153.219100
1467.967771,7105.977043,-9918.759623,153.219100
1467.968101,7328.038826,-9696.697840,766.095498
1467.968430,7179.997637,-8290.306550,1149.143247
1467.968759,7328.038826,-7328.038826,536.266849
1467.969088,6365.771101,-5403.503377,1225.752797
1467.969417,6661.853478,-5033.400406,1685.410096
1467.969747,7772.162391,-4737.318029,1608.800546
1467.970076,7846.182985,-1554.432478,1225.752797
1467.970405,7920.203579,-3923.091493,1302.362347
1467.970734,7994.224174,-5403.503377,1225.752797
1467.971063,5995.668130,-4885.359217,-995.924147
1467.971393,5403.503377,-7402.059420,-459.657299
1467.971722,6661.853478,-7698.141797,153.219100
1467.972051,7031.956449,-8808.450710,153.219100
1467.972380,6069.688724,-9992.780217,842.705048
1467.972709,6957.935855,-8808.450710,1991.848295
1467.973039,7402.059420,-7624.121203,612.876398
1467.973368,6143.709319,-6143.709319,689.485948
1467.973697,6513.812290,-6439.791695,2145.067394
1467.974026,8956.491898,-4737.318029,1072.533697
1467.974355,7698.141797,-3182.885551,1378.971896
1467.974685,6883.915261,-2812.782580,689.485948
1467.975014,7476.080014,-4737.318029,536.266849
1467.975343,7402.059420,-5921.647536,689.485948
1467.975672,5847.626942,-7179.997637,536.266849
1467.976002,7254.018232,-8882.471304,2068.457845
1467.976331,7994.224174,-9030.512492,1532.190996
1467.976660,7254.018232,-7920.203579,1149.143247
1467.976989,7328.038826,-9030.512492,2221.676944
1467.977318,8142.265362,-6587.832884,1455.581446
1467.977648,6735.874072,-5403.503377,536.266849
1467.977977,5329.482782,-5625.565159,1072.533697
1467.978306,6735.874072,-4811.338623,1608.800546
1467.978635,7698.141797,-5255.462188,1149.143247
1467.978964,7179.997637,-5107.421000,1991.848295
1467.979294,6587.832884,-6069.688724,459.657299
1467.979623,6439.791695,-6661.853478,-229.828649
1467.979952,5551.544565,-7698.141797,306.438199
1467.980281,6587.832884,-8882.471304,842.705048
1467.980610,8290.306550,-7328.038826,842.705048
1467.980940,7254.018232,-6957.935855,1225.752797
1467.981269,6735.874072,-8660.409521,1302.362347
1467.981598,6735.874072,-7402.059420,1378.971896
1467.981927,5847.626942,-5921.647536,1302.362347
1467.982256,6513.812290,-5551.544565,689.485948
1467.982586,7994.224174,-4737.318029,1838.629195
1467.982915,8512.368333,-4515.256246,919.314598
1467.983244,8068.244768,-6587.832884,1838.629195
1467.983573,7328.038826,-7402.059420,1455.581446
1467.983902,5995.668130,-5107.421000,229.828649
1467.984232,4737.318029,-5329.482782,-919.314598
1467.984561,4737.318029,-8882.471304,536.266849
1467.984890,6439.791695,-8660.409521,1072.533697
1467.985219,7772.162391,-6587.832884,459.657299
1467.985548,8290.306550,-7476.080014,2528.115143
1467.985878,8216.285956,-7254.018232,2757.943793
1467.986207,7550.100608,-7105.977043,2374.896044
1467.986536,6439.791695,-5181.441594,1838.629195
1467.986865,6587.832884,-4293.194464,842.705048
1467.987194,7179.997637,-3849.070898,0.000000
1467.987524,6809.894666,-5033.400406,612.876398
1467.987853,6957.935855,-5995.668130,76.609550
1467.988182,6513.812290,-5699.585753,76.609550
1467.988511,5995.668130,-8734.430116,689.485948
1467.988840,6735.874072,-10214.842000,995.924147
1467.989170,7105.977043,-9474.636058,2528.115143
1467.989499,7698.141797,-8734.430116,2298.286494
1467.989828,8216.285956,-6513.812290,2068.457845
1467.990157,7105.977043,-6291.750507,1149.143247
1467.990486,6587.832884,-6291.750507,1532.190996
1467.990816,6883.915261,-4293.194464,1225.752797
1467.991145,7920.203579,-4071.132681,1225.752797
1467.991474,7698.141797,-2886.803174,1455.581446
1467.991803,7920.203579,-5255.462188,1915.238745
1467.992133,7402.059420,-5551.544565,1225.752797
1467.992462,5551.544565,-6439.791695,383.047749
1467.992791,5551.544565,-8364.327145,383.047749
1467.993120,6883.915261,-8882.471304,919.314598
1467.993449,6809.894666,-11251.130318,1838.629195
1467.993779,6439.791695,-9178.553681,2221.676944
1467.994108,6513.812290,-7254.018232,1762.019645
1467.994437,5995.668130,-5995.668130,383.047749
1467.994766,5329.482782,-5329.482782,1149.143247
1467.995095,7328.038826,-6735.874072,2374.896044
1467.995425,9178.553681,-3701.029710,1915.238745
1467.995754,7105.977043,-3404.947333,1762.019645
1467.996083,6883.915261,-5033.400406,1532.190996
1467.996412,7402.059420,-4663.297435,153.219100
1467.996741,6143.709319,-5329.482782,-383.047749
1467.997071,5477.523971,-6587.832884,919.314598
1467.997400,7105.977043,-7698.141797,0.000000
1467.997729,7476.080014,-9622.677246,842.705048
1467.998058,6883.915261,-9400.615463,1685.410096
1467.998387,7698.141797,-9178.553681,1838.629195
1467.998717,8068.244768,-7698.141797,689.485948
1467.999046,6217.729913,-6587.832884,1149.143247
1467.999375,6957.935855,-5773.606348,1225.752797
1467.999704,8290.306550,-3478.967927,689.485948
1468.000033,7328.038826,-2960.823768,383.047749
1468.000363,7328.038826,-5033.400406,842.705048
1468.000692,7994.224174,-5181.441594,459.657299
1468.001021,6439.791695,-5699.585753,459.657299
1468.001350,4737.318029,-7031.956449,-689.485948
1468.001679,6069.688724,-8364.327145,689.485948
1468.002009,7772.162391,-8438.347739,919.314598
1468.002338,7846.182985,-9030.512492,995.924147
1468.002667,7550.100608,-9992.780217,2145.067394
1468.002996,7179.997637,-7476.080014,1685.410096
1468.003325,6587.832884,-6883.915261,0.000000
1468.003655,6439.791695,-5699.585753,1378.971896
1468.003984,7402.059420,-3552.988522,306.438199
1468.004313,7920.203579,-4737.318029,689.485948
1468.004642,7476.080014,-4293.194464,1762.019645
1468.004971,6513.812290,-4219.173869,-536.266849
1468.005301,5329.482782,-5255.462188,76.609550
1468.005630,4885.359217,-6143.709319,306.438199
1468.005959,6069.688724,-9252.574275,1072.533697
1468.006288,7846.182985,-8512.368333,2604.724693
1468.006617,7402.059420,-8364.327145,2681.334243
1468.006947,7772.162391,-7994.224174,1455.581446
1468.007276,6735.874072,-6439.791695,1225.752797
1468.007605,6069.688724,-7476.080014,766.095498
1468.007934,7476.080014,-6957.935855,1149.143247
1468.008263,7698.141797,-5255.462188,1455.581446
1468.008593,7328.038826,-4367.215058,1532.190996
1468.008922,7698.141797,-5403.503377,1302.362347
1468.009251,7031.956449,-4811.338623,766.095498
1468.009580,5033.400406,-5921.647536,383.047749
1468.009910,5255.462188,-6957.935855,-229.828649
1468.010239,6735.874072,-6883.915261,153.219100
1468.010568,7772.162391,-8142.265362,1532.190996
1468.010897,8586.388927,-8068.244768,2374.896044
1468.011226,8364.327145,-7624.121203,1838.629195
1468.011556,6661.853478,-8216.285956,1072.533697
1468.011885,5403.503377,-6439.791695,1149.143247
1468.012214,8142.265362,-6809.894666,1838.629195
1468.012543,9104.533087,-5033.400406,2068.457845
1468.012872,7476.080014,-4737.318029,1838.629195
1468.013202,7402.059420,-5921.647536,1072.533697
1468.013531,7031.956449,-5107.421000,76.609550
1468.013860,5699.585753,-4737.318029,0.000000
1468.014189,6365.771101,-6809.894666,536.266849
1468.014518,7402.059420,-8438.347739,1302.362347
1468.014848,6661.853478,-9030.512492,1532.190996
1468.015177,5699.585753,-8660.409521,2145.067394
1468.015506,5847.626942,-7031.956449,229.828649
1468.015835,5551.544565,-6661.853478,0.000000
1468.016164,6217.729913,-7772.162391,1378.971896
1468.016494,8142.265362,-7476.080014,1915.238745
1468.016823,8068.244768,-5921.647536,2298.286494
1468.017152,6957.935855,-5181.441594,1608.800546
1468.017481,6809.894666,-4811.338623,536.266849
1468.017810,6439.791695,-4737.318029,-153.219100
1468.018140,5033.400406,-5181.441594,0.000000
1468.018469,6661.853478,-5699.585753,919.314598
1468.018798,7920.203579,-7105.977043,536.266849
1468.019127,7624.121203,-7105.977043,1762.019645
1468.019456,8068.244768,-8808.450710,3064.381992
1468.019786,8512.368333,-8364.327145,2221.676944
1468.020115,5403.503377,-6069.688724,689.485948
1468.020444,4145.153275,-6735.874072,0.000000
1468.020773,6439.791695,-5995.668130,0.000000
1468.021102,7920.203579,-4071.132681,995.924147
1468.021432,8586.388927,-4959.379811,1072.533697
1468.021761,8142.265362,-5033.400406,1838.629195
1468.022090,7624.121203,-5107.421000,1532.190996
1468.022419,6291.750507,-6957.935855,1532.190996
1468.022748,6291.750507,-6587.832884,1302.362347
1468.023078,7254.018232,-6587.832884,689.485948
1468.023407,7402.059420,-7994.224174,842.705048
1468.023736,6883.915261,-8512.368333,1302.362347
1468.024065,7179.997637,-7920.203579,1532.190996
1468.024394,6587.832884,-6439.791695,0.000000
1468.024724,6069.688724,-6513.812290,306.438199
1468.025053,6809.894666,-8364.327145,1608.800546
1468.025382,7254.018232,-7402.059420,1225.752797
1468.025711,7550.100608,-6513.812290,1378.971896
1468.026041,7994.224174,-5699.585753,995.924147
1468.026370,6957.935855,-4145.153275,-153.219100
1468.026699,6143.709319,-5995.668130,689.485948
1468.027028,6957.935855,-6513.812290,919.314598
1468.027357,7254.018232,-5699.585753,842.705048
1468.027687,7254.018232,-6291.750507,2068.457845
1468.028016,7254.018232,-7402.059420,1915.238745
1468.028345,7105.977043,-8068.244768,1378.971896
1468.028674,6365.771101,-7402.059420,1149.143247
1468.029003,6439.791695,-7254.018232,1149.143247
1468.029333,7254.018232,-6661.853478,306.438199
1468.029662,7254.018232,-6957.935855,1225.752797
1468.029991,7328.038826,-6069.688724,766.095498
1468.030320,7105.977043,-6439.791695,-153.219100
1468.030649,4737.318029,-5403.503377,-842.705048
1468.030979,4367.215058,-6439.791695,0.000000
1468.031308,6735.874072,-7031.956449,1149.143247
1468.031637,8660.409521,-6883.915261,1915.238745
1468.031966,8956.491898,-6883.915261,2528.115143
1468.032295,8068.244768,-6809.894666,2834.553343
1468.032625,6735.874072,-6513.812290,689.485948
1468.032954,4589.276840,-5033.400406,-612.876398
1468.033283,5107.421000,-5773.606348,0.000000
1468.033612,7846.182985,-5847.626942,612.876398
1468.033941,7920.203579,-6439.791695,1532.190996
1468.034271,7328.038826,-7105.977043,1455.581446
1468.034600,7328.038826,-7179.997637,995.924147
1468.034929,7476.080014,-6513.812290,0.000000
1468.035258,5551.544565,-6587.832884,1149.143247
1468.035587,6365.771101,-7476.080014,1302.362347
1468.035917,7772.162391,-6439.791695,1302.362347
1468.036246,7105.977043,-5625.565159,2145.067394
1468.036575,7624.121203,-6587.832884,2221.676944
1468.036904,8142.265362,-6957.935855,1915.238745
1468.037233,5773.606348,-6883.915261,1455.581446
1468.037563,4885.359217,-7550.100608,536.266849
1468.037892,7031.956449,-6883.915261,842.705048
1468.038221,7402.059420,-6069.688724,1149.143247
1468.038550,7550.100608,-6735.874072,1455.581446
1468.038879,6883.915261,-7105.977043,1455.581446
1468.039209,6069.688724,-6809.894666,229.828649
1468.039538,5699.585753,-6809.894666,76.609550
1468.039867,6069.688724,-6883.915261,689.485948
1468.040196,7550.100608,-7179.997637,1149.143247
1468.040525,8364.327145,-6217.729913,2221.676944
1468.040855,8290.306550,-6809.894666,2757.943793
1468.041184,7476.080014,-4959.379811,1455.581446
1468.041513,6883.915261,-4811.338623,1685.410096
1468.041842,6957.935855,-6735.874072,1149.143247
1468.042172,7920.203579,-6513.812290,1532.190996
1468.042501,6587.832884,-7328.038826,2298.286494
1468.042830,7254.018232,-6957.935855,1225.752797
1468.043159,6883.915261,-5921.647536,76.609550
1468.043488,5403.503377,-6069.688724,-383.047749
1468.043818,5773.606348,-7328.038826,459.657299
1468.044147,7476.080014,-7105.977043,1225.752797
1468.044476,8142.265362,-7179.997637,1838.629195
1468.044805,7402.059420,-6439.791695,1838.629195
1468.045134,7476.080014,-5921.647536,2145.067394
1468.045464,7031.956449,-6587.832884,1225.752797
1468.045793,5921.647536,-5921.647536,919.314598
1468.046122,6439.791695,-5995.668130,919.314598
1468.046451,7402.059420,-6883.915261,229.828649
1468.046780,7550.100608,-5773.606348,689.485948
1468.047110,7624.121203,-7105.977043,1532.190996
1468.047439,6957.935855,-7698.141797,459.657299
1468.047768,5477.523971,-6513.812290,76.609550
1468.048097,5403.503377,-7698.141797,536.266849
1468.048426,6735.874072,-6809.894666,766.095498
1468.048756,7402.059420,-5847.626942,842.705048
1468.049085,8068.244768,-7179.997637,1991.848295
1468.049414,8290.306550,-6957.935855,2987.772442
1468.049743,6735.874072,-5107.421000,1072.533697
1468.050072,4959.379811,-3330.926739,459.657299
1468.050402,6587.832884,-5255.462188,689.485948
1468.050731,8364.327145,-5329.482782,1455.581446
1468.051060,7328.038826,-5477.523971,383.047749
1468.051389,5699.585753,-6957.935855,842.705048
1468.051718,7179.997637,-6513.812290,306.438199
1468.052048,6809.894666,-7994.224174,-229.828649
1468.052377,5995.668130,-8660.409521,1302.362347
1468.052706,7105.977043,-8068.244768,2145.067394
1468.053035,9030.512492,-8734.430116,995.924147
1468.053364,7402.059420,-5699.585753,1378.971896
1468.053694,6365.771101,-5033.400406,842.705048
1468.054023,6809.894666,-4811.338623,536.266849
1468.054352,6735.874072,-4885.359217,842.705048
1468.054681,7698.141797,-6957.935855,1072.533697
1468.055010,8734.430116,-6365.771101,2068.457845
1468.055340,9104.533087,-6143.709319,2681.334243
1468.055669,8216.285956,-6809.894666,1225.752797
1468.055998,5847.626942,-6217.729913,-536.266849
1468.056327,4737.318029,-7328.038826,-1225.752797
1468.056656,5551.544565,-8068.244768,153.219100
1468.056986,6291.750507,-7476.080014,306.438199
1468.057315,6957.935855,-7476.080014,1608.800546
1468.057644,8364.327145,-6883.915261,2528.115143
1468.057973,8660.409521,-6217.729913,2834.553343
1468.058303,6809.894666,-5329.482782,2221.676944
1468.058632,5625.565159,-5033.400406,995.924147
1468.058961,7105.977043,-5107.421000,612.876398
1468.059290,7476.080014,-5995.668130,842.705048
1468.059619,6587.832884,-5847.626942,766.095498
1468.059949,6809.894666,-6587.832884,383.047749
1468.060278,6143.709319,-6587.832884,-842.705048
1468.060607,4737.318029,-7624.121203,-459.657299
1468.060936,5921.647536,-8956.491898,1762.019645
1468.061265,7994.224174,-8290.306550,1149.143247
1468.061595,8882.471304,-7254.018232,1838.629195
1468.061924,8142.265362,-6587.832884,2451.505594
1468.062253,8438.347739,-5625.565159,1838.629195
1468.062582,7031.956449,-4441.235652,459.657299
1468.062911,5847.626942,-2664.741391,0.000000
1468.063241,7179.997637,-4219.173869,-383.047749
1468.063570,8512.368333,-5255.462188,0.000000
1468.063899,7179.997637,-7031.956449,1608.800546
1468.064228,7105.977043,-7994.224174,1378.971896
1468.064557,7328.038826,-6735.874072,0.000000
1468.064887,5551.544565,-7920.203579,-76.609550
1468.065216,5773.606348,-8290.306550,1302.362347
1468.065545,7254.018232,-7698.141797,1302.362347
1468.065874,7994.224174,-7328.038826,1532.190996
1468.066203,7550.100608,-6217.729913,1991.848295
1468.066533,6809.894666,-5329.482782,1149.143247
1468.066862,5625.565159,-4219.173869,689.485948
1468.067191,6143.709319,-4737.318029,1685.410096
1468.067520,6883.915261,-5551.544565,842.705048
1468.067849,7105.977043,-5255.462188,383.047749
1468.068179,6143.709319,-5033.400406,612.876398
1468.068508,6661.853478,-6587.832884,306.438199
1468.068837,7254.018232,-8512.368333,-689.485948
1468.069166,5847.626942,-8438.347739,766.095498
1468.069496,6069.688724,-9400.615463,0.000000
1468.069825,7994.224174,-9992.780217,1455.581446
1468.070154,8216.285956,-7624.121203,2451.505594
1468.070483,7328.038826,-5329.482782,306.438199
1468.070813,7105.977043,-6587.832884,1762.019645
1468.071142,7105.977043,-4737.318029,2374.896044
1468.071471,6957.935855,-4737.318029,919.314598
1468.071800,7624.121203,-4515.256246,1608.800546
1468.072130,7994.224174,-2812.782580,919.314598
1468.072459,8068.244768,-6439.791695,1685.410096
1468.072788,7624.121203,-6957.935855,1532.190996
1468.073117,5699.585753,-6587.832884,-995.924147
1468.073446,4589.276840,-8586.388927,-383.047749
1468.073776,5995.668130,-8364.327145,306.438199
1468.074105,6883.915261,-9770.718434,306.438199
1468.074434,7476.080014,-8734.430116,2834.553343
1468.074763,7698.141797,-8734.430116,2451.505594
1468.075093,7920.203579,-7402.059420,2757.943793
1468.075422,6735.874072,-4663.297435,1915.238745
1468.075751,6513.812290,-4145.153275,1455.581446
1468.076080,7624.121203,-3701.029710,689.485948
1468.076410,7105.977043,-3478.967927,612.876398
1468.076739,6291.750507,-4737.318029,1225.752797
1468.077068,7254.018232,-5329.482782,689.485948
1468.077397,7179.997637,-5847.626942,689.485948
1468.077727,6143.709319,-8364.327145,919.314598
1468.078056,6883.915261,-9844.739029,1302.362347
1468.078385,7254.018232,-9400.615463,689.485948
1468.078714,7105.977043,-9178.553681,1072.533697
1468.079044,7994.224174,-7698.141797,2451.505594
1468.079373,7550.100608,-5847.626942,1532.190996
1468.079702,5921.647536,-5403.503377,1762.019645
1468.080031,6143.709319,-4589.276840,2298.286494
1468.080361,7402.059420,-3404.947333,1608.800546
1468.080690,7328.038826,-4293.194464,1915.238745
1468.081019,6809.894666,-4811.338623,2221.676944
1468.081348,7328.038826,-4293.194464,612.876398
1468.081678,6513.812290,-5773.606348,-766.095498
1468.082007,5551.544565,-7624.121203,612.876398
1468.082336,6439.791695,-8734.430116,689.485948
1468.082665,7328.038826,-9770.718434,459.657299
1468.082995,6365.771101,-8660.409521,1149.143247
1468.083324,6587.832884,-9474.636058,1455.581446
1468.083653,7328.038826,-7920.203579,1149.143247
1468.083982,6291.750507,-6217.729913,1302.362347
1468.084312,7402.059420,-6513.812290,1838.629195
1468.084641,8512.368333,-4737.318029,1455.581446
1468.084970,6957.935855,-4293.194464,1072.533697
1468.085299,6291.750507,-4293.194464,536.266849
1468.085628,6365.771101,-4737.318029,-383.047749
1468.085958,6291.750507,-7031.956449,-1225.752797
1468.086287,5477.523971,-8660.409521,1762.019645
1468.086616,7846.182985,-8364.327145,2451.505594
1468.086945,8956.491898,-7920.203579,842.705048
1468.087275,8068.244768,-8512.368333,2528.115143
1468.087604,7920.203579,-7698.141797,2374.896044
1468.087933,7402.059420,-6883.915261,306.438199
1468.088262,5181.441594,-5625.565159,153.219100
1468.088592,5329.482782,-4219.173869,0.000000
1468.088921,7624.121203,-5477.523971,383.047749
1468.089250,7328.038826,-4737.318029,536.266849
1468.089579,6587.832884,-6365.771101,2374.896044
1468.089909,6883.915261,-6661.853478,76.609550
1468.090238,6513.812290,-5847.626942,0.000000
1468.090567,5625.565159,-7179.997637,1149.143247
1468.090896,7105.977043,-7994.224174,2298.286494
1468.091226,8586.388927,-7254.018232,612.876398
1468.091555,7772.162391,-7105.977043,1072.533697
1468.091884,7994.224174,-7105.977043,1762.019645
1468.092213,7550.100608,-6217.729913,1072.533697
1468.092543,6587.832884,-5107.421000,459.657299
1468.092872,5773.606348,-6365.771101,842.705048
1468.093201,7550.100608,-5107.421000,766.095498
1468.093530,7624.121203,-5033.400406,1225.752797
1468.093860,6587.832884,-5995.668130,1608.800546
1468.094189,7698.141797,-6217.729913,229.828649
1468.094518,6661.853478,-5921.647536,-459.657299
1468.094847,5403.503377,-7402.059420,0.000000
1468.095177,6365.771101,-9474.636058,1225.752797
1468.095506,7476.080014,-7624.121203,766.095498
1468.095835,7254.018232,-7772.162391,1991.848295
1468.096164,7254.018232,-7402.059420,2221.676944
1468.096494,7328.038826,-6587.832884,2374.896044
1468.096823,6439.791695,-5477.523971,1149.143247
1468.097152,6809.894666,-5995.668130,459.657299
1468.097481,7179.997637,-4959.379811,766.095498
1468.097810,7328.038826,-4737.318029,0.000000
1468.098140,7105.977043,-6439.791695,689.485948
1468.098469,7179.997637,-4737.318029,0.000000
1468.098798,6365.771101,-6143.709319,-1455.581446
1468.099127,4663.297435,-8290.306550,76.609550
1468.099457,5847.626942,-9326.594869,1072.533697
1468.099786,7772.162391,-9622.677246,1302.362347
1468.100115,7994.224174,-8438.347739,2528.115143
1468.100444,7772.162391,-8364.327145,2834.553343
1468.100774,7328.038826,-6291.750507,1762.019645
1468.101103,5847.626942,-5033.400406,766.095498
1468.101432,6809.894666,-4441.235652,459.657299
1468.101761,8438.347739,-3182.885551,995.924147
1468.102091,8364.327145,-3701.029710,1838.629195
1468.102420,7105.977043,-4811.338623,919.314598
1468.102749,5403.503377,-6439.791695,383.047749
1468.103078,5181.441594,-7254.018232,0.000000
1468.103408,5403.503377,-8882.471304,0.000000
1468.103737,7179.997637,-9622.677246,1455.581446
1468.104066,8512.368333,-8734.430116,1455.581446
1468.104395,8142.265362,-9844.739029,842.705048
1468.104725,7031.956449,-9178.553681,1685.410096
1468.105054,5773.606348,-5847.626942,1149.143247
1468.105383,5995.668130,-5551.544565,0.000000
1468.105712,6069.688724,-3701.029710,2145.067394
1468.106042,7328.038826,-2738.761985,2374.896044
1468.106371,8882.471304,-4367.215058,2298.286494
1468.106700,8586.388927,-3997.112087,2528.115143
1468.107029,7328.038826,-3849.070898,229.828649
1468.107359,6439.791695,-5773.606348,-306.438199
1468.107688,6069.688724,-6291.750507,383.047749
1468.108017,6735.874072,-8216.285956,612.876398
1468.108346,7772.162391,-9474.636058,1149.143247
1468.108676,7624.121203,-9326.594869,1608.800546
1468.109005,7254.018232,-8216.285956,2374.896044
1468.109334,6883.915261,-8216.285956,1378.971896
1468.109663,6587.832884,-7328.038826,1072.533697
1468.109992,7105.977043,-5773.606348,1762.019645
1468.110322,7550.100608,-5477.523971,1915.238745
1468.110651,7402.059420,-2960.823768,1302.362347
1468.110980,6587.832884,-3552.988522,766.095498
1468.111309,5699.585753,-3849.070898,-383.047749
