#time,accel_x,accel_y,accel_z
1416.079938,6957.935855,-6735.874072,919.314598
1416.080269,6809.894666,-6735.874072,1225.752797
1416.080599,7105.977043,-6513.812290,995.924147
1416.080929,7031.956449,-7105.977043,766.095498
1416.081260,6661.853478,-6883.915261,1225.752797
1416.081590,7031.956449,-6883.915261,766.095498
1416.081920,6957.935855,-6587.832884,1225.752797
1416.082251,6957.935855,-6365.771101,1149.143247
1416.082581,7031.956449,-6735.874072,1072.533697
1416.082911,7402.059420,-6587.832884,842.705048
1416.083242,7179.997637,-6809.894666,995.924147
1416.083572,7179.997637,-6513.812290,1378.971896
1416.083902,7105.977043,-6661.853478,919.314598
1416.084233,6957.935855,-6883.915261,919.314598
1416.084563,6883.915261,-6439.791695,919.314598
1416.084893,6809.894666,-6587.832884,1455.581446
1416.085224,6661.853478,-5921.647536,995.924147
1416.085554,6957.935855,-6587.832884,1302.362347
1416.085885,6735.874072,-6513.812290,1149.143247
1416.086215,7105.977043,-5995.668130,919.314598
1416.086545,6291.750507,-6809.894666,995.924147
1416.086876,6587.832884,-6735.874072,1149.143247
1416.087206,6957.935855,-6883.915261,1072.533697
1416.087536,6809.894666,-6809.894666,1225.752797
1416.087867,6809.894666,-6735.874072,1072.533697
1416.088197,7254.018232,-6957.935855,766.095498
1416.088527,6661.853478,-6809.894666,766.095498
1416.088858,6661.853478,-7031.956449,766.095498
1416.089188,7105.977043,-6661.853478,689.485948
1416.089518,7105.977043,-6217.729913,1149.143247
1416.089849,7328.038826,-6291.750507,612.876398
1416.090179,7550.100608,-6217.729913,1225.752797
1416.090509,7624.121203,-6365.771101,995.924147
1416.090840,7105.977043,-6365.771101,995.924147
1416.091170,7328.038826,-5847.626942,1149.143247
1416.091500,7179.997637,-6291.750507,995.924147
1416.091831,7402.059420,-6365.771101,1072.533697
1416.092161,7550.100608,-6291.750507,1225.752797
1416.092491,7105.977043,-6291.750507,1149.143247
1416.092822,7624.121203,-6217.729913,842.705048
1416.093152,7179.997637,-6291.750507,1072.533697
1416.093482,6735.874072,-6365.771101,842.705048
1416.093813,6809.894666,-6587.832884,842.705048
1416.094143,6291.750507,-6661.853478,1302.362347
1416.094473,6513.812290,-7105.977043,1225.752797
1416.094804,6957.935855,-6809.894666,1378.971896
1416.095134,7031.956449,-6587.832884,1149.143247
1416.095464,7031.956449,-7254.018232,1149.143247
1416.095795,6883.915261,-6513.812290,1532.190996
1416.096125,6587.832884,-7179.997637,919.314598
1416.096455,7105.977043,-6809.894666,612.876398
1416.096786,6883.915261,-6291.750507,1225.752797
1416.097116,7031.956449,-6587.832884,1149.143247
1416.097446,7624.121203,-6809.894666,1455.581446
1416.097777,7105.977043,-6439.791695,842.705048
1416.098107,6957.935855,-6661.853478,995.924147
1416.098437,6883.915261,-6587.832884,995.924147
1416.098768,6809.894666,-6365.771101,1149.143247
1416.099098,7031.956449,-6587.832884,842.705048
1416.099428,6883.915261,-6809.894666,1302.362347
1416.099759,6957.935855,-6809.894666,1225.752797
1416.100089,7105.977043,-6291.750507,1149.143247
1416.100419,7031.956449,-5921.647536,919.314598
1416.100750,6735.874072,-6587.832884,842.705048
1416.101080,6735.874072,-6809.894666,689.485948
1416.101410,6513.812290,-6735.874072,1225.752797
1416.101741,6513.812290,-7105.977043,1225.752797
1416.102071,7031.956449,-6883.915261,919.314598
1416.102401,6957.935855,-7105.977043,1072.533697
1416.102732,6735.874072,-6809.894666,842.705048
1416.103062,6809.894666,-6735.874072,689.485948
1416.103392,7105.977043,-6587.832884,919.314598
1416.103723,7031.956449,-6439.791695,842.705048
1416.104053,7105.977043,-6661.853478,1149.143247
1416.104383,7105.977043,-6661.853478,1149.143247
1416.104714,7254.018232,-6587.832884,995.924147
1416.105044,7402.059420,-6217.729913,1302.362347
1416.105374,7328.038826,-6365.771101,919.314598
1416.105705,7254.018232,-6217.729913,995.924147
1416.106035,7254.018232,-6217.729913,766.095498
1416.106365,7254.018232,-6143.709319,766.095498
1416.106696,7105.977043,-5995.668130,919.314598
1416.107026,7031.956449,-6217.729913,1455.581446
1416.107356,7179.997637,-6439.791695,1149.143247
1416.107687,7105.977043,-6143.709319,1225.752797
1416.108017,6587.832884,-5773.606348,1608.800546
1416.108347,7328.038826,-6143.709319,1302.362347
1416.108678,6735.874072,-6513.812290,1225.752797
1416.109008,6809.894666,-6735.874072,1149.143247
1416.109338,6809.894666,-6291.750507,1149.143247
1416.109669,6957.935855,-6661.853478,919.314598
1416.109999,6735.874072,-7031.956449,919.314598
1416.110329,6809.894666,-7105.977043,689.485948
1416.110660,6735.874072,-6809.894666,995.924147
1416.110990,6661.853478,-6661.853478,1608.800546
1416.111320,7105.977043,-6661.853478,1072.533697
1416.111651,7105.977043,-6587.832884,1225.752797
1416.111981,7105.977043,-6883.915261,1072.533697
1416.112311,7402.059420,-6735.874072,766.095498
1416.112642,7402.059420,-6069.688724,1149.143247
1416.112972,7031.956449,-6439.791695,1302.362347
1416.113302,7105.977043,-6217.729913,1455.581446
1416.113633,7105.977043,-6291.750507,995.924147
1416.113963,6735.874072,-6809.894666,766.095498
1416.114293,6735.874072,-6957.935855,1149.143247
1416.114624,7031.956449,-6587.832884,919.314598
1416.114954,6809.894666,-6661.853478,1225.752797
1416.115284,6883.915261,-6291.750507,1149.143247
1416.115615,7254.018232,-6365.771101,306.438199
1416.115945,6661.853478,-7105.977043,1072.533697
1416.116275,6957.935855,-6883.915261,1302.362347
1416.116606,6809.894666,-6809.894666,1302.362347
1416.116936,6661.853478,-6735.874072,1149.143247
1416.117266,6735.874072,-6513.812290,1072.533697
1416.117597,6735.874072,-7031.956449,842.705048
1416.117927,6735.874072,-6809.894666,1072.533697
1416.118257,6513.812290,-6957.935855,766.095498
1416.118588,6957.935855,-6883.915261,1149.143247
1416.118918,7105.977043,-6291.750507,1072.533697
1416.119248,6957.935855,-6439.791695,766.095498
1416.119579,7105.977043,-6217.729913,689.485948
1416.119909,7550.100608,-6069.688724,766.095498
1416.120239,7328.038826,-6143.709319,842.705048
1416.120570,7328.038826,-6439.791695,1225.752797
1416.120900,7402.059420,-6365.771101,919.314598
1416.121230,7402.059420,-6439.791695,689.485948
1416.121561,6883.915261,-5995.668130,1225.752797
1416.121891,7031.956449,-6587.832884,1225.752797
1416.122221,7105.977043,-6291.750507,766.095498
1416.122552,7105.977043,-6513.812290,1455.581446
1416.122882,7105.977043,-5921.647536,1302.362347
1416.123212,7105.977043,-6735.874072,229.828649
1416.123543,6957.935855,-6587.832884,1378.971896
1416.123873,6661.853478,-6365.771101,995.924147
1416.124203,7105.977043,-6587.832884,995.924147
1416.124534,6661.853478,-6217.729913,1915.238745
1416.124864,7402.059420,-7031.956449,1072.533697
1416.125194,6957.935855,-6883.915261,995.924147
1416.125525,6809.894666,-6883.915261,842.705048
1416.125855,6809.894666,-6957.935855,689.485948
1416.126185,6957.935855,-6069.688724,1149.143247
1416.126516,6957.935855,-6883.915261,919.314598
1416.126846,7031.956449,-6587.832884,919.314598
1416.127176,7031.956449,-6439.791695,1455.581446
1416.127507,7254.018232,-6439.791695,919.314598
1416.127837,7031.956449,-5921.647536,842.705048
1416.128167,7031.956449,-6439.791695,1072.533697
1416.128498,7105.977043,-6513.812290,689.485948
1416.128828,6957.935855,-6291.750507,842.705048
1416.129158,7105.977043,-6513.812290,842.705048
1416.129489,7105.977043,-6365.771101,842.705048
1416.129819,7031.956449,-6513.812290,842.705048
1416.130149,6661.853478,-6661.853478,1072.533697
1416.130480,6439.791695,-6661.853478,1149.143247
1416.130810,7031.956449,-7105.977043,1532.190996
1416.131140,6883.915261,-6957.935855,689.485948
1416.131471,6661.853478,-6735.874072,612.876398
1416.131801,6513.812290,-6587.832884,919.314598
1416.132131,6883.915261,-6809.894666,842.705048
1416.132462,6809.894666,-6661.853478,919.314598
1416.132792,6735.874072,-6661.853478,842.705048
1416.133122,6735.874072,-6883.915261,612.876398
1416.133453,7550.100608,-6513.812290,842.705048
1416.133783,7031.956449,-6069.688724,1455.581446
1416.134113,7105.977043,-6661.853478,995.924147
1416.134444,7254.018232,-6439.791695,1225.752797
1416.134774,7402.059420,-6513.812290,766.095498
1416.135104,7179.997637,-6291.750507,919.314598
1416.135435,7624.121203,-6439.791695,995.924147
1416.135765,7105.977043,-6291.750507,842.705048
1416.136095,6957.935855,-5921.647536,842.705048
1416.136426,7179.997637,-5995.668130,1225.752797
1416.136756,7105.977043,-5921.647536,1455.581446
1416.137086,7105.977043,-5995.668130,1225.752797
1416.137417,6957.935855,-5921.647536,1072.533697
1416.137747,6957.935855,-6291.750507,919.314598
1416.138077,6809.894666,-6587.832884,1149.143247
1416.138408,6809.894666,-6513.812290,995.924147
1416.138738,6883.915261,-6809.894666,1072.533697
1416.139068,6513.812290,-6883.915261,1455.581446
1416.139399,6809.894666,-6587.832884,1225.752797
1416.139729,7328.038826,-6291.750507,536.266849
1416.140059,6661.853478,-6661.853478,919.314598
1416.140390,6587.832884,-6809.894666,995.924147
1416.140720,7031.956449,-6735.874072,842.705048
1416.141050,7254.018232,-6291.750507,1149.143247
1416.141381,7031.956449,-6513.812290,995.924147
1416.141711,7328.038826,-6513.812290,1149.143247
1416.142041,7105.977043,-6735.874072,1149.143247
1416.142372,7031.956449,-6587.832884,459.657299
1416.142702,7179.997637,-6587.832884,919.314598
1416.143032,6883.915261,-6217.729913,1225.752797
1416.143363,7105.977043,-6513.812290,919.314598
1416.143693,7031.956449,-6513.812290,1072.533697
1416.144023,6957.935855,-6513.812290,919.314598
1416.144354,6957.935855,-6069.688724,1225.752797
1416.144684,6809.894666,-6217.729913,995.924147
1416.145014,6587.832884,-6513.812290,995.924147
1416.145345,6439.791695,-6735.874072,1149.143247
1416.145675,6587.832884,-6661.853478,1455.581446
1416.146005,6883.915261,-6809.894666,1149.143247
1416.146336,6587.832884,-6809.894666,1072.533697
1416.146666,6513.812290,-6883.915261,1072.533697
1416.146995,6735.874072,-6883.915261,919.314598
1416.147325,6809.894666,-6957.935855,1685.410096
1416.147654,6661.853478,-6957.935855,842.705048
1416.147983,6809.894666,-6661.853478,459.657299
1416.148313,7031.956449,-6661.853478,1378.971896
1416.148642,6957.935855,-6809.894666,1072.533697
1416.148971,7328.038826,-6587.832884,766.095498
1416.149300,7328.038826,-6143.709319,1149.143247
1416.149630,7105.977043,-6365.771101,919.314598
1416.149959,7105.977043,-6217.729913,1072.533697
1416.150288,7031.956449,-6143.709319,1149.143247
1416.150618,7031.956449,-6735.874072,995.924147
1416.150947,7105.977043,-6069.688724,689.485948
1416.151276,7105.977043,-6143.709319,842.705048
1416.151605,7179.997637,-6291.750507,1072.533697
1416.151935,7179.997637,-6217.729913,1149.143247
1416.152264,7031.956449,-6513.812290,919.314598
1416.152593,6883.915261,-6513.812290,536.266849
1416.152923,6513.812290,-6661.853478,842.705048
1416.153252,6809.894666,-6735.874072,1072.533697
1416.153581,6587.832884,-6291.750507,1225.752797
1416.153910,7031.956449,-6809.894666,1149.143247
1416.154240,6883.915261,-6587.832884,919.314598
1416.154569,6735.874072,-7105.977043,842.705048
1416.154898,6809.894666,-6513.812290,536.266849
1416.155228,6883.915261,-7105.977043,612.876398
1416.155557,7179.997637,-6735.874072,919.314598
1416.155886,7254.018232,-6217.729913,1225.752797
1416.156215,7179.997637,-6735.874072,919.314598
1416.156545,7476.080014,-6217.729913,1532.190996
1416.156874,7179.997637,-6365.771101,1149.143247
1416.157203,6809.894666,-6513.812290,995.924147
1416.157533,7105.977043,-6365.771101,919.314598
1416.157862,7105.977043,-6735.874072,536.266849
1416.158191,6587.832884,-6217.729913,995.924147
1416.158520,6809.894666,-6291.750507,1072.533697
1416.158850,7105.977043,-6587.832884,1378.971896
1416.159179,7254.018232,-6661.853478,919.314598
1416.159508,7105.977043,-6661.853478,919.314598
1416.159838,6809.894666,-6661.853478,919.314598
1416.160167,6809.894666,-6957.935855,919.314598
1416.160496,6809.894666,-6587.832884,1532.190996
1416.160825,6587.832884,-6809.894666,995.924147
1416.161155,6735.874072,-6957.935855,1072.533697
1416.161484,6735.874072,-7031.956449,1225.752797
1416.161813,6809.894666,-7105.977043,766.095498
1416.162142,6587.832884,-6957.935855,1072.533697
1416.162472,6587.832884,-6883.915261,689.485948
1416.162801,7105.977043,-6957.935855,766.095498
1416.163130,7105.977043,-7105.977043,1378.971896
1416.163460,7179.997637,-7031.956449,995.924147
1416.163789,7179.997637,-6661.853478,1225.752797
1416.164118,7624.121203,-6365.771101,766.095498
1416.164447,7476.080014,-5995.668130,842.705048
1416.164777,7105.977043,-6365.771101,1149.143247
1416.165106,7105.977043,-6587.832884,383.047749
1416.165435,6957.935855,-5995.668130,995.924147
1416.165765,7031.956449,-6587.832884,1532.190996
1416.166094,7031.956449,-6069.688724,995.924147
1416.166423,7031.956449,-6439.791695,995.924147
1416.166752,6957.935855,-6439.791695,1072.533697
1416.167082,7105.977043,-6439.791695,919.314598
1416.167411,6809.894666,-6439.791695,995.924147
1416.167740,6735.874072,-6957.935855,1072.533697
1416.168070,6883.915261,-6883.915261,1149.143247
1416.168399,7105.977043,-6735.874072,919.314598
1416.168728,6883.915261,-6513.812290,1378.971896
1416.169057,7105.977043,-6883.915261,766.095498
1416.169387,6883.915261,-6957.935855,995.924147
1416.169716,6661.853478,-6735.874072,919.314598
1416.170045,7105.977043,-6661.853478,459.657299
1416.170375,7031.956449,-6513.812290,919.314598
1416.170704,7105.977043,-6883.915261,995.924147
1416.171033,7550.100608,-6513.812290,1149.143247
1416.171362,7624.121203,-6439.791695,995.924147
1416.171692,7698.141797,-6513.812290,1302.362347
1416.172021,7254.018232,-6143.709319,1149.143247
1416.172350,7328.038826,-6217.729913,919.314598
1416.172680,7105.977043,-6291.750507,919.314598
1416.173009,7105.977043,-6217.729913,766.095498
1416.173338,7031.956449,-6513.812290,1225.752797
1416.173667,6957.935855,-6439.791695,1302.362347
1416.173997,7105.977043,-6513.812290,995.924147
1416.174326,6661.853478,-6439.791695,1072.533697
1416.174655,6513.812290,-6661.853478,1608.800546
1416.174985,6513.812290,-6809.894666,919.314598
1416.175314,6365.771101,-6809.894666,1225.752797
1416.175643,6735.874072,-6809.894666,1072.533697
1416.175972,6809.894666,-6661.853478,1378.971896
1416.176302,7179.997637,-6957.935855,1149.143247
1416.176631,6957.935855,-6957.935855,1149.143247
1416.176960,6809.894666,-6883.915261,995.924147
1416.177290,6587.832884,-7105.977043,995.924147
1416.177619,6661.853478,-6661.853478,1378.971896
1416.177948,7031.956449,-6291.750507,612.876398
1416.178277,6957.935855,-6735.874072,919.314598
1416.178607,7254.018232,-6291.750507,1302.362347
1416.178936,7254.018232,-6217.729913,919.314598
1416.179265,6957.935855,-5995.668130,995.924147
1416.179595,6809.894666,-6291.750507,842.705048
1416.179924,7105.977043,-6439.791695,1072.533697
1416.180253,7254.018232,-6587.832884,919.314598
1416.180582,7031.956449,-6217.729913,1302.362347
1416.180912,7254.018232,-6439.791695,612.876398
1416.181241,7254.018232,-6365.771101,766.095498
1416.181570,6883.915261,-6143.709319,766.095498
1416.181900,6809.894666,-6587.832884,995.924147
1416.182229,6587.832884,-6291.750507,1149.143247
1416.182558,6883.915261,-6809.894666,995.924147
1416.182887,6883.915261,-6735.874072,842.705048
1416.183217,6957.935855,-6661.853478,1149.143247
1416.183546,6957.935855,-6513.812290,1225.752797
1416.183875,6735.874072,-7031.956449,1149.143247
1416.184205,6957.935855,-6883.915261,842.705048
1416.184534,6957.935855,-7105.977043,1072.533697
1416.184863,7254.018232,-6809.894666,919.314598
1416.185192,7105.977043,-5847.626942,1455.581446
1416.185522,7105.977043,-6587.832884,689.485948
1416.185851,7254.018232,-6439.791695,1225.752797
1416.186180,7105.977043,-6291.750507,1225.752797
1416.186509,7254.018232,-6217.729913,1072.533697
1416.186839,7328.038826,-5995.668130,1072.533697
1416.187168,7476.080014,-6513.812290,1225.752797
1416.187497,6883.915261,-6143.709319,919.314598
1416.187827,6735.874072,-6365.771101,1149.143247
1416.188156,6587.832884,-5995.668130,1302.362347
1416.188485,7105.977043,-6587.832884,842.705048
1416.188814,7105.977043,-6365.771101,1378.971896
1416.189144,6809.894666,-5995.668130,459.657299
1416.189473,6735.874072,-6809.894666,1149.143247
1416.189802,6217.729913,-6365.771101,2068.457845
1416.190132,6587.832884,-6587.832884,919.314598
1416.190461,6809.894666,-6587.832884,995.924147
1416.190790,6735.874072,-6883.915261,1149.143247
1416.191119,7105.977043,-7179.997637,1149.143247
1416.191449,6513.812290,-6957.935855,1532.190996
1416.191778,6661.853478,-7105.977043,995.924147
1416.192107,6513.812290,-6661.853478,689.485948
1416.192437,6957.935855,-6661.853478,1225.752797
1416.192766,7031.956449,-7031.956449,766.095498
1416.193095,7179.997637,-6661.853478,1532.190996
1416.193424,7254.018232,-6513.812290,1378.971896
1416.193754,7328.038826,-6735.874072,1149.143247
1416.194083,7254.018232,-6291.750507,842.705048
1416.194412,7550.100608,-6661.853478,1149.143247
1416.194742,6957.935855,-6661.853478,919.314598
1416.195071,7254.018232,-6365.771101,1072.533697
1416.195400,6957.935855,-6143.709319,919.314598
1416.195729,6957.935855,-6069.688724,1455.581446
1416.196059,7179.997637,-6217.729913,842.705048
1416.196388,6809.894666,-6291.750507,1378.971896
1416.196717,7105.977043,-5403.503377,919.314598
1416.197047,7772.162391,-5625.565159,1149.143247
1416.197376,7550.100608,-5329.482782,1378.971896
1416.197705,8290.306550,-5921.647536,919.314598
1416.198034,7846.182985,-6143.709319,1455.581446
1416.198364,6957.935855,-7105.977043,229.828649
1416.198693,5477.523971,-7846.182985,306.438199
1416.199022,5995.668130,-7031.956449,76.609550
1416.199352,6957.935855,-7402.059420,306.438199
1416.199681,8068.244768,-6587.832884,1378.971896
1416.200010,8290.306550,-5699.585753,1378.971896
1416.200339,9104.533087,-5107.421000,612.876398
1416.200669,8660.409521,-3997.112087,1608.800546
1416.200998,8142.265362,-4515.256246,1225.752797
1416.201327,8734.430116,-3849.070898,1072.533697
1416.201657,8808.450710,-4441.235652,995.924147
1416.201986,8956.491898,-4737.318029,766.095498
1416.202315,8216.285956,-4811.338623,919.314598
1416.202644,7846.182985,-5847.626942,842.705048
1416.202974,8290.306550,-4737.318029,306.438199
1416.203303,8956.491898,-5921.647536,1302.362347
1416.203632,8438.347739,-5477.523971,1532.190996
1416.203962,8068.244768,-5329.482782,689.485948
1416.204291,7920.203579,-6217.729913,1072.533697
1416.204620,7846.182985,-5181.441594,1149.143247
1416.204949,7994.224174,-5255.462188,919.314598
1416.205279,7994.224174,-4219.173869,1455.581446
1416.205608,8734.430116,-4737.318029,1225.752797
1416.205937,9104.533087,-4737.318029,1378.971896
1416.206267,9474.636058,-3775.050304,1149.143247
1416.206596,9400.615463,-3552.988522,995.924147
1416.206925,9844.739029,-2442.679609,1072.533697
1416.207254,9622.677246,-3182.885551,1225.752797
1416.207584,10066.800811,-4145.153275,1378.971896
1416.207913,10362.883188,-4219.173869,1378.971896
1416.208242,9622.677246,-4515.256246,1378.971896
1416.208571,9400.615463,-4219.173869,919.314598
1416.208901,8808.450710,-5255.462188,1225.752797
1416.209230,9030.512492,-5033.400406,766.095498
1416.209559,8290.306550,-5773.606348,689.485948
1416.209889,8142.265362,-5181.441594,1225.752797
1416.210218,8068.244768,-4515.256246,995.924147
1416.210547,8512.368333,-4515.256246,995.924147
1416.210876,8660.409521,-3923.091493,1149.143247
1416.211206,9104.533087,-4293.194464,842.705048
1416.211535,8808.450710,-4219.173869,612.876398
1416.211864,9178.553681,-4441.235652,995.924147
1416.212194,9400.615463,-4737.318029,766.095498
1416.212523,9030.512492,-5107.421000,1532.190996
1416.212852,8882.471304,-5625.565159,1149.143247
1416.213181,9178.553681,-4959.379811,76.609550
1416.213511,8290.306550,-5403.503377,306.438199
1416.213840,8364.327145,-5477.523971,612.876398
1416.214169,8808.450710,-5329.482782,689.485948
1416.214499,8808.450710,-4515.256246,1225.752797
1416.214828,8512.368333,-4071.132681,1225.752797
1416.215157,8956.491898,-4145.153275,1378.971896
1416.215486,9400.615463,-3404.947333,1838.629195
1416.215816,9622.677246,-3849.070898,2298.286494
1416.216145,9400.615463,-3330.926739,1915.238745
1416.216474,9400.615463,-2516.700203,1149.143247
1416.216804,9400.615463,-3034.844362,1225.752797
1416.217133,9548.656652,-3552.988522,1762.019645
1416.217462,9400.615463,-4145.153275,689.485948
1416.217791,9104.533087,-4293.194464,153.219100
1416.218121,8734.430116,-4515.256246,76.609550
1416.218450,9030.512492,-5033.400406,76.609550
1416.218779,8734.430116,-5625.565159,612.876398
1416.219109,8512.368333,-6587.832884,919.314598
1416.219438,8660.409521,-6217.729913,919.314598
1416.219767,8290.306550,-5921.647536,1072.533697
1416.220096,8364.327145,-5551.544565,1302.362347
1416.220426,8290.306550,-5403.503377,1762.019645
1416.220755,8734.430116,-5033.400406,1991.848295
1416.221084,8586.388927,-3849.070898,1532.190996
1416.221414,9178.553681,-1702.473667,1685.410096
1416.221743,9992.780217,-1702.473667,1302.362347
1416.222072,10881.027347,-1258.350101,459.657299
1416.222401,10807.006753,-1702.473667,153.219100
1416.222731,10658.965565,-1998.556043,536.266849
1416.223060,10807.006753,-3108.864956,0.000000
1416.223389,9696.697840,-4737.318029,383.047749
1416.223719,9104.533087,-6439.791695,459.657299
1416.224048,8216.285956,-8216.285956,612.876398
1416.224377,7031.956449,-8216.285956,1149.143247
1416.224706,6365.771101,-9400.615463,536.266849
1416.225036,6143.709319,-7772.162391,0.000000
1416.225365,6809.894666,-6883.915261,612.876398
1416.225694,7328.038826,-5033.400406,919.314598
1416.226024,9030.512492,-3108.864956,2374.896044
1416.226353,9696.697840,-2516.700203,1991.848295
1416.226682,10362.883188,-1406.391290,1838.629195
1416.227011,10436.903782,-666.185348,1378.971896
1416.227341,10955.047942,0.000000,1225.752797
1416.227670,11695.253884,-296.082377,1455.581446
1416.227999,12583.501014,-1184.329507,1455.581446
1416.228329,12435.459826,-1998.556043,1532.190996
1416.228658,11547.212695,-3627.009116,1455.581446
1416.228987,9844.739029,-6365.771101,1915.238745
1416.229316,7402.059420,-7772.162391,1072.533697
1416.229646,5181.441594,-9474.636058,153.219100
1416.229975,3849.070898,-9326.594869,-766.095498
1416.230304,3256.906145,-9030.512492,-1225.752797
1416.230633,4737.318029,-8438.347739,-383.047749
1416.230963,6809.894666,-7179.997637,383.047749
1416.231292,9400.615463,-5329.482782,1762.019645
1416.231621,10436.903782,-2812.782580,2068.457845
1416.231951,10510.924376,-1110.308913,2298.286494
1416.232280,11621.233289,-740.205942,1991.848295
1416.232609,11769.274478,296.082377,1915.238745
1416.232938,11991.336260,1332.370696,1225.752797
1416.233268,12583.501014,962.267725,1532.190996
1416.233597,13397.727550,-370.102971,2374.896044
1416.233926,13027.624579,-2812.782580,2757.943793
1416.234256,11547.212695,-3849.070898,2145.067394
1416.234585,8586.388927,-5329.482782,1685.410096
1416.234914,6809.894666,-7105.977043,612.876398
1416.235243,5107.421000,-8882.471304,0.000000
1416.235573,3404.947333,-9178.553681,-1072.533697
1416.235902,2442.679609,-10140.821405,-1608.800546
1416.236231,4515.256246,-7254.018232,-842.705048
1416.236561,8364.327145,-3849.070898,-612.876398
1416.236890,10584.944971,-3849.070898,306.438199
1416.237219,12139.377449,-2886.803174,1608.800546
1416.237548,12509.480420,-888.247130,1608.800546
1416.237878,11843.295072,-1850.514855,1072.533697
1416.238207,9844.739029,-2738.761985,2298.286494
1416.238536,9992.780217,-2368.659014,612.876398
1416.238866,9696.697840,-5847.626942,995.924147
1416.239195,9474.636058,-5625.565159,1915.238745
1416.239524,8734.430116,-8364.327145,2451.505594
1416.239853,8364.327145,-7624.121203,2298.286494
1416.240183,7179.997637,-4885.359217,1149.143247
1416.240512,5921.647536,-3552.988522,-766.095498
1416.240841,6217.729913,-2812.782580,-1072.533697
1416.241171,7846.182985,-3330.926739,229.828649
1416.241500,9696.697840,-3849.070898,1225.752797
1416.241829,10510.924376,-1850.514855,1762.019645
1416.242158,11399.171507,-1036.288319,1072.533697
1416.242488,11547.212695,-2294.638420,842.705048
1416.242817,11547.212695,-4885.359217,1685.410096
1416.243146,9844.739029,-7105.977043,1685.410096
1416.243476,8438.347739,-6735.874072,689.485948
1416.243805,7328.038826,-5995.668130,0.000000
1416.244134,7624.121203,-5477.523971,-459.657299
1416.244463,7624.121203,-7624.121203,536.266849
1416.244793,7402.059420,-9548.656652,2298.286494
1416.245122,7328.038826,-7846.182985,1532.190996
1416.245451,6735.874072,-4515.256246,-229.828649
1416.245781,6365.771101,-3627.009116,76.609550
1416.246110,7254.018232,-5033.400406,842.705048
1416.246439,8660.409521,-5773.606348,1838.629195
1416.246768,9326.594869,-3923.091493,1532.190996
1416.247098,9548.656652,-1110.308913,1225.752797
1416.247427,11177.109724,518.144159,766.095498
1416.247756,12213.398043,-444.123565,2068.457845
1416.248086,11325.150913,-3552.988522,1685.410096
1416.248415,9770.718434,-4885.359217,1685.410096
1416.248744,10066.800811,-4737.318029,1762.019645
1416.249073,9030.512492,-4219.173869,1225.752797
1416.249402,9104.533087,-4885.359217,1838.629195
1416.249732,8512.368333,-6365.771101,1838.629195
1416.250061,7328.038826,-6143.709319,0.000000
1416.250390,7031.956449,-5181.441594,383.047749
1416.250719,7994.224174,-6069.688724,1762.019645
1416.251048,8808.450710,-7105.977043,1378.971896
1416.251378,6069.688724,-7105.977043,766.095498
1416.251707,3627.009116,-5551.544565,-1455.581446
1416.252036,4219.173869,-7179.997637,-1915.238745
1416.252365,6735.874072,-8882.471304,1149.143247
1416.252694,9548.656652,-6661.853478,1302.362347
1416.253024,10140.821405,-5329.482782,919.314598
1416.253353,8956.491898,-5847.626942,1149.143247
1416.253682,8438.347739,-8216.285956,2221.676944
1416.254011,7105.977043,-8512.368333,1378.971896
1416.254340,5403.503377,-6587.832884,0.000000
1416.254669,4737.318029,-4811.338623,-689.485948
1416.254999,6957.935855,-5107.421000,459.657299
1416.255328,7920.203579,-8068.244768,2298.286494
1416.255657,8142.265362,-6883.915261,2987.772442
1416.255986,8216.285956,-2886.803174,1149.143247
1416.256315,8438.347739,-1924.535449,229.828649
1416.256645,7772.162391,-4515.256246,2068.457845
1416.256974,7328.038826,-6513.812290,3064.381992
1416.257303,7105.977043,-5773.606348,919.314598
1416.257632,6809.894666,-3849.070898,536.266849
1416.257961,7994.224174,-4441.235652,1455.581446
1416.258291,10881.027347,-6365.771101,2911.162892
1416.258620,10510.924376,-5921.647536,2987.772442
1416.258949,8142.265362,-5995.668130,1225.752797
1416.259278,6291.750507,-6661.853478,-766.095498
1416.259607,4515.256246,-7476.080014,459.657299
1416.259937,3775.050304,-9326.594869,229.828649
1416.260266,4367.215058,-7254.018232,-306.438199
1416.260595,4515.256246,-6735.874072,-306.438199
1416.260924,5847.626942,-7846.182985,1455.581446
1416.261253,7476.080014,-6809.894666,2681.334243
1416.261582,8808.450710,-5995.668130,1991.848295
1416.261912,8512.368333,-6883.915261,1685.410096
1416.262241,7179.997637,-5995.668130,1072.533697
1416.262570,5107.421000,-7624.121203,1378.971896
1416.262899,4737.318029,-7476.080014,1532.190996
1416.263228,6143.709319,-7031.956449,1915.238745
1416.263558,8734.430116,-4145.153275,2145.067394
1416.263887,8512.368333,-3552.988522,1455.581446
1416.264216,7254.018232,-5403.503377,1608.800546
1416.264545,7105.977043,-7105.977043,995.924147
1416.264874,5625.565159,-9104.533087,229.828649
1416.265204,4367.215058,-7179.997637,-689.485948
1416.265533,4219.173869,-6883.915261,-919.314598
1416.265862,5921.647536,-7550.100608,229.828649
1416.266191,7698.141797,-7254.018232,1378.971896
1416.266520,9104.533087,-5847.626942,1685.410096
1416.266849,10362.883188,-4737.318029,2145.067394
1416.267179,9770.718434,-5921.647536,2068.457845
1416.267508,7550.100608,-7105.977043,766.095498
1416.267837,5033.400406,-7402.059420,-612.876398
1416.268166,4367.215058,-8216.285956,0.000000
1416.268495,6069.688724,-7476.080014,1225.752797
1416.268825,7476.080014,-8290.306550,2068.457845
1416.269154,8438.347739,-7031.956449,1915.238745
1416.269483,7328.038826,-4663.297435,306.438199
1416.269812,5033.400406,-6365.771101,-306.438199
1416.270141,4959.379811,-7328.038826,0.000000
1416.270471,5551.544565,-7846.182985,383.047749
1416.270800,5773.606348,-6513.812290,-536.266849
1416.271129,6439.791695,-6735.874072,536.266849
1416.271458,7698.141797,-6883.915261,2757.943793
1416.271787,8586.388927,-6069.688724,1072.533697
1416.272116,8882.471304,-5551.544565,1072.533697
1416.272446,8364.327145,-5107.421000,2145.067394
1416.272775,8142.265362,-6513.812290,995.924147
1416.273104,6587.832884,-6143.709319,689.485948
1416.273433,4959.379811,-7105.977043,-383.047749
1416.273762,5551.544565,-7254.018232,0.000000
1416.274092,7772.162391,-7105.977043,1532.190996
1416.274421,9474.636058,-6439.791695,2374.896044
1416.274750,9178.553681,-4959.379811,1762.019645
1416.275079,8216.285956,-5625.565159,1072.533697
1416.275408,6735.874072,-5921.647536,153.219100
1416.275738,5329.482782,-5477.523971,-306.438199
1416.276067,5255.462188,-5403.503377,-306.438199
1416.276396,7105.977043,-5255.462188,383.047749
1416.276725,7846.182985,-6883.915261,1762.019645
1416.277054,7920.203579,-6587.832884,2145.067394
1416.277383,7994.224174,-5921.647536,1455.581446
1416.277713,8290.306550,-6365.771101,1302.362347
1416.278042,8364.327145,-7105.977043,1762.019645
1416.278371,7031.956449,-7254.018232,1608.800546
1416.278700,4885.359217,-7254.018232,383.047749
1416.279029,4293.194464,-7846.182985,766.095498
1416.279359,5921.647536,-8734.430116,766.095498
1416.279688,6883.915261,-7328.038826,1072.533697
1416.280017,6957.935855,-6439.791695,1225.752797
1416.280346,7031.956449,-6587.832884,76.609550
1416.280675,6365.771101,-6809.894666,1532.190996
1416.281005,6069.688724,-7402.059420,1149.143247
1416.281334,6069.688724,-4737.318029,306.438199
1416.281663,6587.832884,-3923.091493,459.657299
1416.281992,7624.121203,-5847.626942,1225.752797
1416.282321,8290.306550,-5477.523971,2298.286494
1416.282650,8882.471304,-5847.626942,2604.724693
1416.282980,8660.409521,-5921.647536,1838.629195
1416.283309,7179.997637,-7772.162391,2221.676944
1416.283638,6439.791695,-7846.182985,1225.752797
1416.283967,5329.482782,-7328.038826,0.000000
1416.284296,4515.256246,-8364.327145,1149.143247
1416.284626,5773.606348,-7920.203579,2068.457845
1416.284955,6809.894666,-6365.771101,1532.190996
1416.285284,7402.059420,-4663.297435,995.924147
1416.285613,7105.977043,-4589.276840,536.266849
1416.285942,7624.121203,-6143.709319,1455.581446
1416.286272,7402.059420,-6217.729913,1149.143247
1416.286601,6365.771101,-6587.832884,459.657299
1416.286930,5847.626942,-6069.688724,459.657299
1416.287259,6513.812290,-7105.977043,229.828649
1416.287588,7402.059420,-7550.100608,1608.800546
1416.287918,7402.059420,-7772.162391,1532.190996
1416.288247,7624.121203,-7179.997637,1685.410096
1416.288576,8068.244768,-7920.203579,1455.581446
1416.288905,6291.750507,-7624.121203,919.314598
1416.289234,4959.379811,-7846.182985,-229.828649
1416.289563,4367.215058,-8512.368333,0.000000
1416.289893,5403.503377,-7476.080014,1378.971896
1416.290222,7105.977043,-6883.915261,1225.752797
1416.290551,7994.224174,-4367.215058,1225.752797
1416.290880,8216.285956,-4219.173869,612.876398
1416.291209,8808.450710,-4293.194464,1072.533697
1416.291539,8956.491898,-4885.359217,1455.581446
1416.291868,8142.265362,-4145.153275,842.705048
1416.292197,8068.244768,-4071.132681,383.047749
1416.292526,8512.368333,-6069.688724,1149.143247
1416.292855,8290.306550,-7105.977043,1915.238745
1416.293185,8142.265362,-6883.915261,2604.724693
1416.293514,7550.100608,-5699.585753,2298.286494
1416.293843,7550.100608,-7179.997637,1838.629195
1416.294172,6661.853478,-8586.388927,1072.533697
1416.294501,4145.153275,-7105.977043,0.000000
1416.294830,2738.761985,-7994.224174,-1149.143247
1416.295160,3701.029710,-6883.915261,0.000000
1416.295489,6291.750507,-6809.894666,689.485948
1416.295818,8512.368333,-5477.523971,919.314598
1416.296147,9030.512492,-3627.009116,1532.190996
1416.296476,8808.450710,-5477.523971,919.314598
1416.296806,7698.141797,-6069.688724,689.485948
1416.297135,6883.915261,-6217.729913,306.438199
1416.297464,7179.997637,-6217.729913,0.000000
1416.297793,7476.080014,-7402.059420,1149.143247
1416.298122,7476.080014,-9178.553681,1608.800546
1416.298452,7105.977043,-8438.347739,1915.238745
1416.298781,6957.935855,-8068.244768,1225.752797
1416.299110,6735.874072,-7254.018232,1225.752797
1416.299439,6291.750507,-7476.080014,919.314598
1416.299768,4515.256246,-8364.327145,229.828649
1416.300097,3701.029710,-7402.059420,-459.657299
1416.300427,4145.153275,-7550.100608,-689.485948
1416.300756,6217.729913,-5921.647536,1072.533697
1416.301085,8216.285956,-5699.585753,612.876398
1416.301414,8586.388927,-5033.400406,1149.143247
1416.301743,8882.471304,-4367.215058,1915.238745
1416.302073,9548.656652,-5625.565159,1608.800546
1416.302402,9326.594869,-4959.379811,1762.019645
1416.302731,7994.224174,-4441.235652,689.485948
1416.303060,7772.162391,-6291.750507,1532.190996
1416.303389,7105.977043,-7105.977043,1685.410096
1416.303719,6957.935855,-8290.306550,1991.848295
1416.304048,6661.853478,-6661.853478,1302.362347
1416.304377,6291.750507,-7254.018232,1149.143247
1416.304706,7105.977043,-7179.997637,2221.676944
1416.305035,6365.771101,-6069.688724,612.876398
1416.305364,4663.297435,-6217.729913,0.000000
1416.305694,4959.379811,-6217.729913,536.266849
1416.306023,6957.935855,-7105.977043,1225.752797
1416.306352,8216.285956,-5329.482782,919.314598
1416.306681,7846.182985,-4219.173869,842.705048
1416.307010,9030.512492,-5995.668130,1762.019645
1416.307340,9770.718434,-5995.668130,2374.896044
1416.307669,8068.244768,-6439.791695,1915.238745
1416.307998,6365.771101,-4885.359217,919.314598
1416.308327,5625.565159,-5329.482782,459.657299
1416.308656,6513.812290,-7846.182985,612.876398
1416.308986,6735.874072,-8364.327145,1762.019645
1416.309315,6661.853478,-8660.409521,1838.629195
1416.309644,6957.935855,-6809.894666,919.314598
1416.309973,6735.874072,-6661.853478,689.485948
1416.310302,5699.585753,-7624.121203,536.266849
1416.310632,5477.523971,-7328.038826,153.219100
1416.310961,4737.318029,-7105.977043,76.609550
1416.311290,6069.688724,-6217.729913,1455.581446
1416.311619,7920.203579,-4737.318029,1378.971896
1416.311948,8882.471304,-4737.318029,1302.362347
1416.312277,8734.430116,-5699.585753,2604.724693
1416.312607,8142.265362,-6587.832884,1838.629195
1416.312936,7105.977043,-5921.647536,766.095498
1416.313265,6365.771101,-6439.791695,612.876398
1416.313594,6069.688724,-6883.915261,1532.190996
1416.313923,6883.915261,-7328.038826,0.000000
1416.314253,6365.771101,-8660.409521,1378.971896
1416.314582,6217.729913,-8068.244768,1532.190996
1416.314911,6957.935855,-7105.977043,1532.190996
1416.315240,7772.162391,-7328.038826,2145.067394
1416.315569,6439.791695,-7179.997637,2145.067394
1416.315899,4737.318029,-6291.750507,-306.438199
1416.316228,3627.009116,-7105.977043,-689.485948
1416.316557,4737.318029,-7994.224174,229.828649
1416.316886,7105.977043,-6291.750507,766.095498
1416.317215,8364.327145,-5625.565159,1455.581446
1416.317544,8364.327145,-4589.276840,919.314598
1416.317874,8882.471304,-5625.565159,1915.238745
1416.318203,9474.636058,-7105.977043,2298.286494
1416.318532,8586.388927,-5033.400406,1302.362347
1416.318861,6735.874072,-5625.565159,383.047749
1416.319190,5921.647536,-6365.771101,689.485948
1416.319520,6587.832884,-7476.080014,842.705048
1416.319849,7328.038826,-7476.080014,2068.457845
1416.320178,7550.100608,-6143.709319,1685.410096
1416.320507,8142.265362,-6809.894666,995.924147
1416.320836,7105.977043,-6439.791695,1149.143247
1416.321166,5255.462188,-6513.812290,536.266849
1416.321495,4515.256246,-6365.771101,0.000000
1416.321824,5329.482782,-6661.853478,306.438199
1416.322153,6439.791695,-7550.100608,1302.362347
1416.322482,7550.100608,-5625.565159,1685.410096
1416.322811,9030.512492,-3627.009116,1149.143247
1416.323141,9400.615463,-5699.585753,2145.067394
1416.323470,7994.224174,-7402.059420,2528.115143
1416.323799,6365.771101,-6735.874072,842.705048
1416.324128,5329.482782,-4885.359217,-306.438199
1416.324457,5477.523971,-5995.668130,-612.876398
1416.324787,6661.853478,-7846.182985,1225.752797
1416.325116,7402.059420,-7698.141797,1762.019645
1416.325445,7402.059420,-7550.100608,1532.190996
1416.325774,7550.100608,-6513.812290,1532.190996
1416.326103,7105.977043,-7994.224174,842.705048
1416.326433,4885.359217,-8364.327145,919.314598
1416.326762,3775.050304,-8142.265362,-689.485948
1416.327091,4367.215058,-8882.471304,76.609550
1416.327420,6661.853478,-7402.059420,1225.752797
1416.327749,7772.162391,-6661.853478,1378.971896
1416.328078,7994.224174,-5699.585753,1762.019645
1416.328408,7994.224174,-5773.606348,1455.581446
1416.328737,8290.306550,-6439.791695,1685.410096
1416.329066,7105.977043,-6143.709319,1302.362347
1416.329395,6365.771101,-5181.441594,306.438199
1416.329724,6217.729913,-6661.853478,0.000000
1416.330054,7254.018232,-7328.038826,1608.800546
1416.330383,7994.224174,-7105.977043,1455.581446
1416.330712,7994.224174,-5625.565159,1838.629195
1416.331041,8512.368333,-5403.503377,1991.848295
1416.331370,8512.368333,-6587.832884,1915.238745
1416.331700,7105.977043,-5033.400406,842.705048
1416.332029,5107.421000,-5329.482782,-306.438199
1416.332358,4885.359217,-6439.791695,0.000000
1416.332687,6513.812290,-7105.977043,1455.581446
1416.333016,8068.244768,-6365.771101,1455.581446
1416.333345,8660.409521,-5329.482782,1838.629195
1416.333675,8956.491898,-4293.194464,1608.800546
1416.334004,8956.491898,-6069.688724,1532.190996
1416.334333,7994.224174,-6291.750507,1685.410096
1416.334662,6587.832884,-5477.523971,0.000000
1416.334991,6143.709319,-4811.338623,-229.828649
1416.335321,6513.812290,-7624.121203,1149.143247
1416.335650,7254.018232,-8290.306550,1838.629195
1416.335979,7402.059420,-6661.853478,1378.971896
1416.336308,7179.997637,-6365.771101,1455.581446
1416.336637,7402.059420,-6883.915261,1991.848295
1416.336967,5921.647536,-7994.224174,536.266849
1416.337296,4367.215058,-7476.080014,153.219100
1416.337625,4219.173869,-8068.244768,-459.657299
1416.337954,5995.668130,-8068.244768,306.438199
1416.338283,6439.791695,-7994.224174,1225.752797
1416.338613,6883.915261,-7105.977043,536.266849
1416.338942,7402.059420,-7105.977043,1225.752797
1416.339271,7624.121203,-7105.977043,1378.971896
1416.339600,7105.977043,-7105.977043,995.924147
1416.339929,6513.812290,-5773.606348,76.609550
1416.340258,6513.812290,-5477.523971,76.609550
1416.340588,7920.203579,-6069.688724,842.705048
1416.340917,8882.471304,-5551.544565,2451.505594
1416.341246,9104.533087,-5403.503377,1838.629195
1416.341575,8734.430116,-4811.338623,1302.362347
1416.341904,7550.100608,-6661.853478,1838.629195
1416.342234,6587.832884,-6809.894666,1072.533697
1416.342563,5329.482782,-6809.894666,842.705048
1416.342892,5847.626942,-6587.832884,689.485948
1416.343221,5625.565159,-7772.162391,689.485948
1416.343550,6439.791695,-7920.203579,1378.971896
1416.343880,7031.956449,-5995.668130,1378.971896
1416.344209,7254.018232,-5255.462188,1149.143247
1416.344538,7846.182985,-5921.647536,1302.362347
1416.344867,7550.100608,-4885.359217,1302.362347
1416.345196,7328.038826,-4737.318029,-459.657299
1416.345525,7550.100608,-3997.112087,383.047749
1416.345855,7994.224174,-6143.709319,1455.581446
1416.346184,8586.388927,-6291.750507,2145.067394
1416.346513,8290.306550,-5403.503377,1685.410096
1416.346842,7031.956449,-6661.853478,1378.971896
1416.347171,7698.141797,-7105.977043,1685.410096
1416.347501,6883.915261,-8808.450710,1915.238745
1416.347831,5329.482782,-7772.162391,612.876398
1416.348161,4219.173869,-7328.038826,-306.438199
1416.348490,4367.215058,-9400.615463,229.828649
1416.348819,5477.523971,-8290.306550,1455.581446
1416.349149,5773.606348,-7105.977043,536.266849
1416.349478,6587.832884,-6291.750507,459.657299
1416.349807,7476.080014,-5255.462188,1072.533697
1416.350136,8290.306550,-5107.421000,919.314598
1416.350466,7476.080014,-5773.606348,689.485948
1416.350795,7105.977043,-5107.421000,919.314598
1416.351124,7476.080014,-5625.565159,612.876398
1416.351454,7698.141797,-6661.853478,1608.800546
1416.351783,7920.203579,-6513.812290,1991.848295
1416.352112,8364.327145,-7105.977043,2298.286494
1416.352442,7846.182985,-7031.956449,2068.457845
1416.352771,6809.894666,-7846.182985,1991.848295
1416.353100,5403.503377,-7031.956449,1072.533697
1416.353429,4515.256246,-7179.997637,-229.828649
1416.353759,3627.009116,-7994.224174,0.000000
1416.354088,4885.359217,-7846.182985,842.705048
1416.354417,6291.750507,-7476.080014,842.705048
1416.354747,7402.059420,-4959.379811,1378.971896
1416.355076,8068.244768,-5181.441594,1302.362347
1416.355405,8364.327145,-5255.462188,1072.533697
1416.355735,7328.038826,-5329.482782,229.828649
1416.356064,7254.018232,-6143.709319,766.095498
1416.356393,7254.018232,-6439.791695,766.095498
1416.356723,8808.450710,-6661.853478,1991.848295
1416.357052,8660.409521,-5255.462188,1225.752797
1416.357381,7846.182985,-5699.585753,2221.676944
1416.357710,8808.450710,-6587.832884,2221.676944
1416.358040,8660.409521,-6735.874072,2374.896044
1416.358369,6735.874072,-6809.894666,1685.410096
1416.358698,4663.297435,-5773.606348,229.828649
1416.359028,4145.153275,-7402.059420,-459.657299
1416.359357,5255.462188,-9178.553681,459.657299
1416.359686,6217.729913,-7105.977043,1149.143247
1416.360016,7550.100608,-5255.462188,766.095498
1416.360345,7698.141797,-4589.276840,229.828649
1416.360674,7179.997637,-6365.771101,919.314598
1416.361003,7328.038826,-6439.791695,1072.533697
1416.361333,7254.018232,-6365.771101,689.485948
1416.361662,7254.018232,-6661.853478,995.924147
1416.361991,7994.224174,-6809.894666,1608.800546
1416.362321,8512.368333,-5625.565159,1302.362347
1416.362650,8290.306550,-5181.441594,1455.581446
1416.362979,8216.285956,-6735.874072,1762.019645
1416.363309,8068.244768,-6291.750507,1225.752797
1416.363638,7031.956449,-7105.977043,536.266849
1416.363967,4663.297435,-7698.141797,536.266849
1416.364296,4071.132681,-7698.141797,-612.876398
1416.364626,4885.359217,-9474.636058,383.047749
1416.364955,5699.585753,-8660.409521,766.095498
1416.365284,6069.688724,-6587.832884,229.828649
1416.365614,6957.935855,-7179.997637,306.438199
1416.365943,6809.894666,-6513.812290,0.000000
1416.366272,6069.688724,-6809.894666,153.219100
1416.366602,5255.462188,-7254.018232,-306.438199
1416.366931,6661.853478,-6513.812290,919.314598
1416.367260,8734.430116,-5847.626942,1991.848295
1416.367590,9622.677246,-5255.462188,2298.286494
1416.367919,9178.553681,-5329.482782,2145.067394
1416.368248,9696.697840,-5477.523971,3294.210641
1416.368577,9178.553681,-5699.585753,1685.410096
1416.368907,6809.894666,-6069.688724,1225.752797
1416.369236,5033.400406,-6957.935855,612.876398
1416.369565,5107.421000,-6809.894666,-612.876398
1416.369895,4885.359217,-8142.265362,689.485948
1416.370224,5847.626942,-8142.265362,1532.190996
1416.370553,7105.977043,-5699.585753,995.924147
1416.370883,7920.203579,-5107.421000,689.485948
1416.371212,7920.203579,-6513.812290,1455.581446
1416.371541,7624.121203,-5699.585753,842.705048
1416.371870,7031.956449,-5773.606348,383.047749
1416.372200,6883.915261,-4219.173869,1149.143247
1416.372529,8290.306550,-5699.585753,1991.848295
1416.372858,9696.697840,-6143.709319,2681.334243
1416.373188,9252.574275,-5847.626942,2145.067394
1416.373517,8068.244768,-5107.421000,1838.629195
1416.373846,7550.100608,-6587.832884,1685.410096
1416.374176,6809.894666,-7105.977043,1225.752797
1416.374505,4663.297435,-7031.956449,229.828649
1416.374834,3552.988522,-8660.409521,-383.047749
1416.375163,4219.173869,-9252.574275,689.485948
1416.375493,5329.482782,-9474.636058,766.095498
1416.375822,5847.626942,-7105.977043,1225.752797
1416.376151,5847.626942,-6069.688724,689.485948
1416.376481,6661.853478,-6513.812290,0.000000
1416.376810,6735.874072,-6513.812290,689.485948
1416.377139,6513.812290,-7105.977043,229.828649
1416.377469,7179.997637,-5699.585753,842.705048
1416.377798,7624.121203,-5921.647536,459.657299
1416.378127,8216.285956,-7402.059420,1149.143247
1416.378457,7550.100608,-6587.832884,1455.581446
1416.378786,7624.121203,-6069.688724,1225.752797
1416.379115,7624.121203,-7105.977043,1532.190996
1416.379444,7920.203579,-7254.018232,2068.457845
1416.379774,6809.894666,-6735.874072,1149.143247
1416.380103,5329.482782,-6735.874072,0.000000
1416.380432,5181.441594,-7994.224174,1302.362347
1416.380762,5995.668130,-7846.182985,1455.581446
1416.381091,6217.729913,-7328.038826,919.314598
1416.381420,7105.977043,-4515.256246,1225.752797
1416.381750,7550.100608,-5847.626942,919.314598
1416.382079,7772.162391,-5921.647536,919.314598
1416.382408,6439.791695,-5995.668130,1149.143247
1416.382737,6291.750507,-6143.709319,306.438199
1416.383067,7550.100608,-4959.379811,689.485948
1416.383396,8290.306550,-6291.750507,2068.457845
1416.383725,8364.327145,-6883.915261,1915.238745
1416.384055,8290.306550,-5181.441594,1838.629195
1416.384384,8660.409521,-5551.544565,1608.800546
1416.384713,8290.306550,-5921.647536,1685.410096
1416.385043,7476.080014,-6513.812290,1838.629195
1416.385372,6143.709319,-6513.812290,459.657299
1416.385701,5477.523971,-6661.853478,612.876398
1416.386030,5847.626942,-7402.059420,1302.362347
1416.386360,6735.874072,-6291.750507,919.314598
1416.386689,7328.038826,-5773.606348,1149.143247
1416.387018,6883.915261,-5699.585753,383.047749
1416.387348,5921.647536,-5773.606348,229.828649
1416.387677,5329.482782,-7772.162391,-306.438199
1416.388006,5995.668130,-7254.018232,842.705048
1416.388336,6661.853478,-7105.977043,612.876398
1416.388665,7550.100608,-7994.224174,1455.581446
1416.388994,7550.100608,-7772.162391,1225.752797
1416.389324,7031.956449,-6661.853478,766.095498
1416.389653,7328.038826,-6143.709319,1149.143247
1416.389982,8290.306550,-6809.894666,1455.581446
1416.390311,8068.244768,-6291.750507,1378.971896
1416.390641,6513.812290,-5625.565159,612.876398
1416.390970,5551.544565,-7550.100608,459.657299
1416.391299,4959.379811,-8586.388927,612.876398
1416.391629,5551.544565,-7254.018232,842.705048
1416.391958,6735.874072,-6217.729913,306.438199
1416.392287,7254.018232,-6069.688724,383.047749
1416.392617,7254.018232,-6439.791695,1072.533697
1416.392946,6883.915261,-8142.265362,766.095498
1416.393275,6143.709319,-6439.791695,-383.047749
1416.393604,6735.874072,-6809.894666,383.047749
1416.393934,7994.224174,-7772.162391,1455.581446
1416.394263,8364.327145,-7179.997637,1838.629195
1416.394592,8142.265362,-6143.709319,1915.238745
1416.394922,8808.450710,-5181.441594,2221.676944
1416.395251,9474.636058,-5181.441594,2528.115143
1416.395580,8956.491898,-4589.276840,3217.601092
1416.395910,7402.059420,-4589.276840,1302.362347
1416.396239,5625.565159,-4811.338623,536.266849
1416.396568,4811.338623,-6365.771101,229.828649
1416.396897,4737.318029,-7476.080014,1378.971896
1416.397227,6957.935855,-5773.606348,919.314598
1416.397556,7254.018232,-5921.647536,536.266849
1416.397885,6957.935855,-6513.812290,919.314598
1416.398215,6513.812290,-7328.038826,919.314598
1416.398544,6069.688724,-6513.812290,306.438199
1416.398873,6439.791695,-5995.668130,306.438199
1416.399203,7031.956449,-7254.018232,766.095498
1416.399532,7846.182985,-6513.812290,1685.410096
1416.399861,7772.162391,-5995.668130,1378.971896
1416.400190,8364.327145,-5921.647536,2221.676944
1416.400520,8734.430116,-5255.462188,2528.115143
1416.400849,8586.388927,-5847.626942,2374.896044
1416.401178,6957.935855,-5403.503377,1149.143247
1416.401508,5255.462188,-5699.585753,536.266849
1416.401837,4515.256246,-7846.182985,383.047749
1416.402166,5033.400406,-8068.244768,306.438199
1416.402496,5329.482782,-7772.162391,229.828649
1416.402825,7031.956449,-7254.018232,1455.581446
1416.403154,7254.018232,-6883.915261,229.828649
1416.403484,6809.894666,-8660.409521,995.924147
1416.403813,5551.544565,-7846.182985,612.876398
1416.404142,5551.544565,-7624.121203,0.000000
1416.404471,6957.935855,-6513.812290,919.314598
1416.404801,7476.080014,-6291.750507,1072.533697
1416.405130,7624.121203,-6735.874072,1838.629195
1416.405459,8586.388927,-5181.441594,1838.629195
1416.405789,8882.471304,-5403.503377,1915.238745
1416.406118,8882.471304,-5329.482782,3217.601092
1416.406447,7624.121203,-5625.565159,1149.143247
1416.406777,4737.318029,-6143.709319,-459.657299
1416.407106,3997.112087,-7179.997637,-536.266849
1416.407435,5107.421000,-8882.471304,459.657299
1416.407764,6957.935855,-7328.038826,536.266849
1416.408094,7624.121203,-6069.688724,1149.143247
1416.408423,7624.121203,-6365.771101,1302.362347
1416.408752,7550.100608,-6809.894666,1302.362347
1416.409082,7105.977043,-6291.750507,1532.190996
1416.409411,5995.668130,-4811.338623,153.219100
1416.409740,6587.832884,-5403.503377,842.705048
1416.410070,7994.224174,-6439.791695,1838.629195
1416.410399,8216.285956,-6069.688724,2221.676944
1416.410728,8290.306550,-5107.421000,2911.162892
1416.411057,8660.409521,-5107.421000,1838.629195
1416.411387,8512.368333,-5847.626942,2145.067394
1416.411716,6735.874072,-6883.915261,1072.533697
1416.412045,4885.359217,-6365.771101,0.000000
1416.412375,4441.235652,-6883.915261,-306.438199
1416.412704,5477.523971,-8660.409521,995.924147
1416.413033,7105.977043,-6735.874072,1072.533697
1416.413363,7105.977043,-6069.688724,459.657299
1416.413692,7402.059420,-5699.585753,689.485948
1416.414021,7105.977043,-7105.977043,1225.752797
1416.414351,7105.977043,-6439.791695,766.095498
1416.414680,6513.812290,-5699.585753,0.000000
1416.415009,7031.956449,-6365.771101,1225.752797
1416.415338,7476.080014,-6217.729913,1072.533697
1416.415668,7994.224174,-6439.791695,1532.190996
1416.415997,8216.285956,-6587.832884,1915.238745
1416.416326,9178.553681,-6439.791695,2374.896044
1416.416656,8734.430116,-7402.059420,1455.581446
1416.416985,6069.688724,-7772.162391,995.924147
1416.417314,3627.009116,-7698.141797,-383.047749
1416.417644,3256.906145,-7846.182985,-1302.362347
1416.417973,4737.318029,-9474.636058,536.266849
1416.418302,6957.935855,-8068.244768,2068.457845
1416.418631,8438.347739,-6069.688724,1838.629195
1416.418961,7698.141797,-5477.523971,689.485948
1416.419290,7254.018232,-5477.523971,1455.581446
1416.419619,7624.121203,-5403.503377,536.266849
1416.419949,7105.977043,-4737.318029,459.657299
1416.420278,7179.997637,-5033.400406,689.485948
1416.420607,8216.285956,-6291.750507,1378.971896
1416.420937,8882.471304,-5995.668130,1302.362347
1416.421266,9104.533087,-6809.894666,1762.019645
1416.421595,8956.491898,-5699.585753,1915.238745
1416.421924,8216.285956,-7105.977043,1072.533697
1416.422254,6587.832884,-7698.141797,842.705048
1416.422583,4441.235652,-7328.038826,-229.828649
1416.422912,4071.132681,-7476.080014,-306.438199
1416.423242,5255.462188,-7550.100608,306.438199
1416.423571,6957.935855,-7328.038826,1608.800546
1416.423900,8142.265362,-5551.544565,1991.848295
1416.424230,8512.368333,-4959.379811,1685.410096
1416.424559,8882.471304,-4663.297435,1685.410096
1416.424888,7624.121203,-4811.338623,766.095498
1416.425218,7105.977043,-4737.318029,383.047749
1416.425547,6809.894666,-5107.421000,995.924147
1416.425876,7550.100608,-6957.935855,919.314598
1416.426205,7476.080014,-7476.080014,1838.629195
1416.426535,7179.997637,-7698.141797,1455.581446
1416.426864,7179.997637,-7402.059420,1149.143247
1416.427193,7254.018232,-7328.038826,1915.238745
1416.427523,6217.729913,-8734.430116,1225.752797
1416.427852,4219.173869,-7698.141797,-612.876398
1416.428181,3108.864956,-7920.203579,-689.485948
1416.428511,4589.276840,-8142.265362,229.828649
1416.428840,6365.771101,-8734.430116,1378.971896
1416.429169,7254.018232,-5699.585753,1608.800546
1416.429498,7994.224174,-4959.379811,919.314598
1416.429828,8364.327145,-5625.565159,1685.410096
1416.430157,8438.347739,-5625.565159,1991.848295
1416.430486,7698.141797,-5329.482782,1149.143247
1416.430816,7550.100608,-4441.235652,689.485948
1416.431145,7476.080014,-6217.729913,842.705048
1416.431474,7105.977043,-7624.121203,1532.190996
1416.431804,6809.894666,-7254.018232,1838.629195
1416.432133,6957.935855,-8290.306550,2068.457845
1416.432462,6365.771101,-7179.997637,1685.410096
1416.432791,5551.544565,-8142.265362,1072.533697
1416.433121,4663.297435,-6735.874072,229.828649
1416.433450,4441.235652,-7031.956449,-153.219100
1416.433779,5107.421000,-7254.018232,766.095498
1416.434109,7105.977043,-7328.038826,1762.019645
1416.434438,8512.368333,-5699.585753,2298.286494
1416.434767,8586.388927,-3330.926739,1302.362347
1416.435097,8512.368333,-4589.276840,995.924147
1416.435426,8956.491898,-5403.503377,1838.629195
1416.435755,8438.347739,-5403.503377,1532.190996
1416.436084,7105.977043,-4515.256246,1072.533697
1416.436414,6513.812290,-5477.523971,1072.533697
1416.436743,7031.956449,-7698.141797,1072.533697
1416.437072,7031.956449,-8216.285956,1838.629195
1416.437402,6809.894666,-7105.977043,1225.752797
1416.437731,7105.977043,-7031.956449,1762.019645
1416.438060,7105.977043,-7105.977043,1532.190996
1416.438390,5625.565159,-6883.915261,306.438199
1416.438719,3627.009116,-6883.915261,-766.095498
1416.439048,4219.173869,-7550.100608,0.000000
1416.439378,7031.956449,-8068.244768,1149.143247
1416.439707,7994.224174,-5699.585753,1608.800546
1416.440036,8290.306550,-4367.215058,2068.457845
1416.440365,9326.594869,-4145.153275,1302.362347
1416.440695,9400.615463,-5551.544565,1762.019645
1416.441024,8364.327145,-5329.482782,1225.752797
1416.441353,7772.162391,-5255.462188,1225.752797
1416.441683,7550.100608,-5847.626942,229.828649
1416.442012,6883.915261,-7550.100608,1455.581446
1416.442341,5625.565159,-9252.574275,1455.581446
1416.442671,5699.585753,-8290.306550,689.485948
1416.443000,5477.523971,-7920.203579,536.266849
1416.443329,5773.606348,-7550.100608,612.876398
1416.443658,5625.565159,-7254.018232,612.876398
1416.443988,4589.276840,-7328.038826,766.095498
1416.444317,5107.421000,-8512.368333,383.047749
1416.444646,6661.853478,-7402.059420,1378.971896
1416.444976,8290.306550,-5551.544565,1072.533697
1416.445305,8808.450710,-4441.235652,1762.019645
1416.445634,8882.471304,-5181.441594,1685.410096
1416.445964,9252.574275,-5847.626942,1455.581446
1416.446293,8512.368333,-6809.894666,1532.190996
1416.446622,7328.038826,-5107.421000,1225.752797
1416.446951,6291.750507,-5921.647536,1072.533697
1416.447280,5699.585753,-7476.080014,995.924147
1416.447609,5847.626942,-8364.327145,1302.362347
1416.447938,6143.709319,-7772.162391,536.266849
1416.448267,6587.832884,-6809.894666,1378.971896
1416.448597,7328.038826,-7402.059420,1302.362347
1416.448926,6735.874072,-7328.038826,689.485948
1416.449255,4811.338623,-7179.997637,76.609550
1416.449584,4145.153275,-7105.977043,-612.876398
1416.449913,6365.771101,-6883.915261,1149.143247
1416.450242,8512.368333,-5921.647536,1915.238745
1416.450571,9400.615463,-4663.297435,1302.362347
1416.450900,9326.594869,-2960.823768,1302.362347
1416.451229,9252.574275,-3627.009116,919.314598
1416.451558,9030.512492,-6291.750507,1378.971896
1416.451888,8142.265362,-5181.441594,1762.019645
1416.452217,7476.080014,-4663.297435,766.095498
1416.452546,7105.977043,-6439.791695,1072.533697
1416.452875,7254.018232,-7402.059420,1608.800546
1416.453204,6809.894666,-6735.874072,1455.581446
1416.453533,7031.956449,-6217.729913,919.314598
1416.453862,6661.853478,-7179.997637,1225.752797
1416.454191,5995.668130,-7772.162391,766.095498
1416.454520,4737.318029,-7698.141797,0.000000
1416.454849,3775.050304,-8438.347739,0.000000
1416.455179,4663.297435,-8290.306550,383.047749
1416.455508,6587.832884,-8142.265362,1072.533697
1416.455837,7476.080014,-6883.915261,1302.362347
1416.456166,8438.347739,-5329.482782,766.095498
1416.456495,8216.285956,-5625.565159,1225.752797
1416.456824,8364.327145,-5773.606348,1149.143247
1416.457153,7846.182985,-6217.729913,1225.752797
1416.457482,7328.038826,-5033.400406,1378.971896
1416.457811,7254.018232,-6291.750507,842.705048
1416.458140,7476.080014,-7476.080014,1532.190996
1416.458470,6735.874072,-7254.018232,995.924147
1416.458799,6143.709319,-7179.997637,1149.143247
1416.459128,6143.709319,-7105.977043,1302.362347
1416.459457,5995.668130,-8290.306550,842.705048
1416.459786,5107.421000,-8142.265362,536.266849
1416.460115,4663.297435,-7994.224174,153.219100
1416.460444,5255.462188,-7920.203579,383.047749
1416.460773,6291.750507,-7772.162391,1149.143247
1416.461102,7624.121203,-6143.709319,1378.971896
1416.461431,8438.347739,-4885.359217,1225.752797
1416.461761,8734.430116,-4885.359217,1762.019645
1416.462090,8364.327145,-5107.421000,2221.676944
1416.462419,7772.162391,-4885.359217,919.314598
1416.462748,7031.956449,-4663.297435,689.485948
1416.463077,7476.080014,-5921.647536,1149.143247
1416.463406,8216.285956,-6513.812290,2145.067394
1416.463735,8290.306550,-6365.771101,2221.676944
1416.464064,7179.997637,-5477.523971,1225.752797
1416.464393,7105.977043,-5847.626942,1225.752797
1416.464722,7624.121203,-7550.100608,1608.800546
1416.465051,5699.585753,-7179.997637,1608.800546
1416.465381,3775.050304,-7328.038826,-383.047749
1416.465710,3923.091493,-7698.141797,-383.047749
1416.466039,5921.647536,-8216.285956,612.876398
1416.466368,7328.038826,-7994.224174,1838.629195
1416.466697,7402.059420,-5255.462188,1532.190996
1416.467026,7920.203579,-5329.482782,1072.533697
1416.467355,8068.244768,-5995.668130,1378.971896
1416.467684,7328.038826,-5403.503377,1072.533697
1416.468013,7105.977043,-4811.338623,536.266849
1416.468342,7105.977043,-5255.462188,689.485948
1416.468672,7254.018232,-7105.977043,1149.143247
1416.469001,7698.141797,-6661.853478,1532.190996
1416.469330,7994.224174,-6291.750507,1838.629195
1416.469659,8512.368333,-6661.853478,1991.848295
1416.469988,7105.977043,-8512.368333,1378.971896
1416.470317,5329.482782,-7920.203579,1149.143247
1416.470646,3997.112087,-7476.080014,-612.876398
1416.470975,4071.132681,-8068.244768,-689.485948
1416.471304,6365.771101,-8364.327145,536.266849
1416.471633,7994.224174,-7772.162391,1455.581446
1416.471963,8290.306550,-5995.668130,1762.019645
1416.472292,8290.306550,-4515.256246,1302.362347
1416.472621,8734.430116,-4293.194464,919.314598
1416.472950,8068.244768,-5033.400406,383.047749
1416.473279,6735.874072,-4737.318029,76.609550
1416.473608,7031.956449,-5033.400406,153.219100
1416.473937,8068.244768,-6587.832884,1072.533697
1416.474266,8586.388927,-7031.956449,2145.067394
1416.474595,8882.471304,-7105.977043,2298.286494
1416.474924,8438.347739,-6587.832884,2068.457845
1416.475254,7402.059420,-7698.141797,1838.629195
1416.475583,5921.647536,-8438.347739,1149.143247
1416.475912,4293.194464,-7920.203579,0.000000
1416.476241,3182.885551,-6957.935855,-995.924147
1416.476570,3775.050304,-8808.450710,306.438199
1416.476899,5773.606348,-8068.244768,1378.971896
1416.477228,7772.162391,-6439.791695,1608.800546
1416.477557,7994.224174,-5033.400406,1455.581446
1416.477886,8068.244768,-4737.318029,1225.752797
1416.478215,8068.244768,-4811.338623,1302.362347
1416.478545,7476.080014,-4145.153275,612.876398
1416.478874,7105.977043,-4885.359217,76.609550
1416.479203,8808.450710,-5773.606348,1302.362347
1416.479532,9474.636058,-5995.668130,2451.505594
1416.479861,8734.430116,-7624.121203,2145.067394
1416.480190,8216.285956,-4663.297435,1149.143247
1416.480519,7402.059420,-7105.977043,1838.629195
1416.480848,6957.935855,-8882.471304,842.705048
1416.481177,5477.523971,-5995.668130,689.485948
1416.481506,4293.194464,-7328.038826,0.000000
1416.481836,5033.400406,-7624.121203,0.000000
1416.482165,4959.379811,-7920.203579,919.314598
1416.482494,5921.647536,-7179.997637,612.876398
1416.482823,6513.812290,-6143.709319,459.657299
1416.483152,8438.347739,-6439.791695,1532.190996
1416.483481,8216.285956,-6957.935855,1991.848295
1416.483810,7254.018232,-5255.462188,459.657299
1416.484139,6587.832884,-5033.400406,0.000000
1416.484468,7624.121203,-5699.585753,1072.533697
1416.484797,8808.450710,-6957.935855,2911.162892
1416.485126,8586.388927,-7105.977043,2681.334243
1416.485456,7920.203579,-6513.812290,1991.848295
1416.485785,7254.018232,-7476.080014,1915.238745
1416.486114,6513.812290,-6883.915261,766.095498
1416.486443,4959.379811,-7550.100608,612.876398
1416.486772,3997.112087,-6809.894666,0.000000
1416.487101,5033.400406,-8216.285956,229.828649
1416.487430,6143.709319,-7772.162391,766.095498
1416.487759,6809.894666,-7402.059420,612.876398
1416.488088,7105.977043,-6661.853478,689.485948
1416.488417,7105.977043,-5699.585753,153.219100
1416.488747,6439.791695,-6957.935855,842.705048
1416.489076,7254.018232,-5255.462188,919.314598
1416.489405,8438.347739,-4811.338623,1072.533697
1416.489734,8660.409521,-5033.400406,1915.238745
1416.490063,9326.594869,-6217.729913,2834.553343
1416.490392,8734.430116,-6513.812290,2528.115143
1416.490721,7920.203579,-4441.235652,1608.800546
1416.491050,7031.956449,-5403.503377,1608.800546
1416.491379,7550.100608,-6291.750507,1072.533697
1416.491708,6735.874072,-6957.935855,1302.362347
1416.492038,4959.379811,-8068.244768,383.047749
1416.492367,4219.173869,-7846.182985,459.657299
1416.492696,5033.400406,-8586.388927,536.266849
1416.493025,5625.565159,-8512.368333,383.047749
1416.493354,5477.523971,-6291.750507,0.000000
1416.493683,5921.647536,-6883.915261,229.828649
1416.494012,6587.832884,-7402.059420,1149.143247
1416.494341,7476.080014,-6957.935855,1608.800546
1416.494670,7550.100608,-5181.441594,1072.533697
1416.494999,7402.059420,-5033.400406,995.924147
1416.495329,7846.182985,-6069.688724,1072.533697
1416.495658,7846.182985,-6883.915261,2068.457845
1416.495987,7846.182985,-5329.482782,1762.019645
1416.496316,8956.491898,-4959.379811,1991.848295
1416.496645,9326.594869,-6291.750507,2374.896044
1416.496974,7328.038826,-6587.832884,1762.019645
1416.497303,4811.338623,-7476.080014,0.000000
1416.497632,3552.988522,-8216.285956,-1225.752797
1416.497961,4441.235652,-9622.677246,536.266849
1416.498290,5773.606348,-9326.594869,1455.581446
1416.498620,5995.668130,-6217.729913,306.438199
1416.498949,6069.688724,-7105.977043,919.314598
1416.499278,7105.977043,-7179.997637,459.657299
1416.499607,6957.935855,-6069.688724,536.266849
1416.499936,6809.894666,-5625.565159,1072.533697
1416.500265,7476.080014,-4219.173869,0.000000
1416.500594,8438.347739,-5477.523971,1225.752797
1416.500923,9474.636058,-6587.832884,2528.115143
1416.501252,9918.759623,-5329.482782,2374.896044
1416.501581,9918.759623,-5329.482782,1838.629195
1416.501911,9178.553681,-5551.544565,2451.505594
1416.502240,8142.265362,-6661.853478,1915.238745
1416.502569,6069.688724,-6957.935855,459.657299
1416.502898,4515.256246,-6809.894666,1072.533697
1416.503227,4885.359217,-8512.368333,842.705048
1416.503556,5329.482782,-7105.977043,689.485948
1416.503885,5181.441594,-6661.853478,536.266849
1416.504214,6217.729913,-5847.626942,306.438199
1416.504543,7105.977043,-6143.709319,612.876398
1416.504872,6809.894666,-7476.080014,1149.143247
1416.505201,7031.956449,-6069.688724,1225.752797
1416.505531,7179.997637,-5329.482782,1149.143247
1416.505860,8364.327145,-5329.482782,1532.190996
1416.506189,8586.388927,-5773.606348,1838.629195
1416.506518,7994.224174,-5255.462188,1762.019645
1416.506847,8216.285956,-5255.462188,2221.676944
1416.507176,8882.471304,-5995.668130,2298.286494
1416.507505,8512.368333,-5847.626942,2068.457845
1416.507834,5403.503377,-7105.977043,1225.752797
1416.508163,2960.823768,-8290.306550,153.219100
1416.508492,2516.700203,-9474.636058,-459.657299
1416.508822,3701.029710,-7920.203579,536.266849
1416.509151,5551.544565,-6809.894666,612.876398
1416.509480,7179.997637,-5255.462188,459.657299
1416.509809,7920.203579,-6217.729913,1302.362347
1416.510138,8512.368333,-6735.874072,1225.752797
1416.510467,7846.182985,-5921.647536,1149.143247
1416.510796,7179.997637,-5403.503377,536.266849
1416.511125,7772.162391,-6809.894666,1225.752797
1416.511454,8882.471304,-6809.894666,1991.848295
1416.511783,8216.285956,-6291.750507,1608.800546
1416.512113,8734.430116,-5921.647536,1838.629195
1416.512442,8734.430116,-5921.647536,1991.848295
1416.512771,7550.100608,-6513.812290,1225.752797
1416.513100,5255.462188,-7698.141797,689.485948
1416.513429,3923.091493,-7846.182985,842.705048
1416.513758,4071.132681,-9178.553681,-306.438199
1416.514087,5033.400406,-9696.697840,919.314598
1416.514416,6365.771101,-7328.038826,1225.752797
1416.514745,7624.121203,-5551.544565,383.047749
1416.515074,7402.059420,-5477.523971,0.000000
1416.515404,7105.977043,-6291.750507,995.924147
1416.515733,7624.121203,-6587.832884,689.485948
1416.516062,7550.100608,-5033.400406,76.609550
1416.516391,7920.203579,-4811.338623,306.438199
1416.516720,8734.430116,-5995.668130,1608.800546
1416.517049,9178.553681,-5847.626942,1149.143247
1416.517378,8290.306550,-6587.832884,1991.848295
1416.517707,7846.182985,-5995.668130,1915.238745
1416.518036,7550.100608,-6513.812290,1149.143247
1416.518365,5847.626942,-7105.977043,1072.533697
1416.518695,5181.441594,-6661.853478,1072.533697
1416.519024,5255.462188,-7105.977043,612.876398
1416.519353,5995.668130,-7179.997637,842.705048
1416.519682,6587.832884,-6291.750507,1608.800546
1416.520011,7476.080014,-5921.647536,1225.752797
1416.520340,8142.265362,-4811.338623,536.266849
1416.520669,7254.018232,-6069.688724,995.924147
1416.520998,7105.977043,-5699.585753,995.924147
1416.521327,6735.874072,-5995.668130,-459.657299
1416.521656,6957.935855,-6513.812290,919.314598
1416.521985,7624.121203,-6883.915261,1302.362347
1416.522315,8364.327145,-7254.018232,1762.019645
1416.522644,8438.347739,-5995.668130,1149.143247
1416.522973,7624.121203,-6513.812290,1685.410096
1416.523302,8290.306550,-6291.750507,1991.848295
1416.523631,7105.977043,-6217.729913,919.314598
1416.523960,5255.462188,-5625.565159,306.438199
1416.524289,5329.482782,-6809.894666,0.000000
1416.524618,6439.791695,-8364.327145,842.705048
1416.524947,7031.956449,-8068.244768,1532.190996
1416.525276,7031.956449,-6661.853478,842.705048
1416.525606,7031.956449,-6291.750507,612.876398
1416.525935,6587.832884,-7105.977043,919.314598
1416.526264,6143.709319,-8216.285956,995.924147
1416.526593,6291.750507,-6513.812290,229.828649
1416.526922,6809.894666,-6661.853478,536.266849
1416.527251,7328.038826,-6957.935855,1455.581446
1416.527580,7402.059420,-6809.894666,1532.190996
1416.527909,7254.018232,-7402.059420,2145.067394
1416.528238,7402.059420,-5033.400406,1225.752797
1416.528567,7550.100608,-6365.771101,612.876398
1416.528897,6883.915261,-6069.688724,1608.800546
1416.529226,6365.771101,-5699.585753,612.876398
1416.529555,6513.812290,-5773.606348,842.705048
1416.529884,6365.771101,-5921.647536,842.705048
1416.530213,6957.935855,-6809.894666,1149.143247
1416.530542,7994.224174,-4959.379811,1225.752797
1416.530871,7994.224174,-6217.729913,536.266849
1416.531200,7698.141797,-6439.791695,1072.533697
1416.531529,7328.038826,-6291.750507,1149.143247
1416.531858,6587.832884,-6587.832884,306.438199
1416.532188,6069.688724,-6143.709319,612.876398
1416.532517,7105.977043,-6439.791695,995.924147
1416.532846,7624.121203,-5773.606348,842.705048
1416.533175,7994.224174,-5699.585753,1455.581446
1416.533504,8438.347739,-5329.482782,2681.334243
1416.533833,9474.636058,-4367.215058,2145.067394
1416.534162,8512.368333,-5477.523971,1685.410096
1416.534491,6587.832884,-5329.482782,1225.752797
1416.534820,5551.544565,-6661.853478,229.828649
1416.535149,4885.359217,-8068.244768,459.657299
1416.535479,5181.441594,-8734.430116,919.314598
1416.535808,5551.544565,-7846.182985,76.609550
1416.536137,6735.874072,-5995.668130,0.000000
1416.536466,7031.956449,-8586.388927,995.924147
1416.536795,7624.121203,-7920.203579,995.924147
1416.537124,6217.729913,-6883.915261,536.266849
1416.537453,5921.647536,-6365.771101,0.000000
1416.537782,6809.894666,-6291.750507,76.609550
1416.538111,7254.018232,-7402.059420,1378.971896
1416.538440,7402.059420,-7476.080014,1149.143247
1416.538770,7550.100608,-6217.729913,1378.971896
1416.539099,8290.306550,-5995.668130,1532.190996
1416.539428,7846.182985,-7031.956449,1838.629195
1416.539757,6809.894666,-6587.832884,1608.800546
1416.540086,5921.647536,-6143.709319,0.000000
1416.540415,5625.565159,-7698.141797,842.705048
1416.540744,7031.956449,-7476.080014,1302.362347
1416.541073,7031.956449,-6809.894666,1149.143247
1416.541402,7328.038826,-5477.523971,1225.752797
1416.541731,7105.977043,-6291.750507,842.705048
1416.542060,7328.038826,-7624.121203,1915.238745
1416.542390,6439.791695,-7105.977043,1378.971896
1416.542719,5995.668130,-5329.482782,766.095498
1416.543048,6809.894666,-4885.359217,229.828649
1416.543377,7550.100608,-6365.771101,1149.143247
1416.543706,7994.224174,-6069.688724,1378.971896
1416.544035,7846.182985,-5921.647536,1608.800546
1416.544364,8586.388927,-5921.647536,2298.286494
1416.544693,8438.347739,-6143.709319,2221.676944
1416.545022,7105.977043,-7105.977043,1455.581446
1416.545351,4885.359217,-6291.750507,995.924147
1416.545681,4441.235652,-6883.915261,0.000000
1416.546010,5995.668130,-6957.935855,766.095498
1416.546339,7179.997637,-6365.771101,1225.752797
1416.546668,8216.285956,-5107.421000,1072.533697
1416.546997,8142.265362,-4885.359217,1225.752797
1416.547326,7846.182985,-5995.668130,1225.752797
1416.547655,6513.812290,-5477.523971,689.485948
1416.547984,5921.647536,-4737.318029,0.000000
1416.548313,6809.894666,-4959.379811,612.876398
1416.548642,7994.224174,-6587.832884,1455.581446
1416.548971,8216.285956,-7550.100608,2451.505594
1416.549300,8068.244768,-6661.853478,1762.019645
1416.549629,7994.224174,-6439.791695,1762.019645
1416.549959,7772.162391,-7031.956449,1072.533697
1416.550288,6291.750507,-7994.224174,459.657299
1416.550617,4515.256246,-7550.100608,-612.876398
1416.550946,4219.173869,-7698.141797,-459.657299
1416.551275,6365.771101,-8882.471304,1149.143247
1416.551604,8068.244768,-6883.915261,1685.410096
1416.551933,7476.080014,-5477.523971,995.924147
1416.552262,6809.894666,-6291.750507,153.219100
1416.552591,6587.832884,-6735.874072,919.314598
1416.552920,6587.832884,-7846.182985,0.000000
1416.553249,6217.729913,-5921.647536,0.000000
1416.553578,6513.812290,-5551.544565,383.047749
1416.553907,7920.203579,-7402.059420,1072.533697
1416.554236,8882.471304,-7031.956449,1991.848295
1416.554565,7550.100608,-7254.018232,1685.410096
1416.554894,7772.162391,-5921.647536,1149.143247
1416.555223,6513.812290,-6439.791695,1149.143247
1416.555552,6513.812290,-7402.059420,1608.800546
1416.555881,5033.400406,-6809.894666,153.219100
1416.556210,5107.421000,-7624.121203,0.000000
1416.556539,5551.544565,-7994.224174,1149.143247
1416.556868,6957.935855,-7476.080014,1838.629195
1416.557197,7550.100608,-5181.441594,1838.629195
1416.557526,7846.182985,-3256.906145,536.266849
1416.557855,7550.100608,-4959.379811,1225.752797
1416.558184,8142.265362,-5551.544565,1608.800546
1416.558513,7328.038826,-6069.688724,1608.800546
1416.558842,6365.771101,-5181.441594,153.219100
1416.559171,6735.874072,-5551.544565,612.876398
1416.559500,7920.203579,-7698.141797,1378.971896
1416.559830,7698.141797,-7031.956449,2221.676944
1416.560159,8142.265362,-5477.523971,1838.629195
1416.560488,9030.512492,-5329.482782,1838.629195
1416.560817,7920.203579,-5477.523971,1608.800546
1416.561146,5181.441594,-7105.977043,306.438199
1416.561475,4145.153275,-6883.915261,-383.047749
1416.561804,4737.318029,-8216.285956,0.000000
1416.562133,6069.688724,-8438.347739,1685.410096
1416.562462,7624.121203,-6069.688724,1685.410096
1416.562791,8142.265362,-4885.359217,1225.752797
1416.563120,8142.265362,-5329.482782,612.876398
1416.563449,7105.977043,-7179.997637,919.314598
1416.563778,6365.771101,-6143.709319,689.485948
1416.564107,5921.647536,-5625.565159,0.000000
1416.564436,6809.894666,-7846.182985,1149.143247
1416.564765,7476.080014,-7698.141797,1685.410096
1416.565094,6587.832884,-7846.182985,919.314598
1416.565423,6365.771101,-7476.080014,612.876398
1416.565752,7105.977043,-7994.224174,1685.410096
1416.566081,7105.977043,-7624.121203,1149.143247
1416.566410,5329.482782,-6143.709319,0.000000
1416.566739,4737.318029,-6365.771101,-612.876398
1416.567068,6069.688724,-7031.956449,536.266849
1416.567397,7994.224174,-7031.956449,2221.676944
1416.567726,8586.388927,-6069.688724,2298.286494
1416.568055,9030.512492,-3552.988522,1225.752797
1416.568384,8068.244768,-4663.297435,536.266849
1416.568713,7476.080014,-6883.915261,995.924147
1416.569042,6661.853478,-6587.832884,689.485948
1416.569371,5847.626942,-5699.585753,-306.438199
1416.569700,6217.729913,-6809.894666,306.438199
1416.570030,7105.977043,-7254.018232,1455.581446
1416.570359,7402.059420,-8586.388927,2374.896044
1416.570688,7994.224174,-6957.935855,1838.629195
1416.571017,7698.141797,-6809.894666,1685.410096
1416.571346,7846.182985,-5921.647536,1532.190996
1416.571675,6661.853478,-7402.059420,1455.581446
1416.572004,5921.647536,-5995.668130,229.828649
1416.572333,6069.688724,-5033.400406,536.266849
1416.572662,7105.977043,-7698.141797,1685.410096
1416.572991,8586.388927,-5699.585753,1608.800546
1416.573320,8512.368333,-5033.400406,1685.410096
1416.573649,7698.141797,-5107.421000,1532.190996
1416.573978,7105.977043,-5847.626942,1072.533697
1416.574307,5995.668130,-7031.956449,229.828649
1416.574636,5033.400406,-6365.771101,153.219100
1416.574965,5921.647536,-7105.977043,76.609550
1416.575294,7550.100608,-7846.182985,1302.362347
1416.575623,7550.100608,-7920.203579,1762.019645
1416.575952,7328.038826,-6957.935855,1225.752797
1416.576281,7402.059420,-5921.647536,1149.143247
1416.576610,7550.100608,-7031.956449,1225.752797
1416.576939,6143.709319,-6661.853478,1149.143247
1416.577268,5551.544565,-5773.606348,306.438199
1416.577597,5551.544565,-6291.750507,229.828649
1416.577926,6957.935855,-6957.935855,1455.581446
1416.578255,7402.059420,-6587.832884,1608.800546
1416.578584,7105.977043,-4737.318029,995.924147
1416.578913,6735.874072,-5477.523971,306.438199
1416.579242,7179.997637,-7031.956449,1302.362347
1416.579571,7179.997637,-7846.182985,995.924147
1416.579900,6809.894666,-6217.729913,612.876398
1416.580230,6513.812290,-6069.688724,536.266849
1416.580559,7105.977043,-8364.327145,995.924147
1416.580888,7698.141797,-7698.141797,1838.629195
1416.581217,8142.265362,-5995.668130,1455.581446
1416.581546,8290.306550,-6513.812290,1378.971896
1416.581875,7328.038826,-6883.915261,1455.581446
1416.582204,6069.688724,-7698.141797,612.876398
1416.582533,4885.359217,-6587.832884,-459.657299
1416.582862,4811.338623,-6661.853478,536.266849
1416.583191,6883.915261,-6957.935855,919.314598
1416.583520,8216.285956,-6661.853478,1455.581446
1416.583849,7772.162391,-5255.462188,1149.143247
1416.584178,7550.100608,-4959.379811,459.657299
1416.584507,8290.306550,-6513.812290,1838.629195
1416.584836,8068.244768,-7031.956449,1685.410096
1416.585165,7179.997637,-6217.729913,995.924147
1416.585494,6513.812290,-5625.565159,536.266849
1416.585823,6957.935855,-7550.100608,1532.190996
1416.586152,7402.059420,-6587.832884,2145.067394
1416.586481,7846.182985,-5995.668130,2221.676944
1416.586810,7698.141797,-4145.153275,689.485948
1416.587139,6439.791695,-5551.544565,612.876398
1416.587468,5625.565159,-6883.915261,919.314598
1416.587797,4959.379811,-8290.306550,0.000000
1416.588126,4885.359217,-8216.285956,306.438199
1416.588455,5477.523971,-8734.430116,842.705048
1416.588784,6143.709319,-7698.141797,612.876398
1416.589113,6661.853478,-6217.729913,612.876398
1416.589442,7179.997637,-5773.606348,612.876398
1416.589771,8216.285956,-6365.771101,1378.971896
1416.590100,8438.347739,-5995.668130,1685.410096
1416.590430,7105.977043,-5107.421000,306.438199
1416.590759,6291.750507,-5255.462188,306.438199
1416.591088,6957.935855,-6735.874072,1302.362347
1416.591417,7846.182985,-6809.894666,1991.848295
1416.591746,8142.265362,-6513.812290,2298.286494
1416.592075,8142.265362,-5033.400406,1608.800546
1416.592404,7994.224174,-6587.832884,1072.533697
1416.592733,6809.894666,-7328.038826,842.705048
1416.593062,4663.297435,-8290.306550,459.657299
1416.593391,3923.091493,-7994.224174,0.000000
1416.593720,5181.441594,-8956.491898,383.047749
1416.594049,6661.853478,-7772.162391,1532.190996
1416.594378,7550.100608,-7105.977043,1532.190996
1416.594707,8068.244768,-5255.462188,1149.143247
1416.595036,7994.224174,-5477.523971,1915.238745
1416.595365,7920.203579,-6291.750507,1302.362347
1416.595694,7402.059420,-5921.647536,842.705048
1416.596023,5625.565159,-6217.729913,306.438199
1416.596352,5921.647536,-7846.182985,919.314598
1416.596681,6513.812290,-7328.038826,536.266849
1416.597010,6735.874072,-7179.997637,842.705048
1416.597339,6661.853478,-6957.935855,1302.362347
1416.597668,6883.915261,-7402.059420,919.314598
1416.597997,6291.750507,-7846.182985,1532.190996
1416.598326,4515.256246,-8586.388927,229.828649
1416.598655,3552.988522,-7846.182985,0.000000
1416.598984,4663.297435,-8142.265362,76.609550
1416.599313,6883.915261,-7254.018232,1608.800546
1416.599642,8068.244768,-6661.853478,2834.553343
1416.599971,8512.368333,-4885.359217,1915.238745
1416.600301,8882.471304,-4145.153275,1915.238745
1416.600630,8882.471304,-5033.400406,1915.238745
1416.600959,7772.162391,-4959.379811,1225.752797
1416.601288,6291.750507,-4737.318029,995.924147
1416.601617,5329.482782,-6957.935855,229.828649
1416.601946,5625.565159,-8364.327145,1225.752797
1416.602275,5847.626942,-9104.533087,1532.190996
1416.602604,5329.482782,-9326.594869,1225.752797
1416.602933,4293.194464,-8956.491898,689.485948
1416.603262,4145.153275,-10066.800811,689.485948
1416.603591,3330.926739,-10066.800811,0.000000
1416.603920,2072.576638,-10584.944971,-995.924147
1416.604249,2664.741391,-10066.800811,-229.828649
1416.604578,4071.132681,-10807.006753,842.705048
1416.604907,5847.626942,-10140.821405,2987.772442
1416.605236,6809.894666,-6661.853478,2451.505594
1416.605565,7920.203579,-3256.906145,3370.820191
1416.605894,9844.739029,-3034.844362,3830.477490
1416.606223,10288.862594,-3330.926739,4136.915689
1416.606552,6513.812290,-5181.441594,3064.381992
1416.606881,3256.906145,-6809.894666,229.828649
1416.607210,1406.391290,-8068.244768,-1532.190996
1416.607539,1184.329507,-13027.624579,-766.095498
1416.607868,1924.535449,-16506.592507,536.266849
1416.608197,2886.803174,-14952.160028,1455.581446
1416.608526,4367.215058,-10362.883188,-153.219100
1416.608855,5033.400406,-8882.471304,0.000000
1416.609184,5403.503377,-9474.636058,689.485948
1416.609513,4145.153275,-10510.924376,383.047749
1416.609842,2072.576638,-10510.924376,-766.095498
1416.610171,2072.576638,-9770.718434,-1302.362347
1416.610501,3997.112087,-9548.656652,1532.190996
1416.610830,6809.894666,-10066.800811,3907.087040
1416.611159,7994.224174,-7179.997637,4366.744339
1416.611488,8068.244768,-3108.864956,2604.724693
1416.611817,7105.977043,-2516.700203,459.657299
1416.612146,5625.565159,-3552.988522,919.314598
1416.612475,4145.153275,-7328.038826,1225.752797
1416.612804,3330.926739,-9770.718434,459.657299
1416.613133,3182.885551,-11251.130318,-383.047749
1416.613462,3182.885551,-11621.233289,76.609550
1416.613791,5255.462188,-13323.706956,2374.896044
1416.614120,6883.915261,-11399.171507,2298.286494
1416.614449,5773.606348,-7254.018232,383.047749
1416.614778,4441.235652,-6735.874072,-1072.533697
1416.615107,3997.112087,-7476.080014,-229.828649
1416.615436,5625.565159,-8734.430116,1072.533697
1416.615765,5995.668130,-9252.574275,1915.238745
1416.616094,6069.688724,-7772.162391,2068.457845
1416.616423,5477.523971,-7994.224174,1532.190996
1416.616752,5255.462188,-7846.182985,2068.457845
1416.617081,5847.626942,-9326.594869,2221.676944
1416.617410,6291.750507,-7698.141797,1378.971896
1416.617739,4737.318029,-6069.688724,536.266849
1416.618068,4811.338623,-7550.100608,306.438199
1416.618397,6069.688724,-6883.915261,1149.143247
1416.618726,7254.018232,-7254.018232,1149.143247
1416.619055,7402.059420,-7254.018232,1072.533697
1416.619384,6513.812290,-8216.285956,1762.019645
1416.619713,4811.338623,-9844.739029,919.314598
1416.620042,3849.070898,-10362.883188,1072.533697
1416.620371,3849.070898,-8882.471304,-383.047749
1416.620701,2960.823768,-8364.327145,-842.705048
1416.621030,3478.967927,-10658.965565,689.485948
1416.621359,4515.256246,-10881.027347,2374.896044
1416.621688,5477.523971,-9030.512492,2145.067394
1416.622017,5477.523971,-7179.997637,1608.800546
1416.622346,5403.503377,-6883.915261,2221.676944
1416.622675,5033.400406,-7105.977043,1072.533697
1416.623004,5329.482782,-6809.894666,1685.410096
1416.623333,5551.544565,-5625.565159,1378.971896
1416.623662,5847.626942,-5329.482782,919.314598
1416.623991,5551.544565,-8364.327145,1685.410096
1416.624320,4219.173869,-11399.171507,1532.190996
1416.624649,3034.844362,-12213.398043,306.438199
1416.624978,1702.473667,-12065.356855,-459.657299
1416.625307,1776.494261,-11991.336260,-536.266849
1416.625636,2664.741391,-12731.542202,-229.828649
1416.625965,3701.029710,-12731.542202,1225.752797
1416.626294,4367.215058,-11621.233289,2298.286494
1416.626623,4811.338623,-8660.409521,2451.505594
1416.626952,4737.318029,-7550.100608,2604.724693
1416.627281,5625.565159,-4515.256246,1455.581446
1416.627610,6365.771101,-4737.318029,2145.067394
1416.627939,6217.729913,-4367.215058,1685.410096
1416.628268,6217.729913,-4959.379811,459.657299
1416.628597,5995.668130,-6587.832884,1608.800546
1416.628926,4959.379811,-8882.471304,306.438199
1416.629255,3627.009116,-11399.171507,612.876398
1416.629584,2368.659014,-12139.377449,306.438199
1416.629913,1850.514855,-13619.789333,-612.876398
1416.630242,2886.803174,-13619.789333,-383.047749
1416.630572,4145.153275,-11843.295072,383.047749
1416.630901,5551.544565,-10436.903782,459.657299
1416.631230,5181.441594,-9474.636058,1762.019645
1416.631559,4737.318029,-9400.615463,1762.019645
1416.631888,4219.173869,-7105.977043,689.485948
1416.632217,4441.235652,-4663.297435,1149.143247
1416.632546,6439.791695,-4663.297435,1915.238745
1416.632875,8586.388927,-3627.009116,2834.553343
1416.633204,8882.471304,-3923.091493,2911.162892
1416.633533,8734.430116,-4071.132681,1302.362347
1416.633862,6957.935855,-5773.606348,459.657299
1416.634191,5329.482782,-8512.368333,459.657299
1416.634520,4219.173869,-11325.150913,-306.438199
1416.634849,3923.091493,-12139.377449,229.828649
1416.635178,5181.441594,-12213.398043,1532.190996
1416.635507,6439.791695,-11251.130318,1991.848295
1416.635836,6291.750507,-9622.677246,2757.943793
1416.636165,4885.359217,-8586.388927,1149.143247
1416.636494,4293.194464,-7476.080014,0.000000
1416.636823,2664.741391,-7402.059420,-153.219100
1416.637152,2368.659014,-8734.430116,229.828649
1416.637481,3997.112087,-7476.080014,0.000000
1416.637810,5551.544565,-6217.729913,995.924147
1416.638139,6291.750507,-6587.832884,1225.752797
1416.638468,6661.853478,-7031.956449,1762.019645
1416.638797,6439.791695,-7105.977043,2298.286494
1416.639126,6069.688724,-9030.512492,1685.410096
1416.639455,5255.462188,-9474.636058,1149.143247
1416.639784,4885.359217,-10436.903782,2145.067394
1416.640113,5181.441594,-11251.130318,2451.505594
1416.640442,5773.606348,-9622.677246,2374.896044
1416.640772,4885.359217,-8808.450710,1915.238745
1416.641101,4441.235652,-7994.224174,919.314598
1416.641430,4219.173869,-6587.832884,536.266849
1416.641759,3404.947333,-7254.018232,0.000000
1416.642088,3182.885551,-7772.162391,-306.438199
1416.642417,3552.988522,-8586.388927,0.000000
1416.642746,4515.256246,-8660.409521,76.609550
1416.643075,4737.318029,-9252.574275,612.876398
1416.643404,5033.400406,-9844.739029,1378.971896
1416.643733,5847.626942,-11399.171507,1455.581446
1416.644062,5107.421000,-11621.233289,2298.286494
1416.644391,4367.215058,-10955.047942,2374.896044
1416.644720,4515.256246,-9992.780217,2604.724693
1416.645049,4737.318029,-8142.265362,2987.772442
1416.645378,4811.338623,-7698.141797,3140.991542
1416.645707,5477.523971,-6587.832884,3294.210641
1416.646036,5921.647536,-5255.462188,3140.991542
1416.646365,6217.729913,-5699.585753,2298.286494
1416.646694,5847.626942,-5921.647536,1455.581446
1416.647023,5107.421000,-7031.956449,1455.581446
1416.647352,4737.318029,-8586.388927,689.485948
1416.647681,4071.132681,-10288.862594,459.657299
1416.648010,4071.132681,-10732.986159,1225.752797
1416.648339,4441.235652,-11473.192101,1302.362347
1416.648668,4293.194464,-11547.212695,2145.067394
1416.648997,4663.297435,-10362.883188,2298.286494
1416.649326,5181.441594,-9992.780217,2834.553343
1416.649655,7105.977043,-7105.977043,4213.525239
1416.649984,7994.224174,-5329.482782,4673.182538
1416.650313,8512.368333,-3849.070898,4903.011187
1416.650643,8512.368333,-2294.638420,4366.744339
1416.650972,7994.224174,-3034.844362,3600.648841
1416.651301,7328.038826,-4959.379811,2757.943793
1416.651630,6143.709319,-6069.688724,2145.067394
1416.651959,5477.523971,-7402.059420,1608.800546
1416.652288,6291.750507,-8512.368333,1991.848295
1416.652617,6439.791695,-9104.533087,3370.820191
1416.652946,6587.832884,-9400.615463,3753.867940
1416.653275,6587.832884,-8216.285956,3983.696590
1416.653604,5773.606348,-7698.141797,3524.039291
1416.653933,5107.421000,-7328.038826,3294.210641
1416.654262,5477.523971,-5995.668130,3600.648841
1416.654591,6365.771101,-5699.585753,3830.477490
1416.654920,7624.121203,-4441.235652,4749.792088
1416.655249,9326.594869,-4071.132681,4749.792088
1416.655579,10288.862594,-3627.009116,4903.011187
1416.655908,9178.553681,-3701.029710,4596.572988
1416.656237,8142.265362,-4589.276840,4136.915689
1416.656566,7254.018232,-6513.812290,3447.429741
1416.656895,6587.832884,-8290.306550,3753.867940
1416.657224,5921.647536,-8956.491898,3830.477490
1416.657553,5773.606348,-10436.903782,4136.915689
1416.657882,5107.421000,-10510.924376,4136.915689
1416.658211,4145.153275,-10362.883188,3677.258390
1416.658540,3552.988522,-9474.636058,3140.991542
1416.658869,2960.823768,-8660.409521,3753.867940
1416.659198,4145.153275,-7105.977043,3907.087040
1416.659527,5551.544565,-6587.832884,4290.134789
1416.659856,7550.100608,-5181.441594,5745.716235
1416.660186,9622.677246,-4589.276840,6205.373534
1416.660515,9474.636058,-4219.173869,6128.763984
1416.660844,9474.636058,-3552.988522,5669.106685
1416.661173,9474.636058,-4071.132681,5209.449386
1416.661502,9178.553681,-3627.009116,4596.572988
1416.661831,8734.430116,-5181.441594,4903.011187
1416.662160,8364.327145,-6513.812290,4596.572988
1416.662489,7624.121203,-6439.791695,4826.401637
1416.662818,6809.894666,-7698.141797,4596.572988
1416.663147,6143.709319,-8808.450710,4596.572988
1416.663476,4663.297435,-9622.677246,4213.525239
1416.663805,3256.906145,-10807.006753,3370.820191
1416.664134,2294.638420,-10066.800811,3140.991542
1416.664463,2072.576638,-9178.553681,3140.991542
1416.664792,3923.091493,-7772.162391,3524.039291
1416.665122,6143.709319,-6143.709319,3907.087040
1416.665451,8142.265362,-5699.585753,4903.011187
1416.665780,9622.677246,-3330.926739,5362.668486
1416.666109,9918.759623,-2368.659014,6358.592633
1416.666438,10066.800811,-1998.556043,5822.325785
1416.666767,9474.636058,-2442.679609,5132.839837
1416.667096,9104.533087,-4293.194464,4596.572988
1416.667425,7402.059420,-5255.462188,3907.087040
1416.667754,6957.935855,-7328.038826,3370.820191
1416.668083,6291.750507,-8364.327145,2757.943793
1416.668412,5255.462188,-9622.677246,2528.115143
1416.668741,4737.318029,-10140.821405,2528.115143
1416.669070,5033.400406,-9104.533087,3524.039291
1416.669399,5255.462188,-9030.512492,3677.258390
1416.669729,6217.729913,-7105.977043,3983.696590
1416.670058,7624.121203,-4737.318029,3983.696590
1416.670387,9030.512492,-4737.318029,4213.525239
1416.670716,9252.574275,-3923.091493,4596.572988
1416.671045,9030.512492,-5181.441594,3677.258390
1416.671374,8142.265362,-4959.379811,3217.601092
1416.671703,6957.935855,-5995.668130,2681.334243
1416.672032,6735.874072,-7105.977043,3140.991542
1416.672361,6809.894666,-7550.100608,2987.772442
1416.672690,6143.709319,-8290.306550,3907.087040
1416.673019,6513.812290,-7550.100608,3753.867940
1416.673348,6809.894666,-7772.162391,3983.696590
1416.673677,7254.018232,-7105.977043,4749.792088
1416.674006,7254.018232,-6957.935855,4136.915689
1416.674335,6809.894666,-6513.812290,3983.696590
1416.674665,6735.874072,-4811.338623,3753.867940
1416.674994,7105.977043,-4367.215058,3217.601092
1416.675323,8216.285956,-3404.947333,4290.134789
1416.675652,8660.409521,-4219.173869,4290.134789
1416.675981,8364.327145,-5107.421000,3983.696590
1416.676310,7254.018232,-5847.626942,3217.601092
1416.676639,6439.791695,-8216.285956,2528.115143
1416.676968,5329.482782,-9030.512492,1915.238745
1416.677297,4663.297435,-10288.862594,2451.505594
1416.677626,4737.318029,-9548.656652,2987.772442
1416.677955,5551.544565,-7550.100608,3217.601092
1416.678284,6587.832884,-6883.915261,3907.087040
1416.678613,7476.080014,-5403.503377,4826.401637
1416.678942,7920.203579,-5477.523971,4673.182538
1416.679271,8290.306550,-4145.153275,4519.963438
1416.679601,8068.244768,-3775.050304,4903.011187
1416.679930,7994.224174,-4145.153275,4826.401637
1416.680259,9474.636058,-2960.823768,4903.011187
1416.680588,9252.574275,-4441.235652,4596.572988
1416.680917,8364.327145,-5329.482782,4519.963438
1416.681246,7105.977043,-7328.038826,3217.601092
1416.681575,5403.503377,-9474.636058,3294.210641
1416.681904,4589.276840,-9844.739029,2834.553343
1416.682233,4145.153275,-11177.109724,2757.943793
1416.682562,4663.297435,-10436.903782,3447.429741
1416.682891,5329.482782,-8586.388927,3064.381992
1416.683220,5477.523971,-7179.997637,3524.039291
1416.683549,7031.956449,-4737.318029,4366.744339
1416.683878,8586.388927,-3849.070898,4979.620737
1416.684208,9622.677246,-2886.803174,5975.544884
1416.684537,9474.636058,-3478.967927,6052.154434
1416.684866,9474.636058,-3108.864956,5286.058936
1416.685195,8142.265362,-4589.276840,4443.353888
1416.685524,7031.956449,-6439.791695,4443.353888
1416.685853,6809.894666,-8290.306550,4596.572988
1416.686182,7402.059420,-8808.450710,4443.353888
1416.686511,6735.874072,-9252.574275,3907.087040
1416.686840,5329.482782,-9474.636058,3907.087040
1416.687169,5033.400406,-7476.080014,3447.429741
1416.687498,4663.297435,-6439.791695,2834.553343
1416.687827,4959.379811,-6217.729913,4443.353888
1416.688156,7105.977043,-6217.729913,5592.497135
1416.688485,8734.430116,-5329.482782,6128.763984
1416.688814,7624.121203,-4811.338623,5132.839837
1416.689144,6809.894666,-4885.359217,4979.620737
1416.689473,7031.956449,-4811.338623,4519.963438
1416.689802,7402.059420,-5403.503377,4366.744339
1416.690131,7105.977043,-5255.462188,4136.915689
1416.690460,7402.059420,-5699.585753,3140.991542
1416.690789,7550.100608,-7179.997637,3983.696590
1416.691118,7254.018232,-8660.409521,4903.011187
1416.691447,6957.935855,-9474.636058,4979.620737
1416.691776,6587.832884,-8290.306550,4060.306139
1416.692105,5403.503377,-6365.771101,2221.676944
1416.692434,4515.256246,-7254.018232,2221.676944
1416.692763,6217.729913,-7179.997637,3753.867940
1416.693092,7402.059420,-5551.544565,3830.477490
1416.693421,8142.265362,-3923.091493,4826.401637
1416.693751,7846.182985,-2664.741391,4060.306139
1416.694080,8068.244768,-4145.153275,3524.039291
1416.694409,7994.224174,-5255.462188,4290.134789
1416.694738,8216.285956,-5847.626942,4213.525239
1416.695067,8586.388927,-6883.915261,3753.867940
1416.695396,7402.059420,-7254.018232,2987.772442
1416.695725,5551.544565,-9400.615463,2221.676944
1416.696054,4737.318029,-10066.800811,1762.019645
1416.696383,5625.565159,-8956.491898,1915.238745
1416.696712,6661.853478,-7105.977043,2221.676944
1416.697041,7328.038826,-5995.668130,2374.896044
1416.697370,7920.203579,-6069.688724,3217.601092
1416.697699,7698.141797,-6143.709319,3217.601092
1416.698028,6957.935855,-4885.359217,1838.629195
1416.698357,6291.750507,-5551.544565,1762.019645
1416.698687,6735.874072,-5995.668130,1532.190996
1416.699016,8290.306550,-5699.585753,1915.238745
1416.699345,8216.285956,-4589.276840,1991.848295
1416.699674,7550.100608,-5477.523971,1225.752797
1416.700003,7402.059420,-7105.977043,1072.533697
1416.700332,7105.977043,-7476.080014,689.485948
1416.700661,5773.606348,-7920.203579,1072.533697
1416.700990,6291.750507,-8438.347739,1608.800546
1416.701319,5995.668130,-9474.636058,1991.848295
1416.701648,5551.544565,-10140.821405,2451.505594
1416.701977,6217.729913,-7105.977043,2681.334243
1416.702306,7772.162391,-4071.132681,2221.676944
1416.702635,8142.265362,-3997.112087,1685.410096
1416.702964,6809.894666,-4367.215058,1762.019645
1416.703293,6661.853478,-4219.173869,1455.581446
1416.703623,7698.141797,-2738.761985,1072.533697
1416.703952,7920.203579,-3182.885551,306.438199
1416.704281,7772.162391,-7402.059420,919.314598
1416.704610,8808.450710,-8438.347739,1532.190996
1416.704939,7846.182985,-7846.182985,536.266849
1416.705268,6365.771101,-7105.977043,-1378.971896
1416.705597,5699.585753,-8512.368333,-1149.143247
1416.705926,5625.565159,-10288.862594,-612.876398
1416.706255,5181.441594,-9104.533087,0.000000
1416.706584,4737.318029,-8660.409521,536.266849
1416.706913,5625.565159,-7476.080014,995.924147
1416.707242,5921.647536,-6735.874072,919.314598
1416.707571,6883.915261,-6587.832884,2604.724693
1416.707900,9474.636058,-5403.503377,4443.353888
1416.708230,10955.047942,-3701.029710,3140.991542
1416.708559,9548.656652,-2072.576638,2298.286494
1416.708888,7772.162391,-3034.844362,1838.629195
1416.709217,8068.244768,-3330.926739,919.314598
1416.709546,7624.121203,-4219.173869,-383.047749
1416.709875,6291.750507,-7402.059420,0.000000
1416.710204,5921.647536,-8512.368333,459.657299
1416.710533,6809.894666,-9178.553681,766.095498
1416.710862,6365.771101,-10807.006753,1072.533697
1416.711191,5403.503377,-10436.903782,1378.971896
1416.711520,5921.647536,-9252.574275,2068.457845
1416.711849,4219.173869,-8808.450710,689.485948
1416.712178,2886.803174,-7328.038826,1685.410096
1416.712507,5107.421000,-5551.544565,1685.410096
1416.712836,7920.203579,-3108.864956,1455.581446
1416.713166,9326.594869,-4071.132681,2987.772442
1416.713495,10362.883188,-4737.318029,4903.011187
1416.713824,11399.171507,-4071.132681,3677.258390
1416.714153,9252.574275,-3478.967927,1762.019645
1416.714482,6661.853478,-3923.091493,1072.533697
1416.714811,6069.688724,-5847.626942,0.000000
1416.715140,6365.771101,-7402.059420,-919.314598
1416.715469,5329.482782,-7920.203579,-76.609550
1416.715798,5551.544565,-8216.285956,459.657299
1416.716127,6661.853478,-9104.533087,919.314598
1416.716456,6143.709319,-9844.739029,1915.238745
1416.716785,6069.688724,-9178.553681,1915.238745
1416.717114,6291.750507,-8290.306550,2298.286494
1416.717443,5921.647536,-7328.038826,2451.505594
1416.717773,5921.647536,-5403.503377,1608.800546
1416.718102,7698.141797,-3701.029710,1378.971896
1416.718431,9326.594869,-3108.864956,2451.505594
1416.718760,9696.697840,-3775.050304,2451.505594
1416.719089,8660.409521,-4737.318029,1991.848295
1416.719418,8290.306550,-4515.256246,1762.019645
1416.719747,7624.121203,-5255.462188,0.000000
1416.720076,5847.626942,-7698.141797,153.219100
1416.720405,5403.503377,-7772.162391,0.000000
1416.720734,5699.585753,-8956.491898,-1608.800546
1416.721063,5995.668130,-7772.162391,76.609550
1416.721392,5477.523971,-8216.285956,-153.219100
1416.721721,5995.668130,-9844.739029,383.047749
1416.722050,6883.915261,-7846.182985,1072.533697
1416.722379,6957.935855,-7698.141797,1072.533697
1416.722709,6587.832884,-7994.224174,1762.019645
1416.723038,6735.874072,-6883.915261,2374.896044
1416.723367,7254.018232,-5477.523971,1685.410096
1416.723696,8438.347739,-3923.091493,1149.143247
1416.724025,8734.430116,-3849.070898,2068.457845
1416.724354,8586.388927,-3552.988522,1455.581446
1416.724683,7476.080014,-4515.256246,842.705048
1416.725012,6587.832884,-5107.421000,0.000000
1416.725341,5847.626942,-6143.709319,-459.657299
1416.725670,5773.606348,-7254.018232,-229.828649
1416.725999,6291.750507,-8586.388927,-766.095498
1416.726328,6661.853478,-8438.347739,383.047749
1416.726657,6587.832884,-7920.203579,-153.219100
1416.726986,6513.812290,-8808.450710,229.828649
1416.727316,6513.812290,-8142.265362,689.485948
1416.727645,6809.894666,-7846.182985,1149.143247
1416.727974,6809.894666,-8068.244768,1608.800546
1416.728303,7105.977043,-7105.977043,1991.848295
1416.728632,7105.977043,-4737.318029,1225.752797
1416.728961,7476.080014,-3330.926739,1225.752797
1416.729290,8142.265362,-2664.741391,1685.410096
1416.729619,8808.450710,-3552.988522,1378.971896
1416.729948,8068.244768,-4219.173869,842.705048
1416.730277,6661.853478,-4811.338623,459.657299
1416.730606,6735.874072,-6883.915261,919.314598
1416.730935,7105.977043,-7772.162391,612.876398
1416.731264,6883.915261,-7476.080014,919.314598
1416.731593,7105.977043,-7031.956449,383.047749
1416.731922,6587.832884,-7772.162391,0.000000
1416.732252,6291.750507,-8808.450710,0.000000
1416.732581,6217.729913,-7179.997637,1072.533697
1416.732910,6957.935855,-7698.141797,689.485948
1416.733239,6587.832884,-8586.388927,1838.629195
1416.733568,5847.626942,-9400.615463,2451.505594
1416.733897,6365.771101,-7476.080014,1838.629195
1416.734226,6883.915261,-5255.462188,1378.971896
1416.734555,7920.203579,-4515.256246,1532.190996
1416.734884,8438.347739,-4145.153275,1608.800546
1416.735213,7698.141797,-4959.379811,229.828649
1416.735542,7031.956449,-4219.173869,0.000000
1416.735871,6439.791695,-5847.626942,842.705048
1416.736200,7179.997637,-7994.224174,1302.362347
1416.736529,7476.080014,-8068.244768,1455.581446
1416.736858,7254.018232,-7328.038826,919.314598
1416.737188,7698.141797,-7698.141797,1455.581446
1416.737517,6661.853478,-8586.388927,1072.533697
1416.737846,6587.832884,-7920.203579,766.095498
1416.738175,6513.812290,-6883.915261,229.828649
1416.738504,5625.565159,-6883.915261,1455.581446
1416.738833,4663.297435,-7772.162391,1532.190996
1416.739162,5255.462188,-7846.182985,1991.848295
1416.739491,6513.812290,-5699.585753,2068.457845
1416.739820,7920.203579,-4515.256246,2451.505594
1416.740149,8586.388927,-5255.462188,3983.696590
1416.740478,8734.430116,-4811.338623,2681.334243
1416.740807,7105.977043,-3256.906145,153.219100
1416.741136,5181.441594,-3182.885551,0.000000
1416.741465,5551.544565,-4515.256246,-383.047749
1416.741795,6439.791695,-5625.565159,0.000000
1416.742124,7254.018232,-6587.832884,766.095498
1416.742453,8216.285956,-7698.141797,1608.800546
1416.742782,8438.347739,-9030.512492,1762.019645
1416.743111,7772.162391,-8660.409521,1225.752797
1416.743440,6883.915261,-8364.327145,1149.143247
1416.743769,6291.750507,-8142.265362,919.314598
1416.744098,5551.544565,-8142.265362,459.657299
1416.744427,5181.441594,-8068.244768,842.705048
1416.744756,5625.565159,-4885.359217,919.314598
1416.745085,7105.977043,-4515.256246,766.095498
1416.745414,9252.574275,-5699.585753,3217.601092
1416.745743,9844.739029,-5551.544565,3600.648841
1416.746072,9252.574275,-4071.132681,1838.629195
1416.746401,6735.874072,-3330.926739,919.314598
1416.746731,6291.750507,-4589.276840,0.000000
1416.747060,6217.729913,-7402.059420,-383.047749
1416.747389,6365.771101,-6365.771101,-919.314598
1416.747718,6661.853478,-6957.935855,-612.876398
1416.748047,7105.977043,-8956.491898,306.438199
1416.748376,7550.100608,-10066.800811,1149.143247
1416.748705,7328.038826,-10362.883188,1455.581446
1416.749034,6513.812290,-9918.759623,612.876398
1416.749363,5625.565159,-9918.759623,1302.362347
1416.749692,5107.421000,-9178.553681,1225.752797
1416.750022,5329.482782,-4959.379811,0.000000
1416.750351,6291.750507,-2960.823768,612.876398
1416.750680,7846.182985,-3701.029710,2298.286494
1416.751009,8734.430116,-4219.173869,1762.019645
1416.751338,7772.162391,-4145.153275,1378.971896
1416.751667,6883.915261,-2368.659014,383.047749
1416.751997,7254.018232,-5773.606348,1072.533697
1416.752326,7920.203579,-7105.977043,1302.362347
1416.752655,6957.935855,-6661.853478,0.000000
1416.752984,6069.688724,-6883.915261,-306.438199
1416.753313,5847.626942,-6513.812290,-842.705048
1416.753642,6291.750507,-8660.409521,-536.266849
1416.753972,6291.750507,-8660.409521,919.314598
1416.754301,6365.771101,-9252.574275,1302.362347
1416.754630,6069.688724,-9474.636058,2145.067394
1416.754959,6143.709319,-8512.368333,2068.457845
1416.755288,7031.956449,-6365.771101,1532.190996
1416.755617,7550.100608,-3108.864956,1532.190996
1416.755947,8734.430116,-4071.132681,1608.800546
1416.756276,8438.347739,-3775.050304,1072.533697
1416.756605,7550.100608,-3478.967927,0.000000
1416.756934,6957.935855,-4145.153275,-229.828649
1416.757263,6883.915261,-5773.606348,0.000000
1416.757592,6809.894666,-8142.265362,383.047749
1416.757922,6439.791695,-8586.388927,153.219100
1416.758251,7254.018232,-7698.141797,842.705048
1416.758580,8142.265362,-8364.327145,536.266849
1416.758909,7994.224174,-8808.450710,842.705048
1416.759238,7402.059420,-8438.347739,1378.971896
1416.759567,7031.956449,-7772.162391,459.657299
1416.759897,5551.544565,-7031.956449,1378.971896
1416.760226,5625.565159,-7402.059420,1455.581446
1416.760555,6513.812290,-5699.585753,2068.457845
1416.760884,7402.059420,-3775.050304,1072.533697
1416.761213,7920.203579,-5255.462188,2528.115143
1416.761542,8512.368333,-5921.647536,3677.258390
1416.761872,8142.265362,-4737.318029,1991.848295
1416.762201,6291.750507,-4219.173869,459.657299
1416.762530,5107.421000,-4737.318029,0.000000
1416.762859,5329.482782,-7698.141797,0.000000
1416.763188,5847.626942,-7920.203579,-76.609550
1416.763517,5773.606348,-7846.182985,536.266849
1416.763847,7179.997637,-7698.141797,689.485948
1416.764176,7698.141797,-7920.203579,1532.190996
1416.764505,7105.977043,-8660.409521,1915.238745
1416.764834,7328.038826,-7476.080014,1915.238745
1416.765163,7254.018232,-7179.997637,1455.581446
1416.765492,6069.688724,-8142.265362,1762.019645
1416.765821,5477.523971,-6143.709319,1915.238745
1416.766151,6217.729913,-4145.153275,1762.019645
1416.766480,7550.100608,-3997.112087,1762.019645
1416.766809,8290.306550,-4219.173869,2987.772442
1416.767138,8438.347739,-3627.009116,2221.676944
1416.767467,7846.182985,-3627.009116,1532.190996
1416.767796,7254.018232,-5773.606348,2145.067394
1416.768126,7105.977043,-7698.141797,1149.143247
1416.768455,5847.626942,-7698.141797,0.000000
1416.768784,5773.606348,-6661.853478,-306.438199
1416.769113,6587.832884,-7402.059420,-229.828649
1416.769442,7402.059420,-7476.080014,153.219100
1416.769771,7698.141797,-7994.224174,1455.581446
1416.770101,7920.203579,-7698.141797,1685.410096
1416.770430,7105.977043,-7624.121203,1991.848295
1416.770759,6587.832884,-8808.450710,2221.676944
1416.771088,5699.585753,-7550.100608,1915.238745
1416.771417,6661.853478,-4515.256246,1225.752797
1416.771746,7402.059420,-3997.112087,1149.143247
1416.772076,9326.594869,-4293.194464,2298.286494
1416.772405,9104.533087,-4737.318029,2145.067394
1416.772734,7920.203579,-3775.050304,612.876398
1416.773063,5773.606348,-4071.132681,-766.095498
1416.773392,5255.462188,-7698.141797,-229.828649
1416.773721,6513.812290,-9252.574275,1455.581446
1416.774051,7698.141797,-8808.450710,919.314598
1416.774380,7624.121203,-7031.956449,766.095498
1416.774709,6661.853478,-7476.080014,229.828649
1416.775038,6439.791695,-7476.080014,-153.219100
1416.775367,6143.709319,-7031.956449,0.000000
1416.775696,5995.668130,-6809.894666,612.876398
1416.776026,5847.626942,-7031.956449,1455.581446
1416.776355,6291.750507,-7476.080014,1455.581446
1416.776684,7031.956449,-5625.565159,1991.848295
1416.777013,8290.306550,-4737.318029,2145.067394
1416.777342,9178.553681,-6439.791695,2451.505594
1416.777671,7846.182985,-5033.400406,995.924147
1416.778001,6291.750507,-4663.297435,-229.828649
1416.778330,5477.523971,-5403.503377,-1378.971896
1416.778659,5625.565159,-7105.977043,-995.924147
1416.778988,5847.626942,-8364.327145,-229.828649
1416.779317,6661.853478,-7698.141797,-459.657299
1416.779646,7624.121203,-6957.935855,459.657299
1416.779976,8882.471304,-7624.121203,1225.752797
1416.780305,8364.327145,-7772.162391,689.485948
1416.780634,7328.038826,-7105.977043,1072.533697
1416.780963,6883.915261,-5921.647536,306.438199
1416.781292,6143.709319,-5551.544565,383.047749
1416.781621,5847.626942,-6365.771101,1149.143247
1416.781951,6883.915261,-4737.318029,1149.143247
1416.782280,7994.224174,-4663.297435,2068.457845
1416.782609,9326.594869,-5625.565159,3677.258390
1416.782938,9474.636058,-5699.585753,2604.724693
1416.783267,8290.306550,-4885.359217,1149.143247
1416.783596,6513.812290,-5699.585753,229.828649
1416.783926,5477.523971,-6217.729913,-536.266849
1416.784255,5551.544565,-7328.038826,-153.219100
1416.784584,5995.668130,-7031.956449,-919.314598
1416.784913,6587.832884,-7031.956449,-306.438199
1416.785242,7328.038826,-8068.244768,919.314598
1416.785571,7624.121203,-8438.347739,1302.362347
1416.785901,7402.059420,-8142.265362,919.314598
1416.786230,7105.977043,-6587.832884,842.705048
1416.786559,6365.771101,-7179.997637,1302.362347
1416.786888,6513.812290,-8142.265362,2145.067394
1416.787217,6883.915261,-5847.626942,1072.533697
1416.787546,7254.018232,-4071.132681,1532.190996
1416.787876,8290.306550,-4367.215058,1991.848295
1416.788205,8808.450710,-5033.400406,1915.238745
1416.788534,8068.244768,-5699.585753,1838.629195
1416.788863,6217.729913,-5773.606348,919.314598
1416.789192,5847.626942,-6809.894666,766.095498
1416.789521,6217.729913,-8068.244768,1225.752797
1416.789851,6217.729913,-7698.141797,153.219100
1416.790180,5551.544565,-7179.997637,-689.485948
1416.790509,4959.379811,-7328.038826,-306.438199
1416.790838,6069.688724,-7476.080014,0.000000
1416.791167,6809.894666,-7846.182985,1378.971896
1416.791496,6809.894666,-7698.141797,2068.457845
1416.791826,7179.997637,-8290.306550,3677.258390
1416.792155,6735.874072,-8290.306550,2681.334243
1416.792484,6291.750507,-6069.688724,2221.676944
1416.792813,6735.874072,-3552.988522,1838.629195
1416.793142,8512.368333,-4441.235652,2298.286494
1416.793471,8882.471304,-4589.276840,2681.334243
1416.793801,7994.224174,-4441.235652,995.924147
1416.794130,6365.771101,-5403.503377,153.219100
1416.794459,5477.523971,-5921.647536,76.609550
1416.794788,5773.606348,-8512.368333,842.705048
1416.795117,6809.894666,-7920.203579,612.876398
1416.795446,6957.935855,-7550.100608,383.047749
1416.795776,7105.977043,-7402.059420,689.485948
1416.796105,6883.915261,-7920.203579,1225.752797
1416.796434,7624.121203,-7550.100608,1302.362347
1416.796763,7624.121203,-5107.421000,1149.143247
1416.797092,6513.812290,-5699.585753,1225.752797
1416.797421,6217.729913,-6069.688724,2298.286494
1416.797751,6513.812290,-6661.853478,2681.334243
1416.798080,8142.265362,-4663.297435,2068.457845
1416.798409,8512.368333,-4071.132681,2374.896044
1416.798738,9326.594869,-5995.668130,2757.943793
1416.799067,9400.615463,-5921.647536,1608.800546
1416.799396,7179.997637,-6735.874072,0.000000
1416.799726,5255.462188,-6069.688724,-919.314598
1416.800055,5255.462188,-6735.874072,-1608.800546
1416.800384,5403.503377,-9030.512492,-1762.019645
1416.800713,6069.688724,-7476.080014,0.000000
1416.801042,7105.977043,-8364.327145,612.876398
1416.801371,7772.162391,-8882.471304,1302.362347
1416.801701,7328.038826,-7772.162391,1685.410096
1416.802030,7328.038826,-7105.977043,689.485948
1416.802359,7698.141797,-6143.709319,2068.457845
1416.802688,7179.997637,-6069.688724,2451.505594
1416.803017,6735.874072,-6291.750507,2068.457845
1416.803346,6809.894666,-4293.194464,1225.752797
1416.803676,7772.162391,-3552.988522,1072.533697
1416.804005,8882.471304,-4293.194464,1838.629195
1416.804334,9474.636058,-5921.647536,2298.286494
1416.804663,7772.162391,-6661.853478,1762.019645
1416.804992,6365.771101,-6439.791695,-229.828649
1416.805321,4737.318029,-7105.977043,-919.314598
1416.805651,3849.070898,-8586.388927,-1302.362347
1416.805980,4737.318029,-8216.285956,-1072.533697
1416.806309,5329.482782,-8216.285956,0.000000
1416.806638,6069.688724,-8512.368333,153.219100
1416.806967,6661.853478,-7328.038826,766.095498
1416.807296,7624.121203,-6661.853478,1762.019645
1416.807626,8216.285956,-6883.915261,1838.629195
1416.807955,7328.038826,-6957.935855,2681.334243
1416.808284,7031.956449,-6735.874072,2528.115143
1416.808613,7105.977043,-4589.276840,1225.752797
1416.808942,7254.018232,-2294.638420,919.314598
1416.809271,8364.327145,-3849.070898,1532.190996
1416.809601,9104.533087,-5551.544565,1532.190996
1416.809930,7550.100608,-5625.565159,842.705048
1416.810259,5773.606348,-6365.771101,306.438199
1416.810588,5551.544565,-7994.224174,383.047749
1416.810917,6217.729913,-9770.718434,1072.533697
1416.811246,5995.668130,-8956.491898,153.219100
1416.811576,5773.606348,-7031.956449,0.000000
1416.811905,5699.585753,-6883.915261,-306.438199
1416.812234,6735.874072,-6439.791695,76.609550
1416.812563,7698.141797,-6439.791695,1302.362347
1416.812892,8512.368333,-7031.956449,3064.381992
1416.813221,7698.141797,-7698.141797,3217.601092
1416.813551,6513.812290,-8290.306550,3064.381992
1416.813880,5847.626942,-5773.606348,2374.896044
1416.814209,7402.059420,-3552.988522,1532.190996
1416.814538,8660.409521,-3034.844362,2145.067394
1416.814867,8586.388927,-5921.647536,2145.067394
1416.815196,7624.121203,-5847.626942,1072.533697
1416.815526,6513.812290,-5477.523971,-229.828649
1416.815855,5477.523971,-7179.997637,0.000000
1416.816184,5625.565159,-8882.471304,459.657299
1416.816513,6291.750507,-9252.574275,0.000000
1416.816842,7328.038826,-8586.388927,995.924147
1416.817171,6883.915261,-7698.141797,1225.752797
1416.817501,7624.121203,-7254.018232,1149.143247
1416.817830,7698.141797,-6587.832884,995.924147
1416.818159,7031.956449,-5773.606348,1455.581446
1416.818488,6365.771101,-6439.791695,1762.019645
1416.818817,5625.565159,-7550.100608,2987.772442
1416.819146,5995.668130,-6217.729913,2757.943793
1416.819476,7031.956449,-3108.864956,1762.019645
1416.819805,8586.388927,-4071.132681,2451.505594
1416.820134,10362.883188,-4811.338623,3294.210641
1416.820463,8882.471304,-5477.523971,2298.286494
1416.820792,6587.832884,-6143.709319,229.828649
1416.821121,5107.421000,-5033.400406,-842.705048
1416.821451,4959.379811,-7994.224174,-1072.533697
1416.821780,4737.318029,-8734.430116,-536.266849
1416.822109,5847.626942,-7624.121203,0.000000
1416.822438,7179.997637,-9030.512492,919.314598
1416.822767,8068.244768,-7328.038826,1302.362347
1416.823096,7328.038826,-8216.285956,766.095498
1416.823426,6735.874072,-7254.018232,689.485948
1416.823755,6291.750507,-7254.018232,995.924147
1416.824084,6365.771101,-7772.162391,1838.629195
1416.824413,6143.709319,-5773.606348,1225.752797
1416.824742,6883.915261,-3404.947333,1608.800546
1416.825071,9252.574275,-2368.659014,1838.629195
1416.825401,10362.883188,-4663.297435,2987.772442
1416.825730,10510.924376,-4367.215058,2681.334243
1416.826059,8734.430116,-4515.256246,919.314598
1416.826388,6661.853478,-5107.421000,-153.219100
1416.826717,5625.565159,-6661.853478,0.000000
1416.827046,5181.441594,-9474.636058,-919.314598
1416.827376,5477.523971,-8290.306550,-919.314598
1416.827705,5625.565159,-8956.491898,-383.047749
1416.828034,6439.791695,-9770.718434,612.876398
1416.828363,6513.812290,-8734.430116,383.047749
1416.828692,6365.771101,-8216.285956,229.828649
1416.829021,5921.647536,-7772.162391,153.219100
1416.829351,5995.668130,-8290.306550,1915.238745
1416.829680,5921.647536,-7179.997637,1991.848295
1416.830009,6513.812290,-3849.070898,1302.362347
1416.830338,8290.306550,-1702.473667,2221.676944
1416.830667,10510.924376,-3256.906145,2528.115143
1416.830996,9474.636058,-3478.967927,2911.162892
1416.831326,7994.224174,-3701.029710,612.876398
1416.831655,6661.853478,-4589.276840,0.000000
1416.831984,6661.853478,-7402.059420,0.000000
1416.832313,6439.791695,-9770.718434,306.438199
1416.832642,5551.544565,-9030.512492,-919.314598
1416.832971,5625.565159,-9252.574275,-306.438199
1416.833301,5699.585753,-9030.512492,-306.438199
1416.833630,5625.565159,-8216.285956,76.609550
1416.833959,6217.729913,-7105.977043,459.657299
1416.834288,6291.750507,-6883.915261,995.924147
1416.834617,6069.688724,-8142.265362,2298.286494
1416.834946,5625.565159,-7846.182985,2911.162892
1416.835276,6661.853478,-4885.359217,1991.848295
1416.835605,8734.430116,-1776.494261,2604.724693
1416.835934,10214.842000,-1776.494261,2604.724693
1416.836263,10066.800811,-2960.823768,2451.505594
1416.836592,8808.450710,-2960.823768,995.924147
1416.836921,7328.038826,-4293.194464,0.000000
1416.837251,6587.832884,-6291.750507,-995.924147
1416.837580,5699.585753,-9030.512492,-459.657299
1416.837909,5921.647536,-10510.924376,306.438199
1416.838238,6513.812290,-9992.780217,383.047749
1416.838567,6513.812290,-10214.842000,1072.533697
1416.838896,6291.750507,-9252.574275,536.266849
1416.839226,6291.750507,-7624.121203,229.828649
1416.839555,6365.771101,-7105.977043,536.266849
1416.839884,5625.565159,-6735.874072,1455.581446
1416.840213,6143.709319,-8660.409521,1915.238745
1416.840542,7328.038826,-5403.503377,2528.115143
1416.840871,8808.450710,-2590.720797,3370.820191
1416.841201,10584.944971,-2590.720797,3983.696590
1416.841530,10881.027347,-3108.864956,3907.087040
1416.841859,8290.306550,-3108.864956,995.924147
1416.842188,5847.626942,-4589.276840,-306.438199
1416.842517,5181.441594,-4589.276840,-689.485948
1416.842846,4959.379811,-8216.285956,-919.314598
1416.843176,5033.400406,-10140.821405,-383.047749
1416.843505,5329.482782,-10288.862594,459.657299
1416.843834,6735.874072,-10881.027347,1225.752797
1416.844163,6957.935855,-9844.739029,1149.143247
1416.844492,6217.729913,-9474.636058,1225.752797
1416.844821,7031.956449,-7772.162391,842.705048
1416.845151,6883.915261,-6439.791695,995.924147
1416.845480,5773.606348,-7031.956449,1915.238745
1416.845809,6291.750507,-5625.565159,1915.238745
1416.846138,7402.059420,-2294.638420,2221.676944
1416.846467,9918.759623,-1554.432478,2681.334243
1416.846796,10288.862594,-3330.926739,2987.772442
1416.847126,9770.718434,-3627.009116,2911.162892
1416.847455,7920.203579,-4071.132681,1532.190996
1416.847784,6513.812290,-4811.338623,-306.438199
1416.848113,5847.626942,-7698.141797,0.000000
1416.848442,5773.606348,-8364.327145,-306.438199
1416.848771,5477.523971,-8290.306550,-1225.752797
1416.849101,5551.544565,-9696.697840,689.485948
1416.849430,7105.977043,-9918.759623,919.314598
1416.849759,7402.059420,-8882.471304,1072.533697
1416.850088,6957.935855,-7254.018232,1532.190996
1416.850417,6291.750507,-7624.121203,1532.190996
1416.850746,6513.812290,-7476.080014,2145.067394
1416.851076,5329.482782,-7105.977043,2221.676944
1416.851405,6809.894666,-2886.803174,1455.581446
1416.851734,8586.388927,-1554.432478,1378.971896
1416.852063,9696.697840,-4145.153275,2681.334243
1416.852392,9696.697840,-4145.153275,1762.019645
1416.852721,8142.265362,-4589.276840,766.095498
1416.853051,7105.977043,-4959.379811,-536.266849
1416.853380,6439.791695,-7550.100608,-842.705048
1416.853709,6143.709319,-10066.800811,459.657299
1416.854038,7031.956449,-9030.512492,-76.609550
1416.854367,6587.832884,-9474.636058,0.000000
1416.854696,6143.709319,-9474.636058,766.095498
1416.855026,6143.709319,-8586.388927,766.095498
1416.855355,6069.688724,-7179.997637,459.657299
1416.855684,6587.832884,-6957.935855,1072.533697
1416.856013,6291.750507,-7624.121203,2451.505594
1416.856342,6809.894666,-7994.224174,2987.772442
1416.856672,7254.018232,-4589.276840,1762.019645
1416.857001,7254.018232,-1480.411884,383.047749
1416.857330,8216.285956,-4145.153275,1915.238745
1416.857659,9178.553681,-5033.400406,1685.410096
1416.857988,7179.997637,-4959.379811,0.000000
1416.858317,5181.441594,-5329.482782,-766.095498
1416.858647,5921.647536,-6957.935855,0.000000
1416.858976,6513.812290,-9548.656652,306.438199
1416.859305,6291.750507,-8956.491898,689.485948
1416.859634,5847.626942,-8068.244768,459.657299
1416.859963,7105.977043,-9252.574275,766.095498
1416.860293,7328.038826,-7846.182985,1149.143247
1416.860622,7031.956449,-6883.915261,0.000000
1416.860951,7031.956449,-6957.935855,919.314598
1416.861280,6069.688724,-7105.977043,1072.533697
1416.861609,5329.482782,-7105.977043,1072.533697
1416.861938,6217.729913,-5625.565159,1685.410096
1416.862268,8512.368333,-4219.173869,2834.553343
1416.862597,10288.862594,-4737.318029,3064.381992
1416.862926,9474.636058,-4663.297435,3370.820191
1416.863255,7254.018232,-4589.276840,1225.752797
1416.863584,6365.771101,-3478.967927,-1302.362347
1416.863913,5033.400406,-5625.565159,-766.095498
1416.864243,5551.544565,-7624.121203,383.047749
1416.864572,7254.018232,-8068.244768,0.000000
1416.864901,7698.141797,-8586.388927,1378.971896
1416.865230,7624.121203,-8660.409521,1455.581446
1416.865559,7328.038826,-9474.636058,766.095498
1416.865889,7402.059420,-8216.285956,1378.971896
1416.866218,6735.874072,-7402.059420,383.047749
1416.866547,5625.565159,-8290.306550,1302.362347
1416.866876,5847.626942,-7772.162391,1915.238745
1416.867205,5921.647536,-6735.874072,766.095498
1416.867534,6809.894666,-3997.112087,2068.457845
1416.867864,8216.285956,-3923.091493,3140.991542
1416.868193,9474.636058,-5625.565159,3600.648841
1416.868522,8512.368333,-3997.112087,2681.334243
1416.868851,6957.935855,-4071.132681,919.314598
1416.869180,6809.894666,-5329.482782,0.000000
1416.869510,6143.709319,-6883.915261,383.047749
1416.869839,5921.647536,-7105.977043,0.000000
1416.870168,5921.647536,-7105.977043,-306.438199
1416.870497,7105.977043,-7624.121203,1991.848295
1416.870826,7105.977043,-9104.533087,1149.143247
1416.871155,6809.894666,-9474.636058,1762.019645
1416.871485,6587.832884,-8882.471304,1685.410096
1416.871814,5699.585753,-8882.471304,1532.190996
1416.872143,4515.256246,-8586.388927,1991.848295
1416.872472,4959.379811,-6735.874072,1455.581446
1416.872801,6735.874072,-4663.297435,1072.533697
1416.873131,8290.306550,-4071.132681,2834.553343
1416.873460,8734.430116,-3923.091493,2911.162892
1416.873789,8364.327145,-3404.947333,1685.410096
1416.874118,7254.018232,-3182.885551,919.314598
1416.874447,6661.853478,-4293.194464,0.000000
1416.874776,6439.791695,-6661.853478,306.438199
1416.875106,6439.791695,-7920.203579,0.000000
1416.875435,7105.977043,-7994.224174,0.000000
1416.875764,7328.038826,-8438.347739,459.657299
1416.876093,7624.121203,-8734.430116,459.657299
1416.876422,7624.121203,-8290.306550,1455.581446
1416.876751,6883.915261,-7994.224174,766.095498
1416.877081,5773.606348,-7402.059420,842.705048
1416.877410,5403.503377,-8734.430116,1762.019645
1416.877739,6513.812290,-7476.080014,2834.553343
1416.878068,8142.265362,-4811.338623,1991.848295
1416.878397,8734.430116,-4515.256246,3140.991542
1416.878727,8660.409521,-2738.761985,2528.115143
1416.879056,7624.121203,-3256.906145,919.314598
1416.879385,6513.812290,-1850.514855,-766.095498
1416.879714,6587.832884,-2368.659014,-919.314598
1416.880043,7328.038826,-6513.812290,76.609550
1416.880372,7402.059420,-8808.450710,306.438199
1416.880702,6661.853478,-10436.903782,1378.971896
1416.881031,6661.853478,-9104.533087,536.266849
1416.881360,6661.853478,-8808.450710,-383.047749
1416.881689,6217.729913,-9696.697840,-459.657299
1416.882018,6735.874072,-9400.615463,306.438199
1416.882348,6587.832884,-9030.512492,689.485948
1416.882677,6365.771101,-7920.203579,1685.410096
1416.883006,4811.338623,-6439.791695,1149.143247
1416.883335,6217.729913,-3923.091493,689.485948
1416.883664,7920.203579,-3108.864956,2451.505594
1416.883993,8882.471304,-4737.318029,3524.039291
1416.884323,9770.718434,-3627.009116,2528.115143
1416.884652,9104.533087,-3478.967927,1149.143247
1416.884981,7328.038826,-3256.906145,-383.047749
1416.885310,5625.565159,-6069.688724,-1455.581446
1416.885639,5107.421000,-9474.636058,-842.705048
1416.885968,5033.400406,-9474.636058,-995.924147
1416.886298,5551.544565,-9474.636058,0.000000
1416.886627,6809.894666,-9696.697840,919.314598
1416.886956,7698.141797,-9474.636058,995.924147
1416.887285,7772.162391,-8882.471304,1072.533697
1416.887614,6587.832884,-8216.285956,1455.581446
1416.887944,5329.482782,-7105.977043,1149.143247
1416.888273,5255.462188,-6365.771101,689.485948
1416.888602,6883.915261,-2960.823768,1072.533697
1416.888931,8216.285956,-2220.617826,1072.533697
1416.889260,9474.636058,-3701.029710,3064.381992
1416.889589,9696.697840,-4219.173869,2834.553343
1416.889919,8734.430116,-4219.173869,1685.410096
1416.890248,7105.977043,-3849.070898,0.000000
1416.890577,6069.688724,-6439.791695,0.000000
1416.890906,5625.565159,-8882.471304,0.000000
1416.891235,6143.709319,-9030.512492,76.609550
1416.891565,6143.709319,-7179.997637,383.047749
1416.891894,7031.956449,-7105.977043,612.876398
1416.892223,6735.874072,-7698.141797,919.314598
1416.892552,7031.956449,-7476.080014,919.314598
