#time,accel_x,accel_y,accel_z
1480.100956,6957.935855,-6661.853478,1149.143247
1480.101287,7031.956449,-7105.977043,689.485948
1480.101617,7031.956449,-6735.874072,842.705048
1480.101948,7105.977043,-6661.853478,766.095498
1480.102278,6957.935855,-6661.853478,919.314598
1480.102609,7105.977043,-6365.771101,995.924147
1480.102939,7105.977043,-6809.894666,995.924147
1480.103270,7550.100608,-6439.791695,1225.752797
1480.103600,7476.080014,-6143.709319,1225.752797
1480.103931,7254.018232,-6439.791695,1225.752797
1480.104261,7328.038826,-6365.771101,1378.971896
1480.104591,7105.977043,-5995.668130,1455.581446
1480.104922,7328.038826,-6513.812290,689.485948
1480.105252,6809.894666,-6217.729913,995.924147
1480.105583,6809.894666,-6439.791695,1149.143247
1480.105913,7031.956449,-6513.812290,919.314598
1480.106244,7031.956449,-6217.729913,1225.752797
1480.106574,6809.894666,-6513.812290,919.314598
1480.106905,6809.894666,-6439.791695,919.314598
1480.107235,6661.853478,-6957.935855,1225.752797
1480.107566,6809.894666,-6661.853478,1608.800546
1480.107896,6661.853478,-6661.853478,1149.143247
1480.108227,6661.853478,-6809.894666,1149.143247
1480.108557,6735.874072,-7179.997637,919.314598
1480.108888,6735.874072,-7105.977043,995.924147
1480.109218,6883.915261,-6883.915261,919.314598
1480.109549,6513.812290,-6809.894666,1072.533697
1480.109879,6957.935855,-6513.812290,995.924147
1480.110210,7105.977043,-6513.812290,1149.143247
1480.110540,7254.018232,-6587.832884,842.705048
1480.110871,7476.080014,-5995.668130,1225.752797
1480.111201,6957.935855,-6439.791695,995.924147
1480.111532,6809.894666,-6587.832884,1072.533697
1480.111862,6957.935855,-6513.812290,995.924147
1480.112193,7179.997637,-6439.791695,1225.752797
1480.112523,7254.018232,-6439.791695,1149.143247
1480.112854,7105.977043,-6883.915261,1378.971896
1480.113184,7105.977043,-6513.812290,766.095498
1480.113515,6809.894666,-6661.853478,1072.533697
1480.113845,7105.977043,-6513.812290,1685.410096
1480.114176,6883.915261,-6439.791695,1378.971896
1480.114506,6883.915261,-6735.874072,1149.143247
1480.114837,6735.874072,-6735.874072,1225.752797
1480.115167,7031.956449,-6291.750507,612.876398
1480.115498,6809.894666,-6587.832884,1302.362347
1480.115828,6883.915261,-6735.874072,1072.533697
1480.116159,6957.935855,-6809.894666,612.876398
1480.116489,6809.894666,-6809.894666,919.314598
1480.116820,6809.894666,-7105.977043,919.314598
1480.117150,7550.100608,-6661.853478,995.924147
1480.117481,7402.059420,-6513.812290,1455.581446
1480.117811,6809.894666,-6735.874072,1072.533697
1480.118142,7105.977043,-6069.688724,919.314598
1480.118472,7402.059420,-6143.709319,1225.752797
1480.118803,7105.977043,-6587.832884,1149.143247
1480.119133,7402.059420,-5995.668130,842.705048
1480.119464,7402.059420,-5921.647536,995.924147
1480.119794,7105.977043,-5773.606348,1072.533697
1480.120125,7328.038826,-5995.668130,995.924147
1480.120455,7105.977043,-6291.750507,842.705048
1480.120785,6883.915261,-6587.832884,919.314598
1480.121116,7105.977043,-6513.812290,1455.581446
1480.121446,7179.997637,-6957.935855,1608.800546
1480.121777,6513.812290,-7105.977043,995.924147
1480.122107,6587.832884,-7105.977043,1149.143247
1480.122438,6439.791695,-6883.915261,1149.143247
1480.122768,7105.977043,-7031.956449,536.266849
1480.123099,6365.771101,-6587.832884,995.924147
1480.123429,6661.853478,-6809.894666,1149.143247
1480.123760,6661.853478,-7105.977043,766.095498
1480.124090,6661.853478,-6883.915261,995.924147
1480.124421,6735.874072,-7105.977043,842.705048
1480.124751,6957.935855,-6661.853478,1149.143247
1480.125082,7031.956449,-6883.915261,1149.143247
1480.125412,7105.977043,-7105.977043,995.924147
1480.125743,7105.977043,-6661.853478,995.924147
1480.126073,7254.018232,-7031.956449,306.438199
1480.126404,6809.894666,-6587.832884,919.314598
1480.126734,7031.956449,-6439.791695,919.314598
1480.127065,7105.977043,-6217.729913,842.705048
1480.127395,6809.894666,-6217.729913,1991.848295
1480.127726,7105.977043,-6217.729913,1302.362347
1480.128056,7105.977043,-5995.668130,919.314598
1480.128387,6883.915261,-6365.771101,1149.143247
1480.128717,6883.915261,-6217.729913,1072.533697
1480.129048,6957.935855,-6365.771101,383.047749
1480.129378,6883.915261,-7031.956449,1225.752797
1480.129709,6957.935855,-6587.832884,919.314598
1480.130039,7105.977043,-6883.915261,842.705048
1480.130370,6735.874072,-6365.771101,1225.752797
1480.130700,6883.915261,-7105.977043,689.485948
1480.131031,7031.956449,-6957.935855,995.924147
1480.131361,6809.894666,-7031.956449,842.705048
1480.131692,6661.853478,-6883.915261,1072.533697
1480.132022,6735.874072,-6513.812290,1685.410096
1480.132353,7179.997637,-6291.750507,1225.752797
1480.132683,7105.977043,-6439.791695,995.924147
1480.133014,7105.977043,-6291.750507,1072.533697
1480.133344,7105.977043,-6513.812290,1378.971896
1480.133675,7254.018232,-6291.750507,842.705048
1480.134005,7031.956449,-6439.791695,766.095498
1480.134336,7179.997637,-6587.832884,919.314598
1480.134666,7254.018232,-6439.791695,1149.143247
1480.134997,6809.894666,-6513.812290,1302.362347
1480.135327,6957.935855,-6217.729913,1072.533697
1480.135658,7105.977043,-6513.812290,1072.533697
1480.135988,7105.977043,-6291.750507,1302.362347
1480.136319,6735.874072,-6513.812290,995.924147
1480.136649,6809.894666,-6513.812290,1302.362347
1480.136979,6661.853478,-6735.874072,1225.752797
1480.137310,6513.812290,-6365.771101,919.314598
1480.137640,6809.894666,-6513.812290,919.314598
1480.137971,6957.935855,-6513.812290,1378.971896
1480.138301,7105.977043,-6883.915261,536.266849
1480.138632,6661.853478,-6735.874072,842.705048
1480.138962,6735.874072,-7105.977043,1072.533697
1480.139293,6883.915261,-7105.977043,995.924147
1480.139623,6809.894666,-6439.791695,1608.800546
1480.139954,6587.832884,-6809.894666,1072.533697
1480.140284,6957.935855,-6661.853478,1072.533697
1480.140615,7254.018232,-6809.894666,995.924147
1480.140945,7031.956449,-6439.791695,612.876398
1480.141276,6513.812290,-6291.750507,1149.143247
1480.141606,6809.894666,-6291.750507,919.314598
1480.141937,7105.977043,-6735.874072,842.705048
1480.142267,7105.977043,-6439.791695,919.314598
1480.142598,6809.894666,-6587.832884,1838.629195
1480.142928,7105.977043,-6439.791695,1302.362347
1480.143259,7105.977043,-6809.894666,1532.190996
1480.143589,7031.956449,-6513.812290,1072.533697
1480.143920,7105.977043,-6587.832884,842.705048
1480.144250,6957.935855,-6439.791695,1225.752797
1480.144581,6809.894666,-6883.915261,995.924147
1480.144911,6809.894666,-6661.853478,995.924147
1480.145242,6809.894666,-6217.729913,1225.752797
1480.145572,6365.771101,-6661.853478,612.876398
1480.145903,7031.956449,-7031.956449,1072.533697
1480.146233,6809.894666,-6735.874072,919.314598
1480.146564,6957.935855,-6809.894666,536.266849
1480.146894,7105.977043,-6439.791695,919.314598
1480.147225,7328.038826,-5847.626942,766.095498
1480.147555,7254.018232,-6809.894666,995.924147
1480.147886,7254.018232,-6217.729913,1378.971896
1480.148216,7254.018232,-6439.791695,1149.143247
1480.148547,7254.018232,-6365.771101,1149.143247
1480.148877,7254.018232,-6217.729913,1072.533697
1480.149208,7105.977043,-6217.729913,919.314598
1480.149538,6957.935855,-6365.771101,995.924147
1480.149869,6883.915261,-6809.894666,1149.143247
1480.150199,7328.038826,-6069.688724,1149.143247
1480.150530,6883.915261,-6217.729913,1302.362347
1480.150860,6957.935855,-6143.709319,689.485948
1480.151191,6883.915261,-6439.791695,766.095498
1480.151521,6883.915261,-7105.977043,1072.533697
1480.151852,7031.956449,-7254.018232,1378.971896
1480.152182,7031.956449,-6809.894666,842.705048
1480.152513,6957.935855,-7031.956449,1225.752797
1480.152843,6735.874072,-6661.853478,1072.533697
1480.153173,7254.018232,-6957.935855,766.095498
1480.153504,6661.853478,-6957.935855,689.485948
1480.153834,5921.647536,-6587.832884,306.438199
1480.154165,6883.915261,-6513.812290,766.095498
1480.154495,7105.977043,-6439.791695,919.314598
1480.154826,7105.977043,-6809.894666,1149.143247
1480.155156,7105.977043,-6661.853478,1149.143247
1480.155487,7105.977043,-6809.894666,1072.533697
1480.155817,6809.894666,-7105.977043,995.924147
1480.156148,6883.915261,-6661.853478,919.314598
1480.156478,7328.038826,-6809.894666,919.314598
1480.156809,7402.059420,-6587.832884,1072.533697
1480.157139,7328.038826,-6291.750507,919.314598
1480.157470,7105.977043,-6587.832884,1225.752797
1480.157800,7031.956449,-5921.647536,1838.629195
1480.158131,6957.935855,-6661.853478,1378.971896
1480.158461,6365.771101,-6217.729913,1072.533697
1480.158792,6365.771101,-6513.812290,766.095498
1480.159122,6661.853478,-6439.791695,1149.143247
1480.159453,6883.915261,-6735.874072,1302.362347
1480.159783,7031.956449,-6439.791695,919.314598
1480.160114,6883.915261,-6809.894666,1225.752797
1480.160444,7254.018232,-6957.935855,1072.533697
1480.160775,6957.935855,-6809.894666,995.924147
1480.161105,6883.915261,-6809.894666,995.924147
1480.161436,7031.956449,-6735.874072,995.924147
1480.161766,7402.059420,-6809.894666,1149.143247
1480.162097,7550.100608,-6365.771101,1072.533697
1480.162427,7105.977043,-6291.750507,842.705048
1480.162758,7254.018232,-6439.791695,1302.362347
1480.163088,7105.977043,-6661.853478,919.314598
1480.163419,7031.956449,-6217.729913,842.705048
1480.163749,7105.977043,-6069.688724,1149.143247
1480.164080,7328.038826,-6365.771101,1302.362347
1480.164410,7105.977043,-6439.791695,1149.143247
1480.164741,7105.977043,-6291.750507,1149.143247
1480.165070,7105.977043,-6217.729913,842.705048
1480.165400,7254.018232,-6513.812290,2068.457845
1480.165729,6957.935855,-6587.832884,1149.143247
1480.166059,6957.935855,-6587.832884,612.876398
1480.166389,6957.935855,-6809.894666,1225.752797
1480.166718,6735.874072,-6809.894666,919.314598
1480.167048,6735.874072,-7031.956449,842.705048
1480.167377,6661.853478,-6735.874072,1225.752797
1480.167707,6439.791695,-6957.935855,1072.533697
1480.168037,6587.832884,-7105.977043,1072.533697
1480.168366,6661.853478,-6735.874072,766.095498
1480.168696,6809.894666,-6957.935855,1302.362347
1480.169025,7105.977043,-6513.812290,1072.533697
1480.169355,7105.977043,-6217.729913,1302.362347
1480.169685,7105.977043,-6883.915261,919.314598
1480.170014,7402.059420,-7031.956449,842.705048
1480.170344,7402.059420,-6365.771101,1302.362347
1480.170673,7031.956449,-6513.812290,1149.143247
1480.171003,7105.977043,-6291.750507,766.095498
1480.171333,7105.977043,-6661.853478,995.924147
1480.171662,7105.977043,-6735.874072,383.047749
1480.171992,6957.935855,-6587.832884,1072.533697
1480.172321,6957.935855,-6217.729913,1072.533697
1480.172651,7105.977043,-6513.812290,1149.143247
1480.172981,6587.832884,-6217.729913,1838.629195
1480.173310,6587.832884,-6069.688724,766.095498
1480.173640,6661.853478,-6883.915261,1149.143247
1480.173969,6957.935855,-6735.874072,1838.629195
1480.174299,7105.977043,-6439.791695,919.314598
1480.174629,7179.997637,-6513.812290,1455.581446
1480.174958,6883.915261,-7031.956449,1225.752797
1480.175288,7105.977043,-6809.894666,766.095498
1480.175617,6809.894666,-6957.935855,766.095498
1480.175947,6735.874072,-6735.874072,1072.533697
1480.176276,6809.894666,-6661.853478,919.314598
1480.176606,7179.997637,-6365.771101,919.314598
1480.176936,7179.997637,-6439.791695,919.314598
1480.177265,7179.997637,-6513.812290,1149.143247
1480.177595,7402.059420,-6439.791695,766.095498
1480.177924,7328.038826,-6809.894666,1072.533697
1480.178254,7105.977043,-6291.750507,1225.752797
1480.178584,7179.997637,-6217.729913,1149.143247
1480.178913,7254.018232,-6217.729913,919.314598
1480.179243,7105.977043,-6291.750507,1225.752797
1480.179572,7031.956449,-6513.812290,1072.533697
1480.179902,7031.956449,-6069.688724,536.266849
1480.180232,6883.915261,-6439.791695,842.705048
1480.180561,7031.956449,-6513.812290,1149.143247
1480.180891,6809.894666,-6291.750507,1225.752797
1480.181220,6809.894666,-6809.894666,919.314598
1480.181550,6735.874072,-6587.832884,1225.752797
1480.181880,7105.977043,-7031.956449,995.924147
1480.182209,7179.997637,-6809.894666,842.705048
1480.182539,6587.832884,-7402.059420,919.314598
1480.182868,6883.915261,-7179.997637,919.314598
1480.183198,6735.874072,-7105.977043,919.314598
1480.183528,6883.915261,-6587.832884,919.314598
1480.183857,6957.935855,-6735.874072,842.705048
1480.184187,7105.977043,-6661.853478,995.924147
1480.184516,7031.956449,-6735.874072,919.314598
1480.184846,7105.977043,-6291.750507,1302.362347
1480.185176,7179.997637,-6217.729913,1072.533697
1480.185505,7031.956449,-6661.853478,995.924147
1480.185835,6957.935855,-6513.812290,1072.533697
1480.186164,7105.977043,-6587.832884,995.924147
1480.186494,7105.977043,-6513.812290,1072.533697
1480.186824,7254.018232,-6587.832884,1378.971896
1480.187153,6957.935855,-6513.812290,1072.533697
1480.187483,7031.956449,-6365.771101,1149.143247
1480.187812,6735.874072,-6291.750507,1072.533697
1480.188142,6809.894666,-6291.750507,1762.019645
1480.188472,6513.812290,-6513.812290,842.705048
1480.188801,6513.812290,-6735.874072,1072.533697
1480.189131,6809.894666,-6809.894666,1225.752797
1480.189460,6809.894666,-6587.832884,1149.143247
1480.189790,6809.894666,-6291.750507,1225.752797
1480.190120,6735.874072,-6513.812290,1072.533697
1480.190449,7031.956449,-6661.853478,919.314598
1480.190779,6957.935855,-6883.915261,689.485948
1480.191108,7179.997637,-7105.977043,995.924147
1480.191438,7476.080014,-6365.771101,1072.533697
1480.191768,7476.080014,-6587.832884,1225.752797
1480.192097,7328.038826,-6661.853478,995.924147
1480.192427,7105.977043,-6217.729913,689.485948
1480.192756,7254.018232,-6513.812290,766.095498
1480.193086,7105.977043,-6439.791695,1149.143247
1480.193415,7254.018232,-6217.729913,689.485948
1480.193745,7328.038826,-6513.812290,995.924147
1480.194075,7105.977043,-6143.709319,1532.190996
1480.194404,6957.935855,-6217.729913,1225.752797
1480.194734,7105.977043,-6439.791695,842.705048
1480.195063,7105.977043,-6587.832884,1225.752797
1480.195393,6957.935855,-6513.812290,1149.143247
1480.195723,7254.018232,-7105.977043,1149.143247
1480.196052,6587.832884,-7179.997637,1225.752797
1480.196382,6809.894666,-6661.853478,995.924147
1480.196711,6957.935855,-6661.853478,919.314598
1480.197041,6661.853478,-6735.874072,1072.533697
1480.197371,7179.997637,-7031.956449,383.047749
1480.197700,6661.853478,-7031.956449,1149.143247
1480.198030,6513.812290,-6735.874072,766.095498
1480.198359,6661.853478,-6809.894666,766.095498
1480.198689,7254.018232,-6217.729913,1378.971896
1480.199019,6957.935855,-6587.832884,1302.362347
1480.199348,7105.977043,-6365.771101,1302.362347
1480.199678,7105.977043,-6513.812290,1149.143247
1480.200007,7105.977043,-6365.771101,842.705048
1480.200337,6735.874072,-5995.668130,1149.143247
1480.200667,6809.894666,-6439.791695,842.705048
1480.200996,7105.977043,-6587.832884,766.095498
1480.201326,7105.977043,-6587.832884,1149.143247
1480.201655,7105.977043,-6587.832884,1378.971896
1480.201985,7105.977043,-6217.729913,1149.143247
1480.202315,6883.915261,-6587.832884,1225.752797
1480.202644,6809.894666,-6513.812290,1149.143247
1480.202974,6513.812290,-6513.812290,689.485948
1480.203303,6809.894666,-6587.832884,919.314598
1480.203633,7105.977043,-6957.935855,1225.752797
1480.203963,7105.977043,-6809.894666,1378.971896
1480.204292,6957.935855,-6365.771101,1225.752797
1480.204622,6809.894666,-6883.915261,919.314598
1480.204951,6809.894666,-6883.915261,536.266849
1480.205281,6809.894666,-6957.935855,842.705048
1480.205611,6587.832884,-7179.997637,842.705048
1480.205940,7328.038826,-6809.894666,1072.533697
1480.206270,7328.038826,-6513.812290,1072.533697
1480.206599,7105.977043,-6883.915261,1378.971896
1480.206929,7476.080014,-6291.750507,1072.533697
1480.207259,7105.977043,-6587.832884,995.924147
1480.207588,7254.018232,-6069.688724,995.924147
1480.207918,7254.018232,-6069.688724,1072.533697
1480.208247,7402.059420,-6291.750507,689.485948
1480.208577,7254.018232,-6217.729913,766.095498
1480.208907,7179.997637,-6513.812290,1149.143247
1480.209236,7105.977043,-5921.647536,1608.800546
1480.209566,7328.038826,-6587.832884,766.095498
1480.209895,6957.935855,-6513.812290,1762.019645
1480.210225,6957.935855,-6587.832884,612.876398
1480.210554,6735.874072,-6587.832884,766.095498
1480.210884,7105.977043,-6069.688724,689.485948
1480.211214,7031.956449,-6661.853478,995.924147
1480.211543,6957.935855,-6661.853478,919.314598
1480.211873,7031.956449,-6883.915261,1225.752797
1480.212202,6661.853478,-7031.956449,1149.143247
1480.212532,6735.874072,-7031.956449,1149.143247
1480.212862,6587.832884,-6809.894666,995.924147
1480.213191,6809.894666,-7031.956449,766.095498
1480.213521,7105.977043,-6513.812290,919.314598
1480.213850,7105.977043,-6883.915261,1149.143247
1480.214180,7105.977043,-6513.812290,1225.752797
1480.214510,7105.977043,-6291.750507,1302.362347
1480.214839,7031.956449,-6587.832884,1072.533697
1480.215169,7105.977043,-6587.832884,1072.533697
1480.215498,7328.038826,-6069.688724,612.876398
1480.215828,7476.080014,-5181.441594,919.314598
1480.216158,7624.121203,-5255.462188,919.314598
1480.216487,7698.141797,-5181.441594,1302.362347
1480.216817,8068.244768,-5699.585753,1302.362347
1480.217146,7698.141797,-6143.709319,689.485948
1480.217476,6587.832884,-6439.791695,229.828649
1480.217806,5551.544565,-7476.080014,0.000000
1480.218135,6069.688724,-7179.997637,306.438199
1480.218465,6513.812290,-6661.853478,1302.362347
1480.218794,7550.100608,-6365.771101,1378.971896
1480.219124,7846.182985,-5921.647536,1685.410096
1480.219454,8364.327145,-4737.318029,1532.190996
1480.219783,8364.327145,-4959.379811,842.705048
1480.220113,7624.121203,-5033.400406,995.924147
1480.220442,8142.265362,-4441.235652,919.314598
1480.220772,8586.388927,-4737.318029,995.924147
1480.221102,8808.450710,-4145.153275,1149.143247
1480.221431,8512.368333,-5181.441594,919.314598
1480.221761,8734.430116,-5625.565159,766.095498
1480.222090,8512.368333,-4737.318029,459.657299
1480.222420,8512.368333,-6365.771101,842.705048
1480.222750,8364.327145,-5773.606348,919.314598
1480.223079,7846.182985,-5107.421000,689.485948
1480.223409,7698.141797,-6217.729913,536.266849
1480.223738,7994.224174,-5033.400406,1378.971896
1480.224068,8586.388927,-4885.359217,995.924147
1480.224398,9178.553681,-3701.029710,1225.752797
1480.224727,9178.553681,-4145.153275,1608.800546
1480.225057,9400.615463,-3330.926739,1225.752797
1480.225386,9252.574275,-3108.864956,1685.410096
1480.225716,9400.615463,-3108.864956,1608.800546
1480.226046,9992.780217,-2516.700203,1378.971896
1480.226375,9992.780217,-3701.029710,1532.190996
1480.226705,9918.759623,-3182.885551,1685.410096
1480.227034,9474.636058,-3997.112087,1225.752797
1480.227364,9104.533087,-5181.441594,1378.971896
1480.227693,8142.265362,-4441.235652,919.314598
1480.228023,8142.265362,-5699.585753,919.314598
1480.228353,7920.203579,-4737.318029,995.924147
1480.228682,7624.121203,-5921.647536,689.485948
1480.229012,8216.285956,-5699.585753,306.438199
1480.229341,7254.018232,-5181.441594,919.314598
1480.229671,7772.162391,-5181.441594,383.047749
1480.230001,7994.224174,-5033.400406,153.219100
1480.230330,8364.327145,-4589.276840,76.609550
1480.230660,9918.759623,-4367.215058,612.876398
1480.230989,10214.842000,-3849.070898,612.876398
1480.231319,10584.944971,-4071.132681,1762.019645
1480.231649,10807.006753,-3552.988522,1149.143247
1480.231978,10362.883188,-3478.967927,2068.457845
1480.232308,10288.862594,-3478.967927,995.924147
1480.232637,9474.636058,-3701.029710,689.485948
1480.232967,8734.430116,-4515.256246,1149.143247
1480.233297,8882.471304,-4515.256246,1149.143247
1480.233626,8808.450710,-4663.297435,1838.629195
1480.233956,8364.327145,-3330.926739,1455.581446
1480.234285,8290.306550,-4515.256246,1455.581446
1480.234615,8512.368333,-4737.318029,1608.800546
1480.234945,8586.388927,-4737.318029,1532.190996
1480.235274,9030.512492,-5107.421000,1302.362347
1480.235604,8882.471304,-4589.276840,1378.971896
1480.235933,9104.533087,-4589.276840,995.924147
1480.236263,9178.553681,-4589.276840,459.657299
1480.236593,9696.697840,-4071.132681,153.219100
1480.236922,9400.615463,-4737.318029,229.828649
1480.237252,9104.533087,-4737.318029,0.000000
1480.237581,8660.409521,-4811.338623,76.609550
1480.237911,8290.306550,-4811.338623,76.609550
1480.238241,8364.327145,-5551.544565,459.657299
1480.238570,8438.347739,-5773.606348,1302.362347
1480.238900,8808.450710,-5699.585753,2145.067394
1480.239229,9030.512492,-5255.462188,2221.676944
1480.239559,9104.533087,-3923.091493,1608.800546
1480.239889,8882.471304,-3849.070898,2298.286494
1480.240218,9548.656652,-3701.029710,2298.286494
1480.240548,9918.759623,-2590.720797,2145.067394
1480.240877,9844.739029,-1406.391290,919.314598
1480.241207,9918.759623,-2294.638420,306.438199
1480.241537,9474.636058,-1998.556043,153.219100
1480.241866,9104.533087,-4145.153275,0.000000
1480.242196,9104.533087,-4737.318029,-383.047749
1480.242525,8660.409521,-5107.421000,536.266849
1480.242855,9326.594869,-7994.224174,1072.533697
1480.243184,8290.306550,-7328.038826,1072.533697
1480.243514,7105.977043,-7920.203579,766.095498
1480.243844,6217.729913,-8216.285956,229.828649
1480.244173,6439.791695,-6587.832884,229.828649
1480.244503,7402.059420,-6365.771101,612.876398
1480.244832,8438.347739,-4811.338623,1378.971896
1480.245162,10214.842000,-2886.803174,1915.238745
1480.245492,10955.047942,-2368.659014,2145.067394
1480.245821,10658.965565,-740.205942,2068.457845
1480.246151,10140.821405,-1110.308913,1378.971896
1480.246480,10140.821405,0.000000,383.047749
1480.246810,11103.089130,0.000000,689.485948
1480.247140,11473.192101,-1406.391290,995.924147
1480.247469,11917.315666,-3034.844362,1762.019645
1480.247799,10807.006753,-4367.215058,1762.019645
1480.248128,9326.594869,-5403.503377,995.924147
1480.248458,7846.182985,-7328.038826,1072.533697
1480.248788,6957.935855,-7994.224174,995.924147
1480.249117,5921.647536,-8808.450710,76.609550
1480.249447,5329.482782,-8586.388927,383.047749
1480.249776,6069.688724,-7105.977043,-153.219100
1480.250106,6957.935855,-6661.853478,383.047749
1480.250436,8512.368333,-4885.359217,1225.752797
1480.250765,9474.636058,-3330.926739,1608.800546
1480.251095,9992.780217,-2516.700203,1302.362347
1480.251424,10436.903782,-1184.329507,1225.752797
1480.251754,10955.047942,-1184.329507,1302.362347
1480.252084,11843.295072,-370.102971,536.266849
1480.252413,11843.295072,-518.144159,995.924147
1480.252743,12287.418637,-1702.473667,1838.629195
1480.253072,12657.521608,-2738.761985,2451.505594
1480.253402,12657.521608,-3849.070898,2374.896044
1480.253732,10288.862594,-5403.503377,1915.238745
1480.254061,8216.285956,-5921.647536,766.095498
1480.254391,5921.647536,-6513.812290,0.000000
1480.254720,4441.235652,-7105.977043,-1762.019645
1480.255050,3849.070898,-8586.388927,-766.095498
1480.255380,5551.544565,-6809.894666,-612.876398
1480.255709,8142.265362,-4737.318029,76.609550
1480.256039,9770.718434,-4145.153275,1302.362347
1480.256368,10510.924376,-3034.844362,2145.067394
1480.256698,10955.047942,-2368.659014,995.924147
1480.257028,10362.883188,-2738.761985,1378.971896
1480.257357,9622.677246,-3330.926739,1378.971896
1480.257687,9770.718434,-4071.132681,1149.143247
1480.258016,9770.718434,-4737.318029,1762.019645
1480.258346,9622.677246,-6291.750507,1762.019645
1480.258676,9030.512492,-7179.997637,2145.067394
1480.259005,8364.327145,-6587.832884,1838.629195
1480.259335,7624.121203,-4663.297435,1149.143247
1480.259664,6883.915261,-2812.782580,-229.828649
1480.259994,7179.997637,-2442.679609,-383.047749
1480.260323,8364.327145,-3552.988522,76.609550
1480.260653,9178.553681,-3627.009116,995.924147
1480.260983,9474.636058,-2886.803174,1762.019645
1480.261312,10510.924376,-2294.638420,689.485948
1480.261642,9992.780217,-4293.194464,919.314598
1480.261971,9622.677246,-5033.400406,1455.581446
1480.262301,9918.759623,-6883.915261,1838.629195
1480.262631,8956.491898,-6513.812290,1762.019645
1480.262960,8142.265362,-4441.235652,459.657299
1480.263290,7846.182985,-4737.318029,459.657299
1480.263619,8586.388927,-5995.668130,1149.143247
1480.263949,7772.162391,-7105.977043,1225.752797
1480.264279,6957.935855,-7105.977043,919.314598
1480.264608,6587.832884,-5329.482782,383.047749
1480.264938,7105.977043,-3552.988522,0.000000
1480.265267,8142.265362,-4737.318029,995.924147
1480.265597,8956.491898,-5403.503377,1072.533697
1480.265927,10140.821405,-3627.009116,1378.971896
1480.266256,11029.068536,-814.226536,1225.752797
1480.266586,11325.150913,-370.102971,1072.533697
1480.266915,10658.965565,-962.267725,1685.410096
1480.267245,10288.862594,-3182.885551,1455.581446
1480.267575,9474.636058,-5033.400406,842.705048
1480.267904,9326.594869,-5107.421000,1302.362347
1480.268234,9178.553681,-5329.482782,1762.019645
1480.268563,9474.636058,-4663.297435,2298.286494
1480.268893,9326.594869,-5625.565159,1532.190996
1480.269223,8364.327145,-3775.050304,612.876398
1480.269552,7698.141797,-4071.132681,76.609550
1480.269882,8734.430116,-4663.297435,842.705048
1480.270211,9400.615463,-4219.173869,1225.752797
1480.270541,9622.677246,-4663.297435,919.314598
1480.270871,8882.471304,-3478.967927,612.876398
1480.271200,8290.306550,-4589.276840,995.924147
1480.271530,8956.491898,-6217.729913,1762.019645
1480.271859,9474.636058,-3627.009116,919.314598
1480.272189,9030.512492,-3034.844362,0.000000
1480.272519,9104.533087,-3923.091493,0.000000
1480.272848,8882.471304,-6217.729913,1225.752797
1480.273178,8734.430116,-8142.265362,2298.286494
1480.273507,9474.636058,-3182.885551,1378.971896
1480.273837,9474.636058,-2220.617826,766.095498
1480.274166,9770.718434,-3627.009116,1072.533697
1480.274496,10214.842000,-4737.318029,2757.943793
1480.274825,9844.739029,-3478.967927,1378.971896
1480.275154,10362.883188,-1776.494261,459.657299
1480.275484,8882.471304,-3923.091493,689.485948
1480.275813,9030.512492,-3997.112087,1455.581446
1480.276143,7772.162391,-5033.400406,153.219100
1480.276472,7402.059420,-5403.503377,383.047749
1480.276801,8586.388927,-4071.132681,76.609550
1480.277131,9992.780217,-4663.297435,1149.143247
1480.277460,10881.027347,-5699.585753,2834.553343
1480.277790,9400.615463,-4885.359217,689.485948
1480.278119,7254.018232,-5921.647536,766.095498
1480.278448,6735.874072,-4737.318029,0.000000
1480.278778,7994.224174,-6439.791695,995.924147
1480.279107,9178.553681,-5551.544565,1608.800546
1480.279437,8438.347739,-4071.132681,612.876398
1480.279766,7994.224174,-4145.153275,306.438199
1480.280096,7920.203579,-4589.276840,383.047749
1480.280425,7698.141797,-5255.462188,1762.019645
1480.280754,8216.285956,-4737.318029,536.266849
1480.281084,8142.265362,-3997.112087,689.485948
1480.281413,8586.388927,-5847.626942,1072.533697
1480.281743,9326.594869,-5551.544565,1685.410096
1480.282072,9178.553681,-4293.194464,1072.533697
1480.282401,8882.471304,-3997.112087,536.266849
1480.282731,9252.574275,-3256.906145,689.485948
1480.283060,9252.574275,-2886.803174,383.047749
1480.283390,10066.800811,-3108.864956,1762.019645
1480.283719,11547.212695,-3552.988522,2145.067394
1480.284048,10658.965565,-3552.988522,1302.362347
1480.284378,8290.306550,-5033.400406,1378.971896
1480.284707,6883.915261,-6217.729913,0.000000
1480.285037,5847.626942,-7105.977043,-306.438199
1480.285366,5181.441594,-8734.430116,0.000000
1480.285695,5773.606348,-8290.306550,842.705048
1480.286025,7624.121203,-6957.935855,0.000000
1480.286354,7550.100608,-6735.874072,0.000000
1480.286684,6809.894666,-7846.182985,919.314598
1480.287013,6291.750507,-8142.265362,153.219100
1480.287342,6217.729913,-6439.791695,306.438199
1480.287672,7328.038826,-5699.585753,919.314598
1480.288001,9178.553681,-3478.967927,1455.581446
1480.288331,9622.677246,-4293.194464,1532.190996
1480.288660,8882.471304,-5699.585753,1532.190996
1480.288990,9474.636058,-3775.050304,1532.190996
1480.289319,8956.491898,-2960.823768,536.266849
1480.289648,8512.368333,-3627.009116,383.047749
1480.289978,8290.306550,-5107.421000,1762.019645
1480.290307,9252.574275,-6587.832884,1762.019645
1480.290637,8364.327145,-5921.647536,1532.190996
1480.290966,5995.668130,-6513.812290,1302.362347
1480.291295,4959.379811,-6513.812290,-229.828649
1480.291625,4515.256246,-8586.388927,-383.047749
1480.291954,5181.441594,-8660.409521,612.876398
1480.292284,6513.812290,-7698.141797,1608.800546
1480.292613,7402.059420,-6217.729913,1149.143247
1480.292942,7105.977043,-5847.626942,459.657299
1480.293272,6587.832884,-5033.400406,995.924147
1480.293601,7105.977043,-5995.668130,153.219100
1480.293931,7920.203579,-5551.544565,1378.971896
1480.294260,8438.347739,-4811.338623,3140.991542
1480.294589,9918.759623,-5329.482782,2681.334243
1480.294919,9474.636058,-3923.091493,2451.505594
1480.295248,7254.018232,-4219.173869,2068.457845
1480.295578,6143.709319,-6217.729913,1532.190996
1480.295907,6069.688724,-6439.791695,383.047749
1480.296236,6809.894666,-4737.318029,1532.190996
1480.296566,7846.182985,-6291.750507,1072.533697
1480.296895,8216.285956,-5773.606348,1532.190996
1480.297225,5995.668130,-6883.915261,1225.752797
1480.297554,4959.379811,-8438.347739,536.266849
1480.297884,4663.297435,-8290.306550,76.609550
1480.298213,5403.503377,-8216.285956,1225.752797
1480.298542,7402.059420,-7402.059420,1149.143247
1480.298872,7698.141797,-7920.203579,1149.143247
1480.299201,6883.915261,-7920.203579,2221.676944
1480.299531,6587.832884,-7031.956449,612.876398
1480.299860,7031.956449,-7105.977043,1302.362347
1480.300189,5995.668130,-5995.668130,919.314598
1480.300519,6439.791695,-7624.121203,1685.410096
1480.300848,6587.832884,-7772.162391,689.485948
1480.301178,4959.379811,-6957.935855,689.485948
1480.301507,5181.441594,-7550.100608,1225.752797
1480.301836,7402.059420,-7402.059420,1685.410096
1480.302166,7328.038826,-6069.688724,2145.067394
1480.302495,6809.894666,-4515.256246,1149.143247
1480.302825,7179.997637,-7031.956449,383.047749
1480.303154,7550.100608,-4737.318029,459.657299
1480.303483,6735.874072,-5181.441594,689.485948
1480.303813,7402.059420,-6291.750507,995.924147
1480.304142,7624.121203,-5921.647536,2145.067394
1480.304472,7105.977043,-6513.812290,842.705048
1480.304801,6069.688724,-7920.203579,1149.143247
1480.305131,6365.771101,-6513.812290,1608.800546
1480.305460,6365.771101,-6217.729913,536.266849
1480.305789,6513.812290,-6587.832884,995.924147
1480.306119,7105.977043,-5773.606348,1685.410096
1480.306448,7994.224174,-6513.812290,1532.190996
1480.306778,8142.265362,-6069.688724,2145.067394
1480.307107,6809.894666,-7105.977043,1302.362347
1480.307436,5477.523971,-6661.853478,0.000000
1480.307766,5107.421000,-6513.812290,153.219100
1480.308095,6365.771101,-7476.080014,536.266849
1480.308425,7402.059420,-5699.585753,766.095498
1480.308754,8068.244768,-7105.977043,842.705048
1480.309083,8216.285956,-7476.080014,689.485948
1480.309413,7550.100608,-7031.956449,1915.238745
1480.309742,6217.729913,-7254.018232,383.047749
1480.310072,5921.647536,-7476.080014,-612.876398
1480.310401,6069.688724,-7179.997637,-229.828649
1480.310730,7179.997637,-6883.915261,919.314598
1480.311060,7698.141797,-7772.162391,1302.362347
1480.311389,7105.977043,-6069.688724,919.314598
1480.311719,6661.853478,-3997.112087,153.219100
1480.312048,7402.059420,-5551.544565,919.314598
1480.312377,9474.636058,-4071.132681,2068.457845
1480.312707,9400.615463,-4663.297435,1915.238745
1480.313036,8882.471304,-4885.359217,1225.752797
1480.313366,7328.038826,-4293.194464,229.828649
1480.313695,5921.647536,-6365.771101,689.485948
1480.314025,6883.915261,-6809.894666,0.000000
1480.314354,8068.244768,-7920.203579,1685.410096
1480.314683,9178.553681,-6809.894666,1991.848295
1480.315013,8660.409521,-7994.224174,1532.190996
1480.315342,7698.141797,-5625.565159,1378.971896
1480.315672,5181.441594,-5107.421000,-383.047749
1480.316001,4885.359217,-7179.997637,-306.438199
1480.316330,5625.565159,-6439.791695,229.828649
1480.316660,7105.977043,-7254.018232,1455.581446
1480.316989,8512.368333,-6883.915261,1455.581446
1480.317319,7698.141797,-6291.750507,1072.533697
1480.317648,5921.647536,-7179.997637,383.047749
1480.317977,5181.441594,-8290.306550,0.000000
1480.318307,4885.359217,-9030.512492,-229.828649
1480.318636,5847.626942,-9030.512492,459.657299
1480.318966,6661.853478,-7698.141797,229.828649
1480.319295,8068.244768,-7920.203579,919.314598
1480.319624,7624.121203,-6513.812290,1915.238745
1480.319954,7624.121203,-6217.729913,1608.800546
1480.320283,7550.100608,-5403.503377,995.924147
1480.320613,7476.080014,-4367.215058,1455.581446
1480.320942,7402.059420,-5921.647536,1532.190996
1480.321271,8068.244768,-5329.482782,459.657299
1480.321601,6439.791695,-5847.626942,1455.581446
1480.321930,5477.523971,-6439.791695,1378.971896
1480.322260,6661.853478,-7105.977043,1302.362347
1480.322589,7402.059420,-5033.400406,2145.067394
1480.322919,8290.306550,-5847.626942,2681.334243
1480.323248,8290.306550,-7920.203579,1532.190996
1480.323577,7402.059420,-6069.688724,1838.629195
1480.323907,6513.812290,-7550.100608,1378.971896
1480.324236,6513.812290,-5551.544565,536.266849
1480.324566,7105.977043,-3849.070898,1455.581446
1480.324895,7550.100608,-6587.832884,1455.581446
1480.325224,7179.997637,-6957.935855,1762.019645
1480.325554,5995.668130,-5847.626942,919.314598
1480.325883,5033.400406,-6513.812290,383.047749
1480.326213,5477.523971,-7105.977043,689.485948
1480.326542,6809.894666,-6143.709319,1532.190996
1480.326871,7624.121203,-7402.059420,2604.724693
1480.327201,7698.141797,-7254.018232,1685.410096
1480.327530,6661.853478,-7254.018232,919.314598
1480.327860,5403.503377,-7179.997637,536.266849
1480.328189,5625.565159,-7254.018232,459.657299
1480.328518,6217.729913,-7328.038826,383.047749
1480.328848,6513.812290,-7402.059420,766.095498
1480.329177,7031.956449,-9252.574275,2068.457845
1480.329507,6735.874072,-6957.935855,919.314598
1480.329836,6143.709319,-6069.688724,1455.581446
1480.330166,6069.688724,-7254.018232,689.485948
1480.330495,5995.668130,-5995.668130,1072.533697
1480.330824,5847.626942,-7994.224174,842.705048
1480.331154,6957.935855,-7402.059420,1149.143247
1480.331483,7328.038826,-5255.462188,1149.143247
1480.331813,7105.977043,-5847.626942,1608.800546
1480.332142,7179.997637,-6365.771101,766.095498
1480.332471,7476.080014,-5551.544565,1302.362347
1480.332801,8364.327145,-4737.318029,1072.533697
1480.333130,9104.533087,-6809.894666,1532.190996
1480.333460,8364.327145,-5477.523971,1225.752797
1480.333789,6143.709319,-6143.709319,459.657299
1480.334118,4811.338623,-6291.750507,0.000000
1480.334448,5033.400406,-6957.935855,383.047749
1480.334777,7105.977043,-6809.894666,1225.752797
1480.335107,8586.388927,-6735.874072,1762.019645
1480.335436,8142.265362,-6809.894666,1915.238745
1480.335765,7179.997637,-3923.091493,1149.143247
1480.336095,6439.791695,-6809.894666,306.438199
1480.336424,7031.956449,-5403.503377,766.095498
1480.336754,7476.080014,-4663.297435,1149.143247
1480.337083,8660.409521,-7624.121203,1455.581446
1480.337412,8808.450710,-5847.626942,2374.896044
1480.337742,7328.038826,-6217.729913,612.876398
1480.338071,5847.626942,-7550.100608,766.095498
1480.338401,5403.503377,-8290.306550,689.485948
1480.338730,6439.791695,-7994.224174,383.047749
1480.339060,6365.771101,-6661.853478,0.000000
1480.339389,5477.523971,-8364.327145,0.000000
1480.339718,7031.956449,-6365.771101,76.609550
1480.340048,7105.977043,-7994.224174,229.828649
1480.340377,7476.080014,-6513.812290,459.657299
1480.340707,7994.224174,-5255.462188,1378.971896
1480.341036,8734.430116,-6143.709319,842.705048
1480.341365,8734.430116,-5995.668130,1072.533697
1480.341695,6957.935855,-6957.935855,1225.752797
1480.342024,6439.791695,-6291.750507,0.000000
1480.342354,7402.059420,-5699.585753,0.000000
1480.342683,7328.038826,-7179.997637,2068.457845
1480.343012,7550.100608,-5403.503377,1302.362347
1480.343342,7328.038826,-6661.853478,459.657299
1480.343671,6809.894666,-6069.688724,766.095498
1480.344001,6809.894666,-5699.585753,76.609550
1480.344330,7624.121203,-6143.709319,1685.410096
1480.344659,8216.285956,-4737.318029,1149.143247
1480.344989,8512.368333,-4811.338623,2145.067394
1480.345318,8808.450710,-5329.482782,919.314598
1480.345648,7550.100608,-5847.626942,459.657299
1480.345977,5773.606348,-6513.812290,536.266849
1480.346307,5847.626942,-8438.347739,306.438199
1480.346636,6217.729913,-7550.100608,383.047749
1480.346965,6957.935855,-8068.244768,1072.533697
1480.347295,6809.894666,-9178.553681,842.705048
1480.347624,6513.812290,-7476.080014,689.485948
1480.347954,5477.523971,-7772.162391,0.000000
1480.348283,5625.565159,-7254.018232,-383.047749
1480.348612,6957.935855,-6513.812290,1225.752797
1480.348942,7772.162391,-4959.379811,689.485948
1480.349271,8290.306550,-5551.544565,1225.752797
1480.349601,8290.306550,-5329.482782,1149.143247
1480.349930,7328.038826,-5403.503377,766.095498
1480.350259,6439.791695,-6587.832884,1991.848295
1480.350589,5773.606348,-8290.306550,1072.533697
1480.350918,6143.709319,-6957.935855,229.828649
1480.351248,6217.729913,-8808.450710,995.924147
1480.351577,6735.874072,-7920.203579,1302.362347
1480.351906,7179.997637,-6069.688724,689.485948
1480.352236,6957.935855,-7105.977043,2374.896044
1480.352565,7920.203579,-5551.544565,1455.581446
1480.352895,7994.224174,-4737.318029,2528.115143
1480.353224,8290.306550,-4071.132681,1915.238745
1480.353553,7550.100608,-6291.750507,1455.581446
1480.353883,6809.894666,-4441.235652,766.095498
1480.354212,5625.565159,-6439.791695,1532.190996
1480.354542,6957.935855,-6735.874072,306.438199
1480.354871,7031.956449,-5921.647536,1991.848295
1480.355201,6809.894666,-7624.121203,842.705048
1480.355530,6883.915261,-9770.718434,1072.533697
1480.355859,6069.688724,-6587.832884,1455.581446
1480.356189,5403.503377,-7772.162391,-383.047749
1480.356518,5995.668130,-8142.265362,612.876398
1480.356848,6661.853478,-7328.038826,1608.800546
1480.357177,7550.100608,-8216.285956,1532.190996
1480.357506,6809.894666,-8068.244768,1762.019645
1480.357836,5699.585753,-6661.853478,1225.752797
1480.358165,5847.626942,-5477.523971,459.657299
1480.358495,6291.750507,-6735.874072,1225.752797
1480.358824,6809.894666,-5995.668130,1762.019645
1480.359153,7254.018232,-4959.379811,1685.410096
1480.359483,7402.059420,-6661.853478,1685.410096
1480.359812,7105.977043,-5921.647536,1532.190996
1480.360142,5921.647536,-5625.565159,306.438199
1480.360471,6143.709319,-7624.121203,459.657299
1480.360800,7624.121203,-6069.688724,919.314598
1480.361130,7698.141797,-7031.956449,766.095498
1480.361459,7772.162391,-7031.956449,1225.752797
1480.361789,7105.977043,-5625.565159,919.314598
1480.362118,7031.956449,-5847.626942,1378.971896
1480.362447,7031.956449,-6291.750507,1455.581446
1480.362777,7328.038826,-6513.812290,1608.800546
1480.363106,7920.203579,-5551.544565,1762.019645
1480.363436,8290.306550,-5403.503377,919.314598
1480.363765,7920.203579,-5255.462188,842.705048
1480.364095,7031.956449,-5329.482782,1608.800546
1480.364424,6661.853478,-7179.997637,1225.752797
1480.364753,6513.812290,-5921.647536,383.047749
1480.365083,7105.977043,-5329.482782,919.314598
1480.365412,7846.182985,-6957.935855,229.828649
1480.365742,7476.080014,-6883.915261,689.485948
1480.366071,6217.729913,-5995.668130,536.266849
1480.366400,6365.771101,-7846.182985,689.485948
1480.366730,7031.956449,-8586.388927,842.705048
1480.367059,6291.750507,-6883.915261,1608.800546
1480.367389,6439.791695,-8068.244768,306.438199
1480.367718,7105.977043,-8586.388927,1991.848295
1480.368047,6587.832884,-5847.626942,1149.143247
1480.368377,5773.606348,-7179.997637,842.705048
1480.368706,7105.977043,-5921.647536,1225.752797
1480.369036,7846.182985,-5181.441594,1302.362347
1480.369365,7920.203579,-6291.750507,536.266849
1480.369694,7105.977043,-5921.647536,689.485948
1480.370024,6513.812290,-5329.482782,0.000000
1480.370353,6883.915261,-6809.894666,229.828649
1480.370683,6143.709319,-8734.430116,842.705048
1480.371012,5773.606348,-7254.018232,612.876398
1480.371342,6809.894666,-7994.224174,766.095498
1480.371671,7105.977043,-8734.430116,1225.752797
1480.372000,6661.853478,-7402.059420,1608.800546
1480.372330,6957.935855,-6217.729913,1608.800546
1480.372664,7328.038826,-5107.421000,1302.362347
1480.372993,7624.121203,-4737.318029,919.314598
1480.373323,6809.894666,-6291.750507,1915.238745
1480.373652,7846.182985,-5625.565159,1302.362347
1480.373981,7254.018232,-4959.379811,1225.752797
1480.374311,6143.709319,-5699.585753,1225.752797
1480.374640,7105.977043,-5773.606348,919.314598
1480.374969,7550.100608,-6587.832884,1149.143247
1480.375299,7476.080014,-6365.771101,1685.410096
1480.375628,7031.956449,-7994.224174,1072.533697
1480.375957,6143.709319,-6661.853478,229.828649
1480.376287,4663.297435,-6957.935855,153.219100
1480.376616,5625.565159,-8882.471304,612.876398
1480.376945,7328.038826,-7328.038826,1532.190996
1480.377275,7179.997637,-6513.812290,1838.629195
1480.377604,7402.059420,-7254.018232,1149.143247
1480.377934,7920.203579,-5403.503377,1378.971896
1480.378263,7105.977043,-4737.318029,1149.143247
1480.378592,6069.688724,-6069.688724,536.266849
1480.378922,6365.771101,-5773.606348,1072.533697
1480.379251,7846.182985,-5477.523971,1149.143247
1480.379580,7920.203579,-7254.018232,1455.581446
1480.379910,7105.977043,-7698.141797,1762.019645
1480.380239,6513.812290,-6365.771101,1302.362347
1480.380568,6217.729913,-7624.121203,76.609550
1480.380898,5773.606348,-7179.997637,612.876398
1480.381227,5921.647536,-6957.935855,995.924147
1480.381556,7254.018232,-6883.915261,1378.971896
1480.381886,7920.203579,-6735.874072,1685.410096
1480.382215,7254.018232,-5107.421000,766.095498
1480.382544,6587.832884,-5921.647536,1915.238745
1480.382874,6957.935855,-6365.771101,766.095498
1480.383203,7328.038826,-5773.606348,1378.971896
1480.383532,7328.038826,-6291.750507,1915.238745
1480.383862,7179.997637,-6365.771101,842.705048
1480.384191,7105.977043,-4885.359217,459.657299
1480.384520,6365.771101,-7105.977043,1072.533697
1480.384850,7105.977043,-6513.812290,1302.362347
1480.385179,7994.224174,-6587.832884,1762.019645
1480.385509,7624.121203,-6883.915261,1225.752797
1480.385838,7698.141797,-6809.894666,1302.362347
1480.386167,7179.997637,-6439.791695,1149.143247
1480.386497,5921.647536,-7105.977043,1378.971896
1480.386826,5477.523971,-7254.018232,536.266849
1480.387155,5625.565159,-5995.668130,612.876398
1480.387485,6957.935855,-6291.750507,919.314598
1480.387814,7476.080014,-7994.224174,2068.457845
1480.388143,6809.894666,-6661.853478,2221.676944
1480.388473,5773.606348,-5625.565159,229.828649
1480.388802,5699.585753,-7846.182985,76.609550
1480.389131,7254.018232,-4737.318029,1532.190996
1480.389461,8290.306550,-5847.626942,1532.190996
1480.389790,8364.327145,-7920.203579,1378.971896
1480.390119,7031.956449,-6587.832884,1455.581446
1480.390449,6587.832884,-7254.018232,306.438199
1480.390778,7031.956449,-7254.018232,842.705048
1480.391107,6291.750507,-6143.709319,995.924147
1480.391437,5847.626942,-7179.997637,306.438199
1480.391766,6735.874072,-7846.182985,689.485948
1480.392095,6735.874072,-6587.832884,612.876398
1480.392425,7105.977043,-5847.626942,2068.457845
1480.392754,7402.059420,-5625.565159,1072.533697
1480.393084,7772.162391,-6587.832884,1149.143247
1480.393413,7402.059420,-5181.441594,1149.143247
1480.393742,7254.018232,-6587.832884,1378.971896
1480.394072,8364.327145,-4885.359217,1072.533697
1480.394401,7698.141797,-5255.462188,1072.533697
1480.394730,5699.585753,-6735.874072,1149.143247
1480.395060,5847.626942,-6809.894666,612.876398
1480.395389,7476.080014,-6587.832884,1225.752797
1480.395718,8216.285956,-6587.832884,1915.238745
1480.396048,7328.038826,-8068.244768,2145.067394
1480.396377,6365.771101,-5033.400406,1225.752797
1480.396706,5403.503377,-5995.668130,-459.657299
1480.397036,5255.462188,-7031.956449,842.705048
1480.397365,6735.874072,-6661.853478,1838.629195
1480.397694,7105.977043,-7031.956449,1149.143247
1480.398024,7698.141797,-6809.894666,1302.362347
1480.398353,6883.915261,-6513.812290,1991.848295
1480.398682,7105.977043,-6365.771101,1149.143247
1480.399012,7105.977043,-7772.162391,1072.533697
1480.399341,6809.894666,-7105.977043,1762.019645
1480.399670,7698.141797,-6883.915261,919.314598
1480.400000,8216.285956,-6513.812290,612.876398
1480.400329,6217.729913,-6217.729913,766.095498
1480.400658,5921.647536,-6513.812290,-76.609550
1480.400988,6365.771101,-7550.100608,1302.362347
1480.401317,8142.265362,-5773.606348,766.095498
1480.401647,8216.285956,-6513.812290,1302.362347
1480.401976,7031.956449,-7402.059420,1455.581446
1480.402305,6143.709319,-6069.688724,153.219100
1480.402635,5995.668130,-6513.812290,842.705048
1480.402964,7179.997637,-6957.935855,1532.190996
1480.403293,8512.368333,-4959.379811,2604.724693
1480.403623,8216.285956,-5773.606348,1455.581446
1480.403952,7550.100608,-6809.894666,2451.505594
1480.404281,6957.935855,-5551.544565,306.438199
1480.404611,6587.832884,-5773.606348,842.705048
1480.404940,6809.894666,-6365.771101,919.314598
1480.405269,6587.832884,-5847.626942,383.047749
1480.405599,7328.038826,-5403.503377,1225.752797
1480.405928,7550.100608,-7254.018232,842.705048
1480.406257,7402.059420,-7624.121203,1072.533697
1480.406587,6291.750507,-5921.647536,842.705048
1480.406916,5773.606348,-9030.512492,383.047749
1480.407245,5847.626942,-8364.327145,536.266849
1480.407575,6365.771101,-6957.935855,1072.533697
1480.407904,7476.080014,-8734.430116,1302.362347
1480.408233,7698.141797,-6291.750507,1302.362347
1480.408563,6809.894666,-6439.791695,1302.362347
1480.408892,6661.853478,-5329.482782,1302.362347
1480.409222,7031.956449,-4293.194464,229.828649
1480.409551,6661.853478,-5995.668130,1149.143247
1480.409880,6143.709319,-6513.812290,689.485948
1480.410210,6217.729913,-7550.100608,306.438199
1480.410539,6217.729913,-7994.224174,842.705048
1480.410868,6143.709319,-8364.327145,1149.143247
1480.411198,6661.853478,-8364.327145,1225.752797
1480.411527,7105.977043,-6587.832884,919.314598
1480.411856,7402.059420,-7179.997637,1072.533697
1480.412186,7698.141797,-5625.565159,1225.752797
1480.412515,6809.894666,-5329.482782,1149.143247
1480.412844,6217.729913,-5477.523971,1072.533697
1480.413174,7105.977043,-5551.544565,1685.410096
1480.413503,8142.265362,-4293.194464,1455.581446
1480.413832,8808.450710,-5255.462188,2681.334243
1480.414162,8808.450710,-5699.585753,2451.505594
1480.414491,7105.977043,-4589.276840,766.095498
1480.414820,6291.750507,-5995.668130,689.485948
1480.415150,7105.977043,-7105.977043,919.314598
1480.415479,7328.038826,-6439.791695,306.438199
1480.415808,6143.709319,-8512.368333,612.876398
1480.416138,7031.956449,-8586.388927,1608.800546
1480.416467,7105.977043,-7328.038826,1149.143247
1480.416797,6957.935855,-5329.482782,842.705048
1480.417126,6809.894666,-7105.977043,919.314598
1480.417455,6883.915261,-5403.503377,612.876398
1480.417785,6957.935855,-4293.194464,1225.752797
1480.418114,7179.997637,-7179.997637,2451.505594
1480.418443,7920.203579,-5181.441594,1838.629195
1480.418773,5625.565159,-5995.668130,1225.752797
1480.419102,4293.194464,-9400.615463,1302.362347
1480.419431,4885.359217,-6143.709319,0.000000
1480.419761,6439.791695,-6809.894666,1149.143247
1480.420090,7476.080014,-8660.409521,1838.629195
1480.420419,8290.306550,-7105.977043,1149.143247
1480.420749,7550.100608,-6217.729913,459.657299
1480.421078,6661.853478,-6957.935855,689.485948
1480.421407,6587.832884,-6513.812290,689.485948
1480.421737,7254.018232,-5477.523971,459.657299
1480.422066,7698.141797,-7476.080014,1302.362347
1480.422395,8290.306550,-6513.812290,1762.019645
1480.422725,7105.977043,-5403.503377,1302.362347
1480.423054,5181.441594,-7550.100608,689.485948
1480.423383,5921.647536,-5773.606348,766.095498
1480.423713,6957.935855,-5921.647536,689.485948
1480.424042,7476.080014,-6735.874072,1225.752797
1480.424372,7846.182985,-7328.038826,2298.286494
1480.424701,7105.977043,-6513.812290,536.266849
1480.425030,5995.668130,-7105.977043,459.657299
1480.425360,6809.894666,-7328.038826,995.924147
1480.425689,8142.265362,-4811.338623,229.828649
1480.426018,7698.141797,-7550.100608,1532.190996
1480.426348,6587.832884,-7772.162391,842.705048
1480.426677,5921.647536,-6069.688724,0.000000
1480.427006,4441.235652,-7031.956449,76.609550
1480.427336,5403.503377,-7328.038826,1378.971896
1480.427665,7328.038826,-6439.791695,1532.190996
1480.427994,8142.265362,-5699.585753,1685.410096
1480.428324,8882.471304,-6587.832884,2298.286494
1480.428653,8882.471304,-4515.256246,2145.067394
1480.428982,8660.409521,-4219.173869,1072.533697
1480.429312,7254.018232,-4959.379811,766.095498
1480.429641,7994.224174,-4145.153275,1149.143247
1480.429970,8438.347739,-6439.791695,1072.533697
1480.430300,7698.141797,-6809.894666,1302.362347
1480.430629,6365.771101,-7624.121203,919.314598
1480.430958,5551.544565,-6661.853478,-306.438199
1480.431288,5181.441594,-8290.306550,0.000000
1480.431617,5329.482782,-7772.162391,306.438199
1480.431946,6291.750507,-7698.141797,612.876398
1480.432276,7031.956449,-8586.388927,1608.800546
1480.432605,7698.141797,-4293.194464,536.266849
1480.432935,7105.977043,-5107.421000,459.657299
1480.433264,7698.141797,-5847.626942,2068.457845
1480.433593,8808.450710,-5255.462188,1378.971896
1480.433923,8956.491898,-5551.544565,1838.629195
1480.434252,8882.471304,-5255.462188,1838.629195
1480.434581,7772.162391,-5921.647536,842.705048
1480.434911,5995.668130,-6291.750507,306.438199
1480.435240,4885.359217,-8660.409521,153.219100
1480.435569,5773.606348,-9178.553681,229.828649
1480.435899,6587.832884,-7254.018232,306.438199
1480.436228,5551.544565,-9622.677246,612.876398
1480.436557,5773.606348,-8512.368333,536.266849
1480.436887,5551.544565,-7105.977043,0.000000
1480.437216,6439.791695,-6883.915261,76.609550
1480.437545,7402.059420,-5255.462188,1685.410096
1480.437875,8808.450710,-3627.009116,1915.238745
1480.438204,9474.636058,-4811.338623,1685.410096
1480.438533,8660.409521,-5033.400406,2145.067394
1480.438863,8512.368333,-5921.647536,2451.505594
1480.439192,8734.430116,-6661.853478,2451.505594
1480.439521,7994.224174,-6439.791695,1455.581446
1480.439851,6661.853478,-5847.626942,1455.581446
1480.440180,6809.894666,-7254.018232,995.924147
1480.440510,5847.626942,-8142.265362,459.657299
1480.440839,4737.318029,-5995.668130,0.000000
1480.441168,4663.297435,-7328.038826,0.000000
1480.441498,5477.523971,-7105.977043,0.000000
1480.441827,5699.585753,-7105.977043,1072.533697
1480.442156,6069.688724,-6809.894666,1378.971896
1480.442486,7179.997637,-5625.565159,1302.362347
1480.442815,7105.977043,-6217.729913,1149.143247
1480.443144,6809.894666,-5551.544565,1302.362347
1480.443474,7846.182985,-6809.894666,1838.629195
1480.443803,8290.306550,-6809.894666,1685.410096
1480.444132,8216.285956,-6587.832884,2298.286494
1480.444462,7772.162391,-7846.182985,1302.362347
1480.444791,7402.059420,-5773.606348,1149.143247
1480.445120,6587.832884,-6291.750507,612.876398
1480.445450,6439.791695,-7550.100608,1302.362347
1480.445779,6513.812290,-4663.297435,842.705048
1480.446108,6587.832884,-5921.647536,612.876398
1480.446438,6069.688724,-6957.935855,153.219100
1480.446767,5403.503377,-5773.606348,0.000000
1480.447096,5255.462188,-6957.935855,229.828649
1480.447426,6069.688724,-8438.347739,919.314598
1480.447755,6957.935855,-7328.038826,1762.019645
1480.448085,7920.203579,-7254.018232,2374.896044
1480.448414,8290.306550,-8290.306550,2145.067394
1480.448743,7846.182985,-6883.915261,1378.971896
1480.449073,6439.791695,-6143.709319,919.314598
1480.449402,7105.977043,-6143.709319,842.705048
1480.449731,8512.368333,-5921.647536,2068.457845
1480.450061,8956.491898,-4515.256246,2068.457845
1480.450390,7624.121203,-6069.688724,1532.190996
1480.450719,6809.894666,-5995.668130,1149.143247
1480.451049,4959.379811,-5995.668130,-383.047749
1480.451378,4515.256246,-7846.182985,536.266849
1480.451707,5625.565159,-7772.162391,1072.533697
1480.452037,6883.915261,-7402.059420,0.000000
1480.452366,6661.853478,-6439.791695,995.924147
1480.452695,6661.853478,-8586.388927,1991.848295
1480.453025,8586.388927,-7179.997637,1302.362347
1480.453354,8142.265362,-5329.482782,1762.019645
1480.453683,7698.141797,-6587.832884,1838.629195
1480.454013,8734.430116,-3701.029710,1225.752797
1480.454342,7920.203579,-5699.585753,1762.019645
1480.454671,6883.915261,-6587.832884,1532.190996
1480.455001,6217.729913,-4737.318029,842.705048
1480.455330,6069.688724,-6513.812290,536.266849
1480.455660,5699.585753,-7550.100608,1608.800546
1480.455989,5773.606348,-7031.956449,153.219100
1480.456318,6809.894666,-7402.059420,766.095498
1480.456648,6217.729913,-8142.265362,689.485948
1480.456977,5699.585753,-8586.388927,1072.533697
1480.457306,5403.503377,-5477.523971,-459.657299
1480.457636,6365.771101,-6735.874072,383.047749
1480.457965,7254.018232,-8068.244768,1455.581446
1480.458294,9104.533087,-6143.709319,1608.800546
1480.458624,9030.512492,-7402.059420,2451.505594
1480.458953,8660.409521,-4885.359217,1991.848295
1480.459282,7254.018232,-4885.359217,1455.581446
1480.459612,7031.956449,-5773.606348,1225.752797
1480.459941,6735.874072,-7105.977043,1532.190996
1480.460270,6735.874072,-6291.750507,1302.362347
1480.460600,7031.956449,-7476.080014,1225.752797
1480.460929,6735.874072,-7105.977043,1532.190996
1480.461258,5329.482782,-5477.523971,0.000000
1480.461588,5329.482782,-8142.265362,-229.828649
1480.461917,6365.771101,-7254.018232,842.705048
1480.462246,8364.327145,-4737.318029,1455.581446
1480.462576,8956.491898,-6439.791695,1225.752797
1480.462905,7994.224174,-6661.853478,2221.676944
1480.463234,7624.121203,-6365.771101,1455.581446
1480.463564,6883.915261,-6809.894666,919.314598
1480.463893,6957.935855,-6661.853478,1991.848295
1480.464223,7550.100608,-7105.977043,1685.410096
1480.464552,7402.059420,-7105.977043,1608.800546
1480.464881,6069.688724,-6365.771101,1149.143247
1480.465211,4959.379811,-5921.647536,306.438199
1480.465540,5329.482782,-6883.915261,-612.876398
1480.465869,5773.606348,-6217.729913,842.705048
1480.466199,7624.121203,-5995.668130,-76.609550
1480.466528,7698.141797,-6439.791695,689.485948
1480.466857,7772.162391,-5625.565159,1532.190996
1480.467187,7179.997637,-6957.935855,689.485948
1480.467516,7550.100608,-6217.729913,919.314598
1480.467845,7328.038826,-7402.059420,1378.971896
1480.468175,7402.059420,-7031.956449,2145.067394
1480.468504,7105.977043,-6587.832884,689.485948
1480.468833,5995.668130,-8586.388927,1991.848295
1480.469163,6291.750507,-7105.977043,1685.410096
1480.469492,7031.956449,-6883.915261,612.876398
1480.469821,6883.915261,-5995.668130,1302.362347
1480.470151,7031.956449,-5329.482782,1915.238745
1480.470480,7698.141797,-4959.379811,842.705048
1480.470809,7328.038826,-5551.544565,-229.828649
1480.471139,5551.544565,-4959.379811,306.438199
1480.471468,6513.812290,-8364.327145,-766.095498
1480.471798,7105.977043,-8068.244768,1149.143247
1480.472127,6513.812290,-7179.997637,919.314598
1480.472456,6809.894666,-9474.636058,1532.190996
1480.472786,8882.471304,-7698.141797,1991.848295
1480.473115,7698.141797,-6883.915261,1685.410096
1480.473444,6735.874072,-6587.832884,1225.752797
1480.473774,6439.791695,-5625.565159,1149.143247
1480.474103,7328.038826,-4663.297435,842.705048
1480.474432,7550.100608,-4737.318029,1455.581446
1480.474761,7328.038826,-6439.791695,1915.238745
1480.475091,7105.977043,-5181.441594,842.705048
1480.475420,5551.544565,-5773.606348,0.000000
1480.475749,5625.565159,-6957.935855,76.609550
1480.476078,6513.812290,-5847.626942,536.266849
1480.476407,7772.162391,-8364.327145,1302.362347
1480.476736,7550.100608,-7476.080014,1455.581446
1480.477065,7105.977043,-5921.647536,842.705048
1480.477394,6439.791695,-5403.503377,1149.143247
1480.477723,7550.100608,-6291.750507,1685.410096
1480.478053,7920.203579,-5921.647536,1685.410096
1480.478382,7994.224174,-5921.647536,1838.629195
1480.478711,7550.100608,-6809.894666,1608.800546
1480.479040,7328.038826,-6143.709319,612.876398
1480.479369,5995.668130,-5625.565159,842.705048
1480.479698,5995.668130,-5921.647536,459.657299
1480.480027,7402.059420,-5921.647536,842.705048
1480.480356,8290.306550,-6291.750507,1149.143247
1480.480685,7920.203579,-7105.977043,1225.752797
1480.481015,7698.141797,-7105.977043,766.095498
1480.481344,6365.771101,-7031.956449,229.828649
1480.481673,5329.482782,-8142.265362,-306.438199
1480.482002,7105.977043,-6883.915261,0.000000
1480.482331,8512.368333,-6439.791695,1455.581446
1480.482660,9400.615463,-7105.977043,1915.238745
1480.482989,8290.306550,-6883.915261,1302.362347
1480.483318,6365.771101,-5995.668130,153.219100
1480.483647,5033.400406,-7105.977043,306.438199
1480.483977,5033.400406,-7476.080014,153.219100
1480.484306,6439.791695,-6809.894666,689.485948
1480.484635,7550.100608,-7772.162391,2068.457845
1480.484964,8512.368333,-7476.080014,1991.848295
1480.485293,6809.894666,-5921.647536,995.924147
1480.485622,4811.338623,-7031.956449,0.000000
1480.485951,5329.482782,-6291.750507,-612.876398
1480.486280,6661.853478,-5699.585753,383.047749
1480.486609,7550.100608,-6957.935855,1608.800546
1480.486939,7624.121203,-6661.853478,1455.581446
1480.487268,7105.977043,-5847.626942,842.705048
1480.487597,6883.915261,-5107.421000,229.828649
1480.487926,7105.977043,-6809.894666,2145.067394
1480.488255,8142.265362,-5625.565159,1838.629195
1480.488584,8734.430116,-6291.750507,2145.067394
1480.488913,8364.327145,-6735.874072,1378.971896
1480.489242,7179.997637,-5107.421000,1608.800546
1480.489571,5921.647536,-5329.482782,766.095498
1480.489901,6735.874072,-6587.832884,536.266849
1480.490230,6587.832884,-6291.750507,1378.971896
1480.490559,6809.894666,-7031.956449,1225.752797
1480.490888,6883.915261,-8882.471304,1225.752797
1480.491217,7254.018232,-6291.750507,1915.238745
1480.491546,6365.771101,-5921.647536,459.657299
1480.491875,5477.523971,-7698.141797,459.657299
1480.492204,6143.709319,-6809.894666,1149.143247
1480.492533,7179.997637,-6883.915261,1685.410096
1480.492863,7920.203579,-7328.038826,1532.190996
1480.493192,7031.956449,-6291.750507,1378.971896
1480.493521,6365.771101,-6735.874072,536.266849
1480.493850,6661.853478,-7698.141797,995.924147
1480.494179,7328.038826,-6439.791695,2298.286494
1480.494508,6957.935855,-5699.585753,766.095498
1480.494837,6661.853478,-6365.771101,1149.143247
1480.495166,6069.688724,-5699.585753,76.609550
1480.495496,6217.729913,-6143.709319,612.876398
1480.495825,6957.935855,-8586.388927,2221.676944
1480.496154,7105.977043,-7994.224174,2068.457845
1480.496483,7476.080014,-2812.782580,842.705048
1480.496812,7476.080014,-7698.141797,1915.238745
1480.497141,7920.203579,-7550.100608,1762.019645
1480.497470,7254.018232,-4441.235652,1225.752797
1480.497799,5921.647536,-7476.080014,1532.190996
1480.498128,6809.894666,-3849.070898,766.095498
1480.498458,8438.347739,-4515.256246,1532.190996
1480.498787,7920.203579,-7031.956449,1838.629195
1480.499116,7254.018232,-6957.935855,1685.410096
1480.499445,6957.935855,-6883.915261,919.314598
1480.499774,5995.668130,-6957.935855,1225.752797
1480.500103,5625.565159,-7179.997637,459.657299
1480.500432,6291.750507,-7179.997637,1225.752797
1480.500761,7179.997637,-7105.977043,1072.533697
1480.501090,7698.141797,-9844.739029,1532.190996
1480.501420,6957.935855,-5181.441594,1225.752797
1480.501749,6661.853478,-6365.771101,459.657299
1480.502078,7179.997637,-7105.977043,919.314598
1480.502407,7105.977043,-5995.668130,919.314598
1480.502736,6365.771101,-8068.244768,842.705048
1480.503065,6217.729913,-7179.997637,0.000000
1480.503394,5995.668130,-6217.729913,919.314598
1480.503723,6291.750507,-6735.874072,-153.219100
1480.504052,5995.668130,-7920.203579,459.657299
1480.504382,6883.915261,-7179.997637,1378.971896
1480.504711,8364.327145,-7328.038826,1072.533697
1480.505040,8216.285956,-6883.915261,1838.629195
1480.505369,7994.224174,-4811.338623,1455.581446
1480.505698,7328.038826,-5033.400406,995.924147
1480.506027,7031.956449,-6291.750507,1455.581446
1480.506356,7476.080014,-6217.729913,2068.457845
1480.506685,7402.059420,-5181.441594,1762.019645
1480.507014,7624.121203,-6217.729913,1302.362347
1480.507344,6661.853478,-5403.503377,689.485948
1480.507673,5329.482782,-6513.812290,689.485948
1480.508002,5773.606348,-7254.018232,459.657299
1480.508331,5995.668130,-6661.853478,689.485948
1480.508660,6957.935855,-6365.771101,766.095498
1480.508989,8290.306550,-7550.100608,2298.286494
1480.509318,8512.368333,-6957.935855,1762.019645
1480.509647,7772.162391,-5181.441594,689.485948
1480.509976,6365.771101,-7254.018232,536.266849
1480.510306,7105.977043,-5847.626942,689.485948
1480.510635,7772.162391,-5107.421000,0.000000
1480.510964,7624.121203,-6513.812290,1225.752797
1480.511293,6883.915261,-6291.750507,459.657299
1480.511622,5403.503377,-7772.162391,995.924147
1480.511951,5107.421000,-8808.450710,1225.752797
1480.512280,5847.626942,-6661.853478,0.000000
1480.512609,6143.709319,-6439.791695,459.657299
1480.512938,5625.565159,-8068.244768,0.000000
1480.513268,6143.709319,-7402.059420,612.876398
1480.513597,6883.915261,-6883.915261,1149.143247
1480.513926,7698.141797,-6365.771101,1608.800546
1480.514255,9104.533087,-6069.688724,2145.067394
1480.514584,8734.430116,-4515.256246,1302.362347
1480.514913,7920.203579,-6365.771101,1072.533697
1480.515242,7031.956449,-7105.977043,1455.581446
1480.515571,5699.585753,-6439.791695,1302.362347
1480.515900,5847.626942,-6735.874072,842.705048
1480.516230,5773.606348,-7254.018232,842.705048
1480.516559,5847.626942,-7402.059420,1225.752797
1480.516888,6661.853478,-6957.935855,1608.800546
1480.517217,7254.018232,-8438.347739,1608.800546
1480.517546,7254.018232,-6069.688724,1072.533697
1480.517875,6735.874072,-6143.709319,612.876398
1480.518204,6439.791695,-7550.100608,76.609550
1480.518533,5995.668130,-6513.812290,0.000000
1480.518862,6587.832884,-8734.430116,919.314598
1480.519192,7031.956449,-8734.430116,919.314598
1480.519521,6661.853478,-6957.935855,1685.410096
1480.519850,5551.544565,-7105.977043,536.266849
1480.520179,5773.606348,-6735.874072,-306.438199
1480.520508,5107.421000,-8068.244768,689.485948
1480.520837,6365.771101,-7772.162391,1762.019645
1480.521166,7920.203579,-7476.080014,2068.457845
1480.521495,7105.977043,-6143.709319,1608.800546
1480.521825,6587.832884,-5181.441594,1149.143247
1480.522154,6513.812290,-5773.606348,612.876398
1480.522483,7920.203579,-5181.441594,1072.533697
1480.522812,7994.224174,-4663.297435,1915.238745
1480.523141,8438.347739,-6883.915261,995.924147
1480.523470,7476.080014,-6513.812290,842.705048
1480.523799,4885.359217,-7402.059420,459.657299
1480.524128,3923.091493,-9992.780217,-153.219100
1480.524457,4145.153275,-10362.883188,229.828649
1480.524787,4737.318029,-10066.800811,612.876398
1480.525116,4959.379811,-11325.150913,536.266849
1480.525445,4959.379811,-9252.574275,766.095498
1480.525774,4219.173869,-8734.430116,0.000000
1480.526103,3775.050304,-7994.224174,-2451.505594
1480.526432,4737.318029,-6661.853478,2221.676944
1480.526761,8068.244768,-7550.100608,3294.210641
1480.527090,10584.944971,-6439.791695,4519.963438
1480.527419,9548.656652,-1702.473667,4443.353888
1480.527749,6957.935855,-2812.782580,1762.019645
1480.528078,4885.359217,-5403.503377,842.705048
1480.528407,3775.050304,-7476.080014,995.924147
1480.528736,4737.318029,-6217.729913,-536.266849
1480.529065,5329.482782,-10362.883188,153.219100
1480.529394,5551.544565,-14211.954086,2528.115143
1480.529723,3256.906145,-14211.954086,76.609550
1480.530052,1110.308913,-13989.892304,-612.876398
1480.530381,444.123565,-12287.418637,-2145.067394
1480.530711,592.164754,-11621.233289,-766.095498
1480.531040,1998.556043,-9770.718434,612.876398
1480.531369,4441.235652,-9474.636058,1072.533697
1480.531698,6809.894666,-5699.585753,3217.601092
1480.532027,7624.121203,-6143.709319,2681.334243
1480.532356,6513.812290,-6661.853478,2987.772442
1480.532685,4737.318029,-4737.318029,2145.067394
1480.533014,4441.235652,-6439.791695,536.266849
1480.533343,3849.070898,-7624.121203,536.266849
1480.533673,3552.988522,-9326.594869,1302.362347
1480.534002,5477.523971,-10732.986159,1685.410096
1480.534331,6439.791695,-9770.718434,1072.533697
1480.534660,5551.544565,-11843.295072,1838.629195
1480.534989,4441.235652,-9474.636058,1225.752797
1480.535318,4145.153275,-9400.615463,1149.143247
1480.535647,4441.235652,-8808.450710,842.705048
1480.535976,4959.379811,-6217.729913,1532.190996
1480.536305,5625.565159,-6217.729913,2374.896044
1480.536635,5255.462188,-6365.771101,1762.019645
1480.536964,2738.761985,-8586.388927,995.924147
1480.537293,1628.453072,-9030.512492,-306.438199
1480.537622,1850.514855,-9622.677246,-612.876398
1480.537951,3775.050304,-11843.295072,919.314598
1480.538280,5847.626942,-11325.150913,2604.724693
1480.538609,7031.956449,-10362.883188,2221.676944
1480.538938,7105.977043,-8660.409521,1455.581446
1480.539267,6439.791695,-7698.141797,1378.971896
1480.539597,6883.915261,-7179.997637,383.047749
1480.539926,6809.894666,-6513.812290,1149.143247
1480.540255,7402.059420,-5329.482782,1455.581446
1480.540584,7698.141797,-5921.647536,1685.410096
1480.540913,7624.121203,-6883.915261,2221.676944
1480.541242,5773.606348,-5995.668130,1685.410096
1480.541571,5033.400406,-5699.585753,0.000000
1480.541900,3997.112087,-6439.791695,-689.485948
1480.542229,4071.132681,-9474.636058,1072.533697
1480.542559,4663.297435,-10807.006753,306.438199
1480.542888,4959.379811,-11399.171507,1225.752797
1480.543217,5107.421000,-12731.542202,1302.362347
1480.543546,4515.256246,-11917.315666,536.266849
1480.543875,4441.235652,-9918.759623,0.000000
1480.544204,3849.070898,-9400.615463,-842.705048
1480.544533,5329.482782,-9178.553681,-459.657299
1480.544862,5551.544565,-9104.533087,1455.581446
1480.545191,4367.215058,-8586.388927,919.314598
1480.545521,3849.070898,-6513.812290,612.876398
1480.545850,5403.503377,-4145.153275,1608.800546
1480.546179,6513.812290,-6735.874072,1915.238745
1480.546508,5773.606348,-6883.915261,3294.210641
1480.546837,5403.503377,-6883.915261,2374.896044
1480.547166,5847.626942,-6439.791695,153.219100
1480.547495,4737.318029,-8512.368333,0.000000
1480.547824,2960.823768,-13027.624579,1455.581446
1480.548154,2294.638420,-13693.809927,-306.438199
1480.548483,1554.432478,-12583.501014,-1072.533697
1480.548812,2294.638420,-12953.603985,536.266849
1480.549141,4367.215058,-11325.150913,1838.629195
1480.549470,5329.482782,-8364.327145,1838.629195
1480.549799,4737.318029,-5477.523971,1149.143247
1480.550128,5181.441594,-4811.338623,76.609550
1480.550457,6587.832884,-5329.482782,1149.143247
1480.550786,5699.585753,-7254.018232,2068.457845
1480.551116,4737.318029,-8216.285956,1838.629195
1480.551445,4885.359217,-7402.059420,229.828649
1480.551774,4737.318029,-9104.533087,76.609550
1480.552103,4441.235652,-12583.501014,1455.581446
1480.552432,5699.585753,-12879.583391,2681.334243
1480.552761,6291.750507,-11325.150913,689.485948
1480.553090,5033.400406,-8660.409521,-1225.752797
1480.553419,4663.297435,-8882.471304,76.609550
1480.553748,5921.647536,-10362.883188,1608.800546
1480.554078,5403.503377,-10881.027347,2834.553343
1480.554407,2960.823768,-8438.347739,1838.629195
1480.554736,2368.659014,-6069.688724,0.000000
1480.555065,2886.803174,-5995.668130,459.657299
1480.555394,4737.318029,-7254.018232,1991.848295
1480.555723,6069.688724,-7179.997637,3064.381992
1480.556052,7105.977043,-5847.626942,2528.115143
1480.556381,6957.935855,-4737.318029,2068.457845
1480.556710,6809.894666,-6217.729913,2145.067394
1480.557040,6513.812290,-8068.244768,1762.019645
1480.557369,5995.668130,-9770.718434,306.438199
1480.557698,4737.318029,-10140.821405,919.314598
1480.558027,4737.318029,-10658.965565,1149.143247
1480.558356,6513.812290,-9400.615463,1838.629195
1480.558685,6291.750507,-7031.956449,919.314598
1480.559014,4515.256246,-8068.244768,0.000000
1480.559343,2886.803174,-9918.759623,0.000000
1480.559672,2220.617826,-10584.944971,383.047749
1480.560002,2738.761985,-9992.780217,229.828649
1480.560331,3701.029710,-7698.141797,536.266849
1480.560660,5033.400406,-7328.038826,766.095498
1480.560989,5921.647536,-8734.430116,1225.752797
1480.561318,7031.956449,-8290.306550,2145.067394
1480.561647,7624.121203,-7254.018232,2221.676944
1480.561976,8142.265362,-6217.729913,1532.190996
1480.562305,6883.915261,-6587.832884,1685.410096
1480.562634,6365.771101,-8734.430116,1838.629195
1480.562964,5699.585753,-10066.800811,1762.019645
1480.563293,4885.359217,-9918.759623,1455.581446
1480.563622,3775.050304,-8956.491898,919.314598
1480.563951,2516.700203,-9178.553681,0.000000
1480.564280,2368.659014,-9622.677246,153.219100
1480.564609,2590.720797,-10584.944971,153.219100
1480.564938,3256.906145,-10140.821405,1225.752797
1480.565267,4441.235652,-7994.224174,1225.752797
1480.565596,5255.462188,-6809.894666,689.485948
1480.565926,6143.709319,-6661.853478,1532.190996
1480.566255,6809.894666,-7254.018232,1149.143247
1480.566584,6069.688724,-8586.388927,612.876398
1480.566913,5033.400406,-9326.594869,306.438199
1480.567242,4589.276840,-10288.862594,536.266849
1480.567571,4367.215058,-11399.171507,459.657299
1480.567900,2886.803174,-11547.212695,536.266849
1480.568229,1776.494261,-12953.603985,306.438199
1480.568558,1628.453072,-12805.562797,-306.438199
1480.568888,2294.638420,-11399.171507,-229.828649
1480.569217,3701.029710,-9474.636058,383.047749
1480.569546,5329.482782,-7476.080014,1302.362347
1480.569875,6957.935855,-5921.647536,2374.896044
1480.570204,7328.038826,-5107.421000,2604.724693
1480.570533,7179.997637,-5107.421000,2757.943793
1480.570862,7476.080014,-4885.359217,2757.943793
1480.571191,7550.100608,-5625.565159,1838.629195
1480.571520,6661.853478,-5995.668130,1608.800546
1480.571850,5995.668130,-7476.080014,919.314598
1480.572179,5477.523971,-8882.471304,1225.752797
1480.572508,4811.338623,-9178.553681,0.000000
1480.572837,4219.173869,-10066.800811,229.828649
1480.573166,4663.297435,-10807.006753,383.047749
1480.573495,4293.194464,-11473.192101,1072.533697
1480.573824,3256.906145,-12065.356855,1225.752797
1480.574153,2516.700203,-12435.459826,459.657299
1480.574483,2442.679609,-10732.986159,0.000000
1480.574812,2368.659014,-10584.944971,-612.876398
1480.575141,2886.803174,-10881.027347,995.924147
1480.575470,4515.256246,-9400.615463,1225.752797
1480.575799,5995.668130,-7476.080014,1378.971896
1480.576128,6069.688724,-5403.503377,1149.143247
1480.576457,7179.997637,-3034.844362,1608.800546
1480.576786,7994.224174,-3108.864956,1455.581446
1480.577115,8142.265362,-3330.926739,2528.115143
1480.577444,7846.182985,-6513.812290,2374.896044
1480.577774,7624.121203,-7920.203579,2374.896044
1480.578103,6883.915261,-9548.656652,2681.334243
1480.578432,5255.462188,-11251.130318,2451.505594
1480.578761,4441.235652,-10658.965565,2298.286494
1480.579090,2886.803174,-11103.089130,459.657299
1480.579419,2294.638420,-11177.109724,306.438199
1480.579748,2368.659014,-9696.697840,229.828649
1480.580077,3182.885551,-8512.368333,153.219100
1480.580406,3627.009116,-7476.080014,0.000000
1480.580735,4737.318029,-5995.668130,76.609550
1480.581064,5995.668130,-6513.812290,612.876398
1480.581393,6883.915261,-7031.956449,1378.971896
1480.581723,6439.791695,-7920.203579,1608.800546
1480.582052,5699.585753,-8068.244768,76.609550
1480.582381,4811.338623,-9622.677246,766.095498
1480.582710,5181.441594,-11547.212695,1838.629195
1480.583039,5699.585753,-11547.212695,2604.724693
1480.583368,5995.668130,-11103.089130,2451.505594
1480.583697,4885.359217,-9844.739029,2221.676944
1480.584026,4515.256246,-9178.553681,2068.457845
1480.584355,4885.359217,-8512.368333,2681.334243
1480.584684,5625.565159,-6809.894666,2834.553343
1480.585013,5995.668130,-6069.688724,1991.848295
1480.585342,5773.606348,-4811.338623,2145.067394
1480.585672,5477.523971,-5329.482782,1838.629195
1480.586001,5033.400406,-6957.935855,1762.019645
1480.586330,4293.194464,-7179.997637,1455.581446
1480.586659,3775.050304,-9622.677246,1149.143247
1480.586988,3627.009116,-11177.109724,1532.190996
1480.587317,3701.029710,-11695.253884,2145.067394
1480.587646,4663.297435,-11769.274478,2757.943793
1480.587975,5551.544565,-10436.903782,3907.087040
1480.588304,5477.523971,-8734.430116,4136.915689
1480.588633,5551.544565,-7698.141797,3064.381992
1480.588962,5995.668130,-5773.606348,2757.943793
1480.589291,7328.038826,-5255.462188,3294.210641
1480.589621,7698.141797,-4811.338623,2681.334243
1480.589950,7031.956449,-4589.276840,2757.943793
1480.590279,6587.832884,-5329.482782,2528.115143
1480.590608,6365.771101,-6809.894666,2374.896044
1480.590937,5995.668130,-7994.224174,3294.210641
1480.591266,5033.400406,-8142.265362,2834.553343
1480.591595,5477.523971,-8438.347739,3140.991542
1480.591924,6217.729913,-7698.141797,3600.648841
1480.592253,7105.977043,-6809.894666,4826.401637
1480.592582,8364.327145,-6661.853478,4979.620737
1480.592911,9104.533087,-5329.482782,5439.278036
1480.593240,9030.512492,-4441.235652,4749.792088
1480.593570,8438.347739,-3997.112087,4749.792088
1480.593899,8586.388927,-3923.091493,4673.182538
1480.594228,8660.409521,-4071.132681,4519.963438
1480.594557,7698.141797,-4367.215058,3907.087040
1480.594886,7328.038826,-5107.421000,3677.258390
1480.595215,7476.080014,-6365.771101,4060.306139
1480.595544,6513.812290,-7179.997637,3907.087040
1480.595873,5255.462188,-9400.615463,3294.210641
1480.596202,4145.153275,-10066.800811,2528.115143
1480.596531,3404.947333,-10732.986159,2987.772442
1480.596860,3775.050304,-11769.274478,2834.553343
1480.597189,4145.153275,-10955.047942,4290.134789
1480.597519,5107.421000,-9548.656652,4826.401637
1480.597848,5921.647536,-8216.285956,4366.744339
1480.598177,7105.977043,-6069.688724,5515.887586
1480.598506,8216.285956,-5181.441594,5592.497135
1480.598835,9326.594869,-3404.947333,5439.278036
1480.599164,9474.636058,-2590.720797,5515.887586
1480.599493,9326.594869,-2368.659014,4979.620737
1480.599822,9104.533087,-2368.659014,5439.278036
1480.600151,8956.491898,-3849.070898,5362.668486
1480.600480,8734.430116,-4737.318029,5132.839837
1480.600809,8142.265362,-6143.709319,4903.011187
1480.601138,7254.018232,-7402.059420,4519.963438
1480.601468,6513.812290,-8956.491898,4826.401637
1480.601797,5625.565159,-9844.739029,4903.011187
1480.602126,4737.318029,-9992.780217,4443.353888
1480.602455,3182.885551,-10214.842000,3600.648841
1480.602784,2812.782580,-9622.677246,3907.087040
1480.603113,3478.967927,-7846.182985,2911.162892
1480.603442,4589.276840,-6957.935855,3753.867940
1480.603771,5921.647536,-5477.523971,4213.525239
1480.604100,7920.203579,-4515.256246,4826.401637
1480.604429,9474.636058,-3108.864956,5745.716235
1480.604758,10066.800811,-2294.638420,5439.278036
1480.605087,10288.862594,-2664.741391,5056.230287
1480.605417,9252.574275,-3997.112087,4443.353888
1480.605746,8216.285956,-5699.585753,3524.039291
1480.606075,6809.894666,-7254.018232,2911.162892
1480.606404,6217.729913,-9104.533087,2681.334243
1480.606733,5773.606348,-9696.697840,2911.162892
1480.607062,5329.482782,-10140.821405,3294.210641
1480.607391,4959.379811,-9474.636058,4519.963438
1480.607720,5847.626942,-7846.182985,3600.648841
1480.608049,6439.791695,-5995.668130,4749.792088
1480.608378,7402.059420,-4737.318029,4136.915689
1480.608707,8438.347739,-3775.050304,4519.963438
1480.609036,8808.450710,-3256.906145,4060.306139
1480.609366,8956.491898,-4071.132681,3447.429741
1480.609695,8142.265362,-5107.421000,3447.429741
1480.610024,7105.977043,-6661.853478,2987.772442
1480.610353,6365.771101,-8068.244768,2834.553343
1480.610682,6069.688724,-8956.491898,3294.210641
1480.611011,5699.585753,-9178.553681,3524.039291
1480.611340,5847.626942,-8290.306550,3447.429741
1480.611669,6587.832884,-8364.327145,3753.867940
1480.611998,7328.038826,-7254.018232,4519.963438
1480.612327,7624.121203,-6291.750507,4060.306139
1480.612656,7994.224174,-5329.482782,4213.525239
1480.612985,7994.224174,-4071.132681,3983.696590
1480.613315,8068.244768,-3404.947333,3830.477490
1480.613644,8586.388927,-2886.803174,3217.601092
1480.613973,8956.491898,-3108.864956,4366.744339
1480.614302,9178.553681,-4293.194464,3983.696590
1480.614631,8068.244768,-5403.503377,3370.820191
1480.614960,6291.750507,-8808.450710,2911.162892
1480.615289,5033.400406,-10584.944971,2834.553343
1480.615618,4367.215058,-11029.068536,2681.334243
1480.615947,3182.885551,-10881.027347,2757.943793
1480.616276,3330.926739,-9474.636058,2757.943793
1480.616605,4293.194464,-7772.162391,2834.553343
1480.616934,5551.544565,-6365.771101,3064.381992
1480.617264,7105.977043,-5625.565159,4290.134789
1480.617593,8364.327145,-5033.400406,5132.839837
1480.617922,9326.594869,-4071.132681,4903.011187
1480.618251,9252.574275,-2812.782580,5209.449386
1480.618580,10510.924376,-1924.535449,5745.716235
1480.618909,11325.150913,-3404.947333,5209.449386
1480.619238,10362.883188,-4219.173869,4826.401637
1480.619567,8364.327145,-5995.668130,4060.306139
1480.619896,6291.750507,-8734.430116,3064.381992
1480.620225,4737.318029,-10732.986159,2604.724693
1480.620554,3256.906145,-13101.645173,3294.210641
1480.620883,2960.823768,-11917.315666,2834.553343
1480.621213,2960.823768,-9474.636058,2451.505594
1480.621542,3478.967927,-7328.038826,2068.457845
1480.621871,4737.318029,-5329.482782,3140.991542
1480.622200,8068.244768,-4515.256246,5132.839837
1480.622529,9992.780217,-3552.988522,6205.373534
1480.622858,10510.924376,-2664.741391,6435.202183
1480.623187,10881.027347,-1924.535449,6435.202183
1480.623516,10881.027347,-2368.659014,5975.544884
1480.623845,8882.471304,-4071.132681,5669.106685
1480.624174,7550.100608,-6291.750507,5286.058936
1480.624503,7550.100608,-7624.121203,4290.134789
1480.624833,6809.894666,-8142.265362,3677.258390
1480.625162,5477.523971,-9252.574275,3907.087040
1480.625491,4811.338623,-9770.718434,2604.724693
1480.625820,3775.050304,-8660.409521,2451.505594
1480.626149,3552.988522,-8290.306550,3294.210641
1480.626478,5181.441594,-7550.100608,4290.134789
1480.626807,7179.997637,-5995.668130,4826.401637
1480.627136,7179.997637,-6217.729913,4136.915689
1480.627465,7254.018232,-4959.379811,4366.744339
1480.627794,7476.080014,-5107.421000,4519.963438
1480.628123,8808.450710,-5625.565159,5439.278036
1480.628452,8956.491898,-3849.070898,5515.887586
1480.628782,8512.368333,-3923.091493,4366.744339
1480.629111,8142.265362,-5921.647536,4749.792088
1480.629440,7179.997637,-8364.327145,5132.839837
1480.629769,7031.956449,-9030.512492,4979.620737
1480.630098,6735.874072,-7031.956449,4519.963438
1480.630427,5329.482782,-8068.244768,3753.867940
1480.630756,3552.988522,-7994.224174,2757.943793
1480.631085,3923.091493,-8660.409521,2911.162892
1480.631414,5181.441594,-7254.018232,3907.087040
1480.631743,7105.977043,-4959.379811,3830.477490
1480.632072,7624.121203,-3552.988522,3907.087040
1480.632401,7698.141797,-3627.009116,4213.525239
1480.632731,8512.368333,-5255.462188,4519.963438
1480.633060,8808.450710,-5403.503377,4826.401637
1480.633389,8734.430116,-5773.606348,5362.668486
1480.633718,8142.265362,-6513.812290,3983.696590
1480.634047,6957.935855,-8290.306550,3983.696590
1480.634376,5625.565159,-9252.574275,3753.867940
1480.634705,5329.482782,-8142.265362,2604.724693
1480.635034,6143.709319,-6957.935855,3370.820191
1480.635363,6809.894666,-7105.977043,3217.601092
1480.635692,7179.997637,-7105.977043,3830.477490
1480.636021,7476.080014,-6661.853478,4443.353888
1480.636350,6957.935855,-5329.482782,3907.087040
1480.636680,5625.565159,-5847.626942,2451.505594
1480.637009,6883.915261,-6661.853478,3753.867940
1480.637338,8660.409521,-4441.235652,3983.696590
1480.637667,8808.450710,-3701.029710,3524.039291
1480.637996,7254.018232,-5699.585753,4136.915689
1480.638325,7179.997637,-7772.162391,4060.306139
1480.638654,7920.203579,-8290.306550,4136.915689
1480.638983,6883.915261,-8586.388927,4673.182538
1480.639312,5033.400406,-9326.594869,4443.353888
1480.639641,3923.091493,-9474.636058,3830.477490
1480.639970,4589.276840,-8216.285956,3370.820191
1480.640299,6735.874072,-5255.462188,3983.696590
1480.640629,9696.697840,-4293.194464,4673.182538
1480.640958,9548.656652,-4737.318029,5056.230287
1480.641287,7328.038826,-4441.235652,3677.258390
1480.641616,6365.771101,-3701.029710,2911.162892
1480.641945,7402.059420,-4293.194464,2374.896044
1480.642274,8586.388927,-4441.235652,3753.867940
1480.642603,8290.306550,-5995.668130,3217.601092
1480.642932,7846.182985,-8808.450710,3830.477490
1480.643261,7846.182985,-7624.121203,2681.334243
1480.643590,7179.997637,-8364.327145,2911.162892
1480.643919,5625.565159,-9474.636058,3524.039291
1480.644248,4663.297435,-10362.883188,4673.182538
1480.644578,4441.235652,-10362.883188,3907.087040
1480.644907,4737.318029,-7105.977043,4060.306139
1480.645236,6883.915261,-4589.276840,4366.744339
1480.645565,7994.224174,-5551.544565,5132.839837
1480.645894,7772.162391,-5403.503377,5439.278036
1480.646223,7105.977043,-2368.659014,4673.182538
1480.646552,7994.224174,-592.164754,3294.210641
1480.646881,8882.471304,-2146.597232,4366.744339
1480.647210,10140.821405,-3923.091493,5132.839837
1480.647539,10214.842000,-5107.421000,4213.525239
1480.647868,8734.430116,-5329.482782,2911.162892
1480.648197,6291.750507,-7550.100608,1915.238745
1480.648527,5625.565159,-11473.192101,2068.457845
1480.648856,4293.194464,-12287.418637,2374.896044
1480.649185,4071.132681,-11991.336260,2145.067394
1480.649514,4367.215058,-9918.759623,2374.896044
1480.649843,4737.318029,-8068.244768,3677.258390
1480.650172,5181.441594,-8364.327145,3064.381992
1480.650501,6365.771101,-5551.544565,3447.429741
1480.650830,7624.121203,-3923.091493,3370.820191
1480.651159,8068.244768,-3256.906145,4213.525239
1480.651488,8882.471304,-3478.967927,4060.306139
1480.651817,9622.677246,-2368.659014,3677.258390
1480.652146,9474.636058,-1998.556043,2528.115143
1480.652476,9030.512492,-3478.967927,2528.115143
1480.652805,7550.100608,-5329.482782,2757.943793
1480.653134,6291.750507,-8956.491898,2068.457845
1480.653463,5551.544565,-10955.047942,2068.457845
1480.653792,4737.318029,-11251.130318,1685.410096
1480.654121,4737.318029,-11547.212695,1915.238745
1480.654450,4663.297435,-9548.656652,2681.334243
1480.654779,4959.379811,-8512.368333,1838.629195
1480.655108,5181.441594,-6439.791695,1608.800546
1480.655437,6957.935855,-3701.029710,2145.067394
1480.655766,9178.553681,-2442.679609,1991.848295
1480.656095,10362.883188,-2442.679609,3140.991542
1480.656425,9696.697840,-3256.906145,3370.820191
1480.656754,8586.388927,-3256.906145,1302.362347
1480.657083,7105.977043,-5403.503377,459.657299
1480.657412,6143.709319,-6883.915261,1302.362347
1480.657741,6439.791695,-9474.636058,1149.143247
1480.658070,6365.771101,-11029.068536,1455.581446
1480.658399,5255.462188,-9622.677246,1149.143247
1480.658728,5477.523971,-9252.574275,1149.143247
1480.659057,5995.668130,-9326.594869,459.657299
1480.659386,5403.503377,-7105.977043,766.095498
1480.659715,6439.791695,-4959.379811,842.705048
1480.660044,8364.327145,-3330.926739,1072.533697
1480.660374,9252.574275,-3849.070898,1455.581446
1480.660703,9400.615463,-3997.112087,1838.629195
1480.661032,8882.471304,-1924.535449,612.876398
1480.661361,7105.977043,-5329.482782,-919.314598
1480.661690,5995.668130,-6587.832884,1608.800546
1480.662019,6735.874072,-7328.038826,1149.143247
1480.662348,7994.224174,-9104.533087,153.219100
1480.662677,6513.812290,-9178.553681,1302.362347
1480.663006,5551.544565,-10510.924376,1225.752797
1480.663335,5847.626942,-9622.677246,-229.828649
1480.663664,3997.112087,-6883.915261,153.219100
1480.663993,5847.626942,-6439.791695,229.828649
1480.664323,8734.430116,-5773.606348,1072.533697
1480.664652,8882.471304,-4441.235652,2528.115143
1480.664981,8660.409521,-4071.132681,1149.143247
1480.665310,7550.100608,-4145.153275,1225.752797
1480.665639,6809.894666,-3330.926739,0.000000
1480.665968,5699.585753,-5477.523971,689.485948
1480.666297,7105.977043,-7698.141797,1685.410096
1480.666626,8068.244768,-7254.018232,1532.190996
1480.666955,6513.812290,-7254.018232,306.438199
1480.667284,5625.565159,-8512.368333,919.314598
1480.667613,6513.812290,-7402.059420,919.314598
1480.667942,6513.812290,-7624.121203,536.266849
1480.668272,6587.832884,-7624.121203,766.095498
1480.668601,7031.956449,-7402.059420,1302.362347
1480.668930,7402.059420,-6291.750507,919.314598
1480.669259,6513.812290,-5107.421000,459.657299
1480.669588,5699.585753,-5847.626942,842.705048
1480.669917,6439.791695,-4959.379811,459.657299
1480.670246,6957.935855,-6587.832884,766.095498
1480.670575,7179.997637,-7920.203579,2451.505594
1480.670904,7772.162391,-6291.750507,1762.019645
1480.671233,6809.894666,-6217.729913,536.266849
1480.671562,5625.565159,-6809.894666,229.828649
1480.671891,6365.771101,-5329.482782,842.705048
1480.672221,7698.141797,-6217.729913,306.438199
1480.672550,8586.388927,-7846.182985,1685.410096
1480.672879,7328.038826,-7105.977043,1378.971896
1480.673208,6957.935855,-7105.977043,153.219100
1480.673537,5773.606348,-7476.080014,1225.752797
1480.673866,5551.544565,-7179.997637,1378.971896
1480.674195,7254.018232,-5921.647536,1378.971896
1480.674524,7550.100608,-6217.729913,1838.629195
1480.674853,7254.018232,-5181.441594,1838.629195
1480.675182,7846.182985,-5403.503377,1608.800546
1480.675511,7254.018232,-5847.626942,689.485948
1480.675840,7105.977043,-5551.544565,919.314598
1480.676169,7179.997637,-7105.977043,0.000000
1480.676499,7772.162391,-7328.038826,2068.457845
1480.676828,8216.285956,-7550.100608,1608.800546
1480.677157,7254.018232,-7550.100608,0.000000
1480.677486,4737.318029,-7105.977043,-689.485948
1480.677815,4737.318029,-7772.162391,0.000000
1480.678144,7476.080014,-6143.709319,153.219100
1480.678473,7846.182985,-8216.285956,2528.115143
1480.678802,7772.162391,-7328.038826,2374.896044
1480.679131,7994.224174,-4885.359217,1608.800546
1480.679460,7328.038826,-6365.771101,1378.971896
1480.679789,6365.771101,-4071.132681,995.924147
1480.680118,7476.080014,-3627.009116,306.438199
1480.680447,8438.347739,-6069.688724,842.705048
1480.680776,7772.162391,-5329.482782,1149.143247
1480.681105,6809.894666,-7105.977043,842.705048
1480.681434,5995.668130,-7105.977043,612.876398
1480.681763,5329.482782,-8956.491898,1455.581446
1480.682092,5773.606348,-7698.141797,1225.752797
1480.682421,6587.832884,-8512.368333,1225.752797
1480.682750,6809.894666,-8808.450710,2451.505594
1480.683079,7031.956449,-6513.812290,1455.581446
1480.683409,5255.462188,-5921.647536,76.609550
1480.683738,5699.585753,-4071.132681,766.095498
1480.684067,6883.915261,-4441.235652,612.876398
1480.684396,8068.244768,-5329.482782,1915.238745
1480.684725,8142.265362,-5255.462188,2221.676944
1480.685054,7476.080014,-5847.626942,1149.143247
1480.685383,7105.977043,-5773.606348,459.657299
1480.685712,6143.709319,-6661.853478,1072.533697
1480.686041,6661.853478,-8142.265362,995.924147
1480.686370,7105.977043,-8512.368333,919.314598
1480.686699,7328.038826,-9326.594869,1915.238745
1480.687028,7031.956449,-7624.121203,1149.143247
1480.687357,5551.544565,-7920.203579,459.657299
1480.687686,5181.441594,-7105.977043,1378.971896
1480.688015,6069.688724,-4663.297435,536.266849
1480.688344,7920.203579,-5181.441594,1991.848295
1480.688673,10584.944971,-4367.215058,3294.210641
1480.689002,10066.800811,-3775.050304,2757.943793
1480.689331,8586.388927,-3849.070898,1455.581446
1480.689660,6883.915261,-4663.297435,536.266849
1480.689990,5921.647536,-7105.977043,153.219100
1480.690319,6217.729913,-7476.080014,459.657299
1480.690648,7328.038826,-8808.450710,1225.752797
1480.690977,7698.141797,-9548.656652,1532.190996
1480.691306,7031.956449,-8882.471304,1072.533697
1480.691635,5625.565159,-9770.718434,919.314598
1480.691964,5477.523971,-7698.141797,1455.581446
1480.692293,6365.771101,-5181.441594,0.000000
1480.692622,6809.894666,-6883.915261,306.438199
1480.692951,7772.162391,-4737.318029,1762.019645
1480.693280,8290.306550,-5551.544565,766.095498
1480.693609,8438.347739,-6661.853478,1915.238745
1480.693938,7105.977043,-4441.235652,1149.143247
1480.694267,6143.709319,-4515.256246,76.609550
1480.694596,6735.874072,-7698.141797,766.095498
1480.694925,7105.977043,-7105.977043,1378.971896
1480.695254,7105.977043,-7179.997637,0.000000
1480.695583,5699.585753,-7105.977043,612.876398
1480.695912,5699.585753,-7476.080014,1378.971896
1480.696241,7105.977043,-7105.977043,1072.533697
1480.696570,6661.853478,-7254.018232,1685.410096
1480.696900,6217.729913,-6587.832884,919.314598
1480.697229,6661.853478,-5995.668130,229.828649
1480.697558,6661.853478,-5995.668130,383.047749
1480.697887,6957.935855,-5847.626942,1455.581446
1480.698216,7624.121203,-5255.462188,2298.286494
1480.698545,8068.244768,-5403.503377,1915.238745
1480.698874,7328.038826,-7179.997637,1762.019645
1480.699203,7031.956449,-6735.874072,2068.457845
1480.699532,6883.915261,-7031.956449,1532.190996
1480.699861,6513.812290,-6661.853478,689.485948
1480.700190,6365.771101,-5699.585753,76.609550
1480.700519,7031.956449,-6587.832884,153.219100
1480.700848,7920.203579,-6587.832884,76.609550
1480.701177,7550.100608,-6587.832884,383.047749
1480.701506,6883.915261,-6587.832884,689.485948
1480.701835,6291.750507,-7328.038826,306.438199
1480.702164,6365.771101,-6587.832884,995.924147
1480.702493,7624.121203,-6587.832884,1455.581446
1480.702822,9178.553681,-6735.874072,2911.162892
1480.703151,8808.450710,-5181.441594,2451.505594
1480.703481,7105.977043,-6587.832884,919.314598
1480.703810,6439.791695,-5403.503377,842.705048
1480.704139,6143.709319,-3997.112087,229.828649
1480.704468,7328.038826,-6957.935855,612.876398
1480.704797,8068.244768,-7254.018232,1302.362347
1480.705126,7105.977043,-7254.018232,229.828649
1480.705455,5699.585753,-6365.771101,-842.705048
1480.705784,5403.503377,-6735.874072,0.000000
1480.706113,6143.709319,-8512.368333,153.219100
1480.706442,7105.977043,-7254.018232,689.485948
1480.706771,7031.956449,-8068.244768,1532.190996
1480.707100,8290.306550,-6513.812290,1378.971896
1480.707429,8068.244768,-5921.647536,766.095498
1480.707758,6513.812290,-6661.853478,1225.752797
1480.708087,6809.894666,-5847.626942,1072.533697
1480.708416,7328.038826,-5699.585753,153.219100
1480.708745,7476.080014,-5403.503377,1225.752797
1480.709074,7994.224174,-5995.668130,612.876398
1480.709403,7920.203579,-6439.791695,0.000000
1480.709732,6883.915261,-5847.626942,-153.219100
1480.710061,5551.544565,-7254.018232,383.047749
1480.710391,6291.750507,-6883.915261,153.219100
1480.710720,7105.977043,-9104.533087,1685.410096
1480.711049,7550.100608,-7698.141797,1685.410096
1480.711378,6365.771101,-4885.359217,0.000000
1480.711707,5551.544565,-6809.894666,153.219100
1480.712036,6439.791695,-5921.647536,689.485948
1480.712365,7254.018232,-6069.688724,766.095498
1480.712694,7920.203579,-6069.688724,1915.238745
1480.713023,8142.265362,-5551.544565,1608.800546
1480.713352,7550.100608,-6735.874072,689.485948
1480.713681,6217.729913,-6439.791695,153.219100
1480.714010,4885.359217,-6735.874072,383.047749
1480.714339,5625.565159,-6513.812290,306.438199
1480.714668,6217.729913,-7402.059420,1149.143247
1480.714997,7105.977043,-8142.265362,1991.848295
1480.715326,7624.121203,-7105.977043,2068.457845
1480.715655,6735.874072,-7550.100608,1608.800546
1480.715984,5403.503377,-6735.874072,1455.581446
1480.716313,5625.565159,-5551.544565,536.266849
1480.716642,7179.997637,-5921.647536,306.438199
1480.716971,8216.285956,-6957.935855,2374.896044
1480.717301,7994.224174,-6735.874072,1991.848295
1480.717630,6587.832884,-6143.709319,536.266849
1480.717959,6291.750507,-6217.729913,1532.190996
1480.718288,6883.915261,-5847.626942,1532.190996
1480.718617,8068.244768,-6439.791695,2451.505594
1480.718946,8068.244768,-7328.038826,2834.553343
1480.719275,7328.038826,-6587.832884,2604.724693
1480.719604,7031.956449,-7402.059420,1915.238745
1480.719933,7179.997637,-7105.977043,2221.676944
1480.720262,6661.853478,-4663.297435,689.485948
1480.720591,6809.894666,-6513.812290,842.705048
1480.720920,7179.997637,-5625.565159,1149.143247
1480.721249,6883.915261,-4959.379811,76.609550
1480.721578,6217.729913,-6587.832884,0.000000
1480.721907,6957.935855,-8216.285956,1302.362347
1480.722236,7179.997637,-7476.080014,2374.896044
1480.722565,7550.100608,-7402.059420,1685.410096
1480.722894,7772.162391,-7994.224174,2068.457845
1480.723223,8882.471304,-5921.647536,2298.286494
1480.723552,8290.306550,-5477.523971,536.266849
1480.723882,6217.729913,-6439.791695,1685.410096
1480.724211,5921.647536,-4515.256246,1225.752797
1480.724540,7772.162391,-5255.462188,383.047749
1480.724869,7846.182985,-5921.647536,1762.019645
1480.725198,7402.059420,-6883.915261,1838.629195
1480.725527,7402.059420,-7550.100608,1072.533697
1480.725856,7105.977043,-7254.018232,842.705048
1480.726185,5551.544565,-7105.977043,612.876398
1480.726514,5921.647536,-7105.977043,-153.219100
1480.726843,6735.874072,-7105.977043,76.609550
1480.727172,6365.771101,-7920.203579,1991.848295
1480.727501,7254.018232,-7105.977043,1685.410096
1480.727830,6883.915261,-7031.956449,1225.752797
1480.728159,5477.523971,-5107.421000,919.314598
1480.728488,5847.626942,-5699.585753,459.657299
1480.728817,7994.224174,-5699.585753,1302.362347
1480.729146,8586.388927,-6587.832884,1455.581446
1480.729475,7105.977043,-6513.812290,995.924147
1480.729804,5995.668130,-5995.668130,306.438199
1480.730133,5699.585753,-6291.750507,-229.828649
1480.730462,5403.503377,-5921.647536,-536.266849
1480.730792,6143.709319,-7179.997637,536.266849
1480.731121,7846.182985,-8660.409521,1532.190996
1480.731450,8290.306550,-6661.853478,1302.362347
1480.731779,7105.977043,-8290.306550,2145.067394
1480.732108,7179.997637,-7031.956449,1685.410096
1480.732437,7254.018232,-4737.318029,612.876398
1480.732766,6735.874072,-6587.832884,1225.752797
1480.733095,7402.059420,-5477.523971,689.485948
1480.733424,6291.750507,-4441.235652,153.219100
1480.733753,5329.482782,-5403.503377,0.000000
1480.734082,5551.544565,-6291.750507,153.219100
1480.734411,6809.894666,-6883.915261,1149.143247
1480.734740,8290.306550,-8068.244768,1608.800546
1480.735069,8216.285956,-9104.533087,2145.067394
1480.735398,7624.121203,-7402.059420,2374.896044
1480.735727,7105.977043,-7698.141797,1225.752797
1480.736056,5699.585753,-6735.874072,766.095498
1480.736385,5033.400406,-5699.585753,0.000000
1480.736714,6291.750507,-6587.832884,-612.876398
1480.737043,7920.203579,-6143.709319,919.314598
1480.737373,8438.347739,-6365.771101,1762.019645
1480.737702,7698.141797,-6217.729913,995.924147
1480.738031,6513.812290,-6957.935855,1225.752797
1480.738360,5551.544565,-7476.080014,919.314598
1480.738689,5403.503377,-5773.606348,612.876398
1480.739018,6661.853478,-6809.894666,1225.752797
1480.739347,7698.141797,-6069.688724,1532.190996
1480.739676,8438.347739,-5625.565159,1685.410096
1480.740005,8216.285956,-6513.812290,1915.238745
1480.740334,8586.388927,-5329.482782,1149.143247
1480.740663,8734.430116,-5181.441594,689.485948
1480.740992,8142.265362,-6809.894666,1532.190996
1480.741321,7402.059420,-6957.935855,153.219100
1480.741650,5921.647536,-6587.832884,-153.219100
1480.741979,4663.297435,-6809.894666,-612.876398
1480.742308,5181.441594,-6735.874072,-919.314598
1480.742637,6365.771101,-7031.956449,689.485948
1480.742966,7920.203579,-8808.450710,2374.896044
1480.743295,8586.388927,-7772.162391,2528.115143
1480.743624,8142.265362,-5625.565159,2681.334243
1480.743953,6439.791695,-5625.565159,383.047749
1480.744283,5995.668130,-4515.256246,0.000000
1480.744612,6735.874072,-5107.421000,1225.752797
1480.744941,8586.388927,-5107.421000,1762.019645
1480.745270,9178.553681,-5921.647536,1149.143247
1480.745599,7179.997637,-6439.791695,1455.581446
1480.745928,5773.606348,-7698.141797,-229.828649
1480.746257,4811.338623,-8956.491898,0.000000
1480.746586,3997.112087,-6661.853478,306.438199
1480.746915,5255.462188,-8068.244768,306.438199
1480.747244,7105.977043,-8364.327145,2145.067394
1480.747573,7550.100608,-5699.585753,1608.800546
1480.747902,7179.997637,-7105.977043,1838.629195
1480.748231,6809.894666,-5329.482782,2221.676944
1480.748560,6957.935855,-3627.009116,689.485948
1480.748889,7402.059420,-4737.318029,919.314598
1480.749218,8882.471304,-4663.297435,2221.676944
1480.749547,8808.450710,-6069.688724,2451.505594
1480.749876,7476.080014,-5995.668130,1072.533697
1480.750205,5625.565159,-6069.688724,842.705048
1480.750534,5847.626942,-7698.141797,0.000000
1480.750863,6883.915261,-8586.388927,153.219100
1480.751193,6809.894666,-9548.656652,1762.019645
1480.751522,6439.791695,-9474.636058,919.314598
1480.751851,6439.791695,-7698.141797,689.485948
1480.752180,6143.709319,-6587.832884,0.000000
1480.752509,6661.853478,-4885.359217,919.314598
1480.752838,8512.368333,-4589.276840,1532.190996
1480.753167,9178.553681,-5551.544565,2145.067394
1480.753496,8882.471304,-4737.318029,1915.238745
1480.753825,8142.265362,-4959.379811,1149.143247
1480.754154,7994.224174,-5551.544565,689.485948
1480.754483,6217.729913,-6513.812290,612.876398
1480.754812,5255.462188,-7772.162391,306.438199
1480.755141,6587.832884,-7772.162391,612.876398
1480.755470,7254.018232,-7698.141797,842.705048
1480.755799,7105.977043,-7328.038826,1532.190996
1480.756128,6143.709319,-7105.977043,1225.752797
1480.756457,7031.956449,-7550.100608,919.314598
1480.756786,7105.977043,-5329.482782,689.485948
1480.757115,7254.018232,-6069.688724,1225.752797
1480.757444,8068.244768,-5033.400406,1608.800546
1480.757774,7772.162391,-5551.544565,842.705048
1480.758103,6217.729913,-6587.832884,1149.143247
1480.758432,5033.400406,-5699.585753,76.609550
1480.758761,5699.585753,-6291.750507,306.438199
1480.759090,6957.935855,-7402.059420,1455.581446
1480.759419,8142.265362,-8290.306550,2451.505594
1480.759748,8290.306550,-8142.265362,2068.457845
1480.760077,6735.874072,-6291.750507,919.314598
1480.760406,5625.565159,-7994.224174,612.876398
1480.760735,6217.729913,-5033.400406,0.000000
1480.761064,7402.059420,-4737.318029,0.000000
1480.761393,7550.100608,-5551.544565,536.266849
1480.761722,7105.977043,-6439.791695,1302.362347
1480.762051,6883.915261,-7994.224174,1149.143247
1480.762380,6439.791695,-6957.935855,1149.143247
1480.762709,4959.379811,-6513.812290,612.876398
1480.763038,6587.832884,-6883.915261,842.705048
1480.763367,8068.244768,-7846.182985,1838.629195
1480.763696,7105.977043,-6513.812290,1302.362347
1480.764025,6439.791695,-6291.750507,1149.143247
1480.764354,6439.791695,-5107.421000,689.485948
1480.764684,7179.997637,-4811.338623,1149.143247
1480.765013,7846.182985,-6809.894666,1532.190996
1480.765342,7772.162391,-8068.244768,2374.896044
1480.765671,7772.162391,-7105.977043,1532.190996
1480.766000,6439.791695,-7105.977043,383.047749
1480.766329,6217.729913,-7254.018232,1072.533697
1480.766658,6587.832884,-7105.977043,459.657299
1480.766987,5921.647536,-7328.038826,459.657299
1480.767316,5329.482782,-7254.018232,536.266849
1480.767645,5995.668130,-6365.771101,1608.800546
1480.767974,7476.080014,-5625.565159,995.924147
1480.768303,7476.080014,-6735.874072,2068.457845
1480.768632,8290.306550,-5551.544565,2604.724693
1480.768961,9178.553681,-5255.462188,2604.724693
1480.769290,9178.553681,-5477.523971,2604.724693
1480.769619,8068.244768,-4737.318029,1608.800546
1480.769948,6809.894666,-3404.947333,0.000000
1480.770277,5699.585753,-6439.791695,-919.314598
1480.770606,4885.359217,-8808.450710,383.047749
1480.770935,5699.585753,-9622.677246,1685.410096
1480.771265,7031.956449,-9252.574275,1455.581446
1480.771594,7328.038826,-8438.347739,1762.019645
1480.771923,7105.977043,-7624.121203,1762.019645
1480.772252,7105.977043,-8512.368333,1915.238745
1480.772581,6365.771101,-5847.626942,766.095498
1480.772910,6809.894666,-2812.782580,229.828649
1480.773239,8290.306550,-4441.235652,995.924147
1480.773568,9696.697840,-4589.276840,1685.410096
1480.773897,8290.306550,-5699.585753,1532.190996
1480.774226,6217.729913,-6143.709319,153.219100
1480.774555,5403.503377,-6809.894666,0.000000
1480.774884,6069.688724,-9104.533087,995.924147
1480.775213,7179.997637,-9770.718434,1455.581446
1480.775542,7105.977043,-9178.553681,689.485948
1480.775871,5551.544565,-7105.977043,0.000000
1480.776200,5255.462188,-8216.285956,612.876398
1480.776529,6217.729913,-6513.812290,612.876398
1480.776858,7476.080014,-3404.947333,766.095498
1480.777187,8660.409521,-5033.400406,2528.115143
1480.777516,9474.636058,-4959.379811,2757.943793
1480.777845,7994.224174,-4959.379811,1838.629195
1480.778174,6291.750507,-4145.153275,995.924147
1480.778503,5921.647536,-5181.441594,536.266849
1480.778832,6587.832884,-5181.441594,842.705048
1480.779161,5995.668130,-6587.832884,229.828649
1480.779490,6513.812290,-9400.615463,919.314598
1480.779819,7402.059420,-8808.450710,2145.067394
1480.780148,6143.709319,-8586.388927,1302.362347
1480.780477,4959.379811,-7550.100608,76.609550
1480.780806,5329.482782,-5995.668130,919.314598
1480.781135,7698.141797,-7402.059420,612.876398
1480.781464,8808.450710,-6143.709319,1302.362347
1480.781793,8438.347739,-4737.318029,2298.286494
1480.782122,8808.450710,-4589.276840,612.876398
1480.782451,7402.059420,-4367.215058,459.657299
1480.782780,5921.647536,-4959.379811,1685.410096
1480.783109,5921.647536,-5329.482782,76.609550
1480.783438,7402.059420,-6513.812290,919.314598
1480.783767,7772.162391,-8290.306550,2221.676944
1480.784096,8142.265362,-8290.306550,1991.848295
1480.784425,8438.347739,-7994.224174,1838.629195
1480.784754,6809.894666,-6883.915261,1072.533697
1480.785083,6143.709319,-6217.729913,153.219100
1480.785412,6661.853478,-6883.915261,153.219100
1480.785741,7328.038826,-6069.688724,1072.533697
1480.786070,7550.100608,-5403.503377,76.609550
1480.786399,6587.832884,-6513.812290,995.924147
1480.786728,5773.606348,-6735.874072,842.705048
1480.787057,5921.647536,-6217.729913,76.609550
1480.787386,6365.771101,-6957.935855,1149.143247
1480.787715,8142.265362,-7772.162391,1991.848295
1480.788044,8586.388927,-5921.647536,1455.581446
1480.788373,6883.915261,-7476.080014,1608.800546
1480.788702,5625.565159,-6217.729913,0.000000
1480.789032,5995.668130,-4515.256246,-995.924147
1480.789361,6439.791695,-6957.935855,-689.485948
1480.789690,7550.100608,-7550.100608,995.924147
1480.790019,8734.430116,-8068.244768,1532.190996
1480.790348,8068.244768,-7031.956449,1225.752797
1480.790677,6439.791695,-7402.059420,919.314598
1480.791006,6439.791695,-6587.832884,1455.581446
1480.791335,6587.832884,-6439.791695,229.828649
1480.791664,5995.668130,-6365.771101,-229.828649
1480.791993,5773.606348,-4367.215058,766.095498
1480.792322,6439.791695,-6439.791695,1072.533697
1480.792651,7105.977043,-6143.709319,1991.848295
1480.792980,7550.100608,-5995.668130,2604.724693
1480.793309,8512.368333,-7624.121203,2834.553343
1480.793638,8512.368333,-5107.421000,2068.457845
1480.793967,6365.771101,-5773.606348,153.219100
1480.794296,5699.585753,-7105.977043,76.609550
1480.794625,5773.606348,-5921.647536,-229.828649
1480.794954,6069.688724,-7105.977043,689.485948
1480.795283,5625.565159,-7105.977043,842.705048
1480.795612,6809.894666,-7624.121203,1378.971896
1480.795941,7772.162391,-8068.244768,2145.067394
1480.796270,7254.018232,-6513.812290,2451.505594
1480.796599,7105.977043,-6365.771101,1608.800546
1480.796928,7254.018232,-5329.482782,1225.752797
1480.797257,7105.977043,-4663.297435,383.047749
1480.797586,7846.182985,-5477.523971,842.705048
1480.797915,8808.450710,-5107.421000,1762.019645
1480.798244,7920.203579,-5477.523971,842.705048
1480.798573,7105.977043,-7476.080014,2068.457845
1480.798902,5699.585753,-8216.285956,1685.410096
1480.799231,6365.771101,-6661.853478,536.266849
1480.799560,7254.018232,-8660.409521,1915.238745
1480.799889,7550.100608,-8216.285956,2451.505594
1480.800218,7402.059420,-6587.832884,995.924147
1480.800547,6143.709319,-6513.812290,1225.752797
1480.800876,5477.523971,-4145.153275,153.219100
1480.801205,7179.997637,-5625.565159,229.828649
1480.801534,8364.327145,-6883.915261,2604.724693
1480.801863,7920.203579,-7105.977043,1838.629195
1480.802192,7402.059420,-5477.523971,689.485948
1480.802521,4959.379811,-4811.338623,306.438199
1480.802850,5921.647536,-6809.894666,0.000000
1480.803179,7254.018232,-7402.059420,1149.143247
1480.803508,7254.018232,-8142.265362,1991.848295
1480.803837,7254.018232,-7402.059420,1378.971896
1480.804166,7105.977043,-7402.059420,1149.143247
1480.804495,5995.668130,-7179.997637,1302.362347
1480.804824,5773.606348,-6587.832884,76.609550
1480.805153,6513.812290,-4737.318029,536.266849
1480.805482,7698.141797,-5033.400406,536.266849
1480.805811,9770.718434,-6217.729913,1608.800546
1480.806140,9030.512492,-5403.503377,1991.848295
1480.806469,7698.141797,-5477.523971,842.705048
1480.806798,6217.729913,-6735.874072,76.609550
1480.807127,5329.482782,-5699.585753,0.000000
1480.807456,5625.565159,-8068.244768,0.000000
1480.807785,6809.894666,-8808.450710,1915.238745
1480.808114,7105.977043,-7254.018232,1838.629195
1480.808443,6439.791695,-7698.141797,1302.362347
1480.808772,5995.668130,-7698.141797,1302.362347
1480.809101,6439.791695,-5403.503377,1378.971896
1480.809430,6883.915261,-6587.832884,536.266849
1480.809759,7402.059420,-5995.668130,2298.286494
1480.810088,7994.224174,-5699.585753,1532.190996
1480.810417,7772.162391,-6883.915261,842.705048
1480.810746,6069.688724,-6439.791695,766.095498
1480.811075,4959.379811,-4737.318029,0.000000
1480.811404,5773.606348,-6439.791695,-612.876398
1480.811733,7550.100608,-7254.018232,1838.629195
1480.812062,7031.956449,-7476.080014,842.705048
1480.812391,7254.018232,-7994.224174,2451.505594
1480.812720,6809.894666,-7624.121203,1915.238745
1480.813049,6365.771101,-6735.874072,1225.752797
1480.813378,6291.750507,-6291.750507,1072.533697
1480.813707,7772.162391,-5773.606348,1302.362347
1480.814036,9030.512492,-6883.915261,2298.286494
1480.814365,7994.224174,-5551.544565,1455.581446
1480.814694,6291.750507,-4367.215058,842.705048
1480.815023,5699.585753,-6069.688724,0.000000
1480.815352,6291.750507,-5551.544565,1302.362347
1480.815681,6809.894666,-7698.141797,1608.800546
1480.816010,7550.100608,-7624.121203,1302.362347
1480.816339,7254.018232,-6809.894666,2451.505594
1480.816668,6735.874072,-8216.285956,1149.143247
1480.816997,6439.791695,-6439.791695,995.924147
1480.817326,5551.544565,-6143.709319,-306.438199
1480.817655,6587.832884,-7476.080014,76.609550
1480.817984,7254.018232,-6587.832884,919.314598
1480.818313,7476.080014,-6217.729913,1302.362347
1480.818642,6735.874072,-6291.750507,766.095498
1480.818971,6809.894666,-6661.853478,1532.190996
1480.819300,7402.059420,-6439.791695,1378.971896
1480.819629,7772.162391,-6809.894666,1608.800546
1480.819958,7624.121203,-6143.709319,2145.067394
1480.820287,7698.141797,-4959.379811,1072.533697
1480.820616,8364.327145,-5625.565159,1532.190996
1480.820945,7402.059420,-5995.668130,536.266849
1480.821274,6957.935855,-5329.482782,229.828649
1480.821603,7105.977043,-6735.874072,536.266849
1480.821932,7624.121203,-7772.162391,919.314598
1480.822261,7105.977043,-7698.141797,689.485948
1480.822590,5699.585753,-8808.450710,76.609550
1480.822919,5403.503377,-7698.141797,459.657299
1480.823248,6069.688724,-7179.997637,766.095498
1480.823577,7031.956449,-7031.956449,1225.752797
1480.823906,7031.956449,-5995.668130,2145.067394
1480.824235,7550.100608,-5181.441594,1991.848295
1480.824564,7402.059420,-4663.297435,1608.800546
1480.824893,6957.935855,-5625.565159,1302.362347
1480.825222,6735.874072,-5699.585753,306.438199
1480.825551,7624.121203,-6217.729913,1149.143247
1480.825880,8808.450710,-7328.038826,1991.848295
1480.826209,8586.388927,-7994.224174,1378.971896
1480.826538,6217.729913,-7624.121203,0.000000
1480.826867,3923.091493,-6661.853478,-1762.019645
1480.827196,4219.173869,-8512.368333,-995.924147
1480.827525,5403.503377,-7105.977043,612.876398
1480.827854,6883.915261,-8364.327145,1149.143247
1480.828183,7846.182985,-7254.018232,2911.162892
1480.828512,8068.244768,-5847.626942,2987.772442
1480.828841,7624.121203,-6809.894666,2451.505594
1480.829170,7550.100608,-4737.318029,2604.724693
1480.829499,7402.059420,-3330.926739,1608.800546
1480.829828,8438.347739,-4737.318029,1455.581446
1480.830157,7920.203579,-3923.091493,1225.752797
1480.830486,6957.935855,-4589.276840,0.000000
1480.830815,6291.750507,-5847.626942,-612.876398
1480.831144,5329.482782,-7179.997637,0.000000
1480.831473,6143.709319,-9104.533087,1455.581446
1480.831802,7105.977043,-9548.656652,1915.238745
1480.832131,6809.894666,-9992.780217,2221.676944
1480.832460,6217.729913,-8808.450710,689.485948
1480.832789,6217.729913,-8364.327145,1685.410096
1480.833118,6365.771101,-5107.421000,612.876398
1480.833447,7550.100608,-2664.741391,0.000000
1480.833776,8808.450710,-4515.256246,2374.896044
1480.834105,9178.553681,-3997.112087,2145.067394
1480.834434,7698.141797,-3404.947333,1455.581446
1480.834763,6513.812290,-5107.421000,689.485948
1480.835092,7402.059420,-5995.668130,536.266849
1480.835421,7254.018232,-7105.977043,1072.533697
1480.835750,6883.915261,-8216.285956,1838.629195
1480.836079,7031.956449,-8808.450710,1149.143247
1480.836408,7402.059420,-8068.244768,536.266849
1480.836737,6513.812290,-7920.203579,153.219100
1480.837066,5255.462188,-7846.182985,306.438199
1480.837395,5847.626942,-5921.647536,536.266849
1480.837724,7624.121203,-5625.565159,229.828649
1480.838053,8808.450710,-6809.894666,2145.067394
1480.838382,8882.471304,-5181.441594,1685.410096
1480.838711,7772.162391,-6217.729913,1532.190996
1480.839040,6513.812290,-6439.791695,459.657299
1480.839369,5255.462188,-5625.565159,0.000000
1480.839698,5995.668130,-5995.668130,76.609550
1480.840027,6439.791695,-7179.997637,536.266849
1480.840356,7105.977043,-6069.688724,1302.362347
1480.840685,7402.059420,-7846.182985,1149.143247
1480.841014,7254.018232,-8438.347739,919.314598
1480.841343,7476.080014,-6587.832884,689.485948
1480.841672,7476.080014,-7105.977043,229.828649
1480.842001,7402.059420,-5921.647536,536.266849
1480.842330,7105.977043,-6217.729913,0.000000
1480.842659,6957.935855,-5551.544565,536.266849
1480.842988,6069.688724,-4737.318029,-459.657299
1480.843317,6069.688724,-5773.606348,689.485948
1480.843646,6883.915261,-5625.565159,2068.457845
1480.843975,7994.224174,-7624.121203,1838.629195
1480.844304,7846.182985,-6439.791695,2604.724693
1480.844633,6365.771101,-4885.359217,1072.533697
1480.844962,6439.791695,-7105.977043,919.314598
1480.845291,6291.750507,-5033.400406,1072.533697
1480.845620,6439.791695,-5107.421000,-306.438199
1480.845949,7105.977043,-7476.080014,842.705048
1480.846278,7698.141797,-5699.585753,2068.457845
1480.846607,7105.977043,-8142.265362,-383.047749
1480.846936,6217.729913,-8290.306550,383.047749
1480.847265,5477.523971,-7328.038826,459.657299
1480.847594,5921.647536,-7772.162391,-536.266849
1480.847923,5847.626942,-7328.038826,919.314598
1480.848252,6735.874072,-6661.853478,1608.800546
1480.848581,8512.368333,-5625.565159,1302.362347
1480.848910,8364.327145,-5107.421000,2528.115143
1480.849239,7476.080014,-4811.338623,1455.581446
1480.849568,8512.368333,-5329.482782,1225.752797
1480.849897,8808.450710,-5699.585753,1838.629195
1480.850226,9104.533087,-6661.853478,1838.629195
1480.850555,8216.285956,-6587.832884,919.314598
1480.850884,7254.018232,-7994.224174,766.095498
1480.851213,5699.585753,-8216.285956,536.266849
1480.851542,4219.173869,-7105.977043,-536.266849
1480.851871,3404.947333,-6809.894666,-1225.752797
1480.852200,5477.523971,-7550.100608,229.828649
1480.852529,7846.182985,-6957.935855,2834.553343
1480.852858,8512.368333,-6513.812290,2451.505594
1480.853187,7550.100608,-5477.523971,2451.505594
1480.853516,7698.141797,-3849.070898,1838.629195
1480.853845,8734.430116,-4737.318029,2298.286494
1480.854174,8734.430116,-5773.606348,2451.505594
1480.854503,7476.080014,-5551.544565,1762.019645
1480.854832,6439.791695,-6291.750507,536.266849
1480.855161,5477.523971,-6809.894666,0.000000
1480.855490,5329.482782,-8068.244768,459.657299
1480.855819,5477.523971,-8142.265362,612.876398
1480.856148,6439.791695,-8882.471304,1302.362347
1480.856477,7772.162391,-8512.368333,1838.629195
1480.856806,7920.203579,-7920.203579,2068.457845
1480.857135,7105.977043,-6069.688724,536.266849
1480.857464,6587.832884,-5329.482782,1149.143247
1480.857793,6957.935855,-5255.462188,842.705048
1480.858122,8364.327145,-4589.276840,1532.190996
1480.858451,8290.306550,-3775.050304,919.314598
1480.858780,6661.853478,-6365.771101,2145.067394
1480.859109,7550.100608,-8216.285956,2681.334243
1480.859438,6661.853478,-7402.059420,1685.410096
1480.859767,4737.318029,-7476.080014,1225.752797
1480.860096,5181.441594,-8660.409521,919.314598
1480.860425,6735.874072,-8290.306550,1762.019645
1480.860754,6809.894666,-6661.853478,1149.143247
1480.861083,5847.626942,-6365.771101,766.095498
1480.861412,6439.791695,-5551.544565,536.266849
1480.861741,7105.977043,-4293.194464,536.266849
1480.862070,7328.038826,-5329.482782,842.705048
1480.862399,8364.327145,-6439.791695,2145.067394
1480.862728,8808.450710,-5329.482782,1762.019645
1480.863057,7920.203579,-6957.935855,1225.752797
1480.863386,6735.874072,-7624.121203,2068.457845
1480.863715,6661.853478,-6735.874072,689.485948
1480.864044,6809.894666,-7550.100608,612.876398
1480.864373,6291.750507,-7550.100608,1991.848295
1480.864702,6809.894666,-6957.935855,1608.800546
1480.865031,7328.038826,-5921.647536,995.924147
1480.865360,6143.709319,-5329.482782,229.828649
1480.865689,6809.894666,-4293.194464,1378.971896
1480.866018,9104.533087,-5551.544565,1378.971896
1480.866347,9104.533087,-5773.606348,1149.143247
1480.866676,7179.997637,-6291.750507,1455.581446
1480.867005,7031.956449,-5699.585753,0.000000
1480.867334,5773.606348,-7105.977043,-689.485948
1480.867663,4737.318029,-7105.977043,0.000000
1480.867992,5551.544565,-8068.244768,689.485948
1480.868321,7920.203579,-8290.306550,919.314598
1480.868650,7772.162391,-7105.977043,1685.410096
1480.868979,5699.585753,-7550.100608,1225.752797
1480.869308,5995.668130,-7402.059420,1455.581446
1480.869637,6957.935855,-4441.235652,0.000000
1480.869966,6883.915261,-4293.194464,0.000000
1480.870295,7698.141797,-4663.297435,919.314598
1480.870624,9178.553681,-5477.523971,306.438199
1480.870953,7328.038826,-6217.729913,-766.095498
1480.871282,5773.606348,-6809.894666,-536.266849
1480.871611,4663.297435,-8290.306550,-689.485948
1480.871940,5477.523971,-8290.306550,-229.828649
1480.872269,7624.121203,-10732.986159,1225.752797
1480.872598,9400.615463,-8734.430116,2145.067394
1480.872927,9326.594869,-5921.647536,1455.581446
1480.873256,7328.038826,-6883.915261,689.485948
1480.873585,6143.709319,-6513.812290,536.266849
1480.873914,7920.203579,-3701.029710,459.657299
1480.874243,7920.203579,-4885.359217,0.000000
1480.874572,7179.997637,-5921.647536,1838.629195
1480.874901,6883.915261,-6291.750507,1762.019645
1480.875230,6365.771101,-6587.832884,-536.266849
1480.875559,4959.379811,-7550.100608,-459.657299
1480.875888,5033.400406,-7179.997637,0.000000
1480.876218,6291.750507,-8808.450710,229.828649
1480.876547,7105.977043,-9104.533087,459.657299
1480.876876,6661.853478,-7772.162391,1608.800546
1480.877205,6957.935855,-6365.771101,1302.362347
1480.877534,7994.224174,-5255.462188,1149.143247
1480.877863,6365.771101,-4737.318029,1991.848295
1480.878192,7550.100608,-4663.297435,1532.190996
1480.878521,9474.636058,-6069.688724,2757.943793
1480.878851,8808.450710,-4441.235652,2528.115143
1480.879180,7476.080014,-5995.668130,2221.676944
1480.879509,6587.832884,-6661.853478,1225.752797
1480.879838,5477.523971,-5995.668130,459.657299
1480.880167,4959.379811,-7031.956449,229.828649
1480.880496,5699.585753,-6809.894666,842.705048
1480.880825,6143.709319,-7698.141797,1149.143247
1480.881154,6957.935855,-8216.285956,1149.143247
1480.881484,6883.915261,-7476.080014,2298.286494
1480.881813,7698.141797,-6661.853478,2221.676944
1480.882142,7846.182985,-6143.709319,2451.505594
1480.882471,7846.182985,-5625.565159,2068.457845
1480.882800,8216.285956,-4663.297435,2298.286494
1480.883129,7476.080014,-4293.194464,0.000000
1480.883458,5699.585753,-5773.606348,919.314598
1480.883787,5403.503377,-6069.688724,766.095498
1480.884117,5995.668130,-7254.018232,306.438199
1480.884446,7031.956449,-7994.224174,1685.410096
1480.884775,7550.100608,-8438.347739,1225.752797
1480.885104,7402.059420,-8068.244768,383.047749
1480.885433,6513.812290,-8882.471304,612.876398
1480.885762,6809.894666,-7105.977043,0.000000
1480.886091,7328.038826,-5625.565159,-919.314598
1480.886421,7328.038826,-5329.482782,76.609550
1480.886750,7624.121203,-4589.276840,-612.876398
1480.887079,5995.668130,-4293.194464,-842.705048
1480.887408,5847.626942,-5403.503377,-842.705048
1480.887737,7179.997637,-6809.894666,0.000000
1480.888066,8734.430116,-7328.038826,1149.143247
1480.888395,8438.347739,-7402.059420,1072.533697
1480.888724,7476.080014,-7772.162391,0.000000
1480.889054,6809.894666,-7698.141797,-459.657299
1480.889383,6217.729913,-7031.956449,-1762.019645
1480.889712,5181.441594,-6587.832884,-2451.505594
1480.890041,5921.647536,-5773.606348,-1762.019645
1480.890370,7031.956449,-6143.709319,-2145.067394
1480.890699,8290.306550,-7254.018232,-1378.971896
1480.891028,8808.450710,-7254.018232,229.828649
1480.891357,8438.347739,-6069.688724,-1378.971896
1480.891687,5995.668130,-7698.141797,-2221.676944
1480.892016,5255.462188,-7698.141797,-689.485948
1480.892345,5699.585753,-4737.318029,-2528.115143
1480.892674,7105.977043,-5625.565159,-3217.601092
1480.893003,7105.977043,-6809.894666,153.219100
1480.893332,7476.080014,-5921.647536,383.047749
1480.893661,8142.265362,-7772.162391,-1685.410096
1480.893990,6143.709319,-6735.874072,-306.438199
1480.894320,6587.832884,-6439.791695,0.000000
1480.894649,9326.594869,-6513.812290,-1685.410096
1480.894978,7772.162391,-4367.215058,-2298.286494
1480.895307,6143.709319,-4959.379811,-2451.505594
1480.895636,7105.977043,-5773.606348,-4213.525239
1480.895965,5255.462188,-4811.338623,-4673.182538
1480.896294,3404.947333,-7476.080014,-2987.772442
1480.896624,6143.709319,-8808.450710,-2451.505594
1480.896953,8290.306550,-7920.203579,-1455.581446
1480.897282,7846.182985,-8956.491898,76.609550
1480.897611,8216.285956,-7698.141797,536.266849
1480.897940,8364.327145,-5403.503377,-842.705048
1480.898269,6365.771101,-5033.400406,-2834.553343
1480.898598,4589.276840,-6069.688724,-2834.553343
1480.898927,6069.688724,-6587.832884,-2298.286494
1480.899257,7550.100608,-4737.318029,-2298.286494
1480.899586,7624.121203,-5625.565159,-1991.848295
1480.899915,7624.121203,-5921.647536,-1608.800546
1480.900244,7105.977043,-4885.359217,-3600.648841
1480.900573,5477.523971,-7179.997637,-3983.696590
1480.900902,5699.585753,-8290.306550,-2298.286494
1480.901231,6661.853478,-7772.162391,-2451.505594
1480.901560,7920.203579,-6513.812290,-2068.457845
1480.901890,8808.450710,-6217.729913,-919.314598
1480.902219,9104.533087,-7254.018232,-766.095498
1480.902548,7402.059420,-6957.935855,-1762.019645
1480.902877,6513.812290,-7105.977043,-766.095498
1480.903206,7550.100608,-5847.626942,-689.485948
1480.903535,8290.306550,-6291.750507,-1378.971896
1480.903864,7254.018232,-6735.874072,-536.266849
1480.904193,6661.853478,-5329.482782,-1532.190996
1480.904523,6513.812290,-4885.359217,-3830.477490
1480.904852,5107.421000,-3775.050304,-4443.353888
1480.905181,4663.297435,-6365.771101,-4443.353888
1480.905510,5625.565159,-7920.203579,-3370.820191
1480.905839,5995.668130,-9918.759623,-2604.724693
1480.906168,6143.709319,-10732.986159,-1302.362347
1480.906497,7550.100608,-8290.306550,-689.485948
1480.906827,8586.388927,-6217.729913,-383.047749
1480.907156,7920.203579,-5477.523971,-1608.800546
1480.907485,7772.162391,-6513.812290,0.000000
1480.907814,7994.224174,-5625.565159,-689.485948
1480.908143,7698.141797,-4885.359217,-1915.238745
1480.908472,6735.874072,-5625.565159,-919.314598
1480.908801,6587.832884,-5847.626942,-1915.238745
1480.909130,6809.894666,-7031.956449,-1915.238745
1480.909460,6217.729913,-5773.606348,-1838.629195
1480.909789,6217.729913,-5255.462188,-2604.724693
1480.910118,7031.956449,-7105.977043,-2987.772442
1480.910447,6661.853478,-7402.059420,-2757.943793
1480.910776,5699.585753,-8068.244768,-2528.115143
1480.911105,6291.750507,-8660.409521,-1991.848295
1480.911434,6069.688724,-8882.471304,-383.047749
1480.911763,5995.668130,-9178.553681,0.000000
1480.912093,7105.977043,-6365.771101,766.095498
1480.912422,8808.450710,-3404.947333,536.266849
1480.912751,8734.430116,-4219.173869,153.219100
1480.913080,8586.388927,-4737.318029,-459.657299
1480.913409,7105.977043,-5033.400406,-1685.410096
1480.913738,6513.812290,-5403.503377,-2911.162892
