#time,accel_x,accel_y,accel_z
1367.610087,6735.874072,-7031.956449,919.314598
1367.610418,7179.997637,-7031.956449,1149.143247
1367.610748,7105.977043,-6217.729913,1838.629195
1367.611078,7105.977043,-6365.771101,919.314598
1367.611408,7179.997637,-6439.791695,1149.143247
1367.611738,7105.977043,-6587.832884,1072.533697
1367.612068,7105.977043,-6587.832884,995.924147
1367.612398,6809.894666,-6439.791695,1378.971896
1367.612729,6957.935855,-6513.812290,1149.143247
1367.613059,6957.935855,-6661.853478,1455.581446
1367.613389,6883.915261,-6291.750507,995.924147
1367.613719,7105.977043,-6439.791695,1225.752797
1367.614049,7105.977043,-6143.709319,689.485948
1367.614379,6661.853478,-6809.894666,1149.143247
1367.614709,6735.874072,-6513.812290,1149.143247
1367.615040,7105.977043,-6809.894666,1072.533697
1367.615370,7402.059420,-6069.688724,995.924147
1367.615700,6883.915261,-6365.771101,1149.143247
1367.616030,6809.894666,-7031.956449,1302.362347
1367.616360,7402.059420,-7031.956449,842.705048
1367.616690,7031.956449,-6809.894666,1225.752797
1367.617020,7105.977043,-6809.894666,995.924147
1367.617350,6735.874072,-6587.832884,995.924147
1367.617681,7105.977043,-6735.874072,919.314598
1367.618011,7105.977043,-6217.729913,1149.143247
1367.618341,7254.018232,-6291.750507,1685.410096
1367.618671,7476.080014,-6143.709319,1072.533697
1367.619001,7328.038826,-6661.853478,1072.533697
1367.619331,7179.997637,-6587.832884,1072.533697
1367.619661,7402.059420,-5995.668130,919.314598
1367.619992,7624.121203,-6439.791695,612.876398
1367.620322,7179.997637,-6217.729913,1149.143247
1367.620652,7105.977043,-6513.812290,1072.533697
1367.620982,7105.977043,-6217.729913,1072.533697
1367.621312,7031.956449,-6217.729913,1378.971896
1367.621642,6661.853478,-6587.832884,1072.533697
1367.621972,6587.832884,-6513.812290,842.705048
1367.622302,7031.956449,-6661.853478,1302.362347
1367.622633,6735.874072,-6587.832884,1378.971896
1367.622963,6957.935855,-6513.812290,1532.190996
1367.623293,6735.874072,-6957.935855,1532.190996
1367.623623,6735.874072,-6809.894666,1225.752797
1367.623953,6883.915261,-6883.915261,612.876398
1367.624283,6587.832884,-6735.874072,1225.752797
1367.624613,6291.750507,-6957.935855,1225.752797
1367.624944,6735.874072,-7031.956449,919.314598
1367.625274,7105.977043,-6661.853478,1302.362347
1367.625604,6809.894666,-6587.832884,1072.533697
1367.625934,7328.038826,-6513.812290,995.924147
1367.626264,6957.935855,-6513.812290,842.705048
1367.626594,7031.956449,-6291.750507,842.705048
1367.626924,7402.059420,-6439.791695,1378.971896
1367.627254,7105.977043,-6439.791695,842.705048
1367.627585,7550.100608,-6439.791695,995.924147
1367.627915,7105.977043,-6217.729913,1302.362347
1367.628245,6957.935855,-6217.729913,919.314598
1367.628575,6883.915261,-6587.832884,919.314598
1367.628905,6735.874072,-6735.874072,1149.143247
1367.629235,6661.853478,-6809.894666,612.876398
1367.629565,6957.935855,-6735.874072,919.314598
1367.629896,6661.853478,-6735.874072,1149.143247
1367.630226,6513.812290,-6365.771101,459.657299
1367.630556,6735.874072,-6217.729913,919.314598
1367.630886,6883.915261,-6587.832884,1225.752797
1367.631216,6809.894666,-6735.874072,995.924147
1367.631546,7105.977043,-6587.832884,612.876398
1367.631876,6513.812290,-6365.771101,689.485948
1367.632206,7476.080014,-6735.874072,919.314598
1367.632537,7179.997637,-6587.832884,995.924147
1367.632867,6957.935855,-6661.853478,689.485948
1367.633197,7179.997637,-6661.853478,842.705048
1367.633527,7328.038826,-6883.915261,1378.971896
1367.633857,7254.018232,-6809.894666,689.485948
1367.634187,7476.080014,-6291.750507,1378.971896
1367.634517,7402.059420,-5995.668130,1149.143247
1367.634848,7105.977043,-6069.688724,919.314598
1367.635178,7105.977043,-6069.688724,995.924147
1367.635508,7105.977043,-6439.791695,1149.143247
1367.635838,7179.997637,-6143.709319,1149.143247
1367.636168,6661.853478,-6365.771101,1149.143247
1367.636498,7179.997637,-6069.688724,1302.362347
1367.636828,6883.915261,-6661.853478,919.314598
1367.637158,6883.915261,-6735.874072,995.924147
1367.637489,6809.894666,-6957.935855,1378.971896
1367.637819,6661.853478,-6365.771101,842.705048
1367.638149,6809.894666,-6587.832884,995.924147
1367.638479,6957.935855,-6883.915261,919.314598
1367.638809,6735.874072,-6661.853478,919.314598
1367.639139,6513.812290,-6439.791695,995.924147
1367.639469,6957.935855,-7179.997637,1149.143247
1367.639800,6957.935855,-6587.832884,1685.410096
1367.640130,7105.977043,-6291.750507,1072.533697
1367.640460,7254.018232,-6291.750507,1225.752797
1367.640790,7031.956449,-6587.832884,919.314598
1367.641120,7476.080014,-6661.853478,1302.362347
1367.641450,7105.977043,-6661.853478,1072.533697
1367.641780,7105.977043,-6513.812290,1072.533697
1367.642111,7105.977043,-6365.771101,689.485948
1367.642441,6513.812290,-6735.874072,689.485948
1367.642771,6883.915261,-5995.668130,1149.143247
1367.643101,7105.977043,-6291.750507,995.924147
1367.643431,7031.956449,-6587.832884,1302.362347
1367.643761,6735.874072,-6513.812290,919.314598
1367.644091,6587.832884,-6587.832884,1455.581446
1367.644421,6809.894666,-7031.956449,689.485948
1367.644752,6809.894666,-6809.894666,1302.362347
1367.645082,6809.894666,-6809.894666,919.314598
1367.645412,6957.935855,-7105.977043,1225.752797
1367.645742,7031.956449,-6587.832884,919.314598
1367.646072,6809.894666,-6957.935855,919.314598
1367.646402,6291.750507,-6217.729913,612.876398
1367.646732,6809.894666,-6883.915261,766.095498
1367.647063,6735.874072,-6291.750507,919.314598
1367.647393,7031.956449,-6661.853478,1532.190996
1367.647723,7402.059420,-6365.771101,766.095498
1367.648053,7254.018232,-6143.709319,1072.533697
1367.648383,7402.059420,-6513.812290,1072.533697
1367.648713,7550.100608,-6661.853478,612.876398
1367.649043,7179.997637,-6143.709319,1149.143247
1367.649373,7550.100608,-6217.729913,919.314598
1367.649704,7254.018232,-6217.729913,1072.533697
1367.650034,7105.977043,-6439.791695,1302.362347
1367.650364,7772.162391,-6217.729913,995.924147
1367.650694,7105.977043,-6143.709319,995.924147
1367.651024,7031.956449,-6439.791695,1149.143247
1367.651354,6735.874072,-6513.812290,306.438199
1367.651684,6661.853478,-6587.832884,1455.581446
1367.652015,7031.956449,-6809.894666,1225.752797
1367.652345,7179.997637,-6735.874072,1225.752797
1367.652675,6957.935855,-6661.853478,1149.143247
1367.653005,6587.832884,-6513.812290,1225.752797
1367.653335,6957.935855,-6365.771101,919.314598
1367.653665,6735.874072,-6735.874072,842.705048
1367.653995,6809.894666,-7105.977043,1225.752797
1367.654325,7179.997637,-7031.956449,919.314598
1367.654656,7624.121203,-5921.647536,689.485948
1367.654986,6735.874072,-6809.894666,766.095498
1367.655316,6809.894666,-6365.771101,919.314598
1367.655646,7254.018232,-6143.709319,919.314598
1367.655976,6809.894666,-6587.832884,995.924147
1367.656306,6587.832884,-6217.729913,1378.971896
1367.656636,7105.977043,-6217.729913,1225.752797
1367.656967,7105.977043,-6439.791695,919.314598
1367.657297,6735.874072,-6143.709319,1149.143247
1367.657627,6587.832884,-6365.771101,612.876398
1367.657957,6809.894666,-6587.832884,1149.143247
1367.658287,6809.894666,-6513.812290,1072.533697
1367.658617,6587.832884,-6735.874072,1225.752797
1367.658947,6587.832884,-6809.894666,995.924147
1367.659277,6735.874072,-7031.956449,1225.752797
1367.659608,6661.853478,-6587.832884,919.314598
1367.659938,6439.791695,-7105.977043,995.924147
1367.660268,6883.915261,-6587.832884,1149.143247
1367.660598,6661.853478,-6735.874072,1149.143247
1367.660928,7328.038826,-6291.750507,612.876398
1367.661258,6735.874072,-6513.812290,919.314598
1367.661588,6735.874072,-6883.915261,842.705048
1367.661919,7105.977043,-6735.874072,1302.362347
1367.662249,7402.059420,-6217.729913,1149.143247
1367.662579,7402.059420,-6809.894666,842.705048
1367.662909,7254.018232,-6365.771101,766.095498
1367.663239,7105.977043,-6661.853478,766.095498
1367.663569,7105.977043,-6957.935855,766.095498
1367.663899,7179.997637,-5847.626942,842.705048
1367.664229,7328.038826,-6291.750507,1072.533697
1367.664560,7254.018232,-6143.709319,995.924147
1367.664890,7105.977043,-6587.832884,1149.143247
1367.665220,7105.977043,-5699.585753,1225.752797
1367.665550,7328.038826,-6217.729913,1455.581446
1367.665880,6587.832884,-6365.771101,766.095498
1367.666210,6661.853478,-6513.812290,766.095498
1367.666540,7105.977043,-6513.812290,1302.362347
1367.666871,7031.956449,-6291.750507,1378.971896
1367.667201,7105.977043,-6365.771101,842.705048
1367.667531,6661.853478,-6809.894666,1072.533697
1367.667861,6735.874072,-7031.956449,1072.533697
1367.668191,6735.874072,-7031.956449,612.876398
1367.668521,6809.894666,-6661.853478,1149.143247
1367.668851,6957.935855,-6809.894666,766.095498
1367.669181,7105.977043,-6735.874072,1532.190996
1367.669512,7328.038826,-6143.709319,1225.752797
1367.669842,7105.977043,-6587.832884,1225.752797
1367.670172,7105.977043,-6217.729913,1072.533697
1367.670502,6883.915261,-6957.935855,1302.362347
1367.670832,7031.956449,-6217.729913,1072.533697
1367.671162,7179.997637,-6143.709319,1149.143247
1367.671492,7105.977043,-6217.729913,995.924147
1367.671823,6661.853478,-6291.750507,1225.752797
1367.672153,6809.894666,-6587.832884,995.924147
1367.672483,6883.915261,-6439.791695,766.095498
1367.672813,7105.977043,-6809.894666,1302.362347
1367.673143,6587.832884,-6513.812290,1149.143247
1367.673473,6291.750507,-6809.894666,919.314598
1367.673803,6661.853478,-6661.853478,919.314598
1367.674133,6587.832884,-6661.853478,1302.362347
1367.674463,7179.997637,-6883.915261,766.095498
1367.674792,6883.915261,-7105.977043,1302.362347
1367.675122,6809.894666,-6957.935855,1225.752797
1367.675451,6661.853478,-7031.956449,995.924147
1367.675781,6513.812290,-6365.771101,919.314598
1367.676110,6217.729913,-7031.956449,1302.362347
1367.676440,6957.935855,-7105.977043,995.924147
1367.676769,7179.997637,-6365.771101,1072.533697
1367.677099,7328.038826,-6291.750507,766.095498
1367.677429,7254.018232,-6661.853478,919.314598
1367.677758,7105.977043,-6439.791695,842.705048
1367.678088,7105.977043,-6735.874072,766.095498
1367.678417,7105.977043,-6365.771101,612.876398
1367.678747,7402.059420,-5921.647536,919.314598
1367.679076,7328.038826,-5995.668130,612.876398
1367.679406,7254.018232,-6217.729913,1532.190996
1367.679736,7179.997637,-5995.668130,1072.533697
1367.680065,7105.977043,-6291.750507,995.924147
1367.680395,6883.915261,-5995.668130,1072.533697
1367.680724,6735.874072,-6587.832884,1072.533697
1367.681054,6957.935855,-6587.832884,995.924147
1367.681383,7031.956449,-6587.832884,995.924147
1367.681713,6957.935855,-6513.812290,919.314598
1367.682043,7105.977043,-6809.894666,1149.143247
1367.682372,6883.915261,-6883.915261,1225.752797
1367.682702,7105.977043,-6883.915261,76.609550
1367.683031,6809.894666,-7031.956449,842.705048
1367.683361,6809.894666,-6883.915261,1225.752797
1367.683690,7402.059420,-6883.915261,995.924147
1367.684020,7328.038826,-6513.812290,1149.143247
1367.684349,7031.956449,-6513.812290,1072.533697
1367.684679,7105.977043,-6365.771101,995.924147
1367.685009,7031.956449,-6587.832884,1302.362347
1367.685338,6957.935855,-6513.812290,995.924147
1367.685668,7105.977043,-6291.750507,1225.752797
1367.685997,7402.059420,-6143.709319,1149.143247
1367.686327,7031.956449,-6513.812290,919.314598
1367.686656,6735.874072,-6069.688724,1149.143247
1367.686986,6957.935855,-6513.812290,995.924147
1367.687316,6883.915261,-6291.750507,995.924147
1367.687645,6587.832884,-6291.750507,919.314598
1367.687975,6735.874072,-7031.956449,1532.190996
1367.688304,7031.956449,-6513.812290,1149.143247
1367.688634,6883.915261,-6809.894666,689.485948
1367.688963,6735.874072,-6661.853478,995.924147
1367.689293,6365.771101,-6661.853478,766.095498
1367.689623,6513.812290,-6661.853478,919.314598
1367.689952,6587.832884,-7179.997637,536.266849
1367.690282,6661.853478,-6809.894666,919.314598
1367.690611,6883.915261,-6957.935855,842.705048
1367.690941,6957.935855,-7179.997637,1072.533697
1367.691270,7031.956449,-6735.874072,1302.362347
1367.691600,7105.977043,-6513.812290,766.095498
1367.691929,7179.997637,-6661.853478,459.657299
1367.692259,7328.038826,-6291.750507,995.924147
1367.692589,7105.977043,-6217.729913,536.266849
1367.692918,7179.997637,-6513.812290,1149.143247
1367.693248,7328.038826,-5921.647536,995.924147
1367.693577,7402.059420,-6217.729913,919.314598
1367.693907,7105.977043,-6217.729913,919.314598
1367.694236,7105.977043,-6735.874072,1149.143247
1367.694566,7105.977043,-6365.771101,919.314598
1367.694896,6957.935855,-6291.750507,919.314598
1367.695225,6957.935855,-6291.750507,995.924147
1367.695555,7105.977043,-6735.874072,1225.752797
1367.695884,7105.977043,-6217.729913,1149.143247
1367.696214,6883.915261,-6513.812290,1072.533697
1367.696543,6957.935855,-6587.832884,1302.362347
1367.696873,6957.935855,-6735.874072,1149.143247
1367.697203,6957.935855,-6439.791695,1225.752797
1367.697532,6735.874072,-6735.874072,919.314598
1367.697862,6809.894666,-6513.812290,842.705048
1367.698191,6735.874072,-6883.915261,1072.533697
1367.698521,7031.956449,-7402.059420,1838.629195
1367.698850,7846.182985,-6143.709319,1225.752797
1367.699180,7402.059420,-6439.791695,842.705048
1367.699509,7254.018232,-6809.894666,1149.143247
1367.699839,7105.977043,-6809.894666,1072.533697
1367.700169,7476.080014,-6069.688724,612.876398
1367.700498,7031.956449,-6439.791695,612.876398
1367.700828,7402.059420,-6439.791695,1072.533697
1367.701157,7105.977043,-6661.853478,1225.752797
1367.701487,6883.915261,-6439.791695,1225.752797
1367.701816,6809.894666,-6143.709319,995.924147
1367.702146,6957.935855,-6365.771101,1072.533697
1367.702476,6661.853478,-7105.977043,1149.143247
1367.702805,6439.791695,-6513.812290,995.924147
1367.703135,6735.874072,-7031.956449,1455.581446
1367.703464,6587.832884,-6587.832884,1532.190996
1367.703794,6661.853478,-6513.812290,766.095498
1367.704123,6883.915261,-7105.977043,1149.143247
1367.704453,6809.894666,-7105.977043,689.485948
1367.704783,6957.935855,-7105.977043,842.705048
1367.705112,6735.874072,-7031.956449,1149.143247
1367.705442,6513.812290,-7105.977043,1302.362347
1367.705771,6587.832884,-7105.977043,919.314598
1367.706101,7105.977043,-6661.853478,1302.362347
1367.706430,6957.935855,-6587.832884,1225.752797
1367.706760,7031.956449,-6439.791695,766.095498
1367.707089,7105.977043,-6513.812290,995.924147
1367.707419,7105.977043,-6587.832884,919.314598
1367.707749,7179.997637,-5921.647536,1302.362347
1367.708078,7328.038826,-5921.647536,1149.143247
1367.708408,7550.100608,-6143.709319,995.924147
1367.708737,7105.977043,-6217.729913,1532.190996
1367.709067,7402.059420,-6291.750507,1149.143247
1367.709396,7105.977043,-6735.874072,1072.533697
1367.709726,6957.935855,-6069.688724,766.095498
1367.710056,6661.853478,-6587.832884,1225.752797
1367.710385,6809.894666,-6587.832884,919.314598
1367.710715,7179.997637,-6883.915261,536.266849
1367.711044,7105.977043,-6587.832884,766.095498
1367.711374,6957.935855,-6587.832884,766.095498
1367.711703,7254.018232,-6365.771101,1225.752797
1367.712033,7031.956449,-6809.894666,919.314598
1367.712363,6809.894666,-6365.771101,1532.190996
1367.712692,7105.977043,-6809.894666,919.314598
1367.713022,7476.080014,-7105.977043,995.924147
1367.713351,7328.038826,-6883.915261,1072.533697
1367.713681,7328.038826,-7105.977043,1072.533697
1367.714010,7105.977043,-6661.853478,842.705048
1367.714340,7105.977043,-6587.832884,1149.143247
1367.714669,6883.915261,-6587.832884,995.924147
1367.714999,7254.018232,-6439.791695,1072.533697
1367.715329,7550.100608,-5921.647536,919.314598
1367.715658,7254.018232,-6365.771101,1072.533697
1367.715988,6957.935855,-6143.709319,1149.143247
1367.716317,6883.915261,-6365.771101,1072.533697
1367.716647,6809.894666,-6513.812290,995.924147
1367.716976,7105.977043,-6809.894666,1302.362347
1367.717306,6587.832884,-6735.874072,919.314598
1367.717636,6735.874072,-7031.956449,1149.143247
1367.717965,6957.935855,-7105.977043,1455.581446
1367.718295,7179.997637,-6365.771101,1378.971896
1367.718624,6735.874072,-6957.935855,842.705048
1367.718954,6291.750507,-6809.894666,1378.971896
1367.719283,6735.874072,-7105.977043,1072.533697
1367.719613,6365.771101,-6661.853478,1149.143247
1367.719943,6513.812290,-6735.874072,995.924147
1367.720272,6883.915261,-7105.977043,919.314598
1367.720602,7105.977043,-6735.874072,842.705048
1367.720931,7105.977043,-6513.812290,1072.533697
1367.721261,7328.038826,-6809.894666,842.705048
1367.721590,7179.997637,-6513.812290,1378.971896
1367.721920,6957.935855,-6883.915261,919.314598
1367.722249,7328.038826,-6587.832884,995.924147
1367.722579,7254.018232,-6291.750507,1532.190996
1367.722909,7328.038826,-6143.709319,919.314598
1367.723238,7179.997637,-6291.750507,1225.752797
1367.723568,6957.935855,-5625.565159,1225.752797
1367.723897,7254.018232,-5329.482782,766.095498
1367.724227,7846.182985,-5255.462188,1149.143247
1367.724556,8290.306550,-5403.503377,1378.971896
1367.724886,7994.224174,-5995.668130,1225.752797
1367.725216,7402.059420,-6143.709319,842.705048
1367.725545,6217.729913,-7105.977043,229.828649
1367.725875,6143.709319,-6957.935855,306.438199
1367.726204,6809.894666,-7105.977043,995.924147
1367.726534,7920.203579,-7328.038826,1378.971896
1367.726863,8290.306550,-6513.812290,1455.581446
1367.727193,8364.327145,-5329.482782,1532.190996
1367.727523,8512.368333,-4293.194464,1225.752797
1367.727852,7994.224174,-4737.318029,919.314598
1367.728182,7920.203579,-4145.153275,1149.143247
1367.728511,8512.368333,-3627.009116,842.705048
1367.728841,8882.471304,-4441.235652,1455.581446
1367.729170,8660.409521,-4145.153275,612.876398
1367.729500,8068.244768,-5551.544565,536.266849
1367.729829,8364.327145,-4441.235652,536.266849
1367.730159,8882.471304,-5033.400406,383.047749
1367.730489,9030.512492,-5921.647536,1072.533697
1367.730818,8512.368333,-5625.565159,919.314598
1367.731148,8142.265362,-6365.771101,536.266849
1367.731477,8142.265362,-5181.441594,1072.533697
1367.731807,7476.080014,-5033.400406,1072.533697
1367.732136,8364.327145,-5033.400406,1378.971896
1367.732466,8290.306550,-4515.256246,1302.362347
1367.732796,8808.450710,-4663.297435,1225.752797
1367.733125,9178.553681,-2960.823768,1072.533697
1367.733455,9474.636058,-3256.906145,1838.629195
1367.733784,9844.739029,-2516.700203,1532.190996
1367.734114,9770.718434,-2812.782580,1532.190996
1367.734443,9696.697840,-3478.967927,1762.019645
1367.734773,9474.636058,-3478.967927,1378.971896
1367.735103,9474.636058,-4589.276840,1685.410096
1367.735432,9474.636058,-5255.462188,1378.971896
1367.735762,8956.491898,-5921.647536,1302.362347
1367.736091,8142.265362,-5699.585753,919.314598
1367.736421,7920.203579,-5403.503377,842.705048
1367.736750,7105.977043,-6587.832884,766.095498
1367.737080,7254.018232,-6143.709319,766.095498
1367.737409,7624.121203,-5403.503377,536.266849
1367.737739,7920.203579,-5181.441594,306.438199
1367.738069,8216.285956,-4885.359217,0.000000
1367.738398,8882.471304,-4441.235652,842.705048
1367.738728,10214.842000,-3627.009116,689.485948
1367.739057,10362.883188,-3404.947333,1608.800546
1367.739387,10584.944971,-3034.844362,1225.752797
1367.739716,10807.006753,-3849.070898,842.705048
1367.740046,10214.842000,-3627.009116,1378.971896
1367.740376,9844.739029,-3701.029710,689.485948
1367.740705,9178.553681,-4737.318029,919.314598
1367.741035,8808.450710,-4219.173869,1532.190996
1367.741364,9030.512492,-4663.297435,842.705048
1367.741694,8512.368333,-4515.256246,995.924147
1367.742023,8068.244768,-4663.297435,1149.143247
1367.742353,8438.347739,-5033.400406,1532.190996
1367.742683,9104.533087,-4441.235652,2068.457845
1367.743012,9104.533087,-4367.215058,1455.581446
1367.743342,9252.574275,-3775.050304,1225.752797
1367.743671,9400.615463,-4071.132681,995.924147
1367.744001,9548.656652,-3627.009116,919.314598
1367.744330,9622.677246,-3478.967927,536.266849
1367.744660,9178.553681,-4367.215058,383.047749
1367.744989,9400.615463,-4071.132681,-306.438199
1367.745319,8808.450710,-4441.235652,229.828649
1367.745649,8216.285956,-5625.565159,536.266849
1367.745978,8438.347739,-5403.503377,383.047749
1367.746308,8438.347739,-6069.688724,995.924147
1367.746637,8364.327145,-6069.688724,1149.143247
1367.746967,7920.203579,-6513.812290,2298.286494
1367.747296,8512.368333,-5477.523971,2145.067394
1367.747626,8660.409521,-4589.276840,2145.067394
1367.747956,8512.368333,-4441.235652,2145.067394
1367.748285,8882.471304,-2886.803174,1302.362347
1367.748615,9622.677246,-1332.370696,1149.143247
1367.748944,10436.903782,-1702.473667,383.047749
1367.749274,10436.903782,-1184.329507,919.314598
1367.749603,10807.006753,-2442.679609,306.438199
1367.749933,10510.924376,-3330.926739,306.438199
1367.750263,9474.636058,-4515.256246,459.657299
1367.750592,8956.491898,-6217.729913,383.047749
1367.750922,8216.285956,-8068.244768,459.657299
1367.751251,7624.121203,-8956.491898,612.876398
1367.751581,7105.977043,-9326.594869,459.657299
1367.751910,6735.874072,-8216.285956,612.876398
1367.752240,6587.832884,-6957.935855,536.266849
1367.752569,6883.915261,-5551.544565,766.095498
1367.752899,7846.182985,-3997.112087,1072.533697
1367.753229,9696.697840,-2664.741391,1225.752797
1367.753558,10214.842000,-1998.556043,2221.676944
1367.753888,10214.842000,-370.102971,1685.410096
1367.754217,10584.944971,444.123565,1149.143247
1367.754547,12065.356855,148.041188,1838.629195
1367.754876,13545.768739,-592.164754,2374.896044
1367.755206,13397.727550,-1406.391290,2221.676944
1367.755536,12065.356855,-2590.720797,1838.629195
1367.755865,10510.924376,-4515.256246,1302.362347
1367.756195,8438.347739,-7105.977043,689.485948
1367.756524,6143.709319,-8808.450710,842.705048
1367.756854,4737.318029,-10140.821405,0.000000
1367.757183,3997.112087,-9770.718434,-766.095498
1367.757513,4367.215058,-7994.224174,-766.095498
1367.757843,5995.668130,-7846.182985,0.000000
1367.758172,8216.285956,-6883.915261,1149.143247
1367.758502,9400.615463,-3923.091493,1225.752797
1367.758831,9770.718434,-1850.514855,842.705048
1367.759161,10214.842000,-666.185348,2145.067394
1367.759490,11029.068536,74.020594,1532.190996
1367.759820,11917.315666,-444.123565,1149.143247
1367.760149,12879.583391,148.041188,2145.067394
1367.760479,13767.830521,-888.247130,2298.286494
1367.760809,13693.809927,-1776.494261,2911.162892
1367.761138,11991.336260,-2516.700203,2451.505594
1367.761468,9474.636058,-4737.318029,1608.800546
1367.761797,7550.100608,-7328.038826,1072.533697
1367.762127,5403.503377,-9326.594869,689.485948
1367.762456,4071.132681,-8660.409521,-383.047749
1367.762786,1850.514855,-9622.677246,-1685.410096
1367.763116,2664.741391,-8734.430116,-1225.752797
1367.763445,6143.709319,-5773.606348,-689.485948
1367.763775,9326.594869,-4293.194464,689.485948
1367.764104,11029.068536,-3849.070898,1762.019645
1367.764434,11547.212695,-3108.864956,1915.238745
1367.764763,11177.109724,-1850.514855,1072.533697
1367.765093,9770.718434,-2368.659014,1225.752797
1367.765423,9622.677246,-4293.194464,1149.143247
1367.765752,9548.656652,-5477.523971,1149.143247
1367.766082,9104.533087,-6217.729913,1532.190996
1367.766411,9104.533087,-7254.018232,1455.581446
1367.766741,9030.512492,-8142.265362,1455.581446
1367.767070,8290.306550,-7105.977043,1685.410096
1367.767400,6069.688724,-5699.585753,153.219100
1367.767730,5033.400406,-5033.400406,-689.485948
1367.768059,5255.462188,-5403.503377,-842.705048
1367.768389,6439.791695,-4959.379811,459.657299
1367.768718,6957.935855,-5329.482782,766.095498
1367.769048,7994.224174,-5033.400406,689.485948
1367.769377,8882.471304,-4367.215058,689.485948
1367.769707,9104.533087,-5477.523971,1608.800546
1367.770036,8882.471304,-7550.100608,2221.676944
1367.770366,9178.553681,-7550.100608,2374.896044
1367.770696,8216.285956,-6291.750507,1838.629195
1367.771025,6365.771101,-5773.606348,153.219100
1367.771355,5625.565159,-5921.647536,-612.876398
1367.771684,6439.791695,-7920.203579,842.705048
1367.772014,7476.080014,-9178.553681,1838.629195
1367.772343,7402.059420,-7698.141797,2374.896044
1367.772673,6143.709319,-6809.894666,1149.143247
1367.773003,5699.585753,-5773.606348,-306.438199
1367.773332,4219.173869,-6587.832884,-536.266849
1367.773662,5033.400406,-7698.141797,383.047749
1367.773991,6735.874072,-7031.956449,1072.533697
1367.774321,8438.347739,-4737.318029,1685.410096
1367.774650,8586.388927,-3997.112087,766.095498
1367.774980,9104.533087,-3552.988522,1455.581446
1367.775310,9992.780217,-5107.421000,2374.896044
1367.775639,10584.944971,-6439.791695,3140.991542
1367.775969,9104.533087,-5551.544565,4136.915689
1367.776298,7402.059420,-3775.050304,2374.896044
1367.776627,6957.935855,-3849.070898,842.705048
1367.776956,6217.729913,-5255.462188,842.705048
1367.777285,6439.791695,-7920.203579,1608.800546
1367.777615,6513.812290,-7846.182985,2068.457845
1367.777944,5625.565159,-6291.750507,842.705048
1367.778273,5033.400406,-5403.503377,-536.266849
1367.778602,5921.647536,-5995.668130,0.000000
1367.778931,6735.874072,-8512.368333,1072.533697
1367.779261,7402.059420,-9770.718434,2145.067394
1367.779590,6809.894666,-7994.224174,1072.533697
1367.779919,5847.626942,-6957.935855,306.438199
1367.780248,5921.647536,-7846.182985,76.609550
1367.780577,6365.771101,-9696.697840,2221.676944
1367.780906,6513.812290,-10510.924376,2145.067394
1367.781236,6735.874072,-7772.162391,2068.457845
1367.781565,7402.059420,-4367.215058,1302.362347
1367.781894,8142.265362,-2146.597232,1838.629195
1367.782223,8660.409521,-3627.009116,1608.800546
1367.782552,7624.121203,-5107.421000,2221.676944
1367.782882,6587.832884,-5181.441594,1455.581446
1367.783211,6143.709319,-3997.112087,0.000000
1367.783540,6513.812290,-4367.215058,459.657299
1367.783869,7179.997637,-7254.018232,1149.143247
1367.784198,7105.977043,-8882.471304,1685.410096
1367.784527,6513.812290,-8512.368333,1455.581446
1367.784857,6735.874072,-7328.038826,612.876398
1367.785186,7920.203579,-5625.565159,1072.533697
1367.785515,8808.450710,-5847.626942,1225.752797
1367.785844,7920.203579,-7031.956449,1685.410096
1367.786173,6439.791695,-8068.244768,1838.629195
1367.786503,6217.729913,-7402.059420,1532.190996
1367.786832,6143.709319,-5625.565159,306.438199
1367.787161,6217.729913,-6143.709319,459.657299
1367.787490,7254.018232,-7328.038826,1225.752797
1367.787819,7550.100608,-7994.224174,1149.143247
1367.788149,6661.853478,-6587.832884,1225.752797
1367.788478,6809.894666,-4515.256246,0.000000
1367.788807,7550.100608,-4293.194464,-536.266849
1367.789136,7328.038826,-6957.935855,0.000000
1367.789465,6365.771101,-8956.491898,842.705048
1367.789794,5921.647536,-9770.718434,1072.533697
1367.790124,6291.750507,-7624.121203,383.047749
1367.790453,6587.832884,-6957.935855,229.828649
1367.790782,6661.853478,-7105.977043,766.095498
1367.791111,7550.100608,-7920.203579,1608.800546
1367.791440,7846.182985,-6735.874072,2681.334243
1367.791770,7624.121203,-4515.256246,1225.752797
1367.792099,7550.100608,-2294.638420,0.000000
1367.792428,8290.306550,-2960.823768,689.485948
1367.792757,8438.347739,-5921.647536,1455.581446
1367.793086,7402.059420,-7920.203579,1532.190996
1367.793416,6365.771101,-6661.853478,919.314598
1367.793745,6439.791695,-6217.729913,153.219100
1367.794074,6143.709319,-7105.977043,-229.828649
1367.794403,5921.647536,-8290.306550,1302.362347
1367.794732,6291.750507,-8808.450710,229.828649
1367.795061,7031.956449,-6587.832884,919.314598
1367.795391,7254.018232,-4145.153275,1302.362347
1367.795720,8586.388927,-4589.276840,995.924147
1367.796049,9252.574275,-4367.215058,1991.848295
1367.796378,7476.080014,-7105.977043,1838.629195
1367.796707,5995.668130,-7179.997637,459.657299
1367.797037,5995.668130,-4071.132681,1378.971896
1367.797366,7698.141797,-6513.812290,766.095498
1367.797695,8216.285956,-7402.059420,1915.238745
1367.798024,7105.977043,-7402.059420,1838.629195
1367.798353,5773.606348,-6957.935855,76.609550
1367.798683,6439.791695,-4219.173869,229.828649
1367.799012,7105.977043,-5181.441594,612.876398
1367.799341,7402.059420,-6587.832884,1072.533697
1367.799670,6513.812290,-8290.306550,2068.457845
1367.799999,5329.482782,-9400.615463,995.924147
1367.800328,4441.235652,-6883.915261,76.609550
1367.800658,4515.256246,-7105.977043,153.219100
1367.800987,7105.977043,-7550.100608,1685.410096
1367.801316,8512.368333,-8586.388927,2298.286494
1367.801645,7920.203579,-6217.729913,1991.848295
1367.801974,6883.915261,-5551.544565,383.047749
1367.802304,7179.997637,-4737.318029,0.000000
1367.802633,7476.080014,-6587.832884,766.095498
1367.802962,7328.038826,-8808.450710,1685.410096
1367.803291,7105.977043,-7328.038826,1225.752797
1367.803620,6069.688724,-7179.997637,842.705048
1367.803949,7105.977043,-5773.606348,995.924147
1367.804279,7846.182985,-5921.647536,1072.533697
1367.804608,7254.018232,-7846.182985,1991.848295
1367.804937,6143.709319,-6513.812290,1455.581446
1367.805266,5403.503377,-5329.482782,-306.438199
1367.805595,5773.606348,-4145.153275,0.000000
1367.805925,7328.038826,-4959.379811,1072.533697
1367.806254,9548.656652,-7254.018232,2528.115143
1367.806583,8438.347739,-8142.265362,2374.896044
1367.806912,6217.729913,-8290.306550,1685.410096
1367.807241,5847.626942,-6587.832884,536.266849
1367.807571,5847.626942,-7698.141797,0.000000
1367.807900,5625.565159,-9696.697840,689.485948
1367.808229,5921.647536,-8660.409521,919.314598
1367.808558,6735.874072,-6809.894666,459.657299
1367.808887,6809.894666,-4145.153275,689.485948
1367.809216,7328.038826,-4441.235652,612.876398
1367.809546,8068.244768,-5477.523971,995.924147
1367.809875,7550.100608,-6809.894666,1532.190996
1367.810204,6587.832884,-6439.791695,1225.752797
1367.810533,6587.832884,-4145.153275,0.000000
1367.810862,7698.141797,-5181.441594,1149.143247
1367.811192,8808.450710,-6809.894666,1532.190996
1367.811521,8216.285956,-8290.306550,1915.238745
1367.811850,7698.141797,-7105.977043,1455.581446
1367.812179,8216.285956,-5477.523971,689.485948
1367.812508,8512.368333,-4219.173869,689.485948
1367.812838,8142.265362,-5255.462188,1302.362347
1367.813167,7254.018232,-7994.224174,1685.410096
1367.813496,6513.812290,-7105.977043,1302.362347
1367.813825,5551.544565,-6365.771101,76.609550
1367.814154,5329.482782,-5921.647536,0.000000
1367.814483,6439.791695,-6587.832884,919.314598
1367.814813,7402.059420,-7920.203579,1532.190996
1367.815142,6661.853478,-6809.894666,842.705048
1367.815471,6513.812290,-5551.544565,229.828649
1367.815800,7698.141797,-4811.338623,383.047749
1367.816129,8216.285956,-5995.668130,766.095498
1367.816459,7772.162391,-7402.059420,1608.800546
1367.816788,7031.956449,-7402.059420,1685.410096
1367.817117,6513.812290,-7772.162391,995.924147
1367.817446,5995.668130,-6735.874072,0.000000
1367.817775,5921.647536,-7105.977043,536.266849
1367.818105,6513.812290,-7994.224174,689.485948
1367.818434,6143.709319,-6957.935855,536.266849
1367.818763,5699.585753,-6291.750507,612.876398
1367.819092,7105.977043,-4219.173869,766.095498
1367.819421,8734.430116,-4071.132681,919.314598
1367.819750,8882.471304,-6809.894666,1532.190996
1367.820080,7105.977043,-7105.977043,2221.676944
1367.820409,6217.729913,-7105.977043,995.924147
1367.820738,5625.565159,-6513.812290,612.876398
1367.821067,6069.688724,-7328.038826,1608.800546
1367.821396,7328.038826,-8216.285956,1149.143247
1367.821726,7105.977043,-7920.203579,1991.848295
1367.822055,6735.874072,-7402.059420,1685.410096
1367.822384,6883.915261,-5625.565159,1072.533697
1367.822713,7402.059420,-4811.338623,459.657299
1367.823042,7105.977043,-6513.812290,1149.143247
1367.823371,6217.729913,-7031.956449,1455.581446
1367.823701,5477.523971,-6217.729913,536.266849
1367.824030,6143.709319,-5477.523971,383.047749
1367.824359,7698.141797,-5033.400406,1149.143247
1367.824688,8290.306550,-6735.874072,1608.800546
1367.825017,7328.038826,-7624.121203,1608.800546
1367.825347,6735.874072,-6957.935855,1225.752797
1367.825676,7328.038826,-5625.565159,536.266849
1367.826005,7994.224174,-4737.318029,1225.752797
1367.826334,8512.368333,-6365.771101,1915.238745
1367.826663,7920.203579,-7550.100608,2528.115143
1367.826993,6513.812290,-7624.121203,1149.143247
1367.827322,4885.359217,-7179.997637,536.266849
1367.827651,5551.544565,-6365.771101,76.609550
1367.827980,6365.771101,-7550.100608,1225.752797
1367.828309,7179.997637,-7476.080014,1685.410096
1367.828638,6365.771101,-7254.018232,1532.190996
1367.828968,6217.729913,-5329.482782,459.657299
1367.829297,6735.874072,-4515.256246,0.000000
1367.829626,7920.203579,-4811.338623,383.047749
1367.829955,7994.224174,-6439.791695,1378.971896
1367.830284,6809.894666,-7328.038826,1762.019645
1367.830614,7031.956449,-6883.915261,1302.362347
1367.830943,6809.894666,-5625.565159,842.705048
1367.831272,7624.121203,-6291.750507,1302.362347
1367.831601,8290.306550,-7624.121203,1532.190996
1367.831930,7105.977043,-7846.182985,1608.800546
1367.832260,5921.647536,-6957.935855,459.657299
1367.832589,5477.523971,-4959.379811,-76.609550
1367.832918,7772.162391,-4071.132681,153.219100
1367.833247,8586.388927,-6291.750507,1149.143247
1367.833576,7105.977043,-7105.977043,1991.848295
1367.833905,6217.729913,-7179.997637,1225.752797
1367.834235,5995.668130,-6661.853478,383.047749
1367.834564,6069.688724,-7105.977043,459.657299
1367.834893,7402.059420,-7994.224174,919.314598
1367.835222,7772.162391,-8512.368333,2145.067394
1367.835551,7105.977043,-7254.018232,1455.581446
1367.835881,6291.750507,-5329.482782,306.438199
1367.836210,6957.935855,-4737.318029,612.876398
1367.836539,7994.224174,-5699.585753,306.438199
1367.836868,7328.038826,-8290.306550,1302.362347
1367.837197,6143.709319,-8364.327145,919.314598
1367.837527,5847.626942,-7179.997637,459.657299
1367.837856,6587.832884,-6587.832884,995.924147
1367.838185,7402.059420,-6587.832884,1532.190996
1367.838514,7698.141797,-6735.874072,1149.143247
1367.838843,7105.977043,-7031.956449,689.485948
1367.839172,6587.832884,-4959.379811,536.266849
1367.839502,7698.141797,-3775.050304,689.485948
1367.839831,9104.533087,-4737.318029,1072.533697
1367.840160,9030.512492,-6217.729913,1915.238745
1367.840489,7254.018232,-8438.347739,2221.676944
1367.840818,5773.606348,-7179.997637,1072.533697
1367.841148,5847.626942,-7105.977043,306.438199
1367.841477,6365.771101,-6883.915261,536.266849
1367.841806,6809.894666,-7920.203579,1991.848295
1367.842135,6069.688724,-8290.306550,1608.800546
1367.842464,5477.523971,-5847.626942,536.266849
1367.842793,5995.668130,-4737.318029,383.047749
1367.843123,7254.018232,-3923.091493,383.047749
1367.843452,8290.306550,-5255.462188,1532.190996
1367.843781,8216.285956,-6809.894666,2604.724693
1367.844110,7254.018232,-6291.750507,1302.362347
1367.844439,6513.812290,-5403.503377,536.266849
1367.844769,6735.874072,-6217.729913,689.485948
1367.845098,6735.874072,-8216.285956,766.095498
1367.845427,6661.853478,-7846.182985,2681.334243
1367.845756,5995.668130,-7550.100608,229.828649
1367.846085,6513.812290,-6217.729913,229.828649
1367.846415,8290.306550,-5329.482782,1378.971896
1367.846744,8956.491898,-7254.018232,1532.190996
1367.847073,7328.038826,-7624.121203,2145.067394
1367.847402,5255.462188,-7624.121203,995.924147
1367.847731,4367.215058,-7550.100608,-383.047749
1367.848060,4589.276840,-6143.709319,0.000000
1367.848390,6143.709319,-7698.141797,76.609550
1367.848719,7476.080014,-8290.306550,1532.190996
1367.849048,7772.162391,-7105.977043,1838.629195
1367.849377,7624.121203,-5255.462188,1455.581446
1367.849706,8364.327145,-3849.070898,1072.533697
1367.850036,9400.615463,-4515.256246,1838.629195
1367.850365,8956.491898,-6069.688724,1838.629195
1367.850694,8290.306550,-6513.812290,2221.676944
1367.851023,7179.997637,-5477.523971,1378.971896
1367.851352,7105.977043,-4737.318029,76.609550
1367.851682,6957.935855,-6217.729913,842.705048
1367.852011,6661.853478,-7920.203579,1838.629195
1367.852340,5625.565159,-8660.409521,995.924147
1367.852669,4811.338623,-7179.997637,689.485948
1367.852998,5181.441594,-4959.379811,306.438199
1367.853327,7476.080014,-5625.565159,306.438199
1367.853657,8438.347739,-7105.977043,1915.238745
1367.853986,7772.162391,-8660.409521,2298.286494
1367.854315,7031.956449,-6883.915261,1378.971896
1367.854644,6661.853478,-5033.400406,536.266849
1367.854973,7254.018232,-6587.832884,459.657299
1367.855303,8216.285956,-7476.080014,1915.238745
1367.855632,7920.203579,-8216.285956,2298.286494
1367.855961,7105.977043,-6365.771101,1378.971896
1367.856290,6439.791695,-4663.297435,0.000000
1367.856619,5995.668130,-4367.215058,76.609550
1367.856949,7179.997637,-6143.709319,766.095498
1367.857278,6735.874072,-8216.285956,1685.410096
1367.857607,5551.544565,-7624.121203,1225.752797
1367.857936,5551.544565,-6587.832884,383.047749
1367.858265,5995.668130,-6291.750507,919.314598
1367.858594,7624.121203,-7624.121203,1838.629195
1367.858924,7624.121203,-8438.347739,1685.410096
1367.859253,6143.709319,-6957.935855,1762.019645
1367.859582,5773.606348,-6069.688724,536.266849
1367.859911,7624.121203,-3923.091493,536.266849
1367.860240,9104.533087,-4367.215058,1455.581446
1367.860570,8512.368333,-7179.997637,2451.505594
1367.860899,7031.956449,-7698.141797,1991.848295
1367.861228,5847.626942,-6883.915261,459.657299
1367.861557,5477.523971,-6291.750507,0.000000
1367.861886,6069.688724,-7698.141797,689.485948
1367.862215,7031.956449,-8142.265362,1302.362347
1367.862545,6439.791695,-8364.327145,1455.581446
1367.862874,6513.812290,-6957.935855,1302.362347
1367.863203,8068.244768,-3849.070898,1072.533697
1367.863532,9474.636058,-4589.276840,1302.362347
1367.863861,8734.430116,-5625.565159,2221.676944
1367.864191,7031.956449,-6957.935855,1685.410096
1367.864520,6217.729913,-5255.462188,766.095498
1367.864849,5847.626942,-5329.482782,229.828649
1367.865178,6809.894666,-6513.812290,919.314598
1367.865507,7179.997637,-7772.162391,1838.629195
1367.865837,6883.915261,-7550.100608,1685.410096
1367.866166,5847.626942,-7031.956449,536.266849
1367.866495,6809.894666,-4219.173869,459.657299
1367.866824,8216.285956,-6291.750507,612.876398
1367.867153,8808.450710,-7254.018232,1532.190996
1367.867482,7031.956449,-8438.347739,1685.410096
1367.867812,5403.503377,-7698.141797,612.876398
1367.868141,4959.379811,-6439.791695,-306.438199
1367.868470,5625.565159,-7254.018232,612.876398
1367.868799,7402.059420,-7920.203579,995.924147
1367.869128,7402.059420,-8142.265362,1915.238745
1367.869458,6661.853478,-6069.688724,1302.362347
1367.869787,6365.771101,-4663.297435,76.609550
1367.870116,7254.018232,-4737.318029,153.219100
1367.870445,7698.141797,-4811.338623,536.266849
1367.870774,7624.121203,-7105.977043,1455.581446
1367.871104,7179.997637,-7105.977043,1608.800546
1367.871433,6883.915261,-5551.544565,919.314598
1367.871762,7105.977043,-6143.709319,689.485948
1367.872091,7772.162391,-6883.915261,1608.800546
1367.872420,7624.121203,-7772.162391,1762.019645
1367.872749,6661.853478,-7698.141797,1455.581446
1367.873079,5773.606348,-5477.523971,689.485948
1367.873408,7105.977043,-3627.009116,0.000000
1367.873737,7624.121203,-4441.235652,919.314598
1367.874066,7624.121203,-7254.018232,1685.410096
1367.874395,7105.977043,-8290.306550,2145.067394
1367.874725,5403.503377,-7402.059420,842.705048
1367.875054,5773.606348,-7179.997637,306.438199
1367.875383,6513.812290,-7624.121203,536.266849
1367.875712,6957.935855,-7994.224174,1149.143247
1367.876041,6069.688724,-8882.471304,842.705048
1367.876370,5995.668130,-6661.853478,459.657299
1367.876699,6957.935855,-4515.256246,0.000000
1367.877028,8438.347739,-5181.441594,612.876398
1367.877357,8586.388927,-6365.771101,1608.800546
1367.877686,7328.038826,-7402.059420,2221.676944
1367.878015,6661.853478,-5995.668130,1149.143247
1367.878344,6217.729913,-5329.482782,459.657299
1367.878673,6883.915261,-5699.585753,1225.752797
1367.879002,7624.121203,-6217.729913,1685.410096
1367.879331,7402.059420,-7105.977043,2068.457845
1367.879660,6735.874072,-6143.709319,1608.800546
1367.879989,7105.977043,-5551.544565,612.876398
1367.880318,8142.265362,-4367.215058,1838.629195
1367.880647,8290.306550,-5107.421000,1225.752797
1367.880976,6957.935855,-7846.182985,1608.800546
1367.881305,5773.606348,-8290.306550,1225.752797
1367.881634,5403.503377,-7179.997637,-383.047749
1367.881963,6217.729913,-6809.894666,306.438199
1367.882292,6661.853478,-7698.141797,995.924147
1367.882621,7105.977043,-8808.450710,1532.190996
1367.882950,6513.812290,-7920.203579,1532.190996
1367.883279,5995.668130,-6143.709319,536.266849
1367.883608,7328.038826,-4589.276840,306.438199
1367.883938,8290.306550,-3997.112087,995.924147
1367.884267,8808.450710,-6143.709319,1608.800546
1367.884596,8068.244768,-6439.791695,2298.286494
1367.884925,7105.977043,-6291.750507,1915.238745
1367.885254,7105.977043,-5329.482782,612.876398
1367.885583,7105.977043,-5773.606348,766.095498
1367.885912,6957.935855,-7624.121203,1072.533697
1367.886241,6291.750507,-8068.244768,1149.143247
1367.886570,6439.791695,-6217.729913,766.095498
1367.886899,7624.121203,-4811.338623,536.266849
1367.887228,8512.368333,-5255.462188,1302.362347
1367.887557,8290.306550,-7031.956449,2374.896044
1367.887886,6661.853478,-7328.038826,1915.238745
1367.888215,4737.318029,-7846.182985,306.438199
1367.888544,4737.318029,-7105.977043,-76.609550
1367.888873,5551.544565,-6883.915261,0.000000
1367.889202,6513.812290,-8586.388927,1302.362347
1367.889531,6587.832884,-8216.285956,1685.410096
1367.889860,6143.709319,-7402.059420,536.266849
1367.890189,6069.688724,-5699.585753,612.876398
1367.890518,7550.100608,-4441.235652,383.047749
1367.890847,8956.491898,-5329.482782,842.705048
1367.891176,7920.203579,-7031.956449,1455.581446
1367.891505,6439.791695,-6957.935855,689.485948
1367.891834,6365.771101,-5773.606348,536.266849
1367.892163,7624.121203,-5921.647536,689.485948
1367.892492,8142.265362,-6439.791695,1608.800546
1367.892821,7031.956449,-7254.018232,1685.410096
1367.893150,6143.709319,-6809.894666,1302.362347
1367.893479,6661.853478,-4737.318029,383.047749
1367.893808,7476.080014,-3923.091493,842.705048
1367.894138,9252.574275,-4811.338623,2145.067394
1367.894467,8438.347739,-6661.853478,2298.286494
1367.894796,6661.853478,-8068.244768,1838.629195
1367.895125,5329.482782,-7105.977043,459.657299
1367.895454,6217.729913,-6735.874072,459.657299
1367.895783,6735.874072,-7179.997637,536.266849
1367.896112,6217.729913,-9252.574275,1685.410096
1367.896441,5847.626942,-9252.574275,1455.581446
1367.896770,5329.482782,-6587.832884,383.047749
1367.897099,6069.688724,-4737.318029,-383.047749
1367.897428,7179.997637,-4959.379811,383.047749
1367.897757,8364.327145,-6439.791695,1762.019645
1367.898086,7846.182985,-7105.977043,1991.848295
1367.898415,7105.977043,-5699.585753,1608.800546
1367.898744,7328.038826,-3923.091493,766.095498
1367.899073,8142.265362,-5033.400406,766.095498
1367.899402,8734.430116,-7105.977043,2221.676944
1367.899731,7994.224174,-7846.182985,2221.676944
1367.900060,7105.977043,-6809.894666,1225.752797
1367.900389,7105.977043,-4515.256246,459.657299
1367.900718,7402.059420,-4515.256246,612.876398
1367.901047,7772.162391,-6809.894666,1532.190996
1367.901376,7105.977043,-8216.285956,2068.457845
1367.901705,5181.441594,-8290.306550,459.657299
1367.902034,4589.276840,-7550.100608,76.609550
1367.902363,5625.565159,-6365.771101,0.000000
1367.902692,6883.915261,-8290.306550,919.314598
1367.903021,5921.647536,-8734.430116,1838.629195
1367.903350,5625.565159,-7994.224174,1072.533697
1367.903679,6661.853478,-5699.585753,-76.609550
1367.904008,7698.141797,-4663.297435,612.876398
1367.904338,8882.471304,-5477.523971,842.705048
1367.904667,8660.409521,-7105.977043,2068.457845
1367.904996,7105.977043,-7179.997637,1302.362347
1367.905325,6143.709319,-6957.935855,306.438199
1367.905654,6143.709319,-6291.750507,459.657299
1367.905983,7254.018232,-6661.853478,919.314598
1367.906312,7698.141797,-8142.265362,1915.238745
1367.906641,6883.915261,-7476.080014,1225.752797
1367.906970,5921.647536,-5551.544565,459.657299
1367.907299,7254.018232,-3256.906145,0.000000
1367.907628,9104.533087,-4219.173869,612.876398
1367.907957,8364.327145,-6069.688724,1915.238745
1367.908286,6883.915261,-7328.038826,1838.629195
1367.908615,5847.626942,-7476.080014,842.705048
1367.908944,5403.503377,-5847.626942,766.095498
1367.909273,5921.647536,-7105.977043,536.266849
1367.909602,7105.977043,-8142.265362,2068.457845
1367.909931,7179.997637,-7846.182985,1302.362347
1367.910260,6513.812290,-7328.038826,919.314598
1367.910589,7105.977043,-5255.462188,612.876398
1367.910918,8142.265362,-4663.297435,612.876398
1367.911247,8216.285956,-5773.606348,1149.143247
1367.911576,7624.121203,-5995.668130,1225.752797
1367.911905,6735.874072,-6809.894666,1225.752797
1367.912234,7328.038826,-5033.400406,1455.581446
1367.912563,7179.997637,-4441.235652,536.266849
1367.912892,7624.121203,-6661.853478,1225.752797
1367.913221,7550.100608,-7328.038826,1762.019645
1367.913550,7031.956449,-6809.894666,919.314598
1367.913879,6365.771101,-5033.400406,612.876398
1367.914209,7402.059420,-5033.400406,1149.143247
1367.914538,8660.409521,-5551.544565,1225.752797
1367.914867,7624.121203,-7254.018232,1838.629195
1367.915196,5995.668130,-7402.059420,1149.143247
1367.915525,5699.585753,-6809.894666,153.219100
1367.915854,6143.709319,-7179.997637,612.876398
1367.916183,6661.853478,-7624.121203,1149.143247
1367.916512,6587.832884,-7920.203579,1608.800546
1367.916841,5921.647536,-7698.141797,1608.800546
1367.917170,6143.709319,-5699.585753,383.047749
1367.917499,6809.894666,-4737.318029,76.609550
1367.917828,7624.121203,-4885.359217,689.485948
1367.918157,8290.306550,-7846.182985,1532.190996
1367.918486,6957.935855,-8734.430116,1455.581446
1367.918815,5847.626942,-7031.956449,1149.143247
1367.919144,6291.750507,-6291.750507,0.000000
1367.919473,6809.894666,-7105.977043,1072.533697
1367.919802,7031.956449,-7328.038826,1915.238745
1367.920131,7105.977043,-8068.244768,1608.800546
1367.920460,6957.935855,-5625.565159,1378.971896
1367.920789,7772.162391,-4441.235652,459.657299
1367.921118,8808.450710,-4737.318029,1608.800546
1367.921447,8290.306550,-5255.462188,1915.238745
1367.921776,7254.018232,-7476.080014,1608.800546
1367.922105,6291.750507,-7031.956449,995.924147
1367.922434,5551.544565,-7328.038826,306.438199
1367.922763,5847.626942,-7254.018232,919.314598
1367.923092,6661.853478,-8808.450710,1225.752797
1367.923421,6735.874072,-8512.368333,1455.581446
1367.923750,5995.668130,-7328.038826,689.485948
1367.924079,6513.812290,-5847.626942,842.705048
1367.924409,7920.203579,-4441.235652,842.705048
1367.924738,7994.224174,-5477.523971,1149.143247
1367.925067,6957.935855,-7031.956449,1225.752797
1367.925396,5625.565159,-7550.100608,1149.143247
1367.925725,5699.585753,-6439.791695,842.705048
1367.926054,6513.812290,-5995.668130,842.705048
1367.926383,7772.162391,-6587.832884,842.705048
1367.926712,7402.059420,-6883.915261,1455.581446
1367.927041,6661.853478,-6661.853478,995.924147
1367.927370,6809.894666,-5625.565159,612.876398
1367.927699,7698.141797,-3997.112087,689.485948
1367.928028,8734.430116,-4737.318029,919.314598
1367.928357,8364.327145,-6883.915261,1915.238745
1367.928686,7254.018232,-7624.121203,1762.019645
1367.929015,6513.812290,-6809.894666,1225.752797
1367.929344,6809.894666,-6513.812290,612.876398
1367.929673,6439.791695,-6735.874072,1455.581446
1367.930002,5773.606348,-8290.306550,1149.143247
1367.930331,6143.709319,-7476.080014,1608.800546
1367.930660,5995.668130,-6069.688724,919.314598
1367.930989,7254.018232,-4589.276840,306.438199
1367.931318,9030.512492,-4367.215058,1302.362347
1367.931647,8956.491898,-6069.688724,2068.457845
1367.931976,7328.038826,-7105.977043,1838.629195
1367.932305,5921.647536,-6957.935855,689.485948
1367.932634,5551.544565,-6291.750507,76.609550
1367.932963,7179.997637,-6365.771101,766.095498
1367.933292,7994.224174,-7105.977043,1302.362347
1367.933621,7328.038826,-6883.915261,1302.362347
1367.933950,6735.874072,-6513.812290,919.314598
1367.934280,7105.977043,-5107.421000,919.314598
1367.934609,7846.182985,-4811.338623,842.705048
1367.934938,8216.285956,-7328.038826,1838.629195
1367.935267,6883.915261,-7772.162391,1838.629195
1367.935596,5181.441594,-8364.327145,842.705048
1367.935925,4885.359217,-7105.977043,306.438199
1367.936254,6587.832884,-6143.709319,383.047749
1367.936583,7105.977043,-7402.059420,919.314598
1367.936912,6735.874072,-7846.182985,1685.410096
1367.937241,5551.544565,-7846.182985,1072.533697
1367.937570,6291.750507,-6069.688724,306.438199
1367.937899,7550.100608,-5551.544565,536.266849
1367.938228,7846.182985,-6365.771101,1302.362347
1367.938557,7402.059420,-8142.265362,1915.238745
1367.938886,5847.626942,-7772.162391,1685.410096
1367.939215,5921.647536,-7179.997637,995.924147
1367.939544,6735.874072,-6439.791695,1072.533697
1367.939873,7105.977043,-6291.750507,1149.143247
1367.940202,6883.915261,-7476.080014,1225.752797
1367.940531,6217.729913,-6809.894666,1225.752797
1367.940860,6735.874072,-5329.482782,1225.752797
1367.941189,7994.224174,-4441.235652,536.266849
1367.941518,8512.368333,-4737.318029,1532.190996
1367.941847,8290.306550,-6439.791695,1838.629195
1367.942176,7105.977043,-7254.018232,1455.581446
1367.942505,5847.626942,-6587.832884,612.876398
1367.942834,5699.585753,-6809.894666,153.219100
1367.943163,6957.935855,-6661.853478,612.876398
1367.943492,7402.059420,-8438.347739,1455.581446
1367.943821,6809.894666,-8290.306550,1532.190996
1367.944150,5921.647536,-7328.038826,1149.143247
1367.944480,6661.853478,-5329.482782,536.266849
1367.944809,7476.080014,-4737.318029,0.000000
1367.945138,7402.059420,-6587.832884,1072.533697
1367.945467,6883.915261,-7179.997637,1608.800546
1367.945796,5773.606348,-7550.100608,842.705048
1367.946125,6291.750507,-6439.791695,995.924147
1367.946454,7476.080014,-5329.482782,842.705048
1367.946783,8512.368333,-6291.750507,1225.752797
1367.947112,7920.203579,-6587.832884,1915.238745
1367.947441,6809.894666,-6365.771101,995.924147
1367.947770,6809.894666,-4589.276840,0.000000
1367.948099,7920.203579,-3701.029710,689.485948
1367.948428,8808.450710,-5847.626942,1991.848295
1367.948757,8512.368333,-6957.935855,2451.505594
1367.949086,6439.791695,-7624.121203,1532.190996
1367.949415,5181.441594,-7550.100608,0.000000
1367.949744,5477.523971,-5551.544565,76.609550
1367.950073,6365.771101,-7179.997637,536.266849
1367.950402,7105.977043,-7698.141797,1455.581446
1367.950731,6661.853478,-7254.018232,1455.581446
1367.951060,6661.853478,-6365.771101,383.047749
1367.951389,7476.080014,-4737.318029,919.314598
1367.951718,9030.512492,-5107.421000,1072.533697
1367.952047,8364.327145,-6661.853478,995.924147
1367.952376,7031.956449,-7254.018232,1455.581446
1367.952705,6883.915261,-7105.977043,1225.752797
1367.953034,7550.100608,-5329.482782,689.485948
1367.953363,7550.100608,-7105.977043,1072.533697
1367.953692,6883.915261,-7846.182985,1302.362347
1367.954021,5181.441594,-8734.430116,383.047749
1367.954351,4071.132681,-8290.306550,-153.219100
1367.954680,5847.626942,-6069.688724,-229.828649
1367.955009,7846.182985,-6439.791695,689.485948
1367.955338,8216.285956,-7772.162391,2374.896044
1367.955667,6809.894666,-7772.162391,1762.019645
1367.955996,5625.565159,-7105.977043,766.095498
1367.956325,6069.688724,-5995.668130,0.000000
1367.956654,6661.853478,-6143.709319,383.047749
1367.956983,7698.141797,-7105.977043,1302.362347
1367.957312,7624.121203,-6809.894666,1378.971896
1367.957641,7550.100608,-6439.791695,1225.752797
1367.957970,7772.162391,-5255.462188,1302.362347
1367.958299,8364.327145,-4737.318029,1225.752797
1367.958628,8142.265362,-5773.606348,1455.581446
1367.958957,6587.832884,-7476.080014,1685.410096
1367.959286,5551.544565,-7550.100608,1072.533697
1367.959615,5625.565159,-7254.018232,459.657299
1367.959944,6069.688724,-6439.791695,995.924147
1367.960273,6883.915261,-7105.977043,1225.752797
1367.960602,6883.915261,-7328.038826,1455.581446
1367.960931,5773.606348,-7254.018232,1762.019645
1367.961260,6439.791695,-5699.585753,306.438199
1367.961589,8290.306550,-3256.906145,536.266849
1367.961918,8808.450710,-4589.276840,1302.362347
1367.962247,9400.615463,-5995.668130,2145.067394
1367.962576,7772.162391,-6809.894666,1915.238745
1367.962905,6365.771101,-6661.853478,919.314598
1367.963234,6217.729913,-6365.771101,842.705048
1367.963563,7105.977043,-7476.080014,1532.190996
1367.963892,6809.894666,-8142.265362,1455.581446
1367.964221,5847.626942,-8882.471304,1532.190996
1367.964551,5107.421000,-6735.874072,536.266849
1367.964880,6661.853478,-4293.194464,-229.828649
1367.965209,7476.080014,-4589.276840,229.828649
1367.965538,7698.141797,-6587.832884,1991.848295
1367.965867,7550.100608,-6883.915261,1762.019645
1367.966196,6661.853478,-6735.874072,1149.143247
1367.966525,5847.626942,-5477.523971,1072.533697
1367.966854,6957.935855,-6217.729913,689.485948
1367.967183,7550.100608,-7624.121203,1532.190996
1367.967512,7402.059420,-7772.162391,2068.457845
1367.967841,6661.853478,-6513.812290,1149.143247
1367.968170,7031.956449,-4811.338623,153.219100
1367.968499,7772.162391,-4885.359217,76.609550
1367.968828,7772.162391,-6513.812290,1149.143247
1367.969157,6809.894666,-6957.935855,1685.410096
1367.969486,5033.400406,-7846.182985,459.657299
1367.969815,4811.338623,-6957.935855,-306.438199
1367.970144,5773.606348,-6513.812290,0.000000
1367.970473,7402.059420,-7624.121203,1455.581446
1367.970802,7772.162391,-7772.162391,1838.629195
1367.971131,7328.038826,-6217.729913,1455.581446
1367.971460,7624.121203,-5181.441594,612.876398
1367.971789,8364.327145,-4071.132681,995.924147
1367.972118,8216.285956,-5847.626942,919.314598
1367.972447,6735.874072,-7105.977043,1532.190996
1367.972776,5847.626942,-8586.388927,1608.800546
1367.973105,5921.647536,-7105.977043,612.876398
1367.973434,6143.709319,-6217.729913,766.095498
1367.973763,6587.832884,-6883.915261,1225.752797
1367.974092,6809.894666,-7920.203579,1302.362347
1367.974421,5995.668130,-7254.018232,1149.143247
1367.974751,5921.647536,-5773.606348,383.047749
1367.975080,7105.977043,-4737.318029,536.266849
1367.975409,8882.471304,-5107.421000,1991.848295
1367.975738,9178.553681,-6809.894666,2298.286494
1367.976067,7550.100608,-7031.956449,1532.190996
1367.976396,6217.729913,-6809.894666,1225.752797
1367.976725,6439.791695,-6365.771101,612.876398
1367.977054,7550.100608,-7105.977043,1149.143247
1367.977383,7105.977043,-7550.100608,1608.800546
1367.977712,6587.832884,-7994.224174,1378.971896
1367.978041,6143.709319,-6809.894666,536.266849
1367.978370,5921.647536,-4959.379811,0.000000
1367.978699,6439.791695,-4959.379811,536.266849
1367.979028,7254.018232,-6143.709319,766.095498
1367.979357,6661.853478,-7550.100608,1225.752797
1367.979686,6291.750507,-7920.203579,1302.362347
1367.980015,7031.956449,-6069.688724,1072.533697
1367.980344,7772.162391,-5255.462188,766.095498
1367.980673,7698.141797,-6661.853478,1455.581446
1367.981002,7624.121203,-7402.059420,1915.238745
1367.981331,7254.018232,-7031.956449,1225.752797
1367.981660,7476.080014,-4589.276840,766.095498
1367.981989,9104.533087,-3923.091493,1455.581446
1367.982318,9326.594869,-5033.400406,1685.410096
1367.982647,7624.121203,-7402.059420,1532.190996
1367.982976,5551.544565,-7846.182985,1532.190996
1367.983305,5551.544565,-6883.915261,459.657299
1367.983634,5625.565159,-6291.750507,0.000000
1367.983963,5995.668130,-8364.327145,1072.533697
1367.984292,6069.688724,-9104.533087,1072.533697
1367.984621,6069.688724,-6439.791695,689.485948
1367.984950,6217.729913,-6143.709319,153.219100
1367.985279,7402.059420,-4515.256246,383.047749
1367.985608,8808.450710,-5329.482782,1225.752797
1367.985937,8882.471304,-7105.977043,1225.752797
1367.986267,7698.141797,-7179.997637,1532.190996
1367.986596,7031.956449,-6809.894666,1149.143247
1367.986925,7254.018232,-5995.668130,842.705048
1367.987254,7550.100608,-6217.729913,1455.581446
1367.987583,7179.997637,-7105.977043,1378.971896
1367.987912,6291.750507,-6735.874072,1532.190996
1367.988241,5995.668130,-6365.771101,459.657299
1367.988570,6439.791695,-5107.421000,919.314598
1367.988899,7179.997637,-5847.626942,919.314598
1367.989228,7105.977043,-6587.832884,1991.848295
1367.989557,5699.585753,-7772.162391,995.924147
1367.989886,4959.379811,-9400.615463,306.438199
1367.990215,5403.503377,-7179.997637,612.876398
1367.990544,6735.874072,-8068.244768,689.485948
1367.990873,7476.080014,-7328.038826,919.314598
1367.991202,7105.977043,-7402.059420,1838.629195
1367.991531,7328.038826,-7624.121203,1838.629195
1367.991860,8438.347739,-3849.070898,1149.143247
1367.992189,8290.306550,-3923.091493,1378.971896
1367.992518,8586.388927,-4515.256246,919.314598
1367.992847,7402.059420,-5699.585753,1685.410096
1367.993176,6365.771101,-7105.977043,1072.533697
1367.993505,6513.812290,-5995.668130,919.314598
1367.993834,7476.080014,-5329.482782,1072.533697
1367.994163,7402.059420,-6883.915261,612.876398
1367.994492,6735.874072,-7550.100608,1915.238745
1367.994821,6439.791695,-8142.265362,1302.362347
1367.995150,6735.874072,-5921.647536,153.219100
1367.995479,7328.038826,-4737.318029,76.609550
1367.995808,8438.347739,-6069.688724,1838.629195
1367.996137,9104.533087,-7476.080014,2681.334243
1367.996466,7179.997637,-8142.265362,1991.848295
1367.996795,5329.482782,-7031.956449,459.657299
1367.997124,5181.441594,-6809.894666,76.609550
1367.997453,6291.750507,-7031.956449,1072.533697
1367.997782,6513.812290,-8364.327145,1532.190996
1367.998111,6143.709319,-7772.162391,1302.362347
1367.998440,6143.709319,-6217.729913,919.314598
1367.998770,6809.894666,-5033.400406,689.485948
1367.999099,8290.306550,-4737.318029,919.314598
1367.999428,8216.285956,-5995.668130,1608.800546
1367.999757,7179.997637,-7105.977043,995.924147
1368.000086,6069.688724,-7105.977043,842.705048
1368.000415,6217.729913,-6735.874072,536.266849
1368.000744,7402.059420,-6661.853478,919.314598
1368.001073,8142.265362,-7476.080014,1838.629195
1368.001402,7105.977043,-7402.059420,1991.848295
1368.001731,6661.853478,-6439.791695,919.314598
1368.002060,6735.874072,-5477.523971,1225.752797
1368.002389,7772.162391,-4663.297435,995.924147
1368.002718,7920.203579,-5921.647536,1072.533697
1368.003047,6587.832884,-7179.997637,2221.676944
1368.003376,5403.503377,-8068.244768,995.924147
1368.003705,5403.503377,-7402.059420,689.485948
1368.004034,6143.709319,-6439.791695,612.876398
1368.004363,7179.997637,-7624.121203,689.485948
1368.004692,7254.018232,-7624.121203,1685.410096
1368.005021,6661.853478,-7254.018232,1378.971896
1368.005350,6735.874072,-5551.544565,919.314598
1368.005679,7476.080014,-4589.276840,0.000000
1368.006008,7920.203579,-5551.544565,689.485948
1368.006337,7550.100608,-7105.977043,1915.238745
1368.006666,6883.915261,-7550.100608,1915.238745
1368.006995,6513.812290,-6587.832884,919.314598
1368.007324,6735.874072,-5773.606348,919.314598
1368.007653,6513.812290,-7105.977043,1072.533697
1368.007982,6513.812290,-8438.347739,1225.752797
1368.008311,5699.585753,-7698.141797,1072.533697
1368.008640,5995.668130,-6587.832884,229.828649
1368.008969,7031.956449,-5181.441594,1302.362347
1368.009298,8290.306550,-5921.647536,1762.019645
1368.009627,8512.368333,-7105.977043,1838.629195
1368.009956,7179.997637,-7402.059420,1685.410096
1368.010285,6069.688724,-6587.832884,766.095498
1368.010614,6291.750507,-6217.729913,536.266849
1368.010944,7105.977043,-6439.791695,1072.533697
1368.011273,7254.018232,-7105.977043,1685.410096
1368.011602,6735.874072,-7105.977043,1378.971896
1368.011931,6513.812290,-5477.523971,1072.533697
1368.012260,6735.874072,-5107.421000,536.266849
1368.012589,7550.100608,-5033.400406,459.657299
1368.012918,7772.162391,-6513.812290,1455.581446
1368.013247,7105.977043,-7550.100608,1225.752797
1368.013576,6069.688724,-6291.750507,1225.752797
1368.013905,6587.832884,-5995.668130,689.485948
1368.014234,7846.182985,-5699.585753,612.876398
1368.014563,8438.347739,-6365.771101,1991.848295
1368.014892,7179.997637,-6883.915261,1532.190996
1368.015221,5773.606348,-7105.977043,689.485948
1368.015550,6143.709319,-4737.318029,76.609550
1368.015879,7105.977043,-4441.235652,229.828649
1368.016208,8068.244768,-5995.668130,1149.143247
1368.016537,7698.141797,-7772.162391,2374.896044
1368.016866,6439.791695,-7994.224174,1685.410096
1368.017195,5773.606348,-7179.997637,229.828649
1368.017524,5403.503377,-7105.977043,383.047749
1368.017853,6291.750507,-7624.121203,766.095498
1368.018182,6291.750507,-8438.347739,1225.752797
1368.018511,6291.750507,-7846.182985,1608.800546
1368.018840,6513.812290,-5995.668130,612.876398
1368.019169,7772.162391,-4219.173869,536.266849
1368.019498,8142.265362,-4367.215058,1225.752797
1368.019827,8142.265362,-5625.565159,1455.581446
1368.020156,7476.080014,-6439.791695,1532.190996
1368.020485,6735.874072,-5921.647536,766.095498
1368.020814,7105.977043,-5477.523971,689.485948
1368.021143,8068.244768,-6069.688724,1149.143247
1368.021472,8364.327145,-6809.894666,1762.019645
1368.021801,7105.977043,-7920.203579,1455.581446
1368.022130,6513.812290,-7031.956449,1149.143247
1368.022459,7105.977043,-4293.194464,689.485948
1368.022788,7772.162391,-5551.544565,1149.143247
1368.023118,7920.203579,-6883.915261,1455.581446
1368.023447,6217.729913,-8068.244768,1072.533697
1368.023776,4959.379811,-8142.265362,689.485948
1368.024105,5033.400406,-7179.997637,306.438199
1368.024434,5847.626942,-7624.121203,612.876398
1368.024763,6513.812290,-7772.162391,995.924147
1368.025092,5847.626942,-7328.038826,919.314598
1368.025421,5995.668130,-6809.894666,1149.143247
1368.025750,7254.018232,-4663.297435,842.705048
1368.026079,9030.512492,-4293.194464,1302.362347
1368.026408,8956.491898,-5551.544565,2374.896044
1368.026737,7624.121203,-7031.956449,2451.505594
1368.027066,5699.585753,-7772.162391,1302.362347
1368.027395,4737.318029,-6883.915261,229.828649
1368.027724,5107.421000,-6143.709319,0.000000
1368.028053,6365.771101,-7994.224174,1455.581446
1368.028382,6809.894666,-7698.141797,1838.629195
1368.028711,6883.915261,-6809.894666,1149.143247
1368.029040,7179.997637,-5551.544565,919.314598
1368.029369,8438.347739,-3775.050304,1149.143247
1368.029698,9104.533087,-5033.400406,1532.190996
1368.030027,7402.059420,-7105.977043,2298.286494
1368.030356,5773.606348,-7402.059420,919.314598
1368.030685,4959.379811,-7402.059420,-153.219100
1368.031014,5551.544565,-7105.977043,0.000000
1368.031343,7179.997637,-7624.121203,1149.143247
1368.031672,8142.265362,-7698.141797,1532.190996
1368.032001,7105.977043,-7772.162391,1685.410096
1368.032330,5773.606348,-5699.585753,919.314598
1368.032659,6661.853478,-4663.297435,229.828649
1368.032988,7920.203579,-4737.318029,842.705048
1368.033317,7624.121203,-5995.668130,919.314598
1368.033646,6513.812290,-7476.080014,1685.410096
1368.033975,6291.750507,-6809.894666,1378.971896
1368.034304,7105.977043,-5699.585753,766.095498
1368.034633,7624.121203,-5847.626942,766.095498
1368.034962,7772.162391,-6439.791695,1685.410096
1368.035292,7328.038826,-7698.141797,1225.752797
1368.035621,6365.771101,-6513.812290,1149.143247
1368.035950,6217.729913,-5329.482782,383.047749
1368.036279,7994.224174,-4663.297435,153.219100
1368.036608,7698.141797,-7179.997637,995.924147
1368.036937,6365.771101,-8734.430116,1532.190996
1368.037266,5329.482782,-9104.533087,689.485948
1368.037595,5699.585753,-7254.018232,229.828649
1368.037924,6809.894666,-6439.791695,76.609550
1368.038253,7328.038826,-6883.915261,1225.752797
1368.038582,7328.038826,-7476.080014,1608.800546
1368.038911,6957.935855,-6735.874072,842.705048
1368.039240,7254.018232,-4515.256246,1072.533697
1368.039569,8586.388927,-3627.009116,689.485948
1368.039898,9104.533087,-5033.400406,1378.971896
1368.040227,8142.265362,-6661.853478,1838.629195
1368.040556,6513.812290,-7698.141797,1302.362347
1368.040885,6661.853478,-6587.832884,1149.143247
1368.041214,7254.018232,-5995.668130,995.924147
1368.041543,7772.162391,-5995.668130,1225.752797
1368.041872,7328.038826,-7328.038826,1302.362347
1368.042201,5995.668130,-7179.997637,459.657299
1368.042530,5625.565159,-6143.709319,306.438199
1368.042859,7179.997637,-5033.400406,229.828649
1368.043188,8808.450710,-4441.235652,1225.752797
1368.043517,8512.368333,-7328.038826,1225.752797
1368.043846,6735.874072,-8660.409521,1991.848295
1368.044175,5107.421000,-8068.244768,306.438199
1368.044504,5625.565159,-7105.977043,-229.828649
1368.044833,6439.791695,-7254.018232,536.266849
1368.045162,7402.059420,-7772.162391,1532.190996
1368.045491,6883.915261,-8142.265362,1225.752797
1368.045820,6143.709319,-7254.018232,995.924147
1368.046149,6587.832884,-5329.482782,153.219100
1368.046478,7698.141797,-4367.215058,0.000000
1368.046807,7698.141797,-5773.606348,1685.410096
1368.047136,7254.018232,-6883.915261,2068.457845
1368.047465,6513.812290,-6809.894666,1378.971896
1368.047795,6513.812290,-5847.626942,842.705048
1368.048124,7772.162391,-5255.462188,383.047749
1368.048453,7920.203579,-5921.647536,2068.457845
1368.048782,7920.203579,-6957.935855,2298.286494
1368.049111,6883.915261,-6513.812290,1149.143247
1368.049440,6587.832884,-5699.585753,612.876398
1368.049769,6957.935855,-3849.070898,1378.971896
1368.050098,8290.306550,-6291.750507,1149.143247
1368.050427,7328.038826,-7402.059420,2451.505594
1368.050756,5477.523971,-7994.224174,919.314598
1368.051085,4589.276840,-7402.059420,-153.219100
1368.051414,5329.482782,-6587.832884,229.828649
1368.051743,7031.956449,-7402.059420,1072.533697
1368.052072,7550.100608,-7846.182985,1608.800546
1368.052401,6809.894666,-7254.018232,1225.752797
1368.052730,6069.688724,-5847.626942,689.485948
1368.053059,7328.038826,-4367.215058,306.438199
1368.053388,8364.327145,-5403.503377,1149.143247
1368.053717,8364.327145,-7031.956449,2068.457845
1368.054046,6439.791695,-7105.977043,1762.019645
1368.054375,5181.441594,-7105.977043,689.485948
1368.054704,5255.462188,-5477.523971,0.000000
1368.055033,6883.915261,-5403.503377,842.705048
1368.055362,8216.285956,-6587.832884,2221.676944
1368.055691,7994.224174,-6957.935855,2681.334243
1368.056020,7550.100608,-5551.544565,2145.067394
1368.056349,7994.224174,-3775.050304,919.314598
1368.056678,8290.306550,-4515.256246,1302.362347
1368.057007,8142.265362,-6661.853478,1685.410096
1368.057336,7105.977043,-8808.450710,2068.457845
1368.057665,5551.544565,-8216.285956,995.924147
1368.057994,4885.359217,-7328.038826,0.000000
1368.058323,5847.626942,-8364.327145,0.000000
1368.058652,6513.812290,-8808.450710,766.095498
1368.058981,5995.668130,-9474.636058,919.314598
1368.059310,4959.379811,-8586.388927,383.047749
1368.059639,6143.709319,-5921.647536,0.000000
1368.059969,7105.977043,-4589.276840,-229.828649
1368.060298,8068.244768,-5995.668130,995.924147
1368.060627,8364.327145,-7031.956449,1378.971896
1368.060956,7846.182985,-6587.832884,1225.752797
1368.061285,7624.121203,-5329.482782,459.657299
1368.061614,8068.244768,-5699.585753,1378.971896
1368.061943,9400.615463,-5847.626942,1991.848295
1368.062272,8290.306550,-6957.935855,1838.629195
1368.062601,7105.977043,-5921.647536,1685.410096
1368.062930,6809.894666,-4367.215058,383.047749
1368.063259,7402.059420,-3849.070898,229.828649
1368.063588,7920.203579,-5329.482782,995.924147
1368.063917,6735.874072,-7105.977043,1532.190996
1368.064246,5625.565159,-8068.244768,766.095498
1368.064575,5403.503377,-8586.388927,842.705048
1368.064904,5773.606348,-7254.018232,689.485948
1368.065233,6735.874072,-7698.141797,842.705048
1368.065562,7105.977043,-8142.265362,919.314598
1368.065891,6513.812290,-7179.997637,919.314598
1368.066220,6957.935855,-6217.729913,229.828649
1368.066549,7994.224174,-3997.112087,536.266849
1368.066878,9474.636058,-3627.009116,1072.533697
1368.067207,9474.636058,-6365.771101,2451.505594
1368.067536,8512.368333,-6883.915261,2298.286494
1368.067865,6883.915261,-5625.565159,919.314598
1368.068194,6291.750507,-5477.523971,383.047749
1368.068523,6735.874072,-5995.668130,306.438199
1368.068852,6365.771101,-6957.935855,919.314598
1368.069181,5995.668130,-7698.141797,1608.800546
1368.069510,5625.565159,-7105.977043,1685.410096
1368.069839,6661.853478,-5329.482782,383.047749
1368.070168,7254.018232,-5625.565159,612.876398
1368.070497,6883.915261,-6587.832884,1455.581446
1368.070826,7920.203579,-7698.141797,2145.067394
1368.071155,6513.812290,-7846.182985,1149.143247
1368.071484,5255.462188,-7105.977043,459.657299
1368.071813,5477.523971,-6809.894666,0.000000
1368.072143,6069.688724,-8142.265362,612.876398
1368.072472,6291.750507,-8882.471304,1532.190996
1368.072801,6069.688724,-7476.080014,919.314598
1368.073130,7105.977043,-5477.523971,612.876398
1368.073459,8142.265362,-4367.215058,536.266849
1368.073788,8438.347739,-7105.977043,2298.286494
1368.074117,7920.203579,-7254.018232,1149.143247
1368.074446,6513.812290,-6661.853478,76.609550
1368.074775,5995.668130,-6883.915261,229.828649
1368.075104,7476.080014,-5699.585753,842.705048
1368.075433,8882.471304,-6661.853478,2528.115143
1368.075762,8586.388927,-6957.935855,2451.505594
1368.076091,6513.812290,-6365.771101,1378.971896
1368.076420,5921.647536,-5403.503377,306.438199
1368.076749,6587.832884,-3849.070898,153.219100
1368.077079,8142.265362,-5625.565159,1915.238745
1368.077408,7772.162391,-7105.977043,1915.238745
1368.077737,6439.791695,-8216.285956,1915.238745
1368.078066,4959.379811,-7846.182985,536.266849
1368.078395,5255.462188,-6661.853478,-459.657299
1368.078724,5773.606348,-7105.977043,612.876398
1368.079053,6809.894666,-8290.306550,1302.362347
1368.079383,7105.977043,-9178.553681,1455.581446
1368.079712,7179.997637,-6809.894666,1378.971896
1368.080041,7846.182985,-4441.235652,76.609550
1368.080370,7994.224174,-3701.029710,229.828649
1368.080699,8512.368333,-5773.606348,1378.971896
1368.081028,7846.182985,-7179.997637,1762.019645
1368.081358,6439.791695,-7105.977043,1225.752797
1368.081687,6143.709319,-5329.482782,383.047749
1368.082016,6809.894666,-5773.606348,536.266849
1368.082345,7698.141797,-6661.853478,1302.362347
1368.082674,7698.141797,-6883.915261,1915.238745
1368.083003,7105.977043,-6439.791695,1455.581446
1368.083332,7031.956449,-5033.400406,0.000000
1368.083662,7179.997637,-4145.153275,0.000000
1368.083991,8142.265362,-6291.750507,1378.971896
1368.084320,7920.203579,-7328.038826,1762.019645
1368.084649,6365.771101,-8512.368333,1149.143247
1368.084978,5181.441594,-8290.306550,536.266849
1368.085307,5403.503377,-7179.997637,229.828649
1368.085637,5847.626942,-8438.347739,689.485948
1368.085966,5847.626942,-8956.491898,1302.362347
1368.086295,5033.400406,-8512.368333,1149.143247
1368.086624,6143.709319,-6513.812290,229.828649
1368.086953,7179.997637,-3997.112087,0.000000
1368.087282,8660.409521,-4663.297435,1072.533697
1368.087611,9104.533087,-6439.791695,1302.362347
1368.087941,7402.059420,-6883.915261,1608.800546
1368.088270,6513.812290,-7328.038826,919.314598
1368.088599,7179.997637,-5477.523971,612.876398
1368.088928,7476.080014,-6143.709319,1225.752797
1368.089257,7920.203579,-7179.997637,1455.581446
1368.089586,7105.977043,-6587.832884,1378.971896
1368.089915,6587.832884,-5995.668130,842.705048
1368.090245,7328.038826,-4663.297435,459.657299
1368.090574,8142.265362,-4811.338623,1302.362347
1368.090903,8512.368333,-6957.935855,1838.629195
1368.091232,7105.977043,-8290.306550,1991.848295
1368.091561,5995.668130,-7698.141797,995.924147
1368.091890,5329.482782,-6883.915261,0.000000
1368.092220,6365.771101,-7550.100608,1149.143247
1368.092549,7624.121203,-7846.182985,1991.848295
1368.092878,7179.997637,-7846.182985,1378.971896
1368.093207,5921.647536,-6883.915261,536.266849
1368.093536,5329.482782,-5403.503377,306.438199
1368.093865,7179.997637,-5329.482782,0.000000
1368.094194,7550.100608,-6365.771101,1072.533697
1368.094524,7254.018232,-7105.977043,1762.019645
1368.094853,6439.791695,-7179.997637,689.485948
1368.095182,6439.791695,-5699.585753,383.047749
1368.095511,7254.018232,-5625.565159,689.485948
1368.095840,8290.306550,-7254.018232,1608.800546
1368.096169,8364.327145,-6809.894666,2221.676944
1368.096499,6439.791695,-6217.729913,1225.752797
1368.096828,5921.647536,-5255.462188,306.438199
1368.097157,7402.059420,-4367.215058,842.705048
1368.097486,8956.491898,-5847.626942,1838.629195
1368.097815,8364.327145,-7402.059420,2681.334243
1368.098144,6661.853478,-6883.915261,1532.190996
1368.098473,5033.400406,-6883.915261,76.609550
1368.098803,5033.400406,-6069.688724,0.000000
1368.099132,5625.565159,-7254.018232,306.438199
1368.099461,6069.688724,-8956.491898,1072.533697
1368.099790,6439.791695,-8068.244768,1608.800546
1368.100119,6957.935855,-6735.874072,919.314598
1368.100448,7105.977043,-4885.359217,995.924147
1368.100778,7624.121203,-5477.523971,1072.533697
1368.101107,7105.977043,-7846.182985,1685.410096
1368.101436,5847.626942,-7254.018232,919.314598
1368.101765,5107.421000,-7105.977043,995.924147
1368.102094,6883.915261,-5107.421000,383.047749
1368.102423,7920.203579,-5107.421000,1149.143247
1368.102752,8364.327145,-6513.812290,2221.676944
1368.103082,8068.244768,-6735.874072,1838.629195
1368.103411,7328.038826,-5921.647536,1149.143247
1368.103740,7402.059420,-4219.173869,459.657299
1368.104069,8438.347739,-4737.318029,842.705048
1368.104398,8438.347739,-7031.956449,2451.505594
1368.104727,7920.203579,-8290.306550,2068.457845
1368.105057,5847.626942,-8438.347739,1378.971896
1368.105386,5033.400406,-6513.812290,-229.828649
1368.105715,5551.544565,-7105.977043,-689.485948
1368.106044,6439.791695,-8290.306550,1302.362347
1368.106373,7105.977043,-7994.224174,2068.457845
1368.106702,6809.894666,-7550.100608,1608.800546
1368.107031,6957.935855,-5181.441594,1149.143247
1368.107361,7698.141797,-3701.029710,536.266849
1368.107690,7624.121203,-5181.441594,383.047749
1368.108019,6513.812290,-6957.935855,995.924147
1368.108348,5329.482782,-8142.265362,536.266849
1368.108677,5625.565159,-7846.182985,612.876398
1368.109006,6735.874072,-6439.791695,919.314598
1368.109336,7476.080014,-6809.894666,1072.533697
1368.109665,7179.997637,-7772.162391,1685.410096
1368.109994,6143.709319,-7031.956449,995.924147
1368.110323,6439.791695,-5255.462188,0.000000
1368.110652,7772.162391,-4071.132681,689.485948
1368.110981,9104.533087,-4219.173869,1455.581446
1368.111310,8808.450710,-6143.709319,1455.581446
1368.111640,7179.997637,-7328.038826,1915.238745
1368.111969,5995.668130,-7105.977043,383.047749
1368.112298,6365.771101,-6883.915261,995.924147
1368.112627,7105.977043,-7105.977043,1685.410096
1368.112956,6883.915261,-7624.121203,1455.581446
1368.113285,5773.606348,-7179.997637,1225.752797
1368.113614,5699.585753,-6883.915261,919.314598
1368.113944,6439.791695,-5551.544565,153.219100
1368.114273,7476.080014,-5921.647536,919.314598
1368.114602,7254.018232,-6957.935855,2068.457845
1368.114931,6291.750507,-8438.347739,1762.019645
1368.115260,5477.523971,-7031.956449,536.266849
1368.115589,5625.565159,-6217.729913,0.000000
1368.115919,7105.977043,-6069.688724,383.047749
1368.116248,8364.327145,-5995.668130,2068.457845
1368.116577,7772.162391,-7402.059420,2298.286494
1368.116906,7402.059420,-5699.585753,995.924147
1368.117235,6883.915261,-4811.338623,766.095498
1368.117564,8068.244768,-4515.256246,612.876398
1368.117893,9178.553681,-5477.523971,1455.581446
1368.118223,8142.265362,-6809.894666,2528.115143
1368.118552,6365.771101,-6809.894666,1072.533697
1368.118881,5403.503377,-6957.935855,612.876398
1368.119210,5773.606348,-5773.606348,995.924147
1368.119539,6957.935855,-7105.977043,995.924147
1368.119868,6735.874072,-7846.182985,1455.581446
1368.120198,5625.565159,-6735.874072,995.924147
1368.120527,6661.853478,-5921.647536,536.266849
1368.120856,7846.182985,-4663.297435,383.047749
1368.121185,7920.203579,-5699.585753,229.828649
1368.121514,7550.100608,-7476.080014,1608.800546
1368.121843,6513.812290,-8068.244768,1455.581446
1368.122172,6291.750507,-7402.059420,536.266849
1368.122502,5995.668130,-5847.626942,919.314598
1368.122831,7328.038826,-6587.832884,1149.143247
1368.123160,7402.059420,-7772.162391,995.924147
1368.123489,6143.709319,-6809.894666,919.314598
1368.123818,6365.771101,-6143.709319,919.314598
1368.124147,7994.224174,-4737.318029,306.438199
1368.124477,8512.368333,-4737.318029,1532.190996
1368.124806,8142.265362,-6513.812290,1608.800546
1368.125135,7031.956449,-7328.038826,1072.533697
1368.125464,5921.647536,-6735.874072,0.000000
1368.125793,6069.688724,-6513.812290,76.609550
1368.126122,7105.977043,-6957.935855,1225.752797
1368.126451,7402.059420,-7920.203579,1838.629195
1368.126781,6735.874072,-8142.265362,689.485948
1368.127110,6143.709319,-7031.956449,1072.533697
1368.127439,6809.894666,-5477.523971,306.438199
1368.127768,8216.285956,-4293.194464,995.924147
1368.128097,8734.430116,-6439.791695,1762.019645
1368.128426,7994.224174,-7105.977043,1685.410096
1368.128756,6069.688724,-8142.265362,1149.143247
1368.129085,5847.626942,-7254.018232,1225.752797
1368.129414,6809.894666,-5995.668130,383.047749
1368.129743,6883.915261,-7328.038826,842.705048
1368.130072,6143.709319,-7105.977043,1149.143247
1368.130401,5847.626942,-7476.080014,229.828649
1368.130730,6735.874072,-6069.688724,766.095498
1368.131060,8216.285956,-4737.318029,766.095498
1368.131389,8734.430116,-5773.606348,1915.238745
1368.131718,7994.224174,-6883.915261,2068.457845
1368.132047,6143.709319,-7402.059420,842.705048
1368.132376,5329.482782,-7254.018232,919.314598
1368.132705,6143.709319,-5403.503377,612.876398
1368.133034,7031.956449,-6883.915261,1149.143247
1368.133364,7105.977043,-6957.935855,1762.019645
1368.133693,6513.812290,-7550.100608,1838.629195
1368.134022,7254.018232,-6069.688724,1072.533697
1368.134351,7402.059420,-4663.297435,1532.190996
1368.134680,7920.203579,-4219.173869,766.095498
1368.135009,7846.182985,-6291.750507,995.924147
1368.135339,6809.894666,-7328.038826,1532.190996
1368.135668,5847.626942,-7698.141797,1072.533697
1368.135997,5699.585753,-8882.471304,1225.752797
1368.136326,6809.894666,-5181.441594,1225.752797
1368.136655,6957.935855,-7920.203579,1532.190996
1368.136984,6291.750507,-7476.080014,1225.752797
1368.137313,6365.771101,-4441.235652,766.095498
1368.137643,8142.265362,-4589.276840,612.876398
1368.137972,8882.471304,-3256.906145,1072.533697
1368.138301,8512.368333,-5403.503377,2068.457845
1368.138630,7846.182985,-6291.750507,1378.971896
1368.138959,6143.709319,-6365.771101,1225.752797
1368.139288,5551.544565,-7550.100608,536.266849
1368.139618,6587.832884,-7105.977043,842.705048
1368.139947,7698.141797,-7031.956449,1149.143247
1368.140276,7105.977043,-8142.265362,1455.581446
1368.140605,6217.729913,-6883.915261,1378.971896
1368.140934,6809.894666,-7031.956449,459.657299
1368.141263,7624.121203,-4663.297435,229.828649
1368.141592,7624.121203,-6217.729913,1225.752797
1368.141922,6957.935855,-7772.162391,1685.410096
1368.142251,6587.832884,-6883.915261,995.924147
1368.142580,5773.606348,-7698.141797,383.047749
1368.142909,7031.956449,-6143.709319,689.485948
1368.143238,7772.162391,-7105.977043,1762.019645
1368.143567,7698.141797,-7031.956449,2451.505594
1368.143897,6291.750507,-7105.977043,995.924147
1368.144226,5625.565159,-6735.874072,0.000000
1368.144555,6513.812290,-5107.421000,306.438199
1368.144884,7772.162391,-5847.626942,1149.143247
1368.145213,8438.347739,-7254.018232,1838.629195
1368.145542,7105.977043,-7179.997637,1608.800546
1368.145871,5477.523971,-7476.080014,153.219100
1368.146201,5847.626942,-6735.874072,0.000000
1368.146530,6069.688724,-7402.059420,842.705048
1368.146859,6661.853478,-7920.203579,1149.143247
1368.147188,6587.832884,-7624.121203,1225.752797
1368.147517,6513.812290,-5773.606348,842.705048
1368.147846,7698.141797,-5107.421000,1149.143247
1368.148176,8438.347739,-4589.276840,1532.190996
1368.148505,8068.244768,-6069.688724,1838.629195
1368.148834,6809.894666,-6883.915261,1762.019645
1368.149163,5773.606348,-6069.688724,536.266849
1368.149492,6217.729913,-5255.462188,306.438199
1368.149821,7179.997637,-5847.626942,383.047749
1368.150150,7624.121203,-6883.915261,1991.848295
1368.150480,7402.059420,-7105.977043,1762.019645
1368.150809,7031.956449,-5921.647536,1608.800546
1368.151138,7624.121203,-4959.379811,1302.362347
1368.151467,7920.203579,-4885.359217,766.095498
1368.151796,7698.141797,-6291.750507,1991.848295
1368.152125,7105.977043,-7550.100608,1685.410096
1368.152455,6513.812290,-7105.977043,689.485948
1368.152784,6291.750507,-6069.688724,1608.800546
1368.153113,6957.935855,-6587.832884,766.095498
1368.153442,7254.018232,-7550.100608,766.095498
1368.153771,6661.853478,-8068.244768,1149.143247
1368.154100,6291.750507,-7105.977043,536.266849
1368.154429,6957.935855,-5329.482782,612.876398
1368.154759,7254.018232,-4589.276840,0.000000
1368.155088,7254.018232,-5699.585753,536.266849
1368.155417,7179.997637,-7402.059420,995.924147
1368.155746,6143.709319,-8512.368333,1072.533697
1368.156075,6069.688724,-7476.080014,766.095498
1368.156404,6809.894666,-6587.832884,536.266849
1368.156733,6957.935855,-6735.874072,842.705048
1368.157063,6735.874072,-8068.244768,1762.019645
1368.157392,6069.688724,-7550.100608,1455.581446
1368.157721,6291.750507,-5329.482782,76.609550
1368.158050,7698.141797,-4663.297435,842.705048
1368.158379,9400.615463,-4737.318029,2068.457845
1368.158708,8956.491898,-6217.729913,2145.067394
1368.159038,7031.956449,-7550.100608,1455.581446
1368.159367,5329.482782,-7328.038826,689.485948
1368.159696,5699.585753,-6217.729913,-383.047749
1368.160025,6069.688724,-6809.894666,536.266849
1368.160354,7328.038826,-7846.182985,1302.362347
1368.160683,6957.935855,-7698.141797,1072.533697
1368.161012,6809.894666,-7031.956449,1225.752797
1368.161342,7402.059420,-4885.359217,383.047749
1368.161671,8512.368333,-4737.318029,842.705048
1368.162000,8438.347739,-5329.482782,1838.629195
1368.162329,7550.100608,-7031.956449,919.314598
1368.162658,6513.812290,-7624.121203,1532.190996
1368.162987,6513.812290,-6587.832884,842.705048
1368.163317,7772.162391,-6217.729913,536.266849
1368.163646,7476.080014,-7179.997637,1149.143247
1368.163975,6735.874072,-8068.244768,1532.190996
1368.164304,5921.647536,-7994.224174,842.705048
1368.164633,5847.626942,-5477.523971,383.047749
1368.164962,6661.853478,-5107.421000,229.828649
1368.165291,6957.935855,-5995.668130,766.095498
1368.165621,6735.874072,-7402.059420,2145.067394
1368.165950,6217.729913,-7994.224174,1685.410096
1368.166279,5847.626942,-7105.977043,76.609550
1368.166608,5921.647536,-6513.812290,229.828649
1368.166937,7698.141797,-6809.894666,1455.581446
1368.167266,8216.285956,-7920.203579,1915.238745
1368.167596,7179.997637,-6809.894666,2374.896044
1368.167925,7105.977043,-4663.297435,229.828649
1368.168254,8216.285956,-3849.070898,536.266849
1368.168583,8660.409521,-4663.297435,1225.752797
1368.168912,7476.080014,-6883.915261,1608.800546
1368.169241,6365.771101,-6957.935855,1685.410096
1368.169570,6069.688724,-6069.688724,536.266849
1368.169900,6587.832884,-5551.544565,842.705048
1368.170229,7105.977043,-6217.729913,1532.190996
1368.170558,7698.141797,-6957.935855,2221.676944
1368.170887,7179.997637,-6439.791695,1685.410096
1368.171216,6439.791695,-6291.750507,919.314598
1368.171545,7402.059420,-5107.421000,1455.581446
1368.171875,8512.368333,-5625.565159,1685.410096
1368.172204,7920.203579,-6365.771101,1838.629195
1368.172533,5403.503377,-7772.162391,1532.190996
1368.172862,4811.338623,-8290.306550,766.095498
1368.173191,5181.441594,-6809.894666,0.000000
1368.173520,6143.709319,-7328.038826,689.485948
1368.173849,6883.915261,-8660.409521,1378.971896
1368.174179,6439.791695,-8660.409521,995.924147
1368.174508,5477.523971,-8216.285956,306.438199
1368.174837,5773.606348,-5921.647536,229.828649
1368.175166,7698.141797,-5181.441594,0.000000
1368.175495,7772.162391,-5995.668130,1302.362347
1368.175824,7476.080014,-7328.038826,1762.019645
1368.176153,7402.059420,-7105.977043,1225.752797
1368.176483,6661.853478,-5995.668130,0.000000
1368.176812,7402.059420,-5551.544565,1455.581446
1368.177141,7550.100608,-6957.935855,1302.362347
1368.177470,6587.832884,-7105.977043,1072.533697
1368.177799,6143.709319,-7105.977043,536.266849
1368.178128,6957.935855,-6143.709319,229.828649
1368.178457,8142.265362,-4293.194464,1302.362347
1368.178787,8512.368333,-5847.626942,1762.019645
1368.179116,7624.121203,-7179.997637,1685.410096
1368.179445,5699.585753,-7698.141797,842.705048
1368.179774,5255.462188,-7105.977043,153.219100
1368.180103,5847.626942,-6143.709319,383.047749
1368.180432,7105.977043,-7031.956449,995.924147
1368.180761,7550.100608,-8068.244768,1915.238745
1368.181090,6587.832884,-6809.894666,1455.581446
1368.181420,5921.647536,-6291.750507,1455.581446
1368.181749,7179.997637,-4959.379811,229.828649
1368.182078,8290.306550,-4145.153275,612.876398
1368.182407,7994.224174,-5625.565159,919.314598
1368.182736,7402.059420,-6735.874072,1072.533697
1368.183065,7031.956449,-6735.874072,1149.143247
1368.183394,7179.997637,-6217.729913,689.485948
1368.183723,7328.038826,-5699.585753,919.314598
1368.184053,7550.100608,-7031.956449,1532.190996
1368.184382,6661.853478,-7402.059420,1072.533697
1368.184711,6143.709319,-6513.812290,1225.752797
1368.185040,6883.915261,-4885.359217,383.047749
1368.185369,8438.347739,-4663.297435,1072.533697
1368.185698,8142.265362,-6291.750507,1532.190996
1368.186027,7254.018232,-8068.244768,1838.629195
1368.186356,5403.503377,-7698.141797,995.924147
1368.186686,5625.565159,-6661.853478,153.219100
1368.187015,5921.647536,-5995.668130,153.219100
1368.187344,7105.977043,-6809.894666,1149.143247
1368.187673,7476.080014,-7031.956449,1991.848295
1368.188002,6957.935855,-7031.956449,1302.362347
1368.188331,6809.894666,-5847.626942,842.705048
1368.188660,7624.121203,-3997.112087,76.609550
1368.188989,8586.388927,-5403.503377,1302.362347
1368.189318,7994.224174,-7254.018232,2068.457845
1368.189648,7105.977043,-7920.203579,1762.019645
1368.189977,6735.874072,-7105.977043,383.047749
1368.190306,6291.750507,-5699.585753,306.438199
1368.190635,6883.915261,-6661.853478,536.266849
1368.190964,6809.894666,-8660.409521,1378.971896
1368.191293,6217.729913,-8142.265362,1225.752797
1368.191622,6365.771101,-6661.853478,689.485948
1368.191951,7920.203579,-3849.070898,536.266849
1368.192281,8364.327145,-4515.256246,842.705048
1368.192610,8142.265362,-6217.729913,1762.019645
1368.192939,6587.832884,-7105.977043,1455.581446
1368.193268,4737.318029,-7254.018232,842.705048
1368.193597,5329.482782,-5995.668130,0.000000
1368.193926,6365.771101,-7105.977043,995.924147
1368.194255,7105.977043,-8734.430116,2145.067394
1368.194584,6587.832884,-9178.553681,1915.238745
1368.194914,6069.688724,-6809.894666,1225.752797
1368.195243,6809.894666,-5107.421000,612.876398
1368.195572,7920.203579,-5107.421000,842.705048
1368.195901,7846.182985,-5699.585753,1838.629195
1368.196230,7105.977043,-8142.265362,2145.067394
1368.196559,6069.688724,-6883.915261,1225.752797
1368.196888,5773.606348,-5847.626942,306.438199
1368.197217,6587.832884,-5255.462188,536.266849
1368.197547,7920.203579,-6217.729913,1532.190996
1368.197876,7994.224174,-7254.018232,2068.457845
1368.198205,6735.874072,-6809.894666,1532.190996
1368.198534,6735.874072,-5033.400406,612.876398
1368.198863,7698.141797,-3701.029710,0.000000
1368.199192,7476.080014,-5625.565159,842.705048
1368.199521,6957.935855,-7624.121203,2451.505594
1368.199850,5625.565159,-8216.285956,1302.362347
1368.200179,5107.421000,-7846.182985,306.438199
1368.200509,5403.503377,-6143.709319,229.828649
1368.200838,6513.812290,-7476.080014,1072.533697
1368.201167,7698.141797,-7698.141797,2145.067394
1368.201496,7254.018232,-6957.935855,1532.190996
1368.201825,7031.956449,-5995.668130,766.095498
1368.202154,7846.182985,-3627.009116,842.705048
1368.202483,8734.430116,-4145.153275,842.705048
1368.202812,7994.224174,-6661.853478,1762.019645
1368.203142,7105.977043,-7105.977043,1608.800546
1368.203471,6809.894666,-7476.080014,766.095498
1368.203800,6883.915261,-6291.750507,536.266849
1368.204129,6957.935855,-7105.977043,1762.019645
1368.204458,7254.018232,-7254.018232,1225.752797
1368.204787,6069.688724,-7402.059420,383.047749
1368.205116,4737.318029,-6439.791695,-459.657299
1368.205445,6513.812290,-5329.482782,0.000000
1368.205775,8438.347739,-4811.338623,1378.971896
1368.206104,9400.615463,-7105.977043,2451.505594
1368.206433,8438.347739,-7846.182985,2834.553343
1368.206762,6957.935855,-7254.018232,1455.581446
1368.207091,5477.523971,-6143.709319,229.828649
1368.207420,5107.421000,-6513.812290,-229.828649
1368.207749,5995.668130,-7328.038826,459.657299
1368.208078,7550.100608,-7698.141797,1608.800546
1368.208408,7846.182985,-7105.977043,1378.971896
1368.208737,8438.347739,-5625.565159,1455.581446
1368.209066,8068.244768,-4737.318029,612.876398
1368.209395,8438.347739,-5329.482782,1532.190996
1368.209724,6661.853478,-5995.668130,1072.533697
1368.210053,4811.338623,-7254.018232,0.000000
1368.210382,4811.338623,-6587.832884,153.219100
1368.210711,6143.709319,-6661.853478,0.000000
1368.211041,7698.141797,-7698.141797,1685.410096
1368.211370,8142.265362,-7624.121203,2528.115143
1368.211699,7105.977043,-6809.894666,1685.410096
1368.212028,6883.915261,-5477.523971,459.657299
1368.212357,7624.121203,-5107.421000,536.266849
1368.212686,8882.471304,-5699.585753,766.095498
1368.213015,7254.018232,-6883.915261,1915.238745
1368.213344,6069.688724,-7772.162391,1685.410096
1368.213673,6143.709319,-7402.059420,536.266849
1368.214003,5699.585753,-7179.997637,612.876398
1368.214332,6291.750507,-7624.121203,1149.143247
1368.214661,6735.874072,-8660.409521,1532.190996
1368.214990,5773.606348,-8364.327145,919.314598
1368.215319,4959.379811,-7105.977043,153.219100
1368.215648,5699.585753,-5181.441594,229.828649
1368.215977,7402.059420,-4737.318029,536.266849
1368.216306,8586.388927,-6513.812290,1455.581446
1368.216636,7920.203579,-6513.812290,2298.286494
1368.216965,7698.141797,-6365.771101,1532.190996
1368.217294,8068.244768,-5403.503377,1225.752797
1368.217623,7846.182985,-5477.523971,1378.971896
1368.217952,6883.915261,-6735.874072,842.705048
1368.218281,5921.647536,-7031.956449,459.657299
1368.218610,5329.482782,-6957.935855,383.047749
1368.218939,7105.977043,-5255.462188,612.876398
1368.219269,9104.533087,-5477.523971,1762.019645
1368.219598,8660.409521,-6365.771101,2068.457845
1368.219927,6809.894666,-7179.997637,1455.581446
1368.220256,5255.462188,-7254.018232,612.876398
1368.220585,5255.462188,-7105.977043,153.219100
1368.220914,6217.729913,-6587.832884,536.266849
1368.221243,7254.018232,-7402.059420,1608.800546
1368.221572,7179.997637,-7698.141797,1915.238745
1368.221902,7031.956449,-7402.059420,1378.971896
1368.222231,6957.935855,-5329.482782,612.876398
1368.222560,7254.018232,-4441.235652,76.609550
1368.222889,8512.368333,-5551.544565,1072.533697
1368.223218,7698.141797,-6735.874072,1838.629195
1368.223547,6365.771101,-7476.080014,1149.143247
1368.223876,5921.647536,-6661.853478,383.047749
1368.224205,7105.977043,-6143.709319,689.485948
1368.224534,7476.080014,-6957.935855,842.705048
1368.224864,6809.894666,-7994.224174,1532.190996
1368.225193,5551.544565,-7105.977043,995.924147
1368.225522,6661.853478,-6143.709319,76.609550
1368.225851,7550.100608,-4885.359217,919.314598
1368.226180,8808.450710,-5181.441594,1608.800546
1368.226509,8734.430116,-6957.935855,1915.238745
1368.226838,6957.935855,-7179.997637,1685.410096
1368.227167,4959.379811,-7624.121203,306.438199
1368.227497,5107.421000,-7402.059420,-306.438199
1368.227826,5995.668130,-7698.141797,766.095498
1368.228155,7105.977043,-9178.553681,842.705048
1368.228484,6439.791695,-8142.265362,1608.800546
1368.228813,5921.647536,-7031.956449,995.924147
1368.229142,7624.121203,-4737.318029,383.047749
1368.229471,8734.430116,-3701.029710,1072.533697
1368.229800,8808.450710,-5403.503377,1302.362347
1368.230130,7328.038826,-6365.771101,1302.362347
1368.230459,6735.874072,-6587.832884,1532.190996
1368.230788,6957.935855,-5847.626942,1225.752797
1368.231117,7624.121203,-5773.606348,1378.971896
1368.231446,7920.203579,-5995.668130,2298.286494
1368.231775,6957.935855,-7550.100608,1378.971896
1368.232104,5477.523971,-7179.997637,459.657299
1368.232433,6365.771101,-5551.544565,766.095498
1368.232763,7402.059420,-5551.544565,536.266849
1368.233092,7550.100608,-7179.997637,1455.581446
1368.233421,6143.709319,-8364.327145,1302.362347
1368.233750,4293.194464,-9918.759623,76.609550
1368.234079,3775.050304,-9474.636058,-229.828649
1368.234408,4589.276840,-8364.327145,-229.828649
1368.234737,4737.318029,-9770.718434,766.095498
1368.235066,4959.379811,-9918.759623,766.095498
1368.235396,4589.276840,-9252.574275,536.266849
1368.235725,4589.276840,-7772.162391,-383.047749
1368.236054,6291.750507,-6439.791695,383.047749
1368.236383,7772.162391,-6439.791695,1072.533697
1368.236712,7920.203579,-7031.956449,1608.800546
1368.237041,6735.874072,-7328.038826,1455.581446
1368.237370,6439.791695,-6587.832884,1378.971896
1368.237699,7105.977043,-6439.791695,2451.505594
1368.238028,7846.182985,-5625.565159,2604.724693
1368.238358,7772.162391,-5995.668130,3294.210641
1368.238687,6735.874072,-5773.606348,2451.505594
1368.239016,5329.482782,-5403.503377,1225.752797
1368.239345,5033.400406,-5181.441594,76.609550
1368.239674,5699.585753,-5181.441594,153.219100
1368.240003,6513.812290,-7105.977043,76.609550
1368.240332,5847.626942,-9770.718434,1608.800546
1368.240661,4737.318029,-11399.171507,2068.457845
1368.240991,3849.070898,-10362.883188,0.000000
1368.241320,3256.906145,-9844.739029,-842.705048
1368.241649,2738.761985,-11621.233289,-766.095498
1368.241978,3108.864956,-13693.809927,229.828649
1368.242307,3256.906145,-13397.727550,1991.848295
1368.242636,2664.741391,-11251.130318,689.485948
1368.242965,3552.988522,-7254.018232,689.485948
1368.243294,5329.482782,-5255.462188,1991.848295
1368.243624,7254.018232,-5847.626942,2681.334243
1368.243953,7772.162391,-5921.647536,3907.087040
1368.244282,7254.018232,-4145.153275,3677.258390
1368.244611,6735.874072,-3034.844362,1378.971896
1368.244940,5255.462188,-5033.400406,612.876398
1368.245269,3997.112087,-7846.182985,612.876398
1368.245598,2886.803174,-12731.542202,0.000000
1368.245927,2886.803174,-13471.748144,919.314598
1368.246257,3034.844362,-12953.603985,1225.752797
1368.246586,4441.235652,-11473.192101,383.047749
1368.246915,4441.235652,-9770.718434,612.876398
1368.247244,3849.070898,-10436.903782,459.657299
1368.247573,3997.112087,-9252.574275,306.438199
1368.247902,4811.338623,-7254.018232,919.314598
1368.248231,5995.668130,-5773.606348,1149.143247
1368.248560,6439.791695,-6217.729913,1455.581446
1368.248889,6513.812290,-8290.306550,2068.457845
1368.249219,6439.791695,-9474.636058,2528.115143
1368.249548,5477.523971,-8808.450710,2451.505594
1368.249877,5329.482782,-7179.997637,1685.410096
1368.250206,4515.256246,-7698.141797,76.609550
1368.250535,3256.906145,-9992.780217,306.438199
1368.250864,2812.782580,-11769.274478,1302.362347
1368.251193,3256.906145,-11769.274478,1072.533697
1368.251522,4589.276840,-8660.409521,2374.896044
1368.251852,5847.626942,-6809.894666,2298.286494
1368.252181,6143.709319,-4885.359217,1685.410096
1368.252510,6365.771101,-5699.585753,1915.238745
1368.252839,5995.668130,-6587.832884,842.705048
1368.253168,6069.688724,-6439.791695,612.876398
1368.253497,7031.956449,-7105.977043,1455.581446
1368.253826,6587.832884,-8364.327145,1302.362347
1368.254155,5847.626942,-10362.883188,1149.143247
1368.254485,4145.153275,-10807.006753,0.000000
1368.254814,3330.926739,-12509.480420,-306.438199
1368.255143,3108.864956,-12139.377449,-383.047749
1368.255472,2886.803174,-11769.274478,0.000000
1368.255801,2886.803174,-11843.295072,-612.876398
1368.256130,2812.782580,-11695.253884,536.266849
1368.256459,2960.823768,-9696.697840,995.924147
1368.256788,4811.338623,-6883.915261,1762.019645
1368.257118,7698.141797,-3552.988522,3064.381992
1368.257447,9030.512492,-2368.659014,2987.772442
1368.257776,9104.533087,-1628.453072,3140.991542
1368.258105,7772.162391,-2960.823768,2221.676944
1368.258434,6809.894666,-3478.967927,229.828649
1368.258763,5995.668130,-5773.606348,-612.876398
1368.259092,5107.421000,-9622.677246,459.657299
1368.259421,4885.359217,-12953.603985,919.314598
1368.259751,4367.215058,-13545.768739,1608.800546
1368.260080,4145.153275,-12509.480420,689.485948
1368.260409,3701.029710,-13397.727550,612.876398
1368.260738,2590.720797,-11621.233289,0.000000
1368.261067,1184.329507,-12065.356855,-1149.143247
1368.261396,666.185348,-10955.047942,-1532.190996
1368.261725,814.226536,-11547.212695,383.047749
1368.262054,2590.720797,-11325.150913,1149.143247
1368.262383,4515.256246,-8068.244768,1608.800546
1368.262713,6513.812290,-4071.132681,2298.286494
1368.263042,8512.368333,-3034.844362,1302.362347
1368.263371,8882.471304,-2886.803174,3064.381992
1368.263700,8586.388927,-3404.947333,2987.772442
1368.264029,8068.244768,-5699.585753,1455.581446
1368.264358,6143.709319,-7920.203579,536.266849
1368.264687,4663.297435,-12213.398043,1302.362347
1368.265016,3552.988522,-14952.160028,1991.848295
1368.265346,3775.050304,-13989.892304,1915.238745
1368.265675,3627.009116,-12361.439231,919.314598
1368.266004,2664.741391,-9844.739029,919.314598
1368.266333,2368.659014,-8438.347739,306.438199
1368.266662,2590.720797,-7105.977043,0.000000
1368.266991,3182.885551,-6661.853478,-153.219100
1368.267320,3997.112087,-5847.626942,76.609550
1368.267649,5625.565159,-5995.668130,1532.190996
1368.267979,6735.874072,-7698.141797,2374.896044
1368.268308,7031.956449,-7920.203579,2451.505594
1368.268637,6883.915261,-8512.368333,1608.800546
1368.268966,5921.647536,-9178.553681,1685.410096
1368.269295,5329.482782,-9770.718434,2374.896044
1368.269624,5329.482782,-10510.924376,1762.019645
1368.269953,4737.318029,-9622.677246,1455.581446
1368.270282,4589.276840,-9400.615463,1685.410096
1368.270612,5033.400406,-9252.574275,2681.334243
1368.270941,5477.523971,-7476.080014,3294.210641
1368.271270,5921.647536,-6587.832884,2911.162892
1368.271599,5921.647536,-4737.318029,1838.629195
1368.271928,5033.400406,-5329.482782,1225.752797
1368.272257,5107.421000,-6661.853478,1685.410096
1368.272586,4885.359217,-7476.080014,1302.362347
1368.272915,5551.544565,-7846.182985,1532.190996
1368.273244,5625.565159,-9326.594869,1991.848295
1368.273574,5403.503377,-10658.965565,3217.601092
1368.273903,6291.750507,-11029.068536,3064.381992
1368.274232,6291.750507,-10436.903782,3140.991542
1368.274561,7105.977043,-8364.327145,3524.039291
1368.274890,7179.997637,-7772.162391,3983.696590
1368.275219,6735.874072,-6513.812290,3830.477490
1368.275548,6143.709319,-5699.585753,2911.162892
1368.275877,6069.688724,-5477.523971,2221.676944
1368.276207,5773.606348,-5921.647536,2068.457845
1368.276538,5625.565159,-6735.874072,2374.896044
1368.276867,5921.647536,-7105.977043,2068.457845
1368.277196,5921.647536,-7550.100608,2298.286494
1368.277525,5625.565159,-8142.265362,2911.162892
1368.277854,6143.709319,-8216.285956,3217.601092
1368.278183,6513.812290,-8216.285956,3370.820191
1368.278512,6735.874072,-8068.244768,4213.525239
1368.278841,7105.977043,-7624.121203,4366.744339
1368.279170,7624.121203,-6217.729913,4290.134789
1368.279499,7920.203579,-5477.523971,4673.182538
1368.279828,8586.388927,-4441.235652,4979.620737
1368.280157,8734.430116,-3997.112087,4673.182538
1368.280487,8216.285956,-4441.235652,4903.011187
1368.280816,7328.038826,-3775.050304,4519.963438
1368.281145,6735.874072,-4663.297435,3830.477490
1368.281474,6661.853478,-6217.729913,3983.696590
1368.281803,6217.729913,-7328.038826,3983.696590
1368.282132,5625.565159,-8660.409521,3907.087040
1368.282461,5699.585753,-9400.615463,4136.915689
1368.282790,5477.523971,-9622.677246,4519.963438
1368.283119,4441.235652,-10140.821405,3447.429741
1368.283448,3775.050304,-10362.883188,3677.258390
1368.283777,3923.091493,-9770.718434,4136.915689
1368.284107,5033.400406,-8068.244768,3983.696590
1368.284436,6069.688724,-7105.977043,5592.497135
1368.284765,7698.141797,-5329.482782,6358.592633
1368.285094,8882.471304,-4515.256246,5975.544884
1368.285423,9252.574275,-3849.070898,5975.544884
1368.285752,8734.430116,-2590.720797,5132.839837
1368.286081,8956.491898,-2812.782580,4596.572988
1368.286410,8512.368333,-3330.926739,3907.087040
1368.286739,8068.244768,-5403.503377,4596.572988
1368.287068,7994.224174,-6587.832884,4903.011187
1368.287397,8068.244768,-6809.894666,4826.401637
1368.287726,7402.059420,-8660.409521,4903.011187
1368.288056,6513.812290,-9252.574275,4903.011187
1368.288385,5329.482782,-9622.677246,4213.525239
1368.288714,2960.823768,-9770.718434,3524.039291
1368.289043,1998.556043,-9770.718434,2681.334243
1368.289372,2294.638420,-9104.533087,2451.505594
1368.289701,3849.070898,-8142.265362,3294.210641
1368.290030,5921.647536,-6661.853478,4826.401637
1368.290359,8438.347739,-4737.318029,5592.497135
1368.290688,9844.739029,-3330.926739,6358.592633
1368.291017,10214.842000,-2368.659014,6205.373534
1368.291346,10214.842000,-2368.659014,4826.401637
1368.291675,9696.697840,-2294.638420,3677.258390
1368.292005,8216.285956,-4959.379811,3447.429741
1368.292334,7105.977043,-6365.771101,3294.210641
1368.292663,6957.935855,-8216.285956,2987.772442
1368.292992,6587.832884,-9474.636058,2911.162892
1368.293321,6069.688724,-9326.594869,4136.915689
1368.293650,5847.626942,-9474.636058,4136.915689
1368.293979,5329.482782,-8512.368333,3753.867940
1368.294308,4959.379811,-7402.059420,3677.258390
1368.294637,5921.647536,-5625.565159,3907.087040
1368.294966,7476.080014,-4737.318029,3753.867940
1368.295295,8364.327145,-3997.112087,4290.134789
1368.295624,8734.430116,-4145.153275,3907.087040
1368.295954,8956.491898,-4589.276840,3140.991542
1368.296283,7920.203579,-5921.647536,4136.915689
1368.296612,6883.915261,-6587.832884,3447.429741
1368.296941,5847.626942,-7328.038826,3217.601092
1368.297270,5329.482782,-7105.977043,3064.381992
1368.297599,5255.462188,-7772.162391,3217.601092
1368.297928,6069.688724,-7772.162391,4443.353888
1368.298257,7105.977043,-6957.935855,4749.792088
1368.298586,7402.059420,-6883.915261,3983.696590
1368.298915,7624.121203,-5847.626942,4136.915689
1368.299244,7550.100608,-5699.585753,4290.134789
1368.299573,7772.162391,-5033.400406,3294.210641
1368.299903,7550.100608,-4293.194464,3600.648841
1368.300232,8290.306550,-3923.091493,3217.601092
1368.300561,8734.430116,-4737.318029,3600.648841
1368.300890,8808.450710,-5403.503377,3983.696590
1368.301219,7698.141797,-7476.080014,3447.429741
1368.301548,6439.791695,-9622.677246,3064.381992
1368.301877,5181.441594,-10658.965565,3064.381992
1368.302206,3997.112087,-10436.903782,3064.381992
1368.302535,3627.009116,-8808.450710,3524.039291
1368.302864,4441.235652,-7179.997637,3217.601092
1368.303193,5921.647536,-5699.585753,3524.039291
1368.303523,7031.956449,-5255.462188,4290.134789
1368.303852,7920.203579,-4959.379811,4826.401637
1368.304181,7994.224174,-4219.173869,5056.230287
1368.304510,8882.471304,-4071.132681,5056.230287
1368.304839,9992.780217,-3997.112087,5209.449386
1368.305168,10584.944971,-4367.215058,5209.449386
1368.305497,9770.718434,-4959.379811,4903.011187
1368.305826,7846.182985,-5625.565159,2911.162892
1368.306155,5921.647536,-8142.265362,2298.286494
1368.306484,4737.318029,-9622.677246,2451.505594
1368.306813,3627.009116,-11695.253884,2834.553343
1368.307142,3701.029710,-11843.295072,2757.943793
1368.307472,3256.906145,-10288.862594,2604.724693
1368.307801,4219.173869,-8882.471304,2834.553343
1368.308130,5403.503377,-6143.709319,3370.820191
1368.308459,7698.141797,-4293.194464,5132.839837
1368.308788,9474.636058,-3330.926739,5286.058936
1368.309117,10066.800811,-1184.329507,5362.668486
1368.309446,10510.924376,-1110.308913,4596.572988
1368.309775,10436.903782,-1406.391290,4903.011187
1368.310104,9548.656652,-3256.906145,4596.572988
1368.310433,7624.121203,-5995.668130,3753.867940
1368.310762,6957.935855,-7920.203579,3524.039291
1368.311091,6513.812290,-9474.636058,2987.772442
1368.311421,6661.853478,-10362.883188,2374.896044
1368.311750,4515.256246,-10436.903782,1378.971896
1368.312079,2960.823768,-8586.388927,229.828649
1368.312408,2960.823768,-7550.100608,536.266849
1368.312737,4515.256246,-6587.832884,1608.800546
1368.313066,7476.080014,-5699.585753,2757.943793
1368.313395,9030.512492,-4811.338623,4213.525239
1368.313724,9548.656652,-4589.276840,4213.525239
1368.314053,8808.450710,-4737.318029,3524.039291
1368.314382,8808.450710,-4737.318029,3677.258390
1368.314711,8882.471304,-4959.379811,2528.115143
1368.315040,8956.491898,-6069.688724,1991.848295
1368.315370,7476.080014,-7476.080014,1838.629195
1368.315699,6143.709319,-8290.306550,1608.800546
1368.316028,5625.565159,-8512.368333,1685.410096
1368.316357,5847.626942,-9178.553681,1532.190996
1368.316686,6217.729913,-9474.636058,2068.457845
1368.317015,6587.832884,-8438.347739,1762.019645
1368.317344,5773.606348,-7550.100608,1455.581446
1368.317673,5403.503377,-6291.750507,536.266849
1368.318002,5847.626942,-5033.400406,1072.533697
1368.318331,6809.894666,-4737.318029,1455.581446
1368.318660,8216.285956,-3034.844362,1378.971896
1368.318990,8438.347739,-2738.761985,1455.581446
1368.319319,8734.430116,-4515.256246,1455.581446
1368.319648,8290.306550,-6365.771101,1378.971896
1368.319977,8734.430116,-7772.162391,2298.286494
1368.320306,8660.409521,-7920.203579,1302.362347
1368.320635,6883.915261,-8660.409521,0.000000
1368.320964,4589.276840,-10214.842000,-383.047749
1368.321293,3256.906145,-9844.739029,-1685.410096
1368.321622,3849.070898,-10584.944971,-689.485948
1368.321951,5181.441594,-8956.491898,1762.019645
1368.322280,6587.832884,-5477.523971,689.485948
1368.322609,6661.853478,-4515.256246,153.219100
1368.322939,6735.874072,-3330.926739,689.485948
1368.323268,7624.121203,-3923.091493,1225.752797
1368.323597,9696.697840,-2664.741391,1991.848295
1368.323926,10436.903782,-2368.659014,2221.676944
1368.324255,10066.800811,-3330.926739,1378.971896
1368.324584,8438.347739,-5625.565159,1072.533697
1368.324913,6439.791695,-8734.430116,995.924147
1368.325242,6513.812290,-9474.636058,536.266849
1368.325571,6957.935855,-8512.368333,0.000000
1368.325900,5995.668130,-8956.491898,0.000000
1368.326229,4737.318029,-9400.615463,-536.266849
1368.326558,4589.276840,-10066.800811,-229.828649
1368.326888,5107.421000,-9104.533087,919.314598
1368.327217,6291.750507,-6661.853478,842.705048
1368.327546,6513.812290,-4367.215058,1072.533697
1368.327875,6365.771101,-4293.194464,689.485948
1368.328204,6513.812290,-4737.318029,1225.752797
1368.328533,7031.956449,-5773.606348,2451.505594
1368.328862,8290.306550,-4589.276840,2068.457845
1368.329191,9326.594869,-3256.906145,1225.752797
1368.329520,9252.574275,-4293.194464,1455.581446
1368.329849,9252.574275,-7105.977043,1915.238745
1368.330178,7994.224174,-8956.491898,2528.115143
1368.330507,7550.100608,-9474.636058,1991.848295
1368.330837,6809.894666,-7698.141797,536.266849
1368.331166,5255.462188,-6957.935855,153.219100
1368.331495,3849.070898,-7698.141797,-689.485948
1368.331824,3997.112087,-8956.491898,0.000000
1368.332153,5773.606348,-7179.997637,766.095498
1368.332482,8290.306550,-4219.173869,1149.143247
1368.332811,9104.533087,-3256.906145,2528.115143
1368.333140,8586.388927,-3627.009116,2374.896044
1368.333469,7772.162391,-4737.318029,2145.067394
1368.333798,7846.182985,-5995.668130,2451.505594
1368.334127,8512.368333,-6365.771101,2451.505594
1368.334457,7698.141797,-6143.709319,1608.800546
1368.334786,5995.668130,-7402.059420,612.876398
1368.335115,4293.194464,-9844.739029,459.657299
1368.335444,3775.050304,-10140.821405,383.047749
1368.335773,4589.276840,-8142.265362,842.705048
1368.336102,5847.626942,-6439.791695,842.705048
1368.336431,7624.121203,-5773.606348,1838.629195
1368.336760,7698.141797,-6217.729913,2145.067394
1368.337089,8512.368333,-6735.874072,2374.896044
1368.337418,8586.388927,-4737.318029,2528.115143
1368.337747,8882.471304,-2886.803174,995.924147
1368.338076,7772.162391,-4219.173869,229.828649
1368.338406,6735.874072,-6587.832884,76.609550
1368.338735,6735.874072,-8734.430116,1225.752797
1368.339064,7105.977043,-8364.327145,1302.362347
1368.339393,7624.121203,-7698.141797,1072.533697
1368.339722,7328.038826,-7254.018232,1072.533697
1368.340051,6809.894666,-7994.224174,919.314598
1368.340380,6069.688724,-8734.430116,1762.019645
1368.340709,6957.935855,-7698.141797,1915.238745
1368.341038,6883.915261,-6143.709319,919.314598
1368.341367,6143.709319,-5403.503377,153.219100
1368.341696,5403.503377,-6069.688724,536.266849
1368.342025,5181.441594,-7105.977043,842.705048
1368.342355,6365.771101,-6217.729913,1455.581446
1368.342684,7846.182985,-4885.359217,1455.581446
1368.343013,9178.553681,-4737.318029,2145.067394
1368.343342,9252.574275,-4737.318029,1915.238745
1368.343671,7550.100608,-7105.977043,1149.143247
1368.344000,6809.894666,-7179.997637,1225.752797
1368.344329,7179.997637,-6217.729913,459.657299
1368.344658,6883.915261,-6217.729913,76.609550
1368.344987,5847.626942,-6883.915261,153.219100
1368.345316,5699.585753,-9400.615463,536.266849
1368.345645,6143.709319,-9104.533087,842.705048
1368.345974,7105.977043,-7105.977043,1302.362347
1368.346304,7698.141797,-5033.400406,1991.848295
1368.346633,7846.182985,-3182.885551,459.657299
1368.346962,6365.771101,-5107.421000,229.828649
1368.347291,6587.832884,-5847.626942,1532.190996
1368.347620,7920.203579,-5255.462188,2221.676944
1368.347949,7624.121203,-5107.421000,689.485948
1368.348278,6143.709319,-5329.482782,536.266849
1368.348607,5107.421000,-8956.491898,766.095498
1368.348936,5995.668130,-9992.780217,766.095498
1368.349265,5847.626942,-7846.182985,1072.533697
1368.349594,6883.915261,-7031.956449,612.876398
1368.349923,8586.388927,-5995.668130,153.219100
1368.350253,8142.265362,-6883.915261,1225.752797
1368.350582,6809.894666,-7476.080014,1072.533697
1368.350911,7105.977043,-6069.688724,766.095498
1368.351240,7550.100608,-5995.668130,536.266849
1368.351569,7179.997637,-5477.523971,229.828649
1368.351898,6735.874072,-7031.956449,766.095498
1368.352227,7031.956449,-8068.244768,1532.190996
1368.352556,7402.059420,-6513.812290,842.705048
1368.352885,7179.997637,-5403.503377,383.047749
1368.353214,7328.038826,-4959.379811,536.266849
1368.353543,7624.121203,-4959.379811,689.485948
1368.353873,7179.997637,-6439.791695,842.705048
1368.354202,6809.894666,-7772.162391,1455.581446
1368.354531,7328.038826,-7328.038826,1991.848295
1368.354860,6661.853478,-6587.832884,689.485948
1368.355189,4811.338623,-7402.059420,459.657299
1368.355518,4885.359217,-9474.636058,1532.190996
1368.355847,6143.709319,-8586.388927,1838.629195
1368.356176,6587.832884,-7031.956449,995.924147
1368.356505,6661.853478,-3923.091493,1149.143247
1368.356834,7328.038826,-3627.009116,689.485948
1368.357163,7179.997637,-5033.400406,536.266849
1368.357492,6957.935855,-5181.441594,1302.362347
1368.357822,7179.997637,-5033.400406,1455.581446
1368.358151,8512.368333,-5773.606348,995.924147
1368.358480,7476.080014,-7624.121203,1762.019645
1368.358809,6143.709319,-9030.512492,1378.971896
1368.359138,6291.750507,-8956.491898,995.924147
1368.359467,6513.812290,-7402.059420,383.047749
1368.359796,7105.977043,-5329.482782,383.047749
1368.360125,7105.977043,-4959.379811,459.657299
1368.360454,7179.997637,-5847.626942,229.828649
1368.360783,7698.141797,-6513.812290,1532.190996
1368.361112,8364.327145,-7179.997637,2834.553343
1368.361441,7624.121203,-5255.462188,2757.943793
1368.361771,6291.750507,-5625.565159,1149.143247
1368.362100,4663.297435,-7105.977043,1225.752797
1368.362429,4737.318029,-7254.018232,995.924147
1368.362758,6069.688724,-7031.956449,1225.752797
1368.363087,6735.874072,-5847.626942,1532.190996
1368.363416,7328.038826,-4589.276840,766.095498
1368.363745,7624.121203,-5847.626942,995.924147
1368.364074,7254.018232,-7179.997637,1378.971896
1368.364403,7772.162391,-7846.182985,1991.848295
1368.364732,8438.347739,-7254.018232,2298.286494
1368.365061,8142.265362,-6365.771101,1532.190996
1368.365390,6957.935855,-7105.977043,306.438199
1368.365720,6143.709319,-8142.265362,919.314598
1368.366049,6513.812290,-7402.059420,536.266849
1368.366378,6735.874072,-5699.585753,0.000000
1368.366707,6809.894666,-4071.132681,76.609550
1368.367036,6957.935855,-4663.297435,153.219100
1368.367365,7920.203579,-6809.894666,2451.505594
1368.367694,8586.388927,-6957.935855,2911.162892
1368.368023,8068.244768,-6365.771101,1991.848295
1368.368352,7105.977043,-5847.626942,1072.533697
1368.368681,5921.647536,-6809.894666,0.000000
1368.369010,5107.421000,-9030.512492,689.485948
1368.369340,5995.668130,-8586.388927,1455.581446
1368.369669,7402.059420,-7772.162391,1685.410096
1368.369998,7476.080014,-5477.523971,1455.581446
1368.370327,6809.894666,-4589.276840,689.485948
1368.370656,6513.812290,-6217.729913,919.314598
1368.370985,6513.812290,-7698.141797,689.485948
1368.371314,7031.956449,-6291.750507,1302.362347
1368.371643,7254.018232,-6069.688724,459.657299
1368.371972,6957.935855,-5995.668130,-383.047749
1368.372301,5699.585753,-6883.915261,0.000000
1368.372630,5329.482782,-8216.285956,0.000000
1368.372959,6291.750507,-7550.100608,0.000000
1368.373289,7254.018232,-5921.647536,1302.362347
1368.373618,8808.450710,-4737.318029,919.314598
1368.373947,8512.368333,-5107.421000,1072.533697
1368.374276,8216.285956,-7402.059420,1915.238745
1368.374605,8586.388927,-6513.812290,2145.067394
1368.374934,7994.224174,-5847.626942,1685.410096
1368.375263,6365.771101,-5625.565159,536.266849
1368.375592,5181.441594,-6809.894666,-229.828649
1368.375921,4737.318029,-8512.368333,306.438199
1368.376250,5477.523971,-8068.244768,689.485948
1368.376579,6661.853478,-6439.791695,1149.143247
1368.376908,7624.121203,-4219.173869,1608.800546
1368.377238,7402.059420,-4959.379811,1072.533697
1368.377567,6957.935855,-6735.874072,1915.238745
1368.377896,6809.894666,-6291.750507,1608.800546
1368.378225,7698.141797,-6809.894666,919.314598
1368.378554,7179.997637,-5699.585753,919.314598
1368.378883,6587.832884,-6069.688724,612.876398
1368.379212,6809.894666,-7624.121203,153.219100
1368.379541,6587.832884,-7328.038826,1149.143247
1368.379870,7179.997637,-7105.977043,842.705048
1368.380199,8438.347739,-5403.503377,153.219100
1368.380528,8068.244768,-5181.441594,536.266849
1368.380857,7772.162391,-6513.812290,995.924147
1368.381186,8660.409521,-7624.121203,2068.457845
1368.381515,8438.347739,-7105.977043,2221.676944
1368.381844,7328.038826,-7105.977043,1072.533697
1368.382173,5921.647536,-6143.709319,842.705048
1368.382502,5403.503377,-6809.894666,0.000000
1368.382832,4737.318029,-7105.977043,766.095498
1368.383161,5847.626942,-5995.668130,1532.190996
1368.383490,7328.038826,-4737.318029,1532.190996
1368.383819,8068.244768,-4145.153275,1532.190996
1368.384148,7846.182985,-5033.400406,2834.553343
1368.384477,7920.203579,-7402.059420,2451.505594
1368.384806,7624.121203,-7105.977043,2298.286494
1368.385135,7328.038826,-6735.874072,1225.752797
1368.385464,6365.771101,-5995.668130,0.000000
1368.385793,5329.482782,-7105.977043,-536.266849
1368.386122,5107.421000,-8586.388927,-229.828649
1368.386451,5551.544565,-9326.594869,383.047749
1368.386780,6587.832884,-7550.100608,1532.190996
1368.387109,7254.018232,-5477.523971,1225.752797
1368.387438,7476.080014,-6587.832884,1608.800546
1368.387767,7105.977043,-6809.894666,2298.286494
1368.388096,7254.018232,-6291.750507,1762.019645
1368.388425,7920.203579,-5921.647536,1915.238745
1368.388754,7105.977043,-3923.091493,1072.533697
1368.389084,6069.688724,-5329.482782,306.438199
1368.389413,5403.503377,-7328.038826,1072.533697
1368.389742,6143.709319,-7846.182985,1685.410096
1368.390071,7105.977043,-5921.647536,1838.629195
1368.390400,8216.285956,-5773.606348,1455.581446
1368.390729,7624.121203,-6587.832884,1915.238745
1368.391058,7105.977043,-7105.977043,1072.533697
1368.391387,6809.894666,-7846.182985,919.314598
1368.391716,6883.915261,-6883.915261,459.657299
1368.392045,6957.935855,-5995.668130,383.047749
1368.392374,6513.812290,-5995.668130,536.266849
1368.392703,5699.585753,-7624.121203,383.047749
1368.393032,5551.544565,-7994.224174,689.485948
1368.393361,6883.915261,-6735.874072,842.705048
1368.393690,8142.265362,-6069.688724,1685.410096
1368.394019,9104.533087,-4737.318029,995.924147
1368.394348,8438.347739,-4663.297435,842.705048
1368.394677,7624.121203,-6069.688724,1608.800546
1368.395006,7772.162391,-5921.647536,1302.362347
1368.395336,7476.080014,-6439.791695,612.876398
1368.395665,6513.812290,-6513.812290,0.000000
1368.395994,5329.482782,-7920.203579,153.219100
1368.396323,5625.565159,-9400.615463,842.705048
1368.396652,7179.997637,-8216.285956,1762.019645
1368.396981,7550.100608,-6661.853478,2451.505594
1368.397310,7994.224174,-4071.132681,1225.752797
1368.397639,7328.038826,-4071.132681,612.876398
1368.397968,6735.874072,-5329.482782,1455.581446
1368.398297,6957.935855,-5551.544565,1149.143247
1368.398626,7105.977043,-5477.523971,919.314598
1368.398955,6883.915261,-4885.359217,689.485948
1368.399284,6365.771101,-6513.812290,1072.533697
1368.399613,5921.647536,-9178.553681,1455.581446
1368.399942,6513.812290,-8586.388927,919.314598
1368.400271,6365.771101,-7402.059420,689.485948
1368.400600,6883.915261,-6143.709319,229.828649
1368.400929,7105.977043,-5847.626942,-153.219100
1368.401258,6883.915261,-7031.956449,842.705048
1368.401588,7402.059420,-6735.874072,1532.190996
1368.401917,7772.162391,-6439.791695,1072.533697
1368.402246,7920.203579,-5847.626942,1991.848295
1368.402575,7031.956449,-5551.544565,766.095498
1368.402904,5625.565159,-8512.368333,995.924147
1368.403233,5773.606348,-7772.162391,1532.190996
1368.403562,6661.853478,-5995.668130,229.828649
1368.403891,7402.059420,-4441.235652,919.314598
1368.404220,7476.080014,-4737.318029,919.314598
1368.404549,7550.100608,-6513.812290,995.924147
1368.404878,7105.977043,-7550.100608,1149.143247
1368.405207,7254.018232,-7994.224174,1149.143247
1368.405536,7328.038826,-6883.915261,1225.752797
1368.405865,7105.977043,-7254.018232,536.266849
1368.406194,5847.626942,-8512.368333,766.095498
1368.406523,5181.441594,-7994.224174,536.266849
1368.406852,6143.709319,-7254.018232,383.047749
1368.407181,6735.874072,-5329.482782,842.705048
1368.407511,6957.935855,-5255.462188,459.657299
1368.407840,7402.059420,-5699.585753,1455.581446
1368.408169,7402.059420,-6809.894666,2834.553343
1368.408498,7698.141797,-7105.977043,1915.238745
1368.408827,7550.100608,-5699.585753,1532.190996
1368.409156,7105.977043,-5625.565159,229.828649
1368.409485,5847.626942,-6069.688724,-612.876398
1368.409814,5255.462188,-7402.059420,0.000000
1368.410143,5699.585753,-7624.121203,612.876398
1368.410472,7846.182985,-5847.626942,1302.362347
1368.410801,8512.368333,-4737.318029,1455.581446
1368.411130,8216.285956,-4885.359217,1072.533697
1368.411459,7031.956449,-6365.771101,2374.896044
1368.411788,7476.080014,-6069.688724,2068.457845
1368.412117,7994.224174,-5625.565159,1685.410096
1368.412446,7994.224174,-4811.338623,1072.533697
1368.412775,7031.956449,-5773.606348,1072.533697
1368.413104,5921.647536,-7920.203579,229.828649
1368.413433,5773.606348,-8364.327145,306.438199
1368.413763,7105.977043,-7031.956449,689.485948
1368.414092,7994.224174,-5699.585753,919.314598
1368.414421,7920.203579,-5625.565159,1225.752797
1368.414750,7105.977043,-7550.100608,1302.362347
1368.415079,6957.935855,-6587.832884,1455.581446
1368.415408,6735.874072,-5329.482782,459.657299
1368.415737,7031.956449,-5181.441594,1225.752797
1368.416066,6291.750507,-5477.523971,689.485948
1368.416395,5847.626942,-8142.265362,689.485948
1368.416724,5921.647536,-8956.491898,1532.190996
1368.417053,7105.977043,-8068.244768,2145.067394
1368.417382,7698.141797,-6291.750507,2145.067394
1368.417711,8290.306550,-4737.318029,919.314598
1368.418040,8142.265362,-5847.626942,1378.971896
1368.418369,7920.203579,-6735.874072,1149.143247
1368.418698,7624.121203,-6587.832884,766.095498
1368.419027,7624.121203,-6143.709319,612.876398
1368.419356,6883.915261,-6365.771101,383.047749
1368.419685,5107.421000,-7624.121203,76.609550
1368.420015,4737.318029,-9178.553681,612.876398
1368.420344,5773.606348,-8438.347739,459.657299
1368.420673,7328.038826,-6513.812290,689.485948
1368.421002,7920.203579,-5403.503377,919.314598
1368.421331,7105.977043,-5181.441594,536.266849
1368.421660,6513.812290,-6143.709319,1378.971896
1368.421989,7402.059420,-6957.935855,1302.362347
1368.422318,7476.080014,-6661.853478,1225.752797
1368.422647,7105.977043,-5773.606348,1302.362347
1368.422976,6513.812290,-7254.018232,842.705048
1368.423305,6069.688724,-9030.512492,1762.019645
1368.423634,6069.688724,-7846.182985,995.924147
