#time,accel_x,accel_y,accel_z
1205.246411,6883.915261,-6439.791695,1225.752797
1205.246741,6883.915261,-6513.812290,1149.143247
1205.247072,7105.977043,-6661.853478,1149.143247
1205.247402,6735.874072,-6365.771101,842.705048
1205.247732,6735.874072,-6439.791695,919.314598
1205.248062,7031.956449,-6735.874072,1225.752797
1205.248392,7105.977043,-6661.853478,995.924147
1205.248722,6809.894666,-5995.668130,919.314598
1205.249053,6883.915261,-6439.791695,536.266849
1205.249383,6809.894666,-6513.812290,1378.971896
1205.249713,6883.915261,-6513.812290,1149.143247
1205.250043,7031.956449,-6883.915261,1149.143247
1205.250373,6809.894666,-6513.812290,1072.533697
1205.250703,6883.915261,-6809.894666,995.924147
1205.251034,7105.977043,-6809.894666,919.314598
1205.251364,7031.956449,-6883.915261,919.314598
1205.251694,7179.997637,-6365.771101,766.095498
1205.252024,6439.791695,-6513.812290,995.924147
1205.252354,6735.874072,-6661.853478,842.705048
1205.252684,6809.894666,-6661.853478,1225.752797
1205.253015,6957.935855,-6513.812290,1302.362347
1205.253345,6957.935855,-6513.812290,1149.143247
1205.253675,7105.977043,-6513.812290,995.924147
1205.254005,7105.977043,-6957.935855,919.314598
1205.254335,7105.977043,-6809.894666,1149.143247
1205.254665,7698.141797,-6957.935855,1225.752797
1205.254996,7105.977043,-6735.874072,1225.752797
1205.255326,6957.935855,-6439.791695,919.314598
1205.255656,6735.874072,-6513.812290,995.924147
1205.255986,7031.956449,-6143.709319,306.438199
1205.256316,7254.018232,-6735.874072,842.705048
1205.256646,7105.977043,-6365.771101,1225.752797
1205.256977,7031.956449,-6365.771101,766.095498
1205.257307,6735.874072,-6513.812290,995.924147
1205.257637,7105.977043,-6069.688724,1302.362347
1205.257967,6513.812290,-7031.956449,1302.362347
1205.258297,7105.977043,-6439.791695,1149.143247
1205.258627,7105.977043,-6513.812290,919.314598
1205.258958,6883.915261,-6513.812290,995.924147
1205.259288,7031.956449,-6291.750507,1302.362347
1205.259618,7031.956449,-6587.832884,689.485948
1205.259948,7105.977043,-6513.812290,1149.143247
1205.260278,7105.977043,-6439.791695,1149.143247
1205.260608,6587.832884,-6143.709319,766.095498
1205.260939,6883.915261,-6661.853478,1149.143247
1205.261269,6809.894666,-6661.853478,1072.533697
1205.261599,6883.915261,-6217.729913,1149.143247
1205.261929,7105.977043,-6365.771101,612.876398
1205.262259,6883.915261,-6587.832884,1455.581446
1205.262589,6883.915261,-6587.832884,1072.533697
1205.262920,6957.935855,-6809.894666,1225.752797
1205.263250,7105.977043,-6735.874072,1072.533697
1205.263580,6957.935855,-6809.894666,919.314598
1205.263910,6735.874072,-6439.791695,1072.533697
1205.264240,6957.935855,-6809.894666,1072.533697
1205.264570,6809.894666,-6661.853478,919.314598
1205.264901,6735.874072,-6735.874072,995.924147
1205.265231,6661.853478,-6365.771101,1149.143247
1205.265561,6661.853478,-6291.750507,919.314598
1205.265891,6661.853478,-6735.874072,1072.533697
1205.266221,7031.956449,-6587.832884,995.924147
1205.266551,7105.977043,-6217.729913,842.705048
1205.266882,7105.977043,-6513.812290,536.266849
1205.267212,6957.935855,-6661.853478,919.314598
1205.267542,6957.935855,-6661.853478,919.314598
1205.267872,6957.935855,-6587.832884,842.705048
1205.268202,7402.059420,-6513.812290,1149.143247
1205.268532,7179.997637,-6809.894666,1149.143247
1205.268863,7105.977043,-6883.915261,689.485948
1205.269193,6883.915261,-6513.812290,1302.362347
1205.269523,6957.935855,-6291.750507,1072.533697
1205.269853,6735.874072,-5995.668130,1608.800546
1205.270183,7031.956449,-6291.750507,995.924147
1205.270513,7105.977043,-6365.771101,1149.143247
1205.270844,7179.997637,-6217.729913,995.924147
1205.271174,7105.977043,-6587.832884,1072.533697
1205.271504,7254.018232,-6587.832884,1149.143247
1205.271834,6957.935855,-6735.874072,995.924147
1205.272164,7031.956449,-6439.791695,995.924147
1205.272494,6957.935855,-7105.977043,919.314598
1205.272825,7402.059420,-5995.668130,1072.533697
1205.273155,7105.977043,-6661.853478,689.485948
1205.273485,6957.935855,-6513.812290,919.314598
1205.273815,7031.956449,-6513.812290,919.314598
1205.274145,7105.977043,-6735.874072,995.924147
1205.274475,7105.977043,-6587.832884,995.924147
1205.274806,7105.977043,-6513.812290,1072.533697
1205.275136,6883.915261,-6143.709319,919.314598
1205.275466,6957.935855,-6513.812290,1225.752797
1205.275796,7031.956449,-6513.812290,1302.362347
1205.276126,7105.977043,-6661.853478,1149.143247
1205.276456,6883.915261,-6587.832884,1072.533697
1205.276787,7254.018232,-6735.874072,1302.362347
1205.277117,6735.874072,-6513.812290,1072.533697
1205.277447,6587.832884,-6587.832884,1915.238745
1205.277777,6809.894666,-6587.832884,1072.533697
1205.278107,6809.894666,-6365.771101,995.924147
1205.278437,6883.915261,-6513.812290,995.924147
1205.278768,7105.977043,-6513.812290,1149.143247
1205.279098,6587.832884,-6291.750507,1225.752797
1205.279428,6957.935855,-6883.915261,1302.362347
1205.279758,6957.935855,-6661.853478,1149.143247
1205.280088,6735.874072,-6735.874072,842.705048
1205.280418,6883.915261,-6809.894666,842.705048
1205.280749,6957.935855,-6809.894666,995.924147
1205.281079,7105.977043,-6809.894666,1072.533697
1205.281409,6883.915261,-6587.832884,1072.533697
1205.281739,6735.874072,-6587.832884,842.705048
1205.282069,7031.956449,-6365.771101,383.047749
1205.282399,6957.935855,-6809.894666,919.314598
1205.282730,7031.956449,-6513.812290,1149.143247
1205.283060,6883.915261,-6365.771101,1149.143247
1205.283390,7105.977043,-6513.812290,1149.143247
1205.283720,7105.977043,-6587.832884,766.095498
1205.284050,7179.997637,-6883.915261,995.924147
1205.284380,7105.977043,-7031.956449,1072.533697
1205.284711,7105.977043,-6587.832884,919.314598
1205.285041,7031.956449,-6143.709319,1149.143247
1205.285371,7105.977043,-6513.812290,1072.533697
1205.285701,7254.018232,-6439.791695,995.924147
1205.286031,7105.977043,-6735.874072,536.266849
1205.286361,7031.956449,-6513.812290,919.314598
1205.286692,7105.977043,-6291.750507,1149.143247
1205.287022,7031.956449,-6291.750507,919.314598
1205.287352,6883.915261,-6439.791695,842.705048
1205.287682,7179.997637,-6587.832884,995.924147
1205.288012,7031.956449,-6365.771101,1149.143247
1205.288342,7031.956449,-6439.791695,1149.143247
1205.288673,6809.894666,-6587.832884,919.314598
1205.289003,7105.977043,-6587.832884,1225.752797
1205.289333,7254.018232,-6587.832884,995.924147
1205.289663,7402.059420,-6587.832884,536.266849
1205.289993,7031.956449,-6217.729913,766.095498
1205.290323,6809.894666,-6217.729913,842.705048
1205.290654,6957.935855,-6735.874072,919.314598
1205.290984,6809.894666,-6735.874072,1225.752797
1205.291314,7105.977043,-6365.771101,1072.533697
1205.291644,6957.935855,-6513.812290,919.314598
1205.291974,6735.874072,-6883.915261,995.924147
1205.292304,6809.894666,-6513.812290,1149.143247
1205.292635,7105.977043,-6735.874072,1072.533697
1205.292965,6957.935855,-6587.832884,1072.533697
1205.293295,7105.977043,-6587.832884,995.924147
1205.293625,6957.935855,-6587.832884,995.924147
1205.293955,7402.059420,-6809.894666,1149.143247
1205.294285,6957.935855,-6735.874072,995.924147
1205.294616,6735.874072,-6809.894666,1072.533697
1205.294946,6735.874072,-6883.915261,919.314598
1205.295276,6809.894666,-6883.915261,919.314598
1205.295606,6883.915261,-6883.915261,1991.848295
1205.295936,6661.853478,-6661.853478,1455.581446
1205.296266,6735.874072,-6883.915261,842.705048
1205.296597,6587.832884,-6291.750507,919.314598
1205.296927,6957.935855,-6587.832884,1072.533697
1205.297257,6809.894666,-6735.874072,1225.752797
1205.297587,6957.935855,-6439.791695,1149.143247
1205.297917,6957.935855,-6513.812290,1072.533697
1205.298247,6735.874072,-6217.729913,919.314598
1205.298578,6513.812290,-6513.812290,1532.190996
1205.298908,7179.997637,-6809.894666,1302.362347
1205.299238,7105.977043,-6661.853478,919.314598
1205.299568,7105.977043,-6513.812290,1072.533697
1205.299898,6883.915261,-6587.832884,766.095498
1205.300228,7031.956449,-6439.791695,919.314598
1205.300559,6957.935855,-6661.853478,919.314598
1205.300889,7179.997637,-6661.853478,766.095498
1205.301219,7105.977043,-6365.771101,842.705048
1205.301549,7105.977043,-6143.709319,842.705048
1205.301879,7105.977043,-6439.791695,842.705048
1205.302209,6587.832884,-6587.832884,1149.143247
1205.302540,7105.977043,-6661.853478,1225.752797
1205.302870,7179.997637,-6587.832884,1225.752797
1205.303200,7031.956449,-6291.750507,1302.362347
1205.303530,6883.915261,-6439.791695,919.314598
1205.303860,7031.956449,-6513.812290,766.095498
1205.304190,7402.059420,-6661.853478,766.095498
1205.304521,7179.997637,-6513.812290,995.924147
1205.304851,7179.997637,-6365.771101,1149.143247
1205.305181,7031.956449,-6587.832884,995.924147
1205.305511,7105.977043,-6809.894666,766.095498
1205.305841,7105.977043,-6513.812290,995.924147
1205.306171,7105.977043,-6439.791695,1072.533697
1205.306502,6883.915261,-6661.853478,1378.971896
1205.306832,7031.956449,-6587.832884,766.095498
1205.307162,6809.894666,-6735.874072,1072.533697
1205.307492,6957.935855,-6735.874072,1149.143247
1205.307822,7105.977043,-5921.647536,1225.752797
1205.308152,6439.791695,-6735.874072,1225.752797
1205.308483,6587.832884,-6661.853478,995.924147
1205.308813,6809.894666,-6587.832884,1149.143247
1205.309143,7328.038826,-6587.832884,1532.190996
1205.309473,7105.977043,-6513.812290,1302.362347
1205.309803,6809.894666,-6513.812290,995.924147
1205.310133,7031.956449,-6587.832884,1149.143247
1205.310463,6957.935855,-6883.915261,1149.143247
1205.310793,7031.956449,-6291.750507,1378.971896
1205.311123,6809.894666,-6365.771101,995.924147
1205.311452,6809.894666,-6661.853478,1072.533697
1205.311782,6735.874072,-6587.832884,919.314598
1205.312112,7031.956449,-6735.874072,1072.533697
1205.312441,7402.059420,-7031.956449,919.314598
1205.312771,6883.915261,-6439.791695,919.314598
1205.313101,6883.915261,-6217.729913,995.924147
1205.313430,6883.915261,-6439.791695,842.705048
1205.313760,7179.997637,-6217.729913,1225.752797
1205.314090,7031.956449,-6957.935855,1302.362347
1205.314419,7105.977043,-6439.791695,766.095498
1205.314749,7031.956449,-6735.874072,995.924147
1205.315079,7105.977043,-6735.874072,1225.752797
1205.315409,7105.977043,-6143.709319,766.095498
1205.315738,6957.935855,-6217.729913,1072.533697
1205.316068,6735.874072,-6217.729913,919.314598
1205.316398,6957.935855,-6217.729913,995.924147
1205.316727,7624.121203,-5995.668130,842.705048
1205.317057,7179.997637,-6587.832884,995.924147
1205.317387,7105.977043,-6291.750507,919.314598
1205.317716,7031.956449,-6291.750507,995.924147
1205.318046,7179.997637,-6365.771101,1072.533697
1205.318376,7179.997637,-6217.729913,1149.143247
1205.318706,7402.059420,-6809.894666,1072.533697
1205.319035,6883.915261,-6587.832884,842.705048
1205.319365,6957.935855,-6365.771101,919.314598
1205.319695,6883.915261,-6587.832884,842.705048
1205.320024,7179.997637,-6513.812290,1532.190996
1205.320354,7031.956449,-6365.771101,919.314598
1205.320684,7105.977043,-6513.812290,1149.143247
1205.321013,6957.935855,-6291.750507,842.705048
1205.321343,7105.977043,-6661.853478,229.828649
1205.321673,6735.874072,-6513.812290,1378.971896
1205.322003,6883.915261,-6883.915261,919.314598
1205.322332,6957.935855,-6587.832884,1149.143247
1205.322662,7031.956449,-6291.750507,1149.143247
1205.322992,6957.935855,-6513.812290,536.266849
1205.323321,7105.977043,-6883.915261,1072.533697
1205.323651,6957.935855,-6957.935855,1225.752797
1205.323981,7031.956449,-6809.894666,995.924147
1205.324310,6957.935855,-6217.729913,1532.190996
1205.324640,6809.894666,-6809.894666,1225.752797
1205.324970,6883.915261,-6809.894666,1302.362347
1205.325299,7031.956449,-6735.874072,1072.533697
1205.325629,6809.894666,-6291.750507,919.314598
1205.325959,6957.935855,-6217.729913,1608.800546
1205.326289,6809.894666,-6587.832884,1302.362347
1205.326618,6957.935855,-6661.853478,995.924147
1205.326948,6883.915261,-6809.894666,1149.143247
1205.327278,6957.935855,-6661.853478,995.924147
1205.327607,7031.956449,-6439.791695,919.314598
1205.327937,6883.915261,-6735.874072,1225.752797
1205.328267,6809.894666,-6883.915261,1225.752797
1205.328596,6957.935855,-6587.832884,995.924147
1205.328926,6809.894666,-6217.729913,1915.238745
1205.329256,6809.894666,-6365.771101,1225.752797
1205.329586,6883.915261,-6439.791695,995.924147
1205.329915,7031.956449,-6439.791695,1072.533697
1205.330245,6957.935855,-6513.812290,1225.752797
1205.330575,7328.038826,-6291.750507,919.314598
1205.330904,6957.935855,-6439.791695,842.705048
1205.331234,7031.956449,-6513.812290,689.485948
1205.331564,7105.977043,-6735.874072,919.314598
1205.331893,7550.100608,-6217.729913,766.095498
1205.332223,7624.121203,-6735.874072,766.095498
1205.332553,7179.997637,-6439.791695,995.924147
1205.332883,7105.977043,-7105.977043,919.314598
1205.333212,6957.935855,-6883.915261,1072.533697
1205.333542,7476.080014,-6217.729913,842.705048
1205.333872,7105.977043,-6513.812290,1072.533697
1205.334201,7254.018232,-6143.709319,536.266849
1205.334531,7179.997637,-6513.812290,995.924147
1205.334861,7105.977043,-6513.812290,766.095498
1205.335190,7031.956449,-6883.915261,1378.971896
1205.335520,6957.935855,-6439.791695,919.314598
1205.335850,7105.977043,-6513.812290,919.314598
1205.336179,6809.894666,-6439.791695,842.705048
1205.336509,6809.894666,-6439.791695,1149.143247
1205.336839,7105.977043,-6587.832884,842.705048
1205.337169,6883.915261,-6513.812290,995.924147
1205.337498,6809.894666,-6883.915261,995.924147
1205.337828,6883.915261,-6735.874072,995.924147
1205.338158,7105.977043,-6439.791695,1378.971896
1205.338487,7105.977043,-6587.832884,1072.533697
1205.338817,7105.977043,-6291.750507,919.314598
1205.339147,6883.915261,-6513.812290,766.095498
1205.339476,6957.935855,-6883.915261,1302.362347
1205.339806,6883.915261,-6809.894666,842.705048
1205.340136,6957.935855,-6587.832884,1225.752797
1205.340466,6883.915261,-6809.894666,1072.533697
1205.340795,6883.915261,-6957.935855,1072.533697
1205.341125,7179.997637,-6587.832884,1378.971896
1205.341455,7031.956449,-6661.853478,842.705048
1205.341784,7105.977043,-6735.874072,1072.533697
1205.342114,6735.874072,-6365.771101,1762.019645
1205.342444,7105.977043,-6439.791695,842.705048
1205.342773,7031.956449,-6587.832884,919.314598
1205.343103,6809.894666,-6735.874072,1149.143247
1205.343433,6735.874072,-6439.791695,1302.362347
1205.343763,6735.874072,-6513.812290,842.705048
1205.344092,7031.956449,-6735.874072,1302.362347
1205.344422,7179.997637,-6661.853478,1149.143247
1205.344752,7254.018232,-6587.832884,1302.362347
1205.345081,6957.935855,-6587.832884,1072.533697
1205.345411,7105.977043,-6439.791695,612.876398
1205.345741,7254.018232,-6957.935855,612.876398
1205.346070,6957.935855,-6587.832884,995.924147
1205.346400,7105.977043,-6661.853478,1149.143247
1205.346730,7105.977043,-6513.812290,919.314598
1205.347059,6513.812290,-6069.688724,1225.752797
1205.347389,6587.832884,-6143.709319,842.705048
1205.347719,7105.977043,-6587.832884,1378.971896
1205.348049,7105.977043,-6513.812290,1072.533697
1205.348378,7179.997637,-6365.771101,842.705048
1205.348708,7105.977043,-6661.853478,612.876398
1205.349038,6957.935855,-6291.750507,766.095498
1205.349367,7105.977043,-6587.832884,842.705048
1205.349697,7105.977043,-6735.874072,995.924147
1205.350027,7031.956449,-6661.853478,766.095498
1205.350356,7105.977043,-6365.771101,995.924147
1205.350686,7105.977043,-6513.812290,1149.143247
1205.351016,7031.956449,-6439.791695,995.924147
1205.351346,6883.915261,-6661.853478,995.924147
1205.351675,7105.977043,-6439.791695,1072.533697
1205.352005,7031.956449,-6291.750507,842.705048
1205.352335,7105.977043,-6439.791695,1455.581446
1205.352664,7031.956449,-6735.874072,842.705048
1205.352994,7105.977043,-6587.832884,1149.143247
1205.353324,7254.018232,-6439.791695,842.705048
1205.353653,6957.935855,-6735.874072,1225.752797
1205.353983,6883.915261,-6661.853478,842.705048
1205.354313,6957.935855,-7105.977043,919.314598
1205.354643,7328.038826,-6809.894666,842.705048
1205.354972,7031.956449,-6809.894666,1149.143247
1205.355302,6661.853478,-6439.791695,919.314598
1205.355632,6735.874072,-6735.874072,1149.143247
1205.355961,6365.771101,-6957.935855,995.924147
1205.356291,7254.018232,-6661.853478,689.485948
1205.356621,6957.935855,-6365.771101,995.924147
1205.356950,6883.915261,-6809.894666,919.314598
1205.357280,6883.915261,-6439.791695,766.095498
1205.357610,6957.935855,-6809.894666,1149.143247
1205.357939,7105.977043,-6661.853478,1149.143247
1205.358269,6957.935855,-6661.853478,1608.800546
1205.358599,6883.915261,-6883.915261,995.924147
1205.358929,7105.977043,-6365.771101,1225.752797
1205.359258,6735.874072,-6217.729913,2068.457845
1205.359588,7624.121203,-5403.503377,1455.581446
1205.359918,7846.182985,-5255.462188,1149.143247
1205.360247,7772.162391,-5403.503377,1455.581446
1205.360577,8290.306550,-5625.565159,1149.143247
1205.360907,7994.224174,-5847.626942,1225.752797
1205.361236,6661.853478,-6587.832884,306.438199
1205.361566,5773.606348,-7698.141797,306.438199
1205.361896,6291.750507,-6957.935855,306.438199
1205.362226,6957.935855,-7550.100608,383.047749
1205.362555,7624.121203,-6439.791695,1532.190996
1205.362885,8290.306550,-6217.729913,1608.800546
1205.363215,8660.409521,-4737.318029,1302.362347
1205.363544,8290.306550,-4219.173869,1072.533697
1205.363874,8142.265362,-4885.359217,1149.143247
1205.364204,7920.203579,-3701.029710,842.705048
1205.364533,9104.533087,-4219.173869,1532.190996
1205.364863,8882.471304,-4219.173869,1378.971896
1205.365193,8290.306550,-4145.153275,1072.533697
1205.365523,7698.141797,-4737.318029,995.924147
1205.365852,8586.388927,-4663.297435,689.485948
1205.366182,8734.430116,-6513.812290,1455.581446
1205.366512,8512.368333,-5403.503377,1225.752797
1205.366841,8364.327145,-5329.482782,459.657299
1205.367171,7698.141797,-6069.688724,536.266849
1205.367501,7846.182985,-5107.421000,766.095498
1205.367830,8142.265362,-5107.421000,612.876398
1205.368160,8512.368333,-4811.338623,689.485948
1205.368490,9252.574275,-4737.318029,1149.143247
1205.368819,9104.533087,-4145.153275,1455.581446
1205.369149,9178.553681,-3478.967927,1455.581446
1205.369479,9030.512492,-3552.988522,1225.752797
1205.369809,9696.697840,-3182.885551,1378.971896
1205.370138,9474.636058,-3478.967927,1072.533697
1205.370468,9548.656652,-4293.194464,1149.143247
1205.370798,9622.677246,-4071.132681,1149.143247
1205.371127,9104.533087,-5773.606348,1072.533697
1205.371457,8808.450710,-5847.626942,1149.143247
1205.371787,8438.347739,-5921.647536,1149.143247
1205.372116,8512.368333,-5773.606348,995.924147
1205.372446,7772.162391,-5773.606348,842.705048
1205.372776,7846.182985,-5477.523971,842.705048
1205.373106,7994.224174,-4885.359217,919.314598
1205.373435,7846.182985,-4737.318029,766.095498
1205.373765,7994.224174,-4959.379811,459.657299
1205.374095,7994.224174,-4885.359217,459.657299
1205.374424,8512.368333,-5033.400406,0.000000
1205.374754,8660.409521,-4959.379811,612.876398
1205.375084,9104.533087,-4885.359217,919.314598
1205.375413,9030.512492,-5403.503377,459.657299
1205.375743,9474.636058,-5181.441594,766.095498
1205.376073,9252.574275,-5847.626942,612.876398
1205.376403,9030.512492,-5033.400406,842.705048
1205.376732,8438.347739,-5551.544565,842.705048
1205.377062,8142.265362,-4885.359217,919.314598
1205.377392,7846.182985,-4367.215058,1532.190996
1205.377721,8290.306550,-4515.256246,1838.629195
1205.378051,7994.224174,-4663.297435,1302.362347
1205.378381,7920.203579,-4737.318029,1608.800546
1205.378710,8216.285956,-5033.400406,1378.971896
1205.379040,8956.491898,-4589.276840,1915.238745
1205.379370,8734.430116,-5107.421000,1532.190996
1205.379699,8438.347739,-4959.379811,1302.362347
1205.380029,7846.182985,-6217.729913,919.314598
1205.380359,7031.956449,-6513.812290,536.266849
1205.380689,6661.853478,-7105.977043,153.219100
1205.381018,6365.771101,-7402.059420,-306.438199
1205.381348,6365.771101,-7105.977043,0.000000
1205.381678,6735.874072,-7328.038826,0.000000
1205.382007,6957.935855,-7031.956449,612.876398
1205.382337,6883.915261,-7031.956449,383.047749
1205.382667,7254.018232,-6957.935855,842.705048
1205.382996,7550.100608,-6217.729913,995.924147
1205.383326,7846.182985,-5995.668130,1149.143247
1205.383656,8142.265362,-5477.523971,1838.629195
1205.383986,8734.430116,-6439.791695,2451.505594
1205.384315,9252.574275,-5403.503377,2298.286494
1205.384645,8512.368333,-5329.482782,2298.286494
1205.384975,8068.244768,-5625.565159,1608.800546
1205.385304,7105.977043,-6217.729913,919.314598
1205.385634,6217.729913,-6291.750507,229.828649
1205.385964,5403.503377,-6365.771101,-383.047749
1205.386293,5477.523971,-5847.626942,-919.314598
1205.386623,6069.688724,-4885.359217,-689.485948
1205.386953,6809.894666,-6513.812290,-153.219100
1205.387283,7698.141797,-6809.894666,536.266849
1205.387612,8364.327145,-6661.853478,1225.752797
1205.387942,8290.306550,-6883.915261,1685.410096
1205.388272,7994.224174,-6809.894666,2451.505594
1205.388601,8438.347739,-7179.997637,3140.991542
1205.388931,8512.368333,-6883.915261,3524.039291
1205.389261,8438.347739,-6217.729913,3447.429741
1205.389590,7624.121203,-4885.359217,2604.724693
1205.389920,6735.874072,-5033.400406,1915.238745
1205.390250,6439.791695,-5477.523971,1532.190996
1205.390579,5181.441594,-5773.606348,153.219100
1205.390909,4441.235652,-6217.729913,-306.438199
1205.391239,4071.132681,-5995.668130,-1532.190996
1205.391569,4663.297435,-7254.018232,-766.095498
1205.391898,5403.503377,-7476.080014,-306.438199
1205.392228,6291.750507,-7328.038826,612.876398
1205.392558,6957.935855,-7920.203579,1608.800546
1205.392887,7920.203579,-7920.203579,2298.286494
1205.393217,8808.450710,-7698.141797,3064.381992
1205.393547,8882.471304,-7402.059420,3677.258390
1205.393876,8438.347739,-7179.997637,3064.381992
1205.394206,7328.038826,-6957.935855,1762.019645
1205.394536,6217.729913,-6735.874072,1762.019645
1205.394866,6069.688724,-6439.791695,536.266849
1205.395195,5625.565159,-6291.750507,153.219100
1205.395525,5551.544565,-5625.565159,0.000000
1205.395855,5921.647536,-5921.647536,-689.485948
1205.396184,6217.729913,-6291.750507,-995.924147
1205.396514,6291.750507,-7031.956449,-536.266849
1205.396844,5995.668130,-7772.162391,76.609550
1205.397173,6735.874072,-8068.244768,919.314598
1205.397503,5921.647536,-7698.141797,1685.410096
1205.397833,7105.977043,-6661.853478,2681.334243
1205.398163,8438.347739,-5477.523971,3907.087040
1205.398492,9548.656652,-4441.235652,3907.087040
1205.398822,9474.636058,-4441.235652,3140.991542
1205.399152,8290.306550,-4219.173869,2604.724693
1205.399481,7105.977043,-4219.173869,995.924147
1205.399811,5921.647536,-5255.462188,0.000000
1205.400141,5551.544565,-5699.585753,153.219100
1205.400470,6143.709319,-6513.812290,-919.314598
1205.400800,6439.791695,-7105.977043,-766.095498
1205.401130,6809.894666,-7994.224174,-995.924147
1205.401459,6735.874072,-7994.224174,-766.095498
1205.401789,6587.832884,-8364.327145,-612.876398
1205.402119,6587.832884,-8956.491898,612.876398
1205.402449,6957.935855,-8734.430116,1455.581446
1205.402778,7105.977043,-8290.306550,2757.943793
1205.403108,7328.038826,-6217.729913,2681.334243
1205.403438,7698.141797,-4885.359217,3064.381992
1205.403767,7846.182985,-3701.029710,2604.724693
1205.404097,7846.182985,-3552.988522,1915.238745
1205.404427,7920.203579,-3108.864956,995.924147
1205.404756,8290.306550,-3182.885551,76.609550
1205.405086,8512.368333,-4441.235652,-306.438199
1205.405416,7994.224174,-4885.359217,-306.438199
1205.405746,7772.162391,-6735.874072,-1072.533697
1205.406075,6883.915261,-7698.141797,-612.876398
1205.406405,6291.750507,-8956.491898,0.000000
1205.406735,6587.832884,-9474.636058,229.828649
1205.407064,6809.894666,-9252.574275,1608.800546
1205.407394,6587.832884,-9104.533087,2298.286494
1205.407724,6439.791695,-8216.285956,1915.238745
1205.408053,5625.565159,-7105.977043,2451.505594
1205.408383,5255.462188,-6735.874072,1608.800546
1205.408713,5033.400406,-6217.729913,1302.362347
1205.409043,5551.544565,-5107.421000,536.266849
1205.409372,5847.626942,-5551.544565,0.000000
1205.409702,6439.791695,-5699.585753,-459.657299
1205.410032,7698.141797,-6365.771101,0.000000
1205.410361,7920.203579,-7031.956449,0.000000
1205.410691,8142.265362,-6291.750507,-306.438199
1205.411021,6809.894666,-6883.915261,383.047749
1205.411350,7402.059420,-7624.121203,1455.581446
1205.411680,7994.224174,-7254.018232,2987.772442
1205.412010,8068.244768,-6661.853478,3294.210641
1205.412340,7550.100608,-4885.359217,3140.991542
1205.412669,7105.977043,-4885.359217,2604.724693
1205.412998,6587.832884,-5625.565159,2298.286494
1205.413327,5995.668130,-5773.606348,1991.848295
1205.413656,6365.771101,-5107.421000,995.924147
1205.413985,6883.915261,-5403.503377,-153.219100
1205.414314,7105.977043,-6661.853478,0.000000
1205.414644,7328.038826,-7328.038826,76.609550
1205.414973,7105.977043,-7920.203579,-306.438199
1205.415302,6957.935855,-7550.100608,-229.828649
1205.415631,6661.853478,-8438.347739,459.657299
1205.415960,7402.059420,-8586.388927,1455.581446
1205.416289,7105.977043,-7920.203579,2145.067394
1205.416619,6809.894666,-7698.141797,2298.286494
1205.416948,6365.771101,-6661.853478,2221.676944
1205.417277,5995.668130,-6957.935855,2681.334243
1205.417606,5847.626942,-5921.647536,2374.896044
1205.417935,5921.647536,-4737.318029,995.924147
1205.418264,6735.874072,-4515.256246,459.657299
1205.418594,7179.997637,-5625.565159,459.657299
1205.418923,7698.141797,-6439.791695,76.609550
1205.419252,7402.059420,-7179.997637,0.000000
1205.419581,7105.977043,-7624.121203,-306.438199
1205.419910,7105.977043,-7698.141797,-229.828649
1205.420239,7031.956449,-8068.244768,383.047749
1205.420569,7328.038826,-8290.306550,1685.410096
1205.420898,7846.182985,-6883.915261,2528.115143
1205.421227,7476.080014,-5403.503377,2604.724693
1205.421556,8068.244768,-4737.318029,2834.553343
1205.421885,7105.977043,-3849.070898,2528.115143
1205.422214,7105.977043,-4071.132681,2374.896044
1205.422544,7031.956449,-3775.050304,1225.752797
1205.422873,7179.997637,-3330.926739,76.609550
1205.423202,7698.141797,-4145.153275,383.047749
1205.423531,8290.306550,-5033.400406,-383.047749
1205.423860,7698.141797,-6883.915261,-306.438199
1205.424189,7698.141797,-7550.100608,-306.438199
1205.424519,7994.224174,-9252.574275,0.000000
1205.424848,7105.977043,-10066.800811,306.438199
1205.425177,6069.688724,-10510.924376,536.266849
1205.425506,5625.565159,-10214.842000,919.314598
1205.425835,5403.503377,-9400.615463,1225.752797
1205.426164,4737.318029,-9326.594869,1762.019645
1205.426494,4811.338623,-7920.203579,1762.019645
1205.426823,4885.359217,-6217.729913,1149.143247
1205.427152,5403.503377,-5033.400406,306.438199
1205.427481,6069.688724,-3923.091493,766.095498
1205.427810,6957.935855,-4737.318029,-76.609550
1205.428139,7994.224174,-5403.503377,0.000000
1205.428469,8808.450710,-5773.606348,229.828649
1205.428798,9030.512492,-6069.688724,229.828649
1205.429127,8956.491898,-5921.647536,995.924147
1205.429456,9104.533087,-7105.977043,1455.581446
1205.429785,9178.553681,-7402.059420,1991.848295
1205.430114,8364.327145,-7105.977043,2451.505594
1205.430444,7031.956449,-6957.935855,2298.286494
1205.430773,6513.812290,-5699.585753,1991.848295
1205.431102,5773.606348,-5847.626942,1762.019645
1205.431431,5699.585753,-5699.585753,1532.190996
1205.431760,5625.565159,-5255.462188,995.924147
1205.432089,6217.729913,-4737.318029,306.438199
1205.432419,6883.915261,-4219.173869,0.000000
1205.432748,7476.080014,-4885.359217,-306.438199
1205.433077,8142.265362,-6587.832884,0.000000
1205.433406,7994.224174,-6957.935855,1532.190996
1205.433735,7994.224174,-7772.162391,612.876398
1205.434064,7772.162391,-8216.285956,919.314598
1205.434394,7994.224174,-8142.265362,2145.067394
1205.434723,7254.018232,-8586.388927,2451.505594
1205.435052,6883.915261,-7105.977043,3294.210641
1205.435381,5699.585753,-7254.018232,2145.067394
1205.435710,4515.256246,-6587.832884,1302.362347
1205.436039,4145.153275,-6217.729913,766.095498
1205.436369,4959.379811,-5921.647536,0.000000
1205.436698,5773.606348,-5773.606348,153.219100
1205.437027,5921.647536,-6217.729913,0.000000
1205.437356,6661.853478,-6587.832884,0.000000
1205.437685,7254.018232,-6883.915261,76.609550
1205.438014,8290.306550,-7772.162391,383.047749
1205.438344,7994.224174,-7550.100608,1072.533697
1205.438673,7846.182985,-7402.059420,1762.019645
1205.439002,8068.244768,-7179.997637,2068.457845
1205.439331,8290.306550,-6661.853478,2681.334243
1205.439660,8068.244768,-6587.832884,3370.820191
1205.439989,6883.915261,-5329.482782,2451.505594
1205.440319,5699.585753,-5403.503377,1915.238745
1205.440648,5773.606348,-5107.421000,766.095498
1205.440977,5995.668130,-4219.173869,0.000000
1205.441306,6439.791695,-4515.256246,0.000000
1205.441635,6957.935855,-4885.359217,0.000000
1205.441964,7624.121203,-6069.688724,0.000000
1205.442294,7624.121203,-6957.935855,0.000000
1205.442623,7994.224174,-7328.038826,153.219100
1205.442952,7328.038826,-8808.450710,459.657299
1205.443281,7624.121203,-9326.594869,1302.362347
1205.443610,7254.018232,-9474.636058,1915.238745
1205.443939,6883.915261,-8882.471304,2221.676944
1205.444269,5107.421000,-8364.327145,1149.143247
1205.444598,4885.359217,-8068.244768,1378.971896
1205.444927,4737.318029,-6883.915261,1072.533697
1205.445256,4663.297435,-6439.791695,76.609550
1205.445585,5255.462188,-4737.318029,612.876398
1205.445914,6291.750507,-4811.338623,153.219100
1205.446244,7402.059420,-5329.482782,0.000000
1205.446573,7994.224174,-5107.421000,459.657299
1205.446902,8364.327145,-5107.421000,0.000000
1205.447231,9252.574275,-5255.462188,766.095498
1205.447560,9844.739029,-6587.832884,1915.238745
1205.447889,9326.594869,-6439.791695,2298.286494
1205.448219,8734.430116,-6439.791695,1685.410096
1205.448548,7920.203579,-6291.750507,2068.457845
1205.448877,6809.894666,-6513.812290,2145.067394
1205.449206,6069.688724,-6291.750507,1378.971896
1205.449535,5329.482782,-5921.647536,766.095498
1205.449864,5329.482782,-6143.709319,612.876398
1205.450194,6069.688724,-5403.503377,306.438199
1205.450523,6291.750507,-5181.441594,0.000000
1205.450852,7254.018232,-4811.338623,153.219100
1205.451181,7920.203579,-5699.585753,0.000000
1205.451510,8216.285956,-6217.729913,229.828649
1205.451839,7846.182985,-7328.038826,459.657299
1205.452169,8142.265362,-7476.080014,919.314598
1205.452498,8290.306550,-8290.306550,1838.629195
1205.452827,8142.265362,-8290.306550,2451.505594
1205.453156,6883.915261,-7698.141797,2911.162892
1205.453485,6365.771101,-6883.915261,2145.067394
1205.453814,5625.565159,-6661.853478,1685.410096
1205.454144,4737.318029,-6735.874072,842.705048
1205.454473,4441.235652,-7105.977043,459.657299
1205.454802,4885.359217,-6365.771101,-459.657299
1205.455131,5107.421000,-6291.750507,-689.485948
1205.455460,6143.709319,-6735.874072,-766.095498
1205.455789,6883.915261,-7105.977043,-306.438199
1205.456119,7624.121203,-6957.935855,-306.438199
1205.456448,7994.224174,-7476.080014,995.924147
1205.456777,8142.265362,-7698.141797,1915.238745
1205.457106,8290.306550,-7402.059420,2987.772442
1205.457435,8290.306550,-6217.729913,3140.991542
1205.457764,8586.388927,-5477.523971,2757.943793
1205.458094,8068.244768,-5255.462188,2987.772442
1205.458423,7254.018232,-5033.400406,2221.676944
1205.458752,6735.874072,-4737.318029,1532.190996
1205.459081,6291.750507,-4219.173869,229.828649
1205.459410,5699.585753,-4737.318029,0.000000
1205.459739,6587.832884,-5477.523971,-383.047749
1205.460069,7402.059420,-5403.503377,-383.047749
1205.460398,7476.080014,-6513.812290,0.000000
1205.460727,8216.285956,-7254.018232,0.000000
1205.461056,7105.977043,-7920.203579,306.438199
1205.461385,6957.935855,-9030.512492,1072.533697
1205.461714,6809.894666,-9400.615463,1838.629195
1205.462044,6809.894666,-9400.615463,2298.286494
1205.462373,6587.832884,-8290.306550,2451.505594
1205.462702,5847.626942,-7698.141797,2145.067394
1205.463031,5625.565159,-7179.997637,1685.410096
1205.463360,5107.421000,-6217.729913,919.314598
1205.463689,5255.462188,-5107.421000,76.609550
1205.464019,6069.688724,-4663.297435,0.000000
1205.464348,7105.977043,-5107.421000,-766.095498
1205.464677,7920.203579,-5773.606348,153.219100
1205.465006,7920.203579,-5847.626942,153.219100
1205.465335,8068.244768,-6069.688724,-229.828649
1205.465664,7920.203579,-6883.915261,766.095498
1205.465994,8216.285956,-7254.018232,1991.848295
1205.466323,8734.430116,-6809.894666,2681.334243
1205.466652,8068.244768,-6661.853478,2528.115143
1205.466981,6809.894666,-5847.626942,2451.505594
1205.467310,6661.853478,-6069.688724,1685.410096
1205.467639,6365.771101,-5625.565159,1608.800546
1205.467969,6439.791695,-5181.441594,1149.143247
1205.468298,6661.853478,-4737.318029,919.314598
1205.468627,7105.977043,-4885.359217,76.609550
1205.468956,7698.141797,-4811.338623,0.000000
1205.469285,8290.306550,-5329.482782,0.000000
1205.469614,8216.285956,-6069.688724,229.828649
1205.469944,7846.182985,-7846.182985,306.438199
1205.470273,7476.080014,-7698.141797,689.485948
1205.470602,7328.038826,-8216.285956,1302.362347
1205.470931,7328.038826,-8216.285956,2221.676944
1205.471260,7254.018232,-8808.450710,2834.553343
1205.471589,5995.668130,-7846.182985,2298.286494
1205.471919,5329.482782,-6883.915261,1838.629195
1205.472248,4959.379811,-6957.935855,919.314598
1205.472577,4811.338623,-6217.729913,612.876398
1205.472906,5033.400406,-5551.544565,0.000000
1205.473235,5847.626942,-5995.668130,-153.219100
1205.473564,6661.853478,-5995.668130,0.000000
1205.473894,7550.100608,-7179.997637,0.000000
1205.474223,7328.038826,-7698.141797,459.657299
1205.474552,7402.059420,-8068.244768,306.438199
1205.474881,7402.059420,-8216.285956,1455.581446
1205.475210,7772.162391,-7624.121203,2221.676944
1205.475539,7698.141797,-7550.100608,2834.553343
1205.475869,7846.182985,-4959.379811,3753.867940
1205.476198,7624.121203,-4663.297435,2834.553343
1205.476527,7476.080014,-4441.235652,2604.724693
1205.476856,6735.874072,-4293.194464,1991.848295
1205.477185,6291.750507,-4441.235652,842.705048
1205.477514,5995.668130,-4145.153275,-229.828649
1205.477844,6365.771101,-4737.318029,-612.876398
1205.478173,7254.018232,-5995.668130,0.000000
1205.478502,7772.162391,-6883.915261,153.219100
1205.478831,7328.038826,-7772.162391,383.047749
1205.479160,7402.059420,-8364.327145,0.000000
1205.479489,6957.935855,-9474.636058,459.657299
1205.479819,6883.915261,-9474.636058,1378.971896
1205.480148,6735.874072,-9400.615463,2068.457845
1205.480477,6217.729913,-8512.368333,2068.457845
1205.480806,5699.585753,-7402.059420,1685.410096
1205.481135,5107.421000,-7328.038826,1838.629195
1205.481464,5181.441594,-6587.832884,1225.752797
1205.481794,5255.462188,-5403.503377,689.485948
1205.482123,5847.626942,-4885.359217,0.000000
1205.482452,6883.915261,-4219.173869,-306.438199
1205.482781,7920.203579,-4811.338623,0.000000
1205.483110,8734.430116,-5847.626942,306.438199
1205.483439,8882.471304,-5329.482782,459.657299
1205.483769,8586.388927,-6365.771101,766.095498
1205.484098,8660.409521,-6883.915261,1532.190996
1205.484427,8734.430116,-6809.894666,1991.848295
1205.484756,7624.121203,-6143.709319,2298.286494
1205.485085,7105.977043,-6143.709319,2374.896044
1205.485414,6735.874072,-6291.750507,1915.238745
1205.485744,6217.729913,-5921.647536,1455.581446
1205.486073,5699.585753,-5625.565159,842.705048
1205.486402,5329.482782,-5255.462188,0.000000
1205.486731,5921.647536,-4811.338623,0.000000
1205.487060,7179.997637,-5255.462188,0.000000
1205.487389,8438.347739,-5921.647536,536.266849
1205.487719,8512.368333,-6439.791695,842.705048
1205.488048,8068.244768,-7105.977043,-229.828649
1205.488377,7179.997637,-7920.203579,383.047749
1205.488706,7402.059420,-8438.347739,1225.752797
1205.489035,7920.203579,-8512.368333,2145.067394
1205.489364,7994.224174,-7698.141797,2911.162892
1205.489694,7105.977043,-6735.874072,2221.676944
1205.490023,5995.668130,-6735.874072,2145.067394
1205.490352,4737.318029,-6217.729913,1685.410096
1205.490681,4737.318029,-6291.750507,842.705048
1205.491010,4293.194464,-5477.523971,459.657299
1205.491339,4811.338623,-5921.647536,-459.657299
1205.491669,5847.626942,-6809.894666,-612.876398
1205.491998,6809.894666,-7476.080014,-383.047749
1205.492327,7328.038826,-8364.327145,0.000000
1205.492656,7846.182985,-8068.244768,612.876398
1205.492985,7624.121203,-7920.203579,995.924147
1205.493314,8068.244768,-7846.182985,2145.067394
1205.493644,8512.368333,-7105.977043,2604.724693
1205.493973,8956.491898,-5773.606348,2987.772442
1205.494302,8586.388927,-4663.297435,2681.334243
1205.494631,7402.059420,-4515.256246,2451.505594
1205.494960,6809.894666,-3849.070898,2145.067394
1205.495289,6217.729913,-4145.153275,842.705048
1205.495619,6291.750507,-3997.112087,536.266849
1205.495948,6217.729913,-4515.256246,-383.047749
1205.496277,7254.018232,-6143.709319,0.000000
1205.496606,7698.141797,-6439.791695,0.000000
1205.496935,7328.038826,-6291.750507,-229.828649
1205.497264,7254.018232,-7994.224174,-229.828649
1205.497594,7254.018232,-8882.471304,766.095498
1205.497923,7328.038826,-9548.656652,1149.143247
1205.498252,7402.059420,-9178.553681,2221.676944
1205.498581,6809.894666,-8956.491898,1762.019645
1205.498910,5551.544565,-8438.347739,1838.629195
1205.499239,4885.359217,-7476.080014,1762.019645
1205.499569,4737.318029,-7179.997637,1225.752797
1205.499898,4959.379811,-5699.585753,536.266849
1205.500227,5329.482782,-4811.338623,-306.438199
1205.500556,6069.688724,-4737.318029,-229.828649
1205.500885,7105.977043,-4737.318029,0.000000
1205.501214,8438.347739,-6365.771101,0.000000
1205.501544,8734.430116,-6439.791695,842.705048
1205.501873,8586.388927,-6439.791695,842.705048
1205.502202,8660.409521,-6587.832884,1762.019645
1205.502531,8660.409521,-6809.894666,2221.676944
1205.502860,8438.347739,-6587.832884,2604.724693
1205.503189,7328.038826,-5995.668130,2374.896044
1205.503519,6883.915261,-6291.750507,2298.286494
1205.503848,6291.750507,-5773.606348,1302.362347
1205.504177,5403.503377,-5921.647536,919.314598
1205.504506,5625.565159,-5773.606348,0.000000
1205.504835,6069.688724,-5107.421000,153.219100
1205.505164,7031.956449,-6069.688724,153.219100
1205.505494,7772.162391,-5699.585753,0.000000
1205.505823,7994.224174,-6291.750507,0.000000
1205.506152,8216.285956,-7031.956449,0.000000
1205.506481,7846.182985,-7550.100608,842.705048
1205.506810,8216.285956,-7846.182985,1455.581446
1205.507139,8142.265362,-7698.141797,1991.848295
1205.507469,7105.977043,-7254.018232,2451.505594
1205.507798,6883.915261,-7105.977043,2298.286494
1205.508127,5773.606348,-6883.915261,1915.238745
1205.508456,4811.338623,-7031.956449,1378.971896
1205.508785,4515.256246,-6661.853478,612.876398
1205.509114,4663.297435,-5921.647536,229.828649
1205.509444,5255.462188,-5847.626942,-229.828649
1205.509773,5699.585753,-6365.771101,-459.657299
1205.510102,6439.791695,-7105.977043,-153.219100
1205.510431,7105.977043,-7476.080014,229.828649
1205.510760,7328.038826,-7698.141797,459.657299
1205.511089,7179.997637,-8290.306550,1225.752797
1205.511418,7624.121203,-7920.203579,1685.410096
1205.511748,7994.224174,-7254.018232,2451.505594
1205.512077,8142.265362,-5699.585753,3447.429741
1205.512406,8660.409521,-4959.379811,2757.943793
1205.512735,8068.244768,-4589.276840,3064.381992
1205.513064,7328.038826,-4219.173869,1991.848295
1205.513393,6291.750507,-3552.988522,1072.533697
1205.513722,6513.812290,-3330.926739,0.000000
1205.514051,6809.894666,-4515.256246,153.219100
1205.514380,7254.018232,-5847.626942,0.000000
1205.514710,7179.997637,-6217.729913,76.609550
1205.515039,7402.059420,-7179.997637,0.000000
1205.515368,6957.935855,-7624.121203,0.000000
1205.515697,7105.977043,-9104.533087,612.876398
1205.516026,7105.977043,-9548.656652,1838.629195
1205.516355,7254.018232,-8808.450710,1915.238745
1205.516684,7179.997637,-8216.285956,1378.971896
1205.517013,5773.606348,-8142.265362,1762.019645
1205.517342,5329.482782,-7698.141797,2145.067394
1205.517672,5255.462188,-6735.874072,1149.143247
1205.518001,5181.441594,-5847.626942,919.314598
1205.518330,5773.606348,-5033.400406,459.657299
1205.518659,6587.832884,-5181.441594,0.000000
1205.518988,7402.059420,-5403.503377,0.000000
1205.519317,7920.203579,-5477.523971,-306.438199
1205.519646,7994.224174,-5403.503377,153.219100
1205.519975,7846.182985,-6957.935855,153.219100
1205.520304,7698.141797,-8290.306550,995.924147
1205.520634,8216.285956,-8216.285956,1991.848295
1205.520963,7994.224174,-6883.915261,2604.724693
1205.521292,7994.224174,-6439.791695,2068.457845
1205.521621,6661.853478,-6883.915261,2451.505594
1205.521950,6365.771101,-6809.894666,2221.676944
1205.522279,6365.771101,-5625.565159,1302.362347
1205.522608,5773.606348,-3849.070898,306.438199
1205.522937,5921.647536,-4071.132681,0.000000
1205.523266,6809.894666,-4959.379811,229.828649
1205.523596,7698.141797,-5551.544565,536.266849
1205.523925,8512.368333,-5699.585753,229.828649
1205.524254,8290.306550,-5699.585753,689.485948
1205.524583,7920.203579,-7402.059420,995.924147
1205.524912,7920.203579,-7994.224174,995.924147
1205.525241,7698.141797,-8364.327145,1685.410096
1205.525570,7476.080014,-7698.141797,2221.676944
1205.525899,5921.647536,-7846.182985,2374.896044
1205.526228,5921.647536,-8142.265362,2145.067394
1205.526558,5181.441594,-7031.956449,1608.800546
1205.526887,4441.235652,-6883.915261,1072.533697
1205.527216,4737.318029,-6291.750507,1378.971896
1205.527545,5033.400406,-5699.585753,153.219100
1205.527874,5847.626942,-5699.585753,0.000000
1205.528203,7031.956449,-6069.688724,0.000000
1205.528532,7624.121203,-6809.894666,0.000000
1205.528861,7846.182985,-7328.038826,76.609550
1205.529190,7698.141797,-7920.203579,1072.533697
1205.529519,7846.182985,-7846.182985,1762.019645
1205.529849,8290.306550,-6883.915261,2145.067394
1205.530178,7994.224174,-6735.874072,2834.553343
1205.530507,7920.203579,-6365.771101,2987.772442
1205.530836,7402.059420,-5477.523971,2604.724693
1205.531165,6809.894666,-5255.462188,2145.067394
1205.531494,6365.771101,-4293.194464,1225.752797
1205.531823,5995.668130,-3997.112087,0.000000
1205.532152,6883.915261,-4219.173869,153.219100
1205.532481,7698.141797,-5107.421000,153.219100
1205.532811,8216.285956,-5699.585753,766.095498
1205.533140,8586.388927,-5255.462188,689.485948
1205.533469,7994.224174,-6809.894666,536.266849
1205.533798,7846.182985,-8068.244768,766.095498
1205.534127,7179.997637,-9030.512492,842.705048
1205.534456,6957.935855,-9104.533087,1455.581446
1205.534785,6217.729913,-8364.327145,919.314598
1205.535114,5329.482782,-8586.388927,1455.581446
1205.535443,5033.400406,-8290.306550,1378.971896
1205.535773,4737.318029,-7920.203579,1378.971896
1205.536102,4737.318029,-7105.977043,689.485948
1205.536431,4811.338623,-5477.523971,153.219100
1205.536760,5773.606348,-5107.421000,-306.438199
1205.537089,6883.915261,-5107.421000,-383.047749
1205.537418,7550.100608,-5699.585753,0.000000
1205.537747,8660.409521,-5921.647536,612.876398
1205.538076,8956.491898,-6217.729913,536.266849
1205.538405,8438.347739,-6957.935855,1072.533697
1205.538735,8364.327145,-7105.977043,1762.019645
1205.539064,8142.265362,-7328.038826,2298.286494
1205.539393,8142.265362,-6587.832884,2374.896044
1205.539722,7328.038826,-6217.729913,2298.286494
1205.540051,6809.894666,-5773.606348,2298.286494
1205.540380,5921.647536,-5551.544565,1225.752797
1205.540709,5033.400406,-5033.400406,842.705048
1205.541038,5773.606348,-4737.318029,153.219100
1205.541367,6809.894666,-4589.276840,0.000000
1205.541697,8142.265362,-5107.421000,306.438199
1205.542026,8438.347739,-5329.482782,229.828649
1205.542355,8586.388927,-5847.626942,76.609550
1205.542684,8216.285956,-6957.935855,459.657299
1205.543013,8142.265362,-7402.059420,1302.362347
1205.543342,7994.224174,-8290.306550,1685.410096
1205.543671,7994.224174,-8512.368333,2528.115143
1205.544000,7624.121203,-7920.203579,2145.067394
1205.544329,6365.771101,-7698.141797,1838.629195
1205.544659,5403.503377,-7698.141797,1762.019645
1205.544988,4589.276840,-7328.038826,842.705048
1205.545317,4293.194464,-6513.812290,766.095498
1205.545646,3701.029710,-5551.544565,-536.266849
1205.545975,4293.194464,-6365.771101,-1455.581446
1205.546304,5625.565159,-7105.977043,-229.828649
1205.546633,6883.915261,-7328.038826,-153.219100
1205.546962,7550.100608,-6883.915261,689.485948
1205.547291,7179.997637,-7476.080014,459.657299
1205.547621,7550.100608,-8216.285956,1072.533697
1205.547950,7920.203579,-7698.141797,1915.238745
1205.548279,8364.327145,-7624.121203,3753.867940
1205.548608,8660.409521,-5699.585753,3294.210641
1205.548937,8364.327145,-4367.215058,3217.601092
1205.549266,7994.224174,-4219.173869,2834.553343
1205.549595,7328.038826,-3775.050304,2298.286494
1205.549924,7254.018232,-3701.029710,919.314598
1205.550253,7031.956449,-2738.761985,306.438199
1205.550583,7105.977043,-4219.173869,-153.219100
1205.550912,7105.977043,-5477.523971,76.609550
1205.551241,7476.080014,-6809.894666,229.828649
1205.551570,7328.038826,-7179.997637,-76.609550
1205.551899,6957.935855,-8068.244768,0.000000
1205.552228,7105.977043,-9696.697840,766.095498
1205.552557,7105.977043,-10066.800811,1455.581446
1205.552886,6809.894666,-9030.512492,2068.457845
1205.553215,5995.668130,-8586.388927,1762.019645
1205.553545,5551.544565,-7846.182985,1915.238745
1205.553874,5255.462188,-7402.059420,1225.752797
1205.554203,5477.523971,-6809.894666,1072.533697
1205.554532,5921.647536,-5847.626942,0.000000
1205.554861,5995.668130,-5181.441594,0.000000
1205.555190,6809.894666,-5107.421000,0.000000
1205.555519,7328.038826,-5699.585753,-306.438199
1205.555848,7772.162391,-5477.523971,76.609550
1205.556177,7846.182985,-6217.729913,0.000000
1205.556507,7624.121203,-7476.080014,689.485948
1205.556836,7994.224174,-7476.080014,1608.800546
1205.557165,7920.203579,-8142.265362,1915.238745
1205.557494,7846.182985,-7624.121203,2681.334243
1205.557823,7550.100608,-7031.956449,2451.505594
1205.558152,6957.935855,-6217.729913,2298.286494
1205.558481,6513.812290,-5551.544565,2374.896044
1205.558810,6217.729913,-4663.297435,1455.581446
1205.559139,5699.585753,-3775.050304,0.000000
1205.559469,6217.729913,-3997.112087,0.000000
1205.559798,7846.182985,-4589.276840,306.438199
1205.560127,8882.471304,-5107.421000,459.657299
1205.560456,8956.491898,-5699.585753,0.000000
1205.560785,8068.244768,-5921.647536,0.000000
1205.561114,7772.162391,-7402.059420,689.485948
1205.561443,7772.162391,-8290.306550,1532.190996
1205.561772,7994.224174,-8660.409521,2374.896044
1205.562101,7846.182985,-7328.038826,2068.457845
1205.562431,6513.812290,-7772.162391,2145.067394
1205.562760,5403.503377,-7698.141797,2374.896044
1205.563089,4737.318029,-7476.080014,1378.971896
1205.563418,4441.235652,-6365.771101,383.047749
1205.563747,4071.132681,-5847.626942,-689.485948
1205.564076,4737.318029,-6365.771101,-1149.143247
1205.564405,6143.709319,-6883.915261,-459.657299
1205.564734,7105.977043,-7328.038826,0.000000
1205.565063,7476.080014,-7105.977043,153.219100
1205.565392,7550.100608,-7550.100608,229.828649
1205.565722,7550.100608,-8438.347739,995.924147
1205.566051,8142.265362,-8364.327145,1608.800546
1205.566380,8142.265362,-8142.265362,2374.896044
1205.566709,7402.059420,-7254.018232,3140.991542
1205.567038,7402.059420,-5847.626942,2757.943793
1205.567367,7402.059420,-4737.318029,2451.505594
1205.567696,7105.977043,-3923.091493,2068.457845
1205.568025,7179.997637,-3478.967927,1302.362347
1205.568354,7105.977043,-3404.947333,919.314598
1205.568684,7031.956449,-3404.947333,-229.828649
1205.569013,7254.018232,-4737.318029,-459.657299
1205.569342,7105.977043,-6661.853478,76.609550
1205.569671,7846.182985,-7328.038826,229.828649
1205.570000,7476.080014,-8068.244768,383.047749
1205.570329,7031.956449,-8734.430116,919.314598
1205.570658,7105.977043,-9326.594869,1149.143247
1205.570987,7254.018232,-8734.430116,1685.410096
1205.571316,6217.729913,-8438.347739,2145.067394
1205.571646,5477.523971,-7846.182985,1608.800546
1205.571975,4811.338623,-7105.977043,995.924147
1205.572304,4737.318029,-7179.997637,842.705048
1205.572633,5699.585753,-5551.544565,1149.143247
1205.572962,5477.523971,-5255.462188,0.000000
1205.573291,6365.771101,-5181.441594,-306.438199
1205.573620,7254.018232,-5181.441594,0.000000
1205.573949,8808.450710,-5847.626942,76.609550
1205.574278,9030.512492,-5921.647536,-306.438199
1205.574608,8734.430116,-6957.935855,842.705048
1205.574937,8216.285956,-7328.038826,1225.752797
1205.575266,7624.121203,-8142.265362,1762.019645
1205.575595,7328.038826,-7772.162391,2451.505594
1205.575924,7105.977043,-6883.915261,2681.334243
1205.576253,6661.853478,-5847.626942,1608.800546
1205.576582,5995.668130,-5255.462188,1455.581446
1205.576911,5773.606348,-5107.421000,1072.533697
1205.577240,6143.709319,-4367.215058,612.876398
1205.577570,6809.894666,-3923.091493,153.219100
1205.577899,7846.182985,-4219.173869,229.828649
1205.578228,8734.430116,-4441.235652,306.438199
1205.578557,8660.409521,-6365.771101,612.876398
1205.578886,8734.430116,-6883.915261,766.095498
1205.579215,7920.203579,-7254.018232,689.485948
1205.579544,7846.182985,-8068.244768,1762.019645
1205.579873,7920.203579,-8364.327145,1532.190996
1205.580202,7624.121203,-8512.368333,2451.505594
1205.580532,6291.750507,-7772.162391,2145.067394
1205.580861,5699.585753,-7254.018232,1838.629195
1205.581190,5033.400406,-6735.874072,1455.581446
1205.581519,4589.276840,-6513.812290,689.485948
1205.581848,4441.235652,-5773.606348,0.000000
1205.582177,5107.421000,-5551.544565,-306.438199
1205.582506,5921.647536,-5995.668130,-459.657299
1205.582835,6957.935855,-6735.874072,306.438199
1205.583164,7920.203579,-6957.935855,306.438199
1205.583494,8512.368333,-7179.997637,612.876398
1205.583823,7920.203579,-7772.162391,1225.752797
1205.584152,8068.244768,-8142.265362,1991.848295
1205.584481,7846.182985,-7698.141797,2451.505594
1205.584810,8068.244768,-6957.935855,2604.724693
1205.585139,7846.182985,-5181.441594,2911.162892
1205.585468,7994.224174,-5625.565159,2834.553343
1205.585797,7105.977043,-4589.276840,2068.457845
1205.586126,6439.791695,-4737.318029,1455.581446
1205.586456,5847.626942,-3923.091493,153.219100
1205.586785,6069.688724,-3997.112087,-459.657299
1205.587114,6809.894666,-5699.585753,0.000000
1205.587443,7550.100608,-6661.853478,383.047749
1205.587772,7698.141797,-6957.935855,459.657299
1205.588101,7846.182985,-6661.853478,689.485948
1205.588430,7846.182985,-7624.121203,919.314598
1205.588759,7920.203579,-8586.388927,1532.190996
1205.589088,7772.162391,-9030.512492,1762.019645
1205.589418,6735.874072,-8512.368333,2298.286494
1205.589747,5551.544565,-7698.141797,1455.581446
1205.590076,4885.359217,-7328.038826,1302.362347
1205.590405,4737.318029,-7476.080014,1149.143247
1205.590734,5329.482782,-7105.977043,1149.143247
1205.591063,5329.482782,-5625.565159,306.438199
1205.591392,5847.626942,-5033.400406,-612.876398
1205.591721,6513.812290,-5181.441594,-383.047749
1205.592050,7698.141797,-6291.750507,76.609550
1205.592380,8660.409521,-6883.915261,153.219100
1205.592709,8290.306550,-6365.771101,612.876398
1205.593038,7994.224174,-7031.956449,1378.971896
1205.593367,7994.224174,-6883.915261,1991.848295
1205.593696,8586.388927,-6661.853478,2604.724693
1205.594025,8290.306550,-6291.750507,2834.553343
1205.594354,7254.018232,-6217.729913,2451.505594
1205.594683,6513.812290,-5403.503377,1762.019645
1205.595012,5847.626942,-5329.482782,995.924147
1205.595342,5699.585753,-4959.379811,842.705048
1205.595671,6217.729913,-4959.379811,229.828649
1205.596000,7105.977043,-5699.585753,0.000000
1205.596329,7698.141797,-5699.585753,306.438199
1205.596658,8290.306550,-5921.647536,153.219100
1205.596987,7846.182985,-6661.853478,0.000000
1205.597316,7476.080014,-7624.121203,536.266849
1205.597645,7254.018232,-8216.285956,995.924147
1205.597974,7105.977043,-8438.347739,1378.971896
1205.598303,6883.915261,-8068.244768,1838.629195
1205.598633,6661.853478,-8142.265362,2145.067394
1205.598962,6439.791695,-7772.162391,2528.115143
1205.599291,5773.606348,-7402.059420,1991.848295
1205.599620,4737.318029,-6661.853478,995.924147
1205.599949,4737.318029,-5847.626942,-153.219100
1205.600278,5107.421000,-5551.544565,-383.047749
1205.600607,6217.729913,-6217.729913,0.000000
1205.600936,7031.956449,-6587.832884,0.000000
1205.601265,7402.059420,-6809.894666,153.219100
1205.601595,7772.162391,-6883.915261,306.438199
1205.601924,7624.121203,-6957.935855,995.924147
1205.602253,7920.203579,-7402.059420,1991.848295
1205.602582,8068.244768,-6661.853478,2145.067394
1205.602911,9104.533087,-6439.791695,3217.601092
1205.603240,7846.182985,-5847.626942,2528.115143
1205.603569,7550.100608,-5699.585753,2528.115143
1205.603898,7105.977043,-5477.523971,1915.238745
1205.604227,6439.791695,-4959.379811,842.705048
1205.604557,6513.812290,-5181.441594,689.485948
1205.604886,6661.853478,-4737.318029,0.000000
1205.605215,7254.018232,-5181.441594,0.000000
1205.605544,7624.121203,-6143.709319,153.219100
1205.605873,8068.244768,-5995.668130,459.657299
1205.606202,7328.038826,-7624.121203,76.609550
1205.606531,6957.935855,-8142.265362,383.047749
1205.606860,6439.791695,-9252.574275,1225.752797
1205.607189,6661.853478,-8808.450710,1378.971896
1205.607519,6513.812290,-7846.182985,1225.752797
1205.607848,6513.812290,-8068.244768,2145.067394
1205.608177,6365.771101,-7698.141797,1608.800546
1205.608506,5625.565159,-7328.038826,1762.019645
1205.608835,5847.626942,-6439.791695,1762.019645
1205.609164,5329.482782,-5699.585753,229.828649
1205.609493,5921.647536,-5625.565159,-459.657299
1205.609822,6513.812290,-5995.668130,-612.876398
1205.610151,7105.977043,-6587.832884,0.000000
1205.610481,7624.121203,-6735.874072,0.000000
1205.610810,7698.141797,-6439.791695,229.828649
1205.611139,7920.203579,-6735.874072,766.095498
1205.611468,7920.203579,-7105.977043,1762.019645
1205.611797,8438.347739,-7105.977043,2451.505594
1205.612126,8290.306550,-6513.812290,2834.553343
1205.612455,7624.121203,-6069.688724,2604.724693
1205.612784,7105.977043,-5847.626942,1915.238745
1205.613113,6587.832884,-5255.462188,1378.971896
1205.613443,6587.832884,-5699.585753,612.876398
1205.613772,6365.771101,-5551.544565,306.438199
1205.614101,6661.853478,-5403.503377,0.000000
1205.614430,7179.997637,-5329.482782,0.000000
1205.614759,7624.121203,-5477.523971,383.047749
1205.615089,7920.203579,-7105.977043,76.609550
1205.615418,7254.018232,-7698.141797,689.485948
1205.615747,7105.977043,-7846.182985,689.485948
1205.616076,7402.059420,-7772.162391,842.705048
1205.616406,7328.038826,-7550.100608,1991.848295
1205.616735,7254.018232,-7772.162391,2681.334243
1205.617064,7328.038826,-7476.080014,2604.724693
1205.617393,6291.750507,-7105.977043,2298.286494
1205.617722,5477.523971,-5995.668130,1225.752797
1205.618052,5181.441594,-5995.668130,536.266849
1205.618381,5033.400406,-6143.709319,0.000000
1205.618710,5625.565159,-6735.874072,-383.047749
1205.619039,6217.729913,-6735.874072,153.219100
1205.619368,6513.812290,-6069.688724,-153.219100
1205.619698,7179.997637,-6883.915261,153.219100
1205.620027,7476.080014,-7105.977043,919.314598
1205.620356,7550.100608,-7179.997637,1762.019645
1205.620685,8068.244768,-7031.956449,2451.505594
1205.621014,8364.327145,-6291.750507,2604.724693
1205.621344,7772.162391,-5403.503377,2528.115143
1205.621673,7846.182985,-5477.523971,2604.724693
1205.622002,7550.100608,-5921.647536,2221.676944
1205.622331,6513.812290,-5403.503377,1225.752797
1205.622660,6439.791695,-4811.338623,536.266849
1205.622990,6661.853478,-4663.297435,76.609550
1205.623319,7105.977043,-5477.523971,0.000000
1205.623648,7698.141797,-6587.832884,536.266849
1205.623977,7846.182985,-6513.812290,229.828649
1205.624307,7402.059420,-7254.018232,-229.828649
1205.624636,6439.791695,-7698.141797,-383.047749
1205.624965,6365.771101,-9178.553681,612.876398
1205.625294,6809.894666,-9474.636058,1532.190996
1205.625623,6513.812290,-8364.327145,2451.505594
1205.625953,6069.688724,-7920.203579,2298.286494
1205.626282,6217.729913,-6957.935855,2068.457845
1205.626611,6217.729913,-6809.894666,1991.848295
1205.626940,6291.750507,-6069.688724,1378.971896
1205.627269,5699.585753,-5107.421000,459.657299
1205.627599,6069.688724,-5033.400406,0.000000
1205.627928,6735.874072,-5847.626942,-536.266849
1205.628257,7031.956449,-6069.688724,0.000000
1205.628586,8290.306550,-6735.874072,0.000000
1205.628915,7846.182985,-6587.832884,306.438199
1205.629245,7698.141797,-7105.977043,919.314598
1205.629574,7920.203579,-7328.038826,1762.019645
1205.629903,8512.368333,-7254.018232,2604.724693
1205.630232,8808.450710,-7105.977043,2604.724693
1205.630561,7476.080014,-6069.688724,2451.505594
1205.630891,6513.812290,-5477.523971,1838.629195
1205.631220,6587.832884,-5255.462188,1685.410096
1205.631549,6661.853478,-4737.318029,689.485948
1205.631878,6587.832884,-4811.338623,383.047749
1205.632207,6883.915261,-4589.276840,76.609550
1205.632537,7476.080014,-5477.523971,153.219100
1205.632866,7698.141797,-6069.688724,0.000000
1205.633195,7105.977043,-5995.668130,229.828649
1205.633524,7254.018232,-7254.018232,0.000000
1205.633854,7179.997637,-7994.224174,766.095498
1205.634183,7698.141797,-8438.347739,2298.286494
1205.634512,8364.327145,-8068.244768,2451.505594
1205.634841,7772.162391,-7105.977043,2528.115143
1205.635170,6513.812290,-7105.977043,2298.286494
1205.635500,5847.626942,-7105.977043,1991.848295
1205.635829,4885.359217,-6809.894666,1532.190996
1205.636158,4811.338623,-6365.771101,383.047749
1205.636487,4441.235652,-6291.750507,-612.876398
1205.636816,5181.441594,-6143.709319,-689.485948
1205.637146,5847.626942,-6957.935855,-842.705048
1205.637475,7105.977043,-7328.038826,536.266849
1205.637804,8068.244768,-7476.080014,229.828649
1205.638133,7846.182985,-7328.038826,306.438199
1205.638462,7920.203579,-7179.997637,1149.143247
1205.638792,8290.306550,-6809.894666,2145.067394
1205.639121,9252.574275,-6735.874072,2987.772442
1205.639450,8438.347739,-5921.647536,3294.210641
1205.639779,7772.162391,-5255.462188,2757.943793
1205.640108,6957.935855,-4737.318029,2068.457845
1205.640438,6069.688724,-4737.318029,1302.362347
1205.640767,5921.647536,-4959.379811,919.314598
1205.641096,6143.709319,-5255.462188,383.047749
1205.641425,6365.771101,-5329.482782,0.000000
1205.641755,7105.977043,-5551.544565,-383.047749
1205.642084,7698.141797,-6291.750507,306.438199
1205.642413,7624.121203,-7105.977043,0.000000
1205.642742,7476.080014,-8586.388927,536.266849
1205.643071,7254.018232,-8364.327145,689.485948
1205.643401,7105.977043,-8660.409521,1225.752797
1205.643730,7105.977043,-8660.409521,1378.971896
1205.644059,6587.832884,-8660.409521,2145.067394
1205.644388,5921.647536,-7846.182985,2374.896044
1205.644717,5551.544565,-6735.874072,1915.238745
1205.645047,5403.503377,-6069.688724,1225.752797
1205.645376,5773.606348,-5181.441594,919.314598
1205.645705,6143.709319,-4959.379811,76.609550
1205.646034,6365.771101,-5477.523971,-459.657299
1205.646363,6809.894666,-5921.647536,0.000000
1205.646693,7846.182985,-5551.544565,-306.438199
1205.647022,7920.203579,-6809.894666,0.000000
1205.647351,8290.306550,-7031.956449,842.705048
1205.647680,8364.327145,-7179.997637,1455.581446
1205.648009,8586.388927,-7624.121203,2451.505594
1205.648339,8734.430116,-7031.956449,2221.676944
1205.648668,7476.080014,-6735.874072,2451.505594
1205.648997,6735.874072,-5921.647536,2068.457845
1205.649326,5921.647536,-5773.606348,1915.238745
1205.649656,6217.729913,-5329.482782,919.314598
1205.649985,6513.812290,-4885.359217,1149.143247
1205.650314,7254.018232,-4737.318029,229.828649
1205.650643,7772.162391,-4589.276840,229.828649
1205.650972,8068.244768,-5107.421000,229.828649
1205.651302,8290.306550,-6217.729913,0.000000
1205.651631,7624.121203,-7031.956449,383.047749
1205.651960,7402.059420,-7476.080014,536.266849
1205.652289,7846.182985,-7698.141797,766.095498
1205.652618,7328.038826,-7772.162391,2834.553343
1205.652948,7328.038826,-8364.327145,2604.724693
1205.653277,6291.750507,-7698.141797,2451.505594
1205.653606,5699.585753,-7476.080014,2221.676944
1205.653935,4737.318029,-7179.997637,1149.143247
1205.654264,4441.235652,-6513.812290,766.095498
1205.654594,4441.235652,-6365.771101,0.000000
1205.654923,4885.359217,-6365.771101,-612.876398
1205.655252,5625.565159,-6735.874072,229.828649
1205.655581,6883.915261,-6809.894666,-229.828649
1205.655910,7328.038826,-7105.977043,-153.219100
1205.656240,7550.100608,-7402.059420,689.485948
1205.656569,7698.141797,-7846.182985,919.314598
1205.656898,7920.203579,-7550.100608,2068.457845
1205.657227,7698.141797,-7031.956449,3370.820191
1205.657557,7920.203579,-5477.523971,3294.210641
1205.657886,7624.121203,-4811.338623,2911.162892
1205.658215,7698.141797,-4811.338623,3140.991542
1205.658544,7476.080014,-4515.256246,2451.505594
1205.658873,7328.038826,-3775.050304,1762.019645
1205.659203,6957.935855,-3552.988522,383.047749
1205.659532,6809.894666,-4145.153275,-306.438199
1205.659861,7105.977043,-5477.523971,76.609550
1205.660190,7920.203579,-6439.791695,76.609550
1205.660519,7624.121203,-6883.915261,-383.047749
1205.660849,6957.935855,-7179.997637,229.828649
1205.661178,6069.688724,-8438.347739,459.657299
1205.661507,6883.915261,-8660.409521,1608.800546
1205.661836,7105.977043,-8512.368333,1455.581446
1205.662165,6365.771101,-8512.368333,1838.629195
1205.662495,6143.709319,-7772.162391,2068.457845
1205.662824,5699.585753,-7920.203579,1915.238745
1205.663153,5625.565159,-7402.059420,1455.581446
1205.663482,5551.544565,-7105.977043,842.705048
1205.663811,5255.462188,-5773.606348,-306.438199
1205.664141,6365.771101,-5625.565159,-229.828649
1205.664470,7550.100608,-5921.647536,-306.438199
1205.664799,8068.244768,-5995.668130,0.000000
1205.665128,7772.162391,-6661.853478,-229.828649
1205.665457,7624.121203,-7179.997637,306.438199
1205.665787,7550.100608,-7550.100608,1225.752797
1205.666116,7920.203579,-7402.059420,1915.238745
1205.666445,7920.203579,-6809.894666,1991.848295
1205.666774,7254.018232,-6365.771101,2221.676944
1205.667104,6809.894666,-6069.688724,2145.067394
1205.667433,6883.915261,-5403.503377,1838.629195
1205.667762,7328.038826,-4737.318029,919.314598
1205.668091,7624.121203,-4737.318029,1455.581446
1205.668420,7105.977043,-4663.297435,306.438199
1205.668750,7550.100608,-4811.338623,459.657299
1205.669079,7994.224174,-5329.482782,0.000000
1205.669408,8068.244768,-6587.832884,766.095498
1205.669737,7402.059420,-6809.894666,-153.219100
1205.670066,6809.894666,-7328.038826,229.828649
1205.670396,6957.935855,-8290.306550,842.705048
1205.670725,7328.038826,-8142.265362,1915.238745
1205.671054,7179.997637,-7328.038826,2145.067394
1205.671383,6069.688724,-6957.935855,2374.896044
1205.671712,5699.585753,-6587.832884,2068.457845
1205.672042,5181.441594,-7105.977043,1378.971896
1205.672371,5107.421000,-6291.750507,1225.752797
1205.672700,4959.379811,-6069.688724,306.438199
1205.673029,5625.565159,-5773.606348,0.000000
1205.673358,6513.812290,-5921.647536,0.000000
1205.673688,7105.977043,-7031.956449,-153.219100
1205.674017,7550.100608,-7254.018232,536.266849
1205.674346,7179.997637,-7698.141797,229.828649
1205.674675,7105.977043,-8290.306550,842.705048
1205.675005,7254.018232,-7698.141797,995.924147
1205.675334,7402.059420,-7698.141797,1532.190996
1205.675663,7476.080014,-7254.018232,2528.115143
1205.675992,7254.018232,-6439.791695,2451.505594
1205.676321,6957.935855,-6143.709319,2451.505594
1205.676651,6587.832884,-4811.338623,1991.848295
1205.676980,6735.874072,-4589.276840,1915.238745
1205.677309,7328.038826,-4145.153275,1149.143247
1205.677638,7550.100608,-3701.029710,612.876398
1205.677967,7994.224174,-4663.297435,-383.047749
1205.678297,7846.182985,-5329.482782,459.657299
1205.678626,8364.327145,-5403.503377,0.000000
1205.678955,8216.285956,-7105.977043,153.219100
1205.679284,7402.059420,-7920.203579,1072.533697
1205.679613,6957.935855,-8438.347739,1072.533697
1205.679943,7031.956449,-8438.347739,1532.190996
1205.680272,7105.977043,-8586.388927,1991.848295
1205.680601,6661.853478,-7772.162391,1915.238745
1205.680930,5403.503377,-7179.997637,1838.629195
1205.681259,5181.441594,-6883.915261,995.924147
1205.681589,5773.606348,-6661.853478,689.485948
1205.681918,5551.544565,-5551.544565,383.047749
1205.682247,6217.729913,-5551.544565,0.000000
1205.682576,6957.935855,-5625.565159,0.000000
1205.682906,7179.997637,-5995.668130,-612.876398
1205.683235,7624.121203,-6587.832884,-306.438199
1205.683564,7698.141797,-6809.894666,536.266849
1205.683893,7624.121203,-7179.997637,1072.533697
1205.684222,7994.224174,-7698.141797,1532.190996
1205.684552,8142.265362,-7179.997637,2374.896044
1205.684881,7550.100608,-7105.977043,2451.505594
1205.685210,7179.997637,-6587.832884,2451.505594
1205.685539,6661.853478,-5921.647536,2221.676944
1205.685868,6365.771101,-5329.482782,1302.362347
1205.686198,6365.771101,-4811.338623,919.314598
1205.686527,6883.915261,-4737.318029,689.485948
1205.686856,7402.059420,-4737.318029,383.047749
1205.687185,7624.121203,-5477.523971,0.000000
1205.687514,7624.121203,-5699.585753,0.000000
1205.687844,7476.080014,-7105.977043,0.000000
1205.688173,7254.018232,-7846.182985,459.657299
1205.688502,7624.121203,-8290.306550,919.314598
1205.688831,7402.059420,-8364.327145,1838.629195
1205.689160,7402.059420,-7476.080014,2451.505594
1205.689490,6883.915261,-8068.244768,2451.505594
1205.689819,6217.729913,-7254.018232,2145.067394
1205.690148,5181.441594,-6883.915261,1378.971896
1205.690477,4737.318029,-6217.729913,842.705048
1205.690807,5107.421000,-6217.729913,459.657299
1205.691136,5625.565159,-5699.585753,0.000000
1205.691465,6217.729913,-5329.482782,0.000000
1205.691794,7105.977043,-5477.523971,0.000000
1205.692123,8364.327145,-6217.729913,919.314598
1205.692453,7994.224174,-7031.956449,689.485948
1205.692782,7550.100608,-7698.141797,919.314598
1205.693111,7105.977043,-7476.080014,1225.752797
1205.693440,7179.997637,-7772.162391,1532.190996
1205.693769,7328.038826,-7179.997637,2757.943793
1205.694099,7476.080014,-6513.812290,2221.676944
1205.694428,7105.977043,-5551.544565,2221.676944
1205.694757,6735.874072,-5255.462188,1991.848295
1205.695086,6513.812290,-4737.318029,1378.971896
1205.695415,6809.894666,-4293.194464,689.485948
1205.695745,7105.977043,-4145.153275,0.000000
1205.696074,7105.977043,-4367.215058,0.000000
1205.696403,7624.121203,-5403.503377,0.000000
1205.696732,8142.265362,-5625.565159,229.828649
1205.697061,8290.306550,-7105.977043,76.609550
1205.697391,7550.100608,-7698.141797,766.095498
1205.697720,7179.997637,-8660.409521,842.705048
1205.698049,6735.874072,-8956.491898,1302.362347
1205.698378,7105.977043,-9326.594869,2145.067394
1205.698707,6365.771101,-8438.347739,1762.019645
1205.699037,5181.441594,-7698.141797,1762.019645
1205.699366,4885.359217,-7624.121203,1378.971896
1205.699695,5107.421000,-6365.771101,1532.190996
1205.700024,5329.482782,-5921.647536,383.047749
1205.700354,5921.647536,-5107.421000,-306.438199
1205.700683,6365.771101,-5255.462188,-153.219100
1205.701012,7031.956449,-5847.626942,76.609550
1205.701341,7846.182985,-6291.750507,76.609550
1205.701670,8216.285956,-6587.832884,306.438199
1205.702000,8216.285956,-7105.977043,1072.533697
1205.702329,8438.347739,-7105.977043,1991.848295
1205.702658,8660.409521,-6883.915261,2298.286494
1205.702987,8438.347739,-6883.915261,2604.724693
1205.703316,7698.141797,-6587.832884,2987.772442
1205.703646,6661.853478,-5921.647536,1838.629195
1205.703975,6217.729913,-5625.565159,1532.190996
1205.704304,6365.771101,-5921.647536,1072.533697
1205.704633,5847.626942,-5181.441594,383.047749
1205.704962,6217.729913,-5107.421000,0.000000
1205.705292,6957.935855,-5329.482782,-153.219100
1205.705621,7254.018232,-5921.647536,459.657299
1205.705950,7772.162391,-6587.832884,459.657299
1205.706279,7031.956449,-7402.059420,306.438199
1205.706608,7179.997637,-8142.265362,536.266849
1205.706938,7402.059420,-8512.368333,1762.019645
1205.707267,7920.203579,-7846.182985,2451.505594
1205.707596,7772.162391,-7698.141797,2528.115143
1205.707925,7105.977043,-7031.956449,2757.943793
1205.708255,5995.668130,-7402.059420,2145.067394
1205.708584,5847.626942,-6069.688724,1149.143247
1205.708913,4959.379811,-5699.585753,766.095498
1205.709242,4885.359217,-5847.626942,0.000000
1205.709571,5255.462188,-5699.585753,-612.876398
1205.709901,5921.647536,-6291.750507,-612.876398
1205.710230,7105.977043,-6809.894666,-153.219100
1205.710559,7105.977043,-6957.935855,0.000000
1205.710888,7402.059420,-8068.244768,306.438199
1205.711217,7254.018232,-7772.162391,919.314598
1205.711547,7328.038826,-8438.347739,1532.190996
1205.711876,7920.203579,-7994.224174,2604.724693
1205.712205,7698.141797,-7698.141797,2528.115143
1205.712534,7772.162391,-5847.626942,2681.334243
1205.712863,7624.121203,-5329.482782,2451.505594
1205.713193,7624.121203,-4663.297435,3140.991542
1205.713522,6809.894666,-4441.235652,1378.971896
1205.713851,6439.791695,-3775.050304,0.000000
1205.714180,6735.874072,-3923.091493,-995.924147
1205.714509,7105.977043,-5329.482782,-689.485948
1205.714839,7550.100608,-5847.626942,536.266849
1205.715168,7846.182985,-6587.832884,0.000000
1205.715497,7105.977043,-7179.997637,76.609550
1205.715826,7031.956449,-8586.388927,689.485948
1205.716155,7328.038826,-9474.636058,1685.410096
1205.716484,7254.018232,-9474.636058,2374.896044
1205.716813,6661.853478,-8512.368333,2298.286494
1205.717143,5625.565159,-7550.100608,1838.629195
1205.717472,5699.585753,-7476.080014,1838.629195
1205.717801,5551.544565,-6809.894666,1455.581446
1205.718130,5255.462188,-5847.626942,459.657299
1205.718459,5477.523971,-5477.523971,0.000000
1205.718788,6143.709319,-5107.421000,-612.876398
1205.719117,6883.915261,-5773.606348,-306.438199
1205.719446,7550.100608,-5995.668130,0.000000
1205.719775,8142.265362,-5847.626942,153.219100
1205.720105,7920.203579,-6439.791695,383.047749
1205.720434,7550.100608,-7476.080014,1455.581446
1205.720763,8438.347739,-7698.141797,2374.896044
1205.721092,8216.285956,-7402.059420,2528.115143
1205.721421,7698.141797,-7105.977043,2451.505594
1205.721750,7105.977043,-5847.626942,2451.505594
1205.722079,6661.853478,-5699.585753,2068.457845
1205.722408,6587.832884,-4885.359217,1302.362347
1205.722737,6513.812290,-4737.318029,766.095498
1205.723067,6809.894666,-4737.318029,229.828649
1205.723396,7105.977043,-5033.400406,153.219100
1205.723725,7550.100608,-5625.565159,153.219100
1205.724054,7550.100608,-5773.606348,0.000000
1205.724383,7328.038826,-6735.874072,0.000000
1205.724712,7254.018232,-8290.306550,919.314598
1205.725041,7624.121203,-8660.409521,1225.752797
1205.725370,8068.244768,-7624.121203,1225.752797
1205.725699,7328.038826,-7846.182985,2298.286494
1205.726029,6957.935855,-7550.100608,2451.505594
1205.726358,6143.709319,-7105.977043,2298.286494
1205.726687,5625.565159,-6735.874072,1838.629195
1205.727016,5699.585753,-6365.771101,1149.143247
1205.727345,4737.318029,-5773.606348,0.000000
1205.727674,4885.359217,-6069.688724,-612.876398
1205.728003,5551.544565,-6883.915261,-612.876398
1205.728332,6661.853478,-7846.182985,383.047749
1205.728661,6957.935855,-7772.162391,0.000000
1205.728991,7105.977043,-7402.059420,0.000000
1205.729320,6957.935855,-8216.285956,689.485948
1205.729649,7179.997637,-8364.327145,1378.971896
1205.729978,7624.121203,-7846.182985,2911.162892
1205.730307,7772.162391,-6883.915261,2451.505594
1205.730636,7920.203579,-5403.503377,3524.039291
1205.730965,8142.265362,-4293.194464,2451.505594
1205.731294,7698.141797,-4145.153275,2145.067394
1205.731623,7105.977043,-3849.070898,1685.410096
1205.731953,6883.915261,-3701.029710,612.876398
1205.732282,7179.997637,-3701.029710,0.000000
1205.732611,7031.956449,-5477.523971,-383.047749
1205.732940,7624.121203,-6587.832884,-459.657299
1205.733269,7772.162391,-7624.121203,76.609550
1205.733598,7328.038826,-7772.162391,153.219100
1205.733927,7550.100608,-8438.347739,842.705048
1205.734256,7772.162391,-8438.347739,1378.971896
1205.734585,7328.038826,-9030.512492,1915.238745
1205.734915,6587.832884,-8290.306550,2068.457845
1205.735244,5625.565159,-7846.182985,1532.190996
1205.735573,4885.359217,-7550.100608,1608.800546
1205.735902,5477.523971,-7031.956449,2374.896044
1205.736231,5255.462188,-6587.832884,1072.533697
1205.736560,4885.359217,-5329.482782,0.000000
1205.736889,5921.647536,-5255.462188,-306.438199
1205.737218,7031.956449,-6069.688724,0.000000
1205.737547,7846.182985,-6217.729913,842.705048
1205.737877,8142.265362,-6069.688724,383.047749
1205.738206,7920.203579,-6143.709319,536.266849
1205.738535,7698.141797,-7179.997637,1455.581446
1205.738864,8216.285956,-7179.997637,2145.067394
1205.739193,8808.450710,-6957.935855,2374.896044
1205.739522,7698.141797,-5847.626942,2451.505594
1205.739851,7105.977043,-5403.503377,1915.238745
1205.740180,6957.935855,-5403.503377,1915.238745
1205.740509,6365.771101,-4589.276840,1991.848295
1205.740839,6957.935855,-4959.379811,1225.752797
1205.741168,7105.977043,-4219.173869,306.438199
1205.741497,7476.080014,-4885.359217,0.000000
1205.741826,7698.141797,-5255.462188,153.219100
1205.742155,8142.265362,-6069.688724,306.438199
1205.742484,7994.224174,-7031.956449,0.000000
1205.742813,7550.100608,-7994.224174,459.657299
1205.743142,7624.121203,-8586.388927,1149.143247
1205.743471,7476.080014,-8068.244768,1302.362347
1205.743801,6883.915261,-7994.224174,2451.505594
1205.744130,6587.832884,-7772.162391,1991.848295
1205.744459,5921.647536,-7254.018232,1915.238745
1205.744788,5255.462188,-6883.915261,1762.019645
1205.745117,5107.421000,-6513.812290,459.657299
1205.745446,4219.173869,-6143.709319,-229.828649
1205.745775,4885.359217,-6143.709319,-536.266849
1205.746104,6143.709319,-6809.894666,-383.047749
1205.746433,7328.038826,-7328.038826,919.314598
1205.746763,7476.080014,-7846.182985,0.000000
1205.747092,7105.977043,-7994.224174,153.219100
1205.747421,6809.894666,-8586.388927,306.438199
1205.747750,6809.894666,-8808.450710,842.705048
1205.748079,6957.935855,-7031.956449,2145.067394
1205.748408,7624.121203,-6957.935855,2528.115143
1205.748737,7994.224174,-6291.750507,2757.943793
1205.749066,7328.038826,-5699.585753,3217.601092
1205.749395,7105.977043,-4737.318029,2298.286494
1205.749725,7105.977043,-3182.885551,1532.190996
1205.750054,6883.915261,-3108.864956,1149.143247
1205.750383,7402.059420,-3701.029710,76.609550
1205.750712,7550.100608,-4367.215058,0.000000
1205.751041,7994.224174,-4959.379811,0.000000
1205.751370,8142.265362,-6439.791695,0.000000
1205.751699,7772.162391,-6957.935855,229.828649
1205.752028,7179.997637,-8290.306550,689.485948
1205.752357,7402.059420,-9030.512492,1455.581446
1205.752687,7254.018232,-9104.533087,2451.505594
1205.753016,6883.915261,-8364.327145,2068.457845
1205.753345,6365.771101,-7328.038826,1838.629195
1205.753674,5699.585753,-6883.915261,1532.190996
1205.754003,5033.400406,-6513.812290,1302.362347
1205.754332,5255.462188,-6735.874072,612.876398
1205.754661,5255.462188,-6069.688724,229.828649
1205.754990,5773.606348,-5625.565159,-306.438199
1205.755319,6735.874072,-5921.647536,76.609550
1205.755649,7994.224174,-6439.791695,76.609550
1205.755978,7624.121203,-7031.956449,0.000000
1205.756307,7624.121203,-6883.915261,229.828649
1205.756636,7772.162391,-7254.018232,1149.143247
1205.756965,8290.306550,-7402.059420,2221.676944
1205.757294,8216.285956,-7105.977043,2221.676944
1205.757623,7772.162391,-6735.874072,2451.505594
1205.757952,7328.038826,-6291.750507,2757.943793
1205.758281,6809.894666,-5255.462188,1915.238745
1205.758611,6513.812290,-4737.318029,1762.019645
1205.758940,6587.832884,-4589.276840,1532.190996
1205.759269,7105.977043,-4737.318029,766.095498
1205.759598,7031.956449,-4885.359217,0.000000
1205.759927,7328.038826,-5329.482782,0.000000
1205.760256,8068.244768,-6661.853478,-229.828649
1205.760585,7846.182985,-7031.956449,76.609550
1205.760914,7105.977043,-7698.141797,536.266849
1205.761243,7254.018232,-8438.347739,689.485948
1205.761573,7105.977043,-8142.265362,1991.848295
1205.761902,7624.121203,-7920.203579,2298.286494
1205.762231,7402.059420,-7031.956449,2681.334243
1205.762560,6957.935855,-6365.771101,2451.505594
1205.762889,5921.647536,-6439.791695,2068.457845
1205.763218,5477.523971,-5773.606348,1455.581446
1205.763547,4885.359217,-5847.626942,536.266849
1205.763876,5329.482782,-5773.606348,0.000000
1205.764205,6069.688724,-6365.771101,0.000000
1205.764535,6439.791695,-7476.080014,-689.485948
1205.764864,7105.977043,-7254.018232,0.000000
1205.765193,7328.038826,-7698.141797,153.219100
1205.765522,7105.977043,-7920.203579,612.876398
1205.765851,6957.935855,-8586.388927,919.314598
1205.766180,7328.038826,-8364.327145,1838.629195
1205.766509,7328.038826,-7624.121203,2068.457845
1205.766838,7476.080014,-7105.977043,2834.553343
1205.767167,7254.018232,-5773.606348,2604.724693
1205.767497,7846.182985,-4663.297435,2528.115143
1205.767826,7920.203579,-3997.112087,1991.848295
1205.768155,7402.059420,-3997.112087,1455.581446
1205.768484,7105.977043,-4071.132681,612.876398
1205.768813,7179.997637,-4737.318029,0.000000
1205.769142,7772.162391,-5551.544565,612.876398
1205.769471,7994.224174,-6069.688724,383.047749
1205.769800,7920.203579,-6809.894666,76.609550
1205.770129,7476.080014,-8216.285956,229.828649
1205.770459,7254.018232,-8290.306550,1455.581446
1205.770788,7105.977043,-8438.347739,1991.848295
1205.771117,6957.935855,-7920.203579,1991.848295
1205.771446,6143.709319,-7994.224174,1762.019645
1205.771775,5625.565159,-7698.141797,1838.629195
1205.772104,5255.462188,-7402.059420,1532.190996
1205.772433,5255.462188,-6661.853478,536.266849
1205.772762,5329.482782,-5995.668130,612.876398
1205.773091,6069.688724,-5625.565159,0.000000
1205.773421,6365.771101,-5847.626942,0.000000
1205.773750,7105.977043,-6513.812290,0.000000
1205.774079,7254.018232,-6883.915261,-229.828649
1205.774408,7402.059420,-6661.853478,0.000000
1205.774737,7550.100608,-7031.956449,612.876398
1205.775066,7698.141797,-7254.018232,1302.362347
1205.775395,7920.203579,-7105.977043,2145.067394
1205.775724,7846.182985,-6513.812290,2757.943793
1205.776053,7772.162391,-5477.523971,2451.505594
1205.776383,7179.997637,-4885.359217,2528.115143
1205.776712,7328.038826,-4737.318029,1838.629195
1205.777041,6735.874072,-4737.318029,919.314598
1205.777370,6735.874072,-4515.256246,689.485948
1205.777699,7179.997637,-4737.318029,306.438199
1205.778028,8216.285956,-5329.482782,153.219100
1205.778357,8142.265362,-6587.832884,0.000000
1205.778686,7846.182985,-7328.038826,229.828649
1205.779015,7179.997637,-8068.244768,229.828649
1205.779345,7031.956449,-8734.430116,766.095498
1205.779674,6809.894666,-8512.368333,1532.190996
1205.780003,7105.977043,-8438.347739,1608.800546
1205.780332,6883.915261,-8364.327145,2374.896044
1205.780661,6513.812290,-7624.121203,2451.505594
1205.780990,5773.606348,-6587.832884,2298.286494
1205.781319,5625.565159,-5625.565159,1455.581446
1205.781648,5477.523971,-5403.503377,536.266849
1205.781977,5477.523971,-5477.523971,0.000000
1205.782307,5921.647536,-5403.503377,-459.657299
1205.782636,6513.812290,-6883.915261,0.000000
1205.782965,7402.059420,-7179.997637,0.000000
1205.783294,7624.121203,-7550.100608,153.219100
1205.783623,7179.997637,-8142.265362,766.095498
1205.783952,6735.874072,-8808.450710,842.705048
1205.784281,7105.977043,-8512.368333,1991.848295
1205.784610,7105.977043,-7772.162391,2068.457845
1205.784939,7105.977043,-7105.977043,2451.505594
1205.785269,7105.977043,-6069.688724,2451.505594
1205.785598,6957.935855,-5403.503377,2528.115143
1205.785927,6513.812290,-3849.070898,2221.676944
1205.786256,6513.812290,-3404.947333,1378.971896
1205.786585,7846.182985,-2294.638420,1072.533697
1205.786914,8364.327145,-2886.803174,306.438199
1205.787243,8438.347739,-4293.194464,536.266849
1205.787572,8290.306550,-5847.626942,-306.438199
1205.787901,7698.141797,-6513.812290,-229.828649
1205.788231,7328.038826,-7846.182985,0.000000
1205.788560,7031.956449,-9474.636058,1149.143247
1205.788889,7254.018232,-9252.574275,1762.019645
1205.789218,6809.894666,-9400.615463,2374.896044
1205.789547,5847.626942,-8660.409521,1838.629195
1205.789876,4959.379811,-7698.141797,1532.190996
1205.790205,3552.988522,-7402.059420,1225.752797
1205.790534,4293.194464,-6809.894666,229.828649
1205.790863,4959.379811,-5773.606348,229.828649
1205.791193,5625.565159,-5033.400406,0.000000
1205.791522,6661.853478,-5033.400406,-229.828649
1205.791851,8290.306550,-5033.400406,153.219100
1205.792180,9104.533087,-6513.812290,229.828649
1205.792509,8956.491898,-6365.771101,689.485948
1205.792838,8956.491898,-6809.894666,1149.143247
1205.793167,8364.327145,-7179.997637,919.314598
1205.793496,7920.203579,-7031.956449,2681.334243
1205.793825,7846.182985,-7698.141797,2374.896044
1205.794155,7328.038826,-7105.977043,1532.190996
1205.794484,6587.832884,-6365.771101,2145.067394
1205.794813,6217.729913,-5847.626942,1685.410096
1205.795142,5921.647536,-5477.523971,1378.971896
1205.795471,6143.709319,-5033.400406,612.876398
1205.795800,6587.832884,-4663.297435,229.828649
1205.796129,6883.915261,-4219.173869,-229.828649
1205.796458,7179.997637,-5699.585753,383.047749
1205.796787,8290.306550,-6513.812290,459.657299
1205.797117,8290.306550,-7105.977043,459.657299
1205.797446,7772.162391,-7994.224174,919.314598
1205.797775,7402.059420,-8808.450710,1685.410096
1205.798104,7328.038826,-8512.368333,2221.676944
1205.798433,7328.038826,-8142.265362,2451.505594
1205.798762,6735.874072,-7254.018232,2451.505594
1205.799091,5625.565159,-6587.832884,1838.629195
1205.799420,4737.318029,-6513.812290,1378.971896
1205.799749,4589.276840,-6069.688724,842.705048
1205.800079,5107.421000,-5255.462188,459.657299
1205.800408,5551.544565,-5699.585753,0.000000
1205.800737,5773.606348,-6439.791695,-689.485948
1205.801066,6809.894666,-6957.935855,-689.485948
1205.801395,7402.059420,-7772.162391,229.828649
1205.801724,7402.059420,-8216.285956,1149.143247
1205.802053,7328.038826,-8512.368333,995.924147
1205.802382,7179.997637,-7772.162391,1838.629195
1205.802711,7105.977043,-7476.080014,2221.676944
1205.803041,7254.018232,-7254.018232,2681.334243
1205.803370,7550.100608,-6143.709319,2604.724693
1205.803699,7254.018232,-4589.276840,2298.286494
1205.804028,7031.956449,-4071.132681,2298.286494
1205.804357,7105.977043,-3478.967927,1225.752797
1205.804686,7402.059420,-3552.988522,536.266849
1205.805015,7402.059420,-3701.029710,0.000000
1205.805344,7698.141797,-5181.441594,0.000000
1205.805673,7550.100608,-6217.729913,-459.657299
1205.806003,7846.182985,-7105.977043,306.438199
1205.806332,7772.162391,-8142.265362,306.438199
1205.806661,7624.121203,-9326.594869,1455.581446
1205.806990,7254.018232,-9178.553681,1762.019645
1205.807319,7179.997637,-8956.491898,2068.457845
1205.807648,6809.894666,-7920.203579,1991.848295
1205.807977,6217.729913,-7698.141797,1608.800546
1205.808306,5551.544565,-7179.997637,1302.362347
1205.808635,5181.441594,-6439.791695,1225.752797
1205.808965,5181.441594,-5551.544565,229.828649
1205.809294,5551.544565,-4811.338623,0.000000
1205.809623,6143.709319,-4959.379811,-229.828649
1205.809952,6883.915261,-5625.565159,-383.047749
1205.810281,7624.121203,-6217.729913,0.000000
1205.810610,8290.306550,-6439.791695,229.828649
1205.810939,8364.327145,-7179.997637,919.314598
1205.811268,8364.327145,-7698.141797,1915.238745
1205.811597,7994.224174,-7698.141797,2451.505594
1205.811927,8142.265362,-7031.956449,2374.896044
1205.812256,7624.121203,-6217.729913,2757.943793
1205.812585,7550.100608,-5921.647536,2451.505594
1205.812914,6957.935855,-5181.441594,2068.457845
1205.813243,6513.812290,-4515.256246,1455.581446
1205.813572,6439.791695,-4367.215058,612.876398
1205.813901,6365.771101,-4663.297435,153.219100
1205.814230,6809.894666,-5477.523971,0.000000
1205.814559,7402.059420,-5921.647536,0.000000
1205.814888,7698.141797,-6513.812290,0.000000
1205.815217,7476.080014,-7179.997637,153.219100
1205.815547,7402.059420,-8216.285956,842.705048
1205.815876,7550.100608,-8882.471304,1608.800546
1205.816205,7624.121203,-8438.347739,2221.676944
1205.816534,7179.997637,-7920.203579,2528.115143
1205.816863,6809.894666,-7179.997637,2374.896044
1205.817192,6439.791695,-6513.812290,2221.676944
1205.817521,5773.606348,-6735.874072,2451.505594
1205.817850,5403.503377,-5403.503377,1072.533697
1205.818179,5255.462188,-5255.462188,0.000000
1205.818508,5551.544565,-5551.544565,-229.828649
1205.818837,5773.606348,-6439.791695,0.000000
1205.819166,6809.894666,-7031.956449,-536.266849
1205.819495,6957.935855,-7476.080014,0.000000
1205.819824,7031.956449,-7920.203579,536.266849
1205.820153,6587.832884,-8438.347739,1608.800546
1205.820482,6883.915261,-8586.388927,1302.362347
1205.820811,7105.977043,-7994.224174,2145.067394
1205.821140,7402.059420,-7698.141797,2528.115143
1205.821470,7624.121203,-6587.832884,2987.772442
1205.821799,7402.059420,-5255.462188,2911.162892
1205.822128,7402.059420,-4441.235652,2068.457845
1205.822457,7179.997637,-3404.947333,1378.971896
1205.822786,7698.141797,-3108.864956,1302.362347
1205.823115,8364.327145,-3552.988522,689.485948
1205.823444,8068.244768,-4293.194464,766.095498
1205.823773,8364.327145,-4885.359217,0.000000
1205.824102,7846.182985,-5847.626942,-153.219100
1205.824431,7550.100608,-7476.080014,0.000000
1205.824760,7328.038826,-8956.491898,919.314598
1205.825089,6883.915261,-9474.636058,459.657299
1205.825418,6587.832884,-9548.656652,1838.629195
1205.825747,5847.626942,-8734.430116,1532.190996
1205.826076,5181.441594,-8438.347739,1455.581446
1205.826405,5107.421000,-7698.141797,1685.410096
1205.826734,5033.400406,-7328.038826,1378.971896
1205.827064,5181.441594,-6069.688724,383.047749
1205.827393,5625.565159,-4811.338623,0.000000
1205.827722,6365.771101,-4959.379811,0.000000
1205.828051,7402.059420,-5107.421000,76.609550
1205.828380,8290.306550,-5921.647536,536.266849
1205.828709,8734.430116,-6291.750507,612.876398
1205.829038,8216.285956,-5995.668130,842.705048
1205.829367,8216.285956,-6661.853478,995.924147
1205.829696,8142.265362,-7698.141797,1762.019645
1205.830025,7920.203579,-7624.121203,1838.629195
1205.830354,7254.018232,-7402.059420,2451.505594
1205.830683,6365.771101,-6291.750507,1685.410096
1205.831012,6143.709319,-5921.647536,1762.019645
1205.831341,6217.729913,-5255.462188,1455.581446
1205.831670,6661.853478,-5625.565159,995.924147
1205.831999,6439.791695,-5107.421000,0.000000
1205.832328,6217.729913,-4737.318029,0.000000
1205.832657,7105.977043,-5329.482782,76.609550
1205.832987,8216.285956,-5773.606348,536.266849
1205.833316,8808.450710,-7105.977043,842.705048
1205.833645,8512.368333,-7254.018232,1149.143247
1205.833974,7846.182985,-7698.141797,1225.752797
1205.834303,7550.100608,-8142.265362,1532.190996
1205.834632,7105.977043,-8142.265362,2374.896044
1205.834961,6809.894666,-7698.141797,2451.505594
1205.835290,6143.709319,-6809.894666,2145.067394
1205.835619,5995.668130,-6365.771101,1915.238745
1205.835948,5329.482782,-6587.832884,1149.143247
1205.836277,4959.379811,-6365.771101,459.657299
1205.836606,4885.359217,-6291.750507,-306.438199
1205.836935,4885.359217,-6069.688724,-919.314598
1205.837264,5847.626942,-6735.874072,-306.438199
1205.837593,7105.977043,-7698.141797,229.828649
1205.837922,7476.080014,-7772.162391,306.438199
1205.838251,7476.080014,-7920.203579,459.657299
1205.838581,7402.059420,-8068.244768,1455.581446
1205.838910,7624.121203,-7846.182985,2298.286494
1205.839239,7402.059420,-7920.203579,2451.505594
1205.839568,7254.018232,-6587.832884,2528.115143
1205.839897,7179.997637,-5625.565159,2528.115143
1205.840226,7328.038826,-4663.297435,2451.505594
1205.840555,6587.832884,-4367.215058,1762.019645
1205.840884,6735.874072,-3552.988522,612.876398
1205.841213,7031.956449,-3182.885551,0.000000
1205.841542,7698.141797,-3775.050304,-383.047749
1205.841871,8438.347739,-5033.400406,536.266849
1205.842200,8364.327145,-6217.729913,536.266849
1205.842529,8216.285956,-6439.791695,76.609550
1205.842858,7698.141797,-7105.977043,459.657299
1205.843187,7328.038826,-8734.430116,1532.190996
1205.843516,7105.977043,-9104.533087,1838.629195
1205.843845,7031.956449,-8882.471304,2374.896044
1205.844174,6365.771101,-7698.141797,2145.067394
1205.844504,5847.626942,-7550.100608,1915.238745
1205.844833,5255.462188,-6883.915261,1838.629195
1205.845162,5107.421000,-6809.894666,229.828649
1205.845491,4811.338623,-6291.750507,-459.657299
1205.845820,5033.400406,-5329.482782,-919.314598
1205.846149,6069.688724,-6217.729913,-766.095498
1205.846478,7624.121203,-6365.771101,-306.438199
1205.846807,7920.203579,-6291.750507,76.609550
1205.847136,8216.285956,-6735.874072,536.266849
1205.847465,8290.306550,-6735.874072,1072.533697
1205.847794,8734.430116,-7476.080014,1302.362347
1205.848123,7994.224174,-7476.080014,2451.505594
1205.848452,7772.162391,-7179.997637,2451.505594
1205.848781,6809.894666,-6661.853478,1838.629195
1205.849110,6587.832884,-6143.709319,2145.067394
1205.849439,7328.038826,-6143.709319,1915.238745
1205.849768,6661.853478,-5181.441594,1608.800546
1205.850098,6661.853478,-4515.256246,383.047749
1205.850427,6883.915261,-4515.256246,306.438199
1205.850756,7402.059420,-5329.482782,383.047749
1205.851085,7920.203579,-5773.606348,0.000000
1205.851414,7772.162391,-6439.791695,-383.047749
1205.851743,7105.977043,-7254.018232,0.000000
1205.852072,6513.812290,-8364.327145,1149.143247
1205.852401,8216.285956,-8438.347739,1378.971896
1205.852730,7624.121203,-8290.306550,2374.896044
1205.853059,7105.977043,-7846.182985,2451.505594
1205.853388,6365.771101,-6883.915261,2374.896044
1205.853717,5477.523971,-6735.874072,1838.629195
1205.854046,5033.400406,-6587.832884,1149.143247
1205.854375,5033.400406,-5773.606348,383.047749
1205.854704,5477.523971,-5551.544565,0.000000
1205.855033,5995.668130,-5773.606348,0.000000
1205.855362,6735.874072,-6957.935855,0.000000
1205.855691,7920.203579,-6883.915261,153.219100
1205.856021,7476.080014,-7105.977043,153.219100
1205.856350,7476.080014,-7476.080014,306.438199
1205.856679,7328.038826,-7846.182985,689.485948
1205.857008,7920.203579,-7550.100608,1455.581446
1205.857337,7624.121203,-7698.141797,2298.286494
1205.857666,7254.018232,-6883.915261,2451.505594
1205.857995,7179.997637,-5625.565159,2221.676944
1205.858324,7328.038826,-5033.400406,1915.238745
1205.858653,7254.018232,-4589.276840,1991.848295
1205.858982,7105.977043,-4071.132681,1225.752797
1205.859311,7624.121203,-3108.864956,689.485948
1205.859640,8364.327145,-3256.906145,153.219100
1205.859969,8586.388927,-4589.276840,766.095498
1205.860298,8660.409521,-5403.503377,536.266849
1205.860627,8290.306550,-6883.915261,76.609550
1205.860956,7624.121203,-8142.265362,459.657299
1205.861285,6883.915261,-8660.409521,536.266849
1205.861614,6587.832884,-9178.553681,1302.362347
1205.861944,6217.729913,-9326.594869,1915.238745
1205.862273,5477.523971,-9474.636058,2298.286494
1205.862602,5255.462188,-8216.285956,1915.238745
1205.862931,4811.338623,-7476.080014,1455.581446
1205.863260,5181.441594,-7105.977043,995.924147
1205.863589,5329.482782,-6439.791695,612.876398
1205.863918,5847.626942,-5403.503377,0.000000
1205.864247,6143.709319,-5625.565159,-459.657299
1205.864576,6957.935855,-5403.503377,0.000000
1205.864905,7772.162391,-6513.812290,306.438199
1205.865234,8512.368333,-6587.832884,536.266849
1205.865563,8142.265362,-6809.894666,919.314598
1205.865892,7698.141797,-6809.894666,1455.581446
1205.866221,7772.162391,-6513.812290,2145.067394
1205.866550,7476.080014,-7179.997637,2604.724693
1205.866879,7550.100608,-6883.915261,2528.115143
1205.867208,6883.915261,-5995.668130,2068.457845
1205.867538,5995.668130,-5403.503377,1072.533697
1205.867867,5995.668130,-5921.647536,1225.752797
1205.868196,6883.915261,-5329.482782,995.924147
1205.868525,6957.935855,-5699.585753,536.266849
1205.868854,7105.977043,-4811.338623,-153.219100
1205.869183,7254.018232,-5625.565159,-689.485948
1205.869512,7179.997637,-6661.853478,-306.438199
1205.869841,7179.997637,-7254.018232,229.828649
1205.870170,7698.141797,-8216.285956,1225.752797
1205.870499,8216.285956,-7846.182985,2068.457845
1205.870828,7476.080014,-7031.956449,1915.238745
1205.871157,7328.038826,-7105.977043,2681.334243
1205.871486,6439.791695,-6143.709319,2451.505594
1205.871815,6587.832884,-6513.812290,2221.676944
1205.872144,6513.812290,-5773.606348,1455.581446
1205.872473,5773.606348,-5699.585753,842.705048
1205.872802,5847.626942,-5921.647536,0.000000
1205.873131,5995.668130,-5995.668130,-306.438199
1205.873461,6513.812290,-7698.141797,76.609550
1205.873790,7031.956449,-7328.038826,-153.219100
1205.874119,7105.977043,-7254.018232,306.438199
1205.874448,6883.915261,-7994.224174,459.657299
1205.874777,6957.935855,-7772.162391,919.314598
1205.875106,7105.977043,-7994.224174,995.924147
1205.875435,6957.935855,-7550.100608,1685.410096
1205.875764,7105.977043,-6661.853478,2374.896044
1205.876093,7402.059420,-5921.647536,2374.896044
1205.876422,7328.038826,-5329.482782,2451.505594
1205.876751,6957.935855,-4071.132681,2068.457845
1205.877080,7476.080014,-4293.194464,1378.971896
1205.877409,7846.182985,-3923.091493,842.705048
1205.877738,8438.347739,-3923.091493,459.657299
1205.878067,8586.388927,-4589.276840,229.828649
1205.878396,8290.306550,-5477.523971,689.485948
1205.878725,7698.141797,-6883.915261,0.000000
1205.879055,7031.956449,-7772.162391,459.657299
1205.879384,6513.812290,-8364.327145,995.924147
1205.879713,6735.874072,-9474.636058,1149.143247
1205.880042,5847.626942,-9252.574275,1685.410096
1205.880371,5699.585753,-8956.491898,2068.457845
1205.880700,5403.503377,-8216.285956,1762.019645
1205.881029,5329.482782,-7179.997637,1302.362347
1205.881358,4885.359217,-7105.977043,536.266849
1205.881687,5403.503377,-6365.771101,76.609550
1205.882016,5773.606348,-5551.544565,0.000000
1205.882345,6661.853478,-5181.441594,-229.828649
1205.882674,7328.038826,-4663.297435,459.657299
1205.883003,8438.347739,-5625.565159,229.828649
1205.883332,8808.450710,-5625.565159,306.438199
1205.883661,8290.306550,-6735.874072,919.314598
1205.883990,7994.224174,-7031.956449,1608.800546
1205.884319,7550.100608,-7179.997637,2604.724693
1205.884648,7105.977043,-7550.100608,2221.676944
1205.884978,6661.853478,-7328.038826,2374.896044
1205.885307,5921.647536,-6661.853478,1915.238745
1205.885636,5995.668130,-6513.812290,1302.362347
1205.885965,6513.812290,-5921.647536,1378.971896
1205.886294,6957.935855,-5477.523971,842.705048
1205.886623,7031.956449,-4959.379811,229.828649
1205.886952,7105.977043,-4663.297435,76.609550
1205.887281,7328.038826,-4885.359217,-612.876398
1205.887610,8068.244768,-5921.647536,0.000000
1205.887939,7846.182985,-6587.832884,459.657299
1205.888268,7994.224174,-7031.956449,842.705048
1205.888597,7476.080014,-7772.162391,1915.238745
1205.888926,7550.100608,-7846.182985,2374.896044
1205.889255,7476.080014,-7402.059420,2528.115143
1205.889584,6883.915261,-7624.121203,2451.505594
1205.889913,6365.771101,-7179.997637,2451.505594
1205.890242,5625.565159,-6883.915261,1991.848295
1205.890572,5181.441594,-6291.750507,919.314598
1205.890901,4811.338623,-6217.729913,-76.609550
1205.891230,5403.503377,-6069.688724,-306.438199
1205.891559,5921.647536,-6439.791695,-383.047749
1205.891888,7550.100608,-6809.894666,0.000000
1205.892217,7105.977043,-7105.977043,229.828649
1205.892546,7328.038826,-6883.915261,229.828649
1205.892875,7179.997637,-7772.162391,612.876398
1205.893204,7402.059420,-7994.224174,1532.190996
1205.893533,7254.018232,-7846.182985,2145.067394
1205.893862,7179.997637,-7105.977043,2298.286494
1205.894191,7328.038826,-6513.812290,2757.943793
1205.894520,7402.059420,-5921.647536,2374.896044
1205.894849,7328.038826,-5625.565159,2451.505594
1205.895178,6809.894666,-4663.297435,1915.238745
1205.895507,6883.915261,-4145.153275,306.438199
1205.895836,7031.956449,-3849.070898,-306.438199
1205.896165,7105.977043,-4219.173869,-306.438199
1205.896495,8216.285956,-5403.503377,0.000000
1205.896824,8142.265362,-5847.626942,0.000000
1205.897153,7328.038826,-6661.853478,76.609550
1205.897482,7105.977043,-7698.141797,689.485948
1205.897811,6809.894666,-8660.409521,1072.533697
1205.898140,6883.915261,-9474.636058,2068.457845
1205.898469,6365.771101,-8956.491898,2374.896044
1205.898798,5403.503377,-8216.285956,1838.629195
1205.899127,5773.606348,-7402.059420,1762.019645
1205.899456,5847.626942,-7328.038826,1302.362347
1205.899785,5403.503377,-6439.791695,689.485948
1205.900114,5477.523971,-5403.503377,0.000000
1205.900443,6143.709319,-5551.544565,-383.047749
1205.900772,7402.059420,-5255.462188,0.000000
1205.901101,7698.141797,-5403.503377,153.219100
1205.901430,7920.203579,-5921.647536,76.609550
1205.901759,8216.285956,-6217.729913,153.219100
1205.902088,7550.100608,-6957.935855,1149.143247
1205.902418,8068.244768,-6809.894666,2374.896044
1205.902747,8290.306550,-7328.038826,2221.676944
1205.903076,7698.141797,-7328.038826,2604.724693
1205.903405,7105.977043,-6883.915261,2374.896044
1205.903734,6587.832884,-6291.750507,2145.067394
1205.904063,6439.791695,-5699.585753,1149.143247
1205.904392,6365.771101,-6291.750507,612.876398
1205.904721,6365.771101,-5033.400406,229.828649
1205.905050,6809.894666,-5329.482782,0.000000
1205.905379,7550.100608,-5329.482782,-919.314598
1205.905708,7772.162391,-5403.503377,0.000000
1205.906037,7846.182985,-6439.791695,0.000000
1205.906366,7698.141797,-6957.935855,612.876398
1205.906695,7402.059420,-7179.997637,1072.533697
1205.907024,7550.100608,-7624.121203,2604.724693
1205.907353,7550.100608,-7550.100608,2374.896044
1205.907682,7179.997637,-7994.224174,2757.943793
1205.908012,6883.915261,-7772.162391,2681.334243
1205.908341,6143.709319,-6439.791695,1838.629195
1205.908670,5551.544565,-6661.853478,919.314598
1205.908999,5255.462188,-6439.791695,153.219100
1205.909328,5107.421000,-6809.894666,-459.657299
1205.909657,5773.606348,-6735.874072,-459.657299
1205.909986,6661.853478,-6587.832884,-612.876398
1205.910315,6883.915261,-6735.874072,-459.657299
1205.910644,6883.915261,-7179.997637,76.609550
1205.910973,7105.977043,-7698.141797,689.485948
1205.911302,7328.038826,-7772.162391,1455.581446
1205.911631,7698.141797,-7920.203579,2145.067394
1205.911960,7624.121203,-6957.935855,2374.896044
1205.912289,7698.141797,-6069.688724,2911.162892
1205.912618,7550.100608,-6217.729913,2911.162892
1205.912947,7328.038826,-5181.441594,3064.381992
1205.913276,7328.038826,-4737.318029,1838.629195
1205.913605,6957.935855,-3923.091493,689.485948
1205.913935,7105.977043,-3552.988522,0.000000
1205.914264,8290.306550,-4737.318029,536.266849
1205.914593,8142.265362,-5107.421000,229.828649
1205.914922,7698.141797,-6069.688724,153.219100
1205.915251,6809.894666,-6809.894666,-383.047749
1205.915580,6365.771101,-8068.244768,0.000000
1205.915909,6661.853478,-8956.491898,842.705048
1205.916238,6883.915261,-9548.656652,1685.410096
1205.916567,6513.812290,-9474.636058,2451.505594
1205.916896,5921.647536,-8290.306550,2145.067394
1205.917225,5551.544565,-7846.182985,1838.629195
1205.917554,5625.565159,-6957.935855,1991.848295
1205.917884,5995.668130,-6513.812290,1225.752797
1205.918213,5921.647536,-5699.585753,612.876398
1205.918542,5995.668130,-4663.297435,-612.876398
1205.918871,6957.935855,-4959.379811,-536.266849
1205.919200,7772.162391,-5551.544565,0.000000
1205.919529,8142.265362,-5921.647536,153.219100
1205.919858,7772.162391,-5921.647536,383.047749
1205.920187,7698.141797,-6587.832884,1149.143247
1205.920517,7846.182985,-7254.018232,1838.629195
1205.920846,7624.121203,-7920.203579,2298.286494
1205.921175,7105.977043,-7476.080014,2528.115143
1205.921504,6217.729913,-7105.977043,1532.190996
1205.921833,6143.709319,-6587.832884,1532.190996
1205.922162,5921.647536,-6069.688724,1762.019645
1205.922491,7105.977043,-5403.503377,1455.581446
1205.922820,7328.038826,-4737.318029,459.657299
1205.923149,7550.100608,-4663.297435,459.657299
1205.923479,8512.368333,-4737.318029,612.876398
1205.923808,8142.265362,-5181.441594,0.000000
1205.924137,7179.997637,-5995.668130,-383.047749
1205.924466,7105.977043,-6957.935855,153.219100
1205.924795,7254.018232,-7698.141797,842.705048
1205.925124,7698.141797,-7846.182985,1838.629195
1205.925453,7328.038826,-8438.347739,2451.505594
1205.925782,6735.874072,-8216.285956,2451.505594
1205.926111,5847.626942,-7920.203579,2374.896044
1205.926441,5255.462188,-7550.100608,2221.676944
1205.926770,5625.565159,-7031.956449,1455.581446
1205.927099,5403.503377,-6439.791695,766.095498
1205.927428,5625.565159,-5995.668130,76.609550
1205.927757,5921.647536,-5551.544565,0.000000
1205.928086,6513.812290,-6069.688724,153.219100
1205.928415,7105.977043,-6661.853478,0.000000
1205.928744,7031.956449,-6957.935855,0.000000
1205.929074,6957.935855,-7254.018232,536.266849
1205.929403,7105.977043,-7698.141797,1378.971896
1205.929732,7624.121203,-7994.224174,1915.238745
1205.930061,7698.141797,-7476.080014,2374.896044
1205.930390,7476.080014,-6809.894666,2604.724693
1205.930719,7179.997637,-5995.668130,2451.505594
1205.931048,7105.977043,-5699.585753,2451.505594
1205.931377,6957.935855,-5255.462188,1532.190996
1205.931706,7031.956449,-3627.009116,1149.143247
1205.932036,7402.059420,-3701.029710,536.266849
1205.932365,8142.265362,-4071.132681,536.266849
1205.932694,8364.327145,-4515.256246,689.485948
1205.933023,8142.265362,-5551.544565,153.219100
1205.933352,7179.997637,-5995.668130,-229.828649
1205.933681,6809.894666,-7550.100608,-229.828649
1205.934010,6883.915261,-8290.306550,766.095498
1205.934339,7105.977043,-9252.574275,2068.457845
1205.934669,6587.832884,-9622.677246,1991.848295
1205.934998,5773.606348,-8512.368333,1608.800546
1205.935327,5107.421000,-8142.265362,1685.410096
1205.935656,5551.544565,-7328.038826,1838.629195
1205.935985,5329.482782,-6957.935855,1225.752797
1205.936314,5699.585753,-5551.544565,76.609550
1205.936643,5847.626942,-4811.338623,-306.438199
1205.936972,7031.956449,-5033.400406,-459.657299
1205.937301,7698.141797,-5773.606348,229.828649
1205.937631,7994.224174,-6291.750507,0.000000
1205.937960,8216.285956,-5773.606348,306.438199
1205.938289,8068.244768,-7031.956449,1149.143247
1205.938618,8290.306550,-7772.162391,2145.067394
1205.938947,8068.244768,-7550.100608,2451.505594
1205.939276,7994.224174,-6957.935855,2451.505594
1205.939605,7105.977043,-6661.853478,2145.067394
1205.939934,6365.771101,-6661.853478,2068.457845
1205.940264,6291.750507,-6217.729913,1915.238745
1205.940593,6217.729913,-5995.668130,1149.143247
1205.940922,6439.791695,-4959.379811,229.828649
1205.941251,6587.832884,-4737.318029,0.000000
1205.941580,7105.977043,-5107.421000,306.438199
1205.941909,7550.100608,-5773.606348,0.000000
1205.942238,7698.141797,-6587.832884,153.219100
1205.942567,7550.100608,-6365.771101,76.609550
1205.942896,7328.038826,-7179.997637,919.314598
1205.943226,7772.162391,-7402.059420,2145.067394
1205.943555,8142.265362,-8290.306550,3064.381992
1205.943884,8290.306550,-7402.059420,3217.601092
1205.944213,7624.121203,-6809.894666,2451.505594
1205.944542,6513.812290,-6661.853478,2221.676944
1205.944871,5847.626942,-6883.915261,1149.143247
1205.945200,4885.359217,-6513.812290,612.876398
1205.945529,4959.379811,-6291.750507,0.000000
1205.945858,5181.441594,-6069.688724,-459.657299
1205.946188,5773.606348,-6809.894666,-229.828649
1205.946517,6365.771101,-6957.935855,-229.828649
1205.946846,6661.853478,-7179.997637,76.609550
1205.947175,6809.894666,-7698.141797,612.876398
1205.947504,7476.080014,-7550.100608,1225.752797
1205.947833,8364.327145,-7550.100608,1685.410096
1205.948162,8660.409521,-7254.018232,2604.724693
1205.948491,7920.203579,-6735.874072,3064.381992
1205.948821,7698.141797,-5921.647536,2528.115143
1205.949150,7550.100608,-5403.503377,2374.896044
1205.949479,7476.080014,-4885.359217,2298.286494
1205.949808,7105.977043,-3923.091493,1302.362347
1205.950137,7476.080014,-2960.823768,383.047749
1205.950466,7254.018232,-4145.153275,-153.219100
1205.950795,7846.182985,-5107.421000,-383.047749
1205.951124,7920.203579,-5551.544565,0.000000
1205.951453,7476.080014,-6143.709319,-306.438199
1205.951783,6735.874072,-7698.141797,229.828649
1205.952112,6587.832884,-8512.368333,766.095498
1205.952441,6809.894666,-9474.636058,1685.410096
1205.952770,7105.977043,-8734.430116,2451.505594
1205.953099,6883.915261,-7920.203579,2451.505594
1205.953428,6439.791695,-7179.997637,2451.505594
1205.953757,6217.729913,-7031.956449,2298.286494
1205.954086,5329.482782,-6883.915261,1455.581446
1205.954416,5329.482782,-5699.585753,459.657299
1205.954745,5329.482782,-5625.565159,-459.657299
1205.955074,6143.709319,-5477.523971,-612.876398
1205.955403,6661.853478,-6143.709319,-995.924147
1205.955732,7254.018232,-6365.771101,0.000000
1205.956061,7254.018232,-6365.771101,-153.219100
1205.956390,7550.100608,-7031.956449,306.438199
1205.956719,7550.100608,-7550.100608,1915.238745
1205.957048,7994.224174,-7402.059420,1762.019645
1205.957378,8290.306550,-7031.956449,2451.505594
1205.957707,7550.100608,-6587.832884,2451.505594
1205.958036,6883.915261,-6735.874072,2374.896044
1205.958365,6513.812290,-5699.585753,2911.162892
1205.958694,6587.832884,-5477.523971,1838.629195
1205.959023,6809.894666,-4811.338623,1072.533697
1205.959352,6883.915261,-5181.441594,689.485948
1205.959681,7105.977043,-5329.482782,306.438199
1205.960010,7846.182985,-5033.400406,-76.609550
1205.960340,7402.059420,-5921.647536,-306.438199
1205.960669,7105.977043,-6587.832884,-459.657299
1205.960998,7105.977043,-7698.141797,689.485948
1205.961327,7624.121203,-8290.306550,995.924147
1205.961656,7846.182985,-7624.121203,2221.676944
1205.961985,7772.162391,-7550.100608,2604.724693
1205.962314,7179.997637,-7328.038826,2681.334243
1205.962643,6587.832884,-6957.935855,2374.896044
1205.962973,5995.668130,-6809.894666,1532.190996
1205.963302,5403.503377,-6217.729913,919.314598
1205.963631,5847.626942,-5921.647536,0.000000
1205.963960,5699.585753,-6143.709319,-383.047749
1205.964289,6439.791695,-6365.771101,-612.876398
1205.964618,6809.894666,-6809.894666,0.000000
1205.964947,7105.977043,-7105.977043,0.000000
1205.965276,6809.894666,-7698.141797,153.219100
1205.965605,6809.894666,-8216.285956,612.876398
1205.965935,7328.038826,-8142.265362,1072.533697
1205.966264,7476.080014,-7476.080014,1915.238745
1205.966593,7328.038826,-6957.935855,2604.724693
1205.966922,7254.018232,-5773.606348,2604.724693
1205.967251,7994.224174,-5255.462188,2528.115143
1205.967580,7179.997637,-4515.256246,2221.676944
1205.967909,7402.059420,-3997.112087,1838.629195
1205.968238,7846.182985,-3256.906145,1455.581446
1205.968568,7994.224174,-3627.009116,612.876398
1205.968897,7550.100608,-4367.215058,1149.143247
1205.969226,7772.162391,-5181.441594,229.828649
1205.969555,7550.100608,-6809.894666,-383.047749
1205.969884,6957.935855,-7624.121203,0.000000
1205.970213,6217.729913,-8734.430116,766.095498
1205.970542,6587.832884,-9030.512492,1378.971896
1205.970871,6587.832884,-8660.409521,2221.676944
1205.971200,5921.647536,-9474.636058,2221.676944
1205.971530,5181.441594,-8438.347739,1685.410096
1205.971859,5403.503377,-7476.080014,1225.752797
1205.972188,4959.379811,-7698.141797,1225.752797
1205.972517,5329.482782,-6365.771101,995.924147
1205.972846,5995.668130,-5847.626942,76.609550
1205.973175,6809.894666,-5477.523971,0.000000
1205.973504,7179.997637,-5255.462188,536.266849
1205.973833,8216.285956,-6069.688724,153.219100
1205.974163,8734.430116,-6143.709319,153.219100
1205.974492,8660.409521,-6513.812290,689.485948
1205.974821,8142.265362,-7254.018232,1378.971896
1205.975150,7624.121203,-7254.018232,1685.410096
1205.975479,7105.977043,-7624.121203,2068.457845
1205.975808,6661.853478,-7254.018232,1991.848295
1205.976137,5329.482782,-6439.791695,1149.143247
1205.976466,5625.565159,-5921.647536,1838.629195
1205.976795,5995.668130,-5995.668130,1149.143247
1205.977125,6587.832884,-5477.523971,1072.533697
1205.977454,7254.018232,-4367.215058,459.657299
1205.977783,7846.182985,-4441.235652,383.047749
1205.978112,8438.347739,-4737.318029,153.219100
1205.978441,8512.368333,-5625.565159,842.705048
1205.978770,8142.265362,-6217.729913,153.219100
1205.979099,7920.203579,-6587.832884,306.438199
1205.979428,7772.162391,-7254.018232,1685.410096
1205.979757,7994.224174,-7772.162391,2221.676944
1205.980087,7550.100608,-8364.327145,2374.896044
1205.980416,6587.832884,-7920.203579,2374.896044
1205.980745,5477.523971,-7105.977043,1915.238745
1205.981074,4737.318029,-6735.874072,919.314598
1205.981403,4515.256246,-7179.997637,689.485948
1205.981732,4515.256246,-6513.812290,0.000000
1205.982061,4959.379811,-6735.874072,-536.266849
1205.982390,5921.647536,-6365.771101,-459.657299
1205.982720,6809.894666,-7031.956449,0.000000
1205.983049,7550.100608,-7179.997637,153.219100
1205.983378,7550.100608,-7105.977043,153.219100
1205.983707,7624.121203,-7402.059420,919.314598
1205.984036,7772.162391,-7254.018232,1455.581446
1205.984365,8216.285956,-7476.080014,2145.067394
1205.984694,7994.224174,-6365.771101,2681.334243
1205.985023,7698.141797,-6069.688724,2451.505594
1205.985352,7105.977043,-5773.606348,2298.286494
1205.985682,6587.832884,-4737.318029,2145.067394
1205.986011,6735.874072,-4737.318029,1608.800546
1205.986340,7105.977043,-3775.050304,766.095498
1205.986669,7031.956449,-4145.153275,229.828649
1205.986998,7772.162391,-4885.359217,229.828649
1205.987327,8068.244768,-5625.565159,842.705048
1205.987656,8068.244768,-6291.750507,76.609550
1205.987985,7105.977043,-6883.915261,0.000000
1205.988315,6957.935855,-8142.265362,383.047749
1205.988644,7179.997637,-9548.656652,1838.629195
1205.988973,7105.977043,-9474.636058,2221.676944
1205.989302,6587.832884,-9030.512492,2145.067394
1205.989631,5921.647536,-7846.182985,1838.629195
1205.989960,5403.503377,-7624.121203,2068.457845
1205.990289,5107.421000,-7179.997637,1225.752797
1205.990618,5329.482782,-6439.791695,612.876398
1205.990947,5699.585753,-5699.585753,0.000000
1205.991277,6439.791695,-5847.626942,-76.609550
1205.991606,7402.059420,-5255.462188,229.828649
1205.991935,7846.182985,-5699.585753,306.438199
1205.992264,7920.203579,-6217.729913,229.828649
1205.992593,7920.203579,-6587.832884,612.876398
1205.992922,8364.327145,-6513.812290,1302.362347
1205.993251,8512.368333,-6661.853478,2528.115143
1205.993580,8290.306550,-6883.915261,2374.896044
1205.993909,7105.977043,-6883.915261,2451.505594
1205.994239,6587.832884,-6587.832884,2145.067394
1205.994568,6143.709319,-6291.750507,1685.410096
1205.994897,6513.812290,-5921.647536,1225.752797
1205.995226,6217.729913,-5403.503377,689.485948
1205.995555,6735.874072,-4959.379811,153.219100
1205.995884,7105.977043,-5181.441594,0.000000
1205.996213,7254.018232,-5625.565159,0.000000
1205.996542,7772.162391,-5921.647536,0.000000
1205.996872,7179.997637,-6587.832884,-536.266849
1205.997201,6957.935855,-7179.997637,-153.219100
1205.997530,7402.059420,-7920.203579,995.924147
1205.997859,8216.285956,-8142.265362,1762.019645
1205.998188,8512.368333,-7254.018232,2911.162892
1205.998517,7698.141797,-6661.853478,2604.724693
1205.998846,6661.853478,-5847.626942,2145.067394
1205.999175,5995.668130,-5773.606348,1762.019645
1205.999504,5699.585753,-5995.668130,919.314598
1205.999834,5033.400406,-5995.668130,0.000000
1206.000163,5255.462188,-6069.688724,0.000000
1206.000492,5403.503377,-6957.935855,-612.876398
1206.000821,5921.647536,-7254.018232,-76.609550
1206.001150,6587.832884,-8068.244768,-229.828649
1206.001479,6587.832884,-8068.244768,-153.219100
1206.001808,6587.832884,-8142.265362,306.438199
1206.002137,7254.018232,-7698.141797,1685.410096
1206.002467,7698.141797,-7402.059420,2145.067394
1206.002796,8216.285956,-7254.018232,2681.334243
1206.003125,7994.224174,-6513.812290,2987.772442
1206.003454,7994.224174,-4885.359217,2681.334243
1206.003783,7994.224174,-4145.153275,2528.115143
1206.004112,7846.182985,-3775.050304,1915.238745
1206.004441,8068.244768,-3775.050304,1225.752797
1206.004770,7772.162391,-3775.050304,612.876398
1206.005099,7846.182985,-3849.070898,229.828649
1206.005429,7402.059420,-5403.503377,-306.438199
1206.005758,7031.956449,-6143.709319,-306.438199
1206.006087,6439.791695,-7698.141797,-383.047749
1206.006416,6143.709319,-9252.574275,459.657299
1206.006745,6513.812290,-9252.574275,995.924147
1206.007074,6735.874072,-9252.574275,1685.410096
1206.007403,6439.791695,-9400.615463,2451.505594
1206.007732,6291.750507,-8290.306550,2374.896044
1206.008061,6143.709319,-7550.100608,2145.067394
1206.008391,5921.647536,-6809.894666,1762.019645
1206.008720,5995.668130,-6217.729913,1072.533697
1206.009049,6365.771101,-4959.379811,459.657299
1206.009378,6661.853478,-5107.421000,76.609550
1206.009707,7105.977043,-5847.626942,229.828649
1206.010036,7105.977043,-5847.626942,153.219100
1206.010365,7179.997637,-6439.791695,0.000000
1206.010694,6957.935855,-6809.894666,-536.266849
1206.011024,7105.977043,-7550.100608,995.924147
1206.011353,7772.162391,-7772.162391,842.705048
1206.011682,7179.997637,-7624.121203,2068.457845
1206.012011,7105.977043,-7105.977043,2374.896044
1206.012340,6883.915261,-6217.729913,2451.505594
1206.012669,7105.977043,-6069.688724,2145.067394
1206.012998,6809.894666,-5403.503377,1915.238745
1206.013327,7105.977043,-4811.338623,1838.629195
1206.013656,7624.121203,-4515.256246,919.314598
1206.013986,7476.080014,-4293.194464,229.828649
1206.014315,7179.997637,-4885.359217,612.876398
1206.014644,7550.100608,-6143.709319,76.609550
1206.014973,7550.100608,-7254.018232,0.000000
1206.015302,7328.038826,-7254.018232,306.438199
1206.015631,7254.018232,-7550.100608,995.924147
1206.015960,7772.162391,-7624.121203,1915.238745
1206.016289,7476.080014,-7920.203579,2221.676944
1206.016619,7031.956449,-8142.265362,2757.943793
1206.016948,6661.853478,-6513.812290,2374.896044
1206.017277,5699.585753,-6069.688724,1762.019645
1206.017606,5551.544565,-6513.812290,1532.190996
1206.017935,5403.503377,-6217.729913,536.266849
1206.018262,5625.565159,-5921.647536,-229.828649
1206.018591,5551.544565,-6513.812290,-306.438199
1206.018920,6587.832884,-7105.977043,-689.485948
1206.019249,6809.894666,-7698.141797,0.000000
1206.019578,6957.935855,-7328.038826,0.000000
1206.019907,6439.791695,-8290.306550,153.219100
1206.020236,7328.038826,-7402.059420,536.266849
1206.020565,7698.141797,-7624.121203,1455.581446
1206.020895,8364.327145,-6809.894666,2834.553343
1206.021224,8142.265362,-6069.688724,2757.943793
1206.021553,7920.203579,-5255.462188,2451.505594
1206.021882,7994.224174,-4885.359217,2681.334243
1206.022211,7476.080014,-4293.194464,2451.505594
1206.022540,7920.203579,-3997.112087,1608.800546
1206.022869,7994.224174,-3627.009116,919.314598
1206.023198,7846.182985,-3849.070898,0.000000
1206.023527,7402.059420,-5625.565159,153.219100
1206.023856,7254.018232,-6439.791695,-383.047749
1206.024185,6587.832884,-8290.306550,-459.657299
1206.024514,6587.832884,-8142.265362,306.438199
1206.024843,6069.688724,-9622.677246,919.314598
1206.025172,5995.668130,-9474.636058,1302.362347
1206.025502,5921.647536,-9252.574275,1915.238745
1206.025831,6439.791695,-8586.388927,2145.067394
1206.026160,6439.791695,-7105.977043,1991.848295
1206.026489,6365.771101,-6439.791695,2145.067394
1206.026818,6291.750507,-5847.626942,1378.971896
1206.027147,6143.709319,-5033.400406,383.047749
1206.027476,6143.709319,-4959.379811,306.438199
1206.027805,6661.853478,-4515.256246,0.000000
1206.028134,7105.977043,-5625.565159,306.438199
1206.028463,7402.059420,-6587.832884,306.438199
1206.028792,7031.956449,-7402.059420,306.438199
1206.029121,6957.935855,-7624.121203,459.657299
1206.029450,6883.915261,-8068.244768,1302.362347
1206.029779,6735.874072,-7994.224174,1762.019645
1206.030109,7105.977043,-7550.100608,2374.896044
1206.030438,6957.935855,-7105.977043,2145.067394
1206.030767,6883.915261,-6069.688724,2298.286494
1206.031096,7328.038826,-5773.606348,2221.676944
1206.031425,7328.038826,-4737.318029,1991.848295
1206.031754,7476.080014,-3849.070898,1149.143247
1206.032083,7698.141797,-3701.029710,383.047749
1206.032412,7698.141797,-4293.194464,1378.971896
1206.032741,8512.368333,-5329.482782,229.828649
1206.033070,7698.141797,-6513.812290,76.609550
1206.033399,7031.956449,-7402.059420,0.000000
1206.033728,7031.956449,-8216.285956,536.266849
1206.034057,6513.812290,-8438.347739,1225.752797
1206.034387,6809.894666,-9178.553681,2145.067394
1206.034716,6587.832884,-8142.265362,2145.067394
1206.035045,5921.647536,-7254.018232,1685.410096
1206.035374,5921.647536,-6513.812290,1225.752797
1206.035703,5847.626942,-6513.812290,1838.629195
1206.036032,6069.688724,-5625.565159,1608.800546
1206.036361,5625.565159,-4737.318029,76.609550
1206.036690,5995.668130,-5255.462188,0.000000
1206.037019,7179.997637,-5921.647536,0.000000
1206.037348,7550.100608,-7105.977043,76.609550
1206.037677,7550.100608,-7550.100608,306.438199
1206.038006,7254.018232,-7254.018232,229.828649
1206.038335,7031.956449,-8142.265362,766.095498
1206.038664,7772.162391,-8142.265362,1762.019645
1206.038994,7920.203579,-7698.141797,2298.286494
1206.039323,7994.224174,-7105.977043,2528.115143
1206.039652,7624.121203,-5625.565159,2528.115143
1206.039981,7550.100608,-4885.359217,2145.067394
1206.040310,7550.100608,-4293.194464,1838.629195
1206.040639,7624.121203,-3849.070898,1225.752797
1206.040968,7550.100608,-3849.070898,766.095498
1206.041297,7328.038826,-3701.029710,306.438199
1206.041626,7254.018232,-4367.215058,459.657299
1206.041955,7698.141797,-5699.585753,0.000000
1206.042284,7476.080014,-7031.956449,0.000000
1206.042613,7105.977043,-8068.244768,306.438199
1206.042942,6809.894666,-8586.388927,766.095498
1206.043271,6587.832884,-9474.636058,766.095498
1206.043601,6587.832884,-9252.574275,1838.629195
1206.043930,6217.729913,-8956.491898,2145.067394
1206.044259,5699.585753,-7994.224174,2221.676944
1206.044588,5551.544565,-6883.915261,1149.143247
1206.044917,5107.421000,-6661.853478,842.705048
1206.045246,5773.606348,-5699.585753,612.876398
1206.045575,5921.647536,-5329.482782,153.219100
1206.045904,6291.750507,-4663.297435,0.000000
1206.046233,7105.977043,-5773.606348,306.438199
1206.046562,7698.141797,-6735.874072,153.219100
1206.046891,7476.080014,-6883.915261,153.219100
1206.047220,7402.059420,-7105.977043,612.876398
1206.047549,7994.224174,-7920.203579,1072.533697
1206.047878,7772.162391,-7328.038826,2068.457845
1206.048208,7846.182985,-7179.997637,2451.505594
1206.048537,7476.080014,-6587.832884,2604.724693
1206.048866,7105.977043,-5921.647536,2374.896044
1206.049195,6661.853478,-5255.462188,1838.629195
1206.049524,6365.771101,-4515.256246,1149.143247
1206.049853,6661.853478,-4367.215058,842.705048
1206.050182,7031.956449,-4367.215058,842.705048
1206.050511,7550.100608,-4515.256246,536.266849
1206.050840,7994.224174,-5329.482782,-153.219100
1206.051169,7772.162391,-6143.709319,76.609550
1206.051498,7254.018232,-7476.080014,0.000000
1206.051827,7105.977043,-8216.285956,766.095498
1206.052156,7624.121203,-8808.450710,1762.019645
1206.052485,7179.997637,-8882.471304,2145.067394
1206.052815,6883.915261,-7994.224174,2451.505594
1206.053144,6291.750507,-7624.121203,2068.457845
1206.053473,6143.709319,-6513.812290,1838.629195
1206.053802,5329.482782,-6513.812290,1685.410096
1206.054131,5403.503377,-6143.709319,1225.752797
1206.054460,5477.523971,-5107.421000,153.219100
1206.054789,5625.565159,-5107.421000,0.000000
1206.055118,6365.771101,-5995.668130,0.000000
1206.055447,6587.832884,-7254.018232,76.609550
1206.055776,7402.059420,-7254.018232,0.000000
1206.056105,7550.100608,-7476.080014,-229.828649
1206.056434,7402.059420,-8660.409521,459.657299
1206.056763,7994.224174,-8586.388927,995.924147
1206.057092,7550.100608,-8068.244768,2221.676944
1206.057422,7550.100608,-7179.997637,2528.115143
1206.057751,7476.080014,-6217.729913,2374.896044
1206.058080,7031.956449,-5329.482782,2374.896044
1206.058409,6587.832884,-4737.318029,1455.581446
1206.058738,7105.977043,-3849.070898,1455.581446
1206.059067,7624.121203,-3775.050304,842.705048
1206.059396,7698.141797,-3849.070898,229.828649
1206.059725,8068.244768,-4293.194464,383.047749
1206.060054,7994.224174,-5551.544565,383.047749
1206.060383,7698.141797,-6587.832884,76.609550
1206.060712,6809.894666,-7920.203579,76.609550
1206.061041,6809.894666,-9104.533087,766.095498
1206.061370,6661.853478,-9326.594869,1225.752797
1206.061699,6809.894666,-9030.512492,1838.629195
1206.062029,6513.812290,-8808.450710,2068.457845
1206.062358,5699.585753,-7846.182985,1532.190996
1206.062687,5329.482782,-6883.915261,1762.019645
1206.063016,5477.523971,-6513.812290,1225.752797
