#time,accel_x,accel_y,accel_z
1289.795633,7402.059420,-6365.771101,1072.533697
1289.795964,7254.018232,-6513.812290,1225.752797
1289.796294,7105.977043,-6217.729913,1149.143247
1289.796624,6735.874072,-6365.771101,612.876398
1289.796955,6661.853478,-6365.771101,1149.143247
1289.797285,7105.977043,-6217.729913,1378.971896
1289.797615,7179.997637,-6217.729913,1532.190996
1289.797945,7328.038826,-5847.626942,1225.752797
1289.798276,6883.915261,-6365.771101,1455.581446
1289.798606,6809.894666,-6365.771101,1149.143247
1289.798936,6661.853478,-6587.832884,1149.143247
1289.799267,6217.729913,-6661.853478,766.095498
1289.799597,6513.812290,-6735.874072,1302.362347
1289.799927,6365.771101,-6661.853478,1225.752797
1289.800258,7105.977043,-6883.915261,1762.019645
1289.800588,7105.977043,-6735.874072,1149.143247
1289.800918,6735.874072,-6735.874072,1455.581446
1289.801249,6587.832884,-6661.853478,459.657299
1289.801579,6439.791695,-6809.894666,536.266849
1289.801909,6513.812290,-7105.977043,919.314598
1289.802240,7031.956449,-7105.977043,842.705048
1289.802570,7179.997637,-6883.915261,1149.143247
1289.802900,7105.977043,-6291.750507,689.485948
1289.803231,7179.997637,-6439.791695,536.266849
1289.803561,7179.997637,-6661.853478,1225.752797
1289.803891,7105.977043,-6883.915261,766.095498
1289.804221,6587.832884,-6587.832884,1302.362347
1289.804552,7105.977043,-6513.812290,1072.533697
1289.804882,7254.018232,-6365.771101,919.314598
1289.805212,7105.977043,-6143.709319,1455.581446
1289.805543,7105.977043,-6143.709319,995.924147
1289.805873,7624.121203,-6439.791695,1455.581446
1289.806203,7105.977043,-6365.771101,766.095498
1289.806534,6809.894666,-6291.750507,919.314598
1289.806864,6587.832884,-6661.853478,842.705048
1289.807194,6809.894666,-6439.791695,1149.143247
1289.807525,7105.977043,-6513.812290,1225.752797
1289.807855,6883.915261,-6587.832884,995.924147
1289.808185,7105.977043,-6365.771101,1149.143247
1289.808516,6883.915261,-6883.915261,995.924147
1289.808846,6809.894666,-7179.997637,536.266849
1289.809176,6809.894666,-6661.853478,766.095498
1289.809507,7031.956449,-7105.977043,766.095498
1289.809837,7179.997637,-6587.832884,919.314598
1289.810167,7254.018232,-6069.688724,919.314598
1289.810497,7179.997637,-5995.668130,1302.362347
1289.810828,7402.059420,-6587.832884,1455.581446
1289.811158,7179.997637,-6439.791695,995.924147
1289.811488,7031.956449,-6661.853478,689.485948
1289.811819,7031.956449,-5995.668130,842.705048
1289.812149,7105.977043,-6365.771101,995.924147
1289.812479,7105.977043,-6291.750507,1302.362347
1289.812810,7031.956449,-6291.750507,1149.143247
1289.813140,7254.018232,-6217.729913,1149.143247
1289.813470,7031.956449,-6069.688724,1225.752797
1289.813801,6661.853478,-6439.791695,612.876398
1289.814131,6439.791695,-6661.853478,689.485948
1289.814461,6513.812290,-6883.915261,919.314598
1289.814792,6883.915261,-6957.935855,1225.752797
1289.815122,6809.894666,-6661.853478,1685.410096
1289.815452,7031.956449,-6809.894666,1378.971896
1289.815782,6735.874072,-6809.894666,842.705048
1289.816113,6143.709319,-7105.977043,612.876398
1289.816443,6143.709319,-7402.059420,919.314598
1289.816773,6661.853478,-6883.915261,995.924147
1289.817104,6957.935855,-6809.894666,1149.143247
1289.817434,7105.977043,-6069.688724,1302.362347
1289.817764,7105.977043,-6513.812290,1149.143247
1289.818095,7105.977043,-6217.729913,766.095498
1289.818425,7105.977043,-6587.832884,919.314598
1289.818755,6957.935855,-6661.853478,689.485948
1289.819086,6957.935855,-6365.771101,919.314598
1289.819416,6735.874072,-6291.750507,1608.800546
1289.819746,6883.915261,-6069.688724,1149.143247
1289.820077,7105.977043,-6069.688724,1149.143247
1289.820407,7105.977043,-6365.771101,1225.752797
1289.820737,7031.956449,-6587.832884,766.095498
1289.821068,7031.956449,-5921.647536,919.314598
1289.821398,6883.915261,-6587.832884,612.876398
1289.821728,6957.935855,-6661.853478,919.314598
1289.822058,7031.956449,-6513.812290,842.705048
1289.822389,7476.080014,-6809.894666,919.314598
1289.822719,7105.977043,-6291.750507,1302.362347
1289.823049,6883.915261,-6809.894666,1685.410096
1289.823380,6883.915261,-6735.874072,612.876398
1289.823710,6661.853478,-6809.894666,842.705048
1289.824040,6957.935855,-7179.997637,919.314598
1289.824371,7105.977043,-6883.915261,1225.752797
1289.824701,7179.997637,-6143.709319,919.314598
1289.825031,7105.977043,-6217.729913,1149.143247
1289.825362,7254.018232,-6439.791695,1302.362347
1289.825692,7179.997637,-5847.626942,383.047749
1289.826022,7105.977043,-6587.832884,766.095498
1289.826353,7031.956449,-6291.750507,1149.143247
1289.826683,7105.977043,-6217.729913,919.314598
1289.827013,7772.162391,-6439.791695,689.485948
1289.827344,7476.080014,-6217.729913,1762.019645
1289.827674,6957.935855,-6439.791695,995.924147
1289.828004,6883.915261,-6661.853478,919.314598
1289.828334,6587.832884,-6735.874072,995.924147
1289.828665,6661.853478,-7105.977043,459.657299
1289.828995,6513.812290,-6735.874072,1072.533697
1289.829325,6809.894666,-6883.915261,1149.143247
1289.829656,6957.935855,-6587.832884,1072.533697
1289.829986,6439.791695,-6587.832884,1378.971896
1289.830316,6883.915261,-6883.915261,919.314598
1289.830647,6735.874072,-7105.977043,766.095498
1289.830977,5921.647536,-7105.977043,919.314598
1289.831307,6513.812290,-7179.997637,842.705048
1289.831638,7254.018232,-6809.894666,1455.581446
1289.831968,7254.018232,-6661.853478,1378.971896
1289.832298,7328.038826,-6735.874072,919.314598
1289.832629,7105.977043,-6513.812290,1149.143247
1289.832959,7328.038826,-6957.935855,1072.533697
1289.833289,6513.812290,-6661.853478,919.314598
1289.833619,7031.956449,-6291.750507,689.485948
1289.833950,7105.977043,-6217.729913,842.705048
1289.834280,7254.018232,-6217.729913,1225.752797
1289.834610,7105.977043,-6291.750507,306.438199
1289.834941,7179.997637,-6439.791695,1225.752797
1289.835271,7179.997637,-6513.812290,1072.533697
1289.835601,6883.915261,-6439.791695,1149.143247
1289.835932,6439.791695,-6439.791695,995.924147
1289.836262,6513.812290,-6439.791695,766.095498
1289.836592,7031.956449,-6735.874072,1149.143247
1289.836923,7254.018232,-6735.874072,1378.971896
1289.837253,6957.935855,-6217.729913,995.924147
1289.837583,6809.894666,-6439.791695,1225.752797
1289.837914,6661.853478,-6809.894666,995.924147
1289.838244,6661.853478,-6809.894666,919.314598
1289.838574,6809.894666,-6661.853478,919.314598
1289.838905,7179.997637,-6809.894666,612.876398
1289.839235,7624.121203,-6291.750507,1072.533697
1289.839565,7328.038826,-6513.812290,689.485948
1289.839895,7476.080014,-6883.915261,995.924147
1289.840226,7105.977043,-6217.729913,1225.752797
1289.840556,6957.935855,-6439.791695,919.314598
1289.840886,7105.977043,-6143.709319,1149.143247
1289.841217,7105.977043,-6291.750507,689.485948
1289.841547,7179.997637,-6217.729913,1149.143247
1289.841877,7105.977043,-5921.647536,1302.362347
1289.842208,7328.038826,-6143.709319,1608.800546
1289.842538,7031.956449,-5995.668130,1455.581446
1289.842868,7105.977043,-6365.771101,1072.533697
1289.843199,6587.832884,-6957.935855,842.705048
1289.843529,6587.832884,-6735.874072,1225.752797
1289.843859,6735.874072,-6735.874072,536.266849
1289.844190,6735.874072,-6735.874072,842.705048
1289.844520,6957.935855,-7105.977043,1225.752797
1289.844850,6883.915261,-7105.977043,1378.971896
1289.845180,6661.853478,-6957.935855,1149.143247
1289.845511,6365.771101,-7179.997637,689.485948
1289.845841,6587.832884,-6883.915261,919.314598
1289.846171,6883.915261,-6957.935855,689.485948
1289.846502,6957.935855,-6587.832884,1072.533697
1289.846832,6735.874072,-6661.853478,1532.190996
1289.847162,7179.997637,-6661.853478,1225.752797
1289.847493,7105.977043,-6957.935855,995.924147
1289.847823,7031.956449,-6661.853478,459.657299
1289.848153,6735.874072,-6439.791695,995.924147
1289.848484,7105.977043,-6513.812290,842.705048
1289.848814,7105.977043,-6217.729913,1149.143247
1289.849144,7105.977043,-6217.729913,1302.362347
1289.849475,7254.018232,-6365.771101,842.705048
1289.849805,7254.018232,-5921.647536,1302.362347
1289.850135,7105.977043,-6291.750507,1072.533697
1289.850466,6513.812290,-6735.874072,766.095498
1289.850796,6661.853478,-6587.832884,919.314598
1289.851126,6957.935855,-7031.956449,1149.143247
1289.851456,7328.038826,-6735.874072,919.314598
1289.851787,7105.977043,-6587.832884,995.924147
1289.852117,7105.977043,-6661.853478,1225.752797
1289.852447,7031.956449,-7031.956449,919.314598
1289.852778,6735.874072,-6661.853478,1225.752797
1289.853108,6291.750507,-6957.935855,919.314598
1289.853438,7105.977043,-6883.915261,995.924147
1289.853769,7179.997637,-6513.812290,1225.752797
1289.854099,7105.977043,-6513.812290,919.314598
1289.854429,7402.059420,-6291.750507,1455.581446
1289.854760,7328.038826,-6291.750507,1225.752797
1289.855090,7105.977043,-6513.812290,766.095498
1289.855420,7105.977043,-6217.729913,1378.971896
1289.855751,6957.935855,-5847.626942,536.266849
1289.856081,7179.997637,-6587.832884,1225.752797
1289.856411,7328.038826,-6291.750507,1302.362347
1289.856742,7105.977043,-6439.791695,1225.752797
1289.857072,7179.997637,-6439.791695,1149.143247
1289.857402,6809.894666,-6439.791695,1149.143247
1289.857732,6587.832884,-6587.832884,689.485948
1289.858063,6735.874072,-6883.915261,689.485948
1289.858393,6661.853478,-6735.874072,1225.752797
1289.858723,6809.894666,-6661.853478,1302.362347
1289.859054,6661.853478,-6291.750507,1608.800546
1289.859384,6661.853478,-6661.853478,1225.752797
1289.859714,6661.853478,-6735.874072,1149.143247
1289.860045,6439.791695,-6957.935855,919.314598
1289.860375,6587.832884,-7031.956449,1149.143247
1289.860705,7254.018232,-6883.915261,689.485948
1289.861036,7105.977043,-6883.915261,1302.362347
1289.861366,7105.977043,-6587.832884,842.705048
1289.861696,7476.080014,-6883.915261,919.314598
1289.862027,7772.162391,-6661.853478,1149.143247
1289.862357,7105.977043,-6513.812290,919.314598
1289.862687,7179.997637,-6513.812290,1072.533697
1289.863017,7031.956449,-6217.729913,842.705048
1289.863348,7105.977043,-6809.894666,842.705048
1289.863678,7254.018232,-6439.791695,1225.752797
1289.864008,7031.956449,-6217.729913,995.924147
1289.864339,7179.997637,-6513.812290,919.314598
1289.864668,7031.956449,-6365.771101,1225.752797
1289.864997,6587.832884,-6513.812290,995.924147
1289.865327,6735.874072,-6661.853478,1149.143247
1289.865656,6809.894666,-6809.894666,1072.533697
1289.865985,7105.977043,-6957.935855,1072.533697
1289.866315,7105.977043,-7031.956449,1455.581446
1289.866644,6883.915261,-6291.750507,1838.629195
1289.866973,7031.956449,-6661.853478,842.705048
1289.867303,6587.832884,-6513.812290,919.314598
1289.867632,6661.853478,-7105.977043,842.705048
1289.867961,7031.956449,-6513.812290,612.876398
1289.868290,7105.977043,-6513.812290,842.705048
1289.868620,7179.997637,-6069.688724,842.705048
1289.868949,7105.977043,-6661.853478,919.314598
1289.869278,7179.997637,-6439.791695,1225.752797
1289.869608,7476.080014,-6365.771101,842.705048
1289.869937,7031.956449,-6661.853478,919.314598
1289.870266,7105.977043,-5921.647536,995.924147
1289.870596,7328.038826,-6217.729913,919.314598
1289.870925,7105.977043,-6513.812290,1455.581446
1289.871254,7031.956449,-6143.709319,1072.533697
1289.871584,7105.977043,-6291.750507,1072.533697
1289.871913,6957.935855,-6217.729913,1072.533697
1289.872242,6661.853478,-6439.791695,766.095498
1289.872572,6883.915261,-6735.874072,1072.533697
1289.872901,6957.935855,-7031.956449,1072.533697
1289.873230,6735.874072,-6883.915261,919.314598
1289.873559,6365.771101,-7105.977043,1225.752797
1289.873889,6513.812290,-6883.915261,1302.362347
1289.874218,7105.977043,-6957.935855,1072.533697
1289.874547,6809.894666,-7031.956449,1149.143247
1289.874877,6513.812290,-7105.977043,1072.533697
1289.875206,6957.935855,-6735.874072,919.314598
1289.875535,7031.956449,-7105.977043,1608.800546
1289.875865,7328.038826,-6661.853478,1149.143247
1289.876194,7254.018232,-6883.915261,919.314598
1289.876523,6957.935855,-6439.791695,1302.362347
1289.876853,6661.853478,-6587.832884,306.438199
1289.877182,6587.832884,-5921.647536,919.314598
1289.877511,7031.956449,-6439.791695,766.095498
1289.877841,7179.997637,-6217.729913,1072.533697
1289.878170,7105.977043,-6143.709319,1225.752797
1289.878499,6883.915261,-5995.668130,1225.752797
1289.878828,7624.121203,-6291.750507,1378.971896
1289.879158,7105.977043,-6217.729913,919.314598
1289.879487,6513.812290,-6513.812290,842.705048
1289.879816,6513.812290,-6661.853478,689.485948
1289.880146,6883.915261,-7105.977043,1532.190996
1289.880475,6809.894666,-6883.915261,919.314598
1289.880804,6809.894666,-6513.812290,919.314598
1289.881134,6883.915261,-6661.853478,1072.533697
1289.881463,7105.977043,-6957.935855,1302.362347
1289.881792,6957.935855,-6735.874072,459.657299
1289.882122,6661.853478,-6809.894666,995.924147
1289.882451,6957.935855,-6883.915261,766.095498
1289.882780,7402.059420,-6809.894666,766.095498
1289.883110,7772.162391,-6587.832884,1685.410096
1289.883439,7402.059420,-6143.709319,842.705048
1289.883768,7179.997637,-6291.750507,995.924147
1289.884097,7328.038826,-6587.832884,995.924147
1289.884427,7105.977043,-6587.832884,919.314598
1289.884756,7031.956449,-6365.771101,612.876398
1289.885085,7105.977043,-6513.812290,1072.533697
1289.885415,6883.915261,-6439.791695,1455.581446
1289.885744,7105.977043,-6365.771101,995.924147
1289.886073,7105.977043,-6143.709319,1302.362347
1289.886403,7031.956449,-6291.750507,1225.752797
1289.886732,6809.894666,-6291.750507,766.095498
1289.887061,6809.894666,-6143.709319,842.705048
1289.887391,7105.977043,-6661.853478,842.705048
1289.887720,7179.997637,-6513.812290,1685.410096
1289.888049,7105.977043,-6735.874072,1072.533697
1289.888379,7031.956449,-6735.874072,1072.533697
1289.888708,6735.874072,-7105.977043,1149.143247
1289.889037,6587.832884,-7105.977043,383.047749
1289.889366,6291.750507,-7105.977043,1072.533697
1289.889696,6957.935855,-6883.915261,842.705048
1289.890025,6809.894666,-6809.894666,689.485948
1289.890354,7031.956449,-6365.771101,1378.971896
1289.890684,7254.018232,-6587.832884,1149.143247
1289.891013,7328.038826,-6365.771101,995.924147
1289.891342,7105.977043,-6217.729913,919.314598
1289.891672,7031.956449,-6735.874072,995.924147
1289.892001,7105.977043,-6439.791695,1072.533697
1289.892330,7254.018232,-6291.750507,536.266849
1289.892660,7105.977043,-6587.832884,995.924147
1289.892989,6661.853478,-6587.832884,1378.971896
1289.893318,7031.956449,-6513.812290,1072.533697
1289.893648,6217.729913,-6217.729913,1225.752797
1289.893977,6365.771101,-6439.791695,842.705048
1289.894306,6439.791695,-6291.750507,1072.533697
1289.894635,6735.874072,-6661.853478,1302.362347
1289.894965,7031.956449,-6661.853478,1225.752797
1289.895294,7179.997637,-6587.832884,1149.143247
1289.895623,7031.956449,-6291.750507,1302.362347
1289.895953,7031.956449,-7031.956449,1302.362347
1289.896282,7105.977043,-7179.997637,842.705048
1289.896611,6809.894666,-6883.915261,842.705048
1289.896941,7254.018232,-7105.977043,459.657299
1289.897270,7179.997637,-6883.915261,919.314598
1289.897599,7254.018232,-6143.709319,1072.533697
1289.897929,7105.977043,-6735.874072,1225.752797
1289.898258,7105.977043,-6291.750507,1762.019645
1289.898587,6883.915261,-6513.812290,766.095498
1289.898917,7031.956449,-6513.812290,1072.533697
1289.899246,7105.977043,-6069.688724,1149.143247
1289.899575,7550.100608,-5847.626942,995.924147
1289.899904,6809.894666,-5329.482782,919.314598
1289.900234,7105.977043,-6069.688724,995.924147
1289.900563,7328.038826,-6217.729913,995.924147
1289.900892,6957.935855,-6439.791695,995.924147
1289.901222,7105.977043,-6439.791695,459.657299
1289.901551,6661.853478,-6883.915261,1149.143247
1289.901880,6661.853478,-6809.894666,842.705048
1289.902210,6883.915261,-7031.956449,1149.143247
1289.902539,6587.832884,-7031.956449,1225.752797
1289.902868,6661.853478,-6291.750507,1455.581446
1289.903198,6439.791695,-6587.832884,1225.752797
1289.903527,6217.729913,-7179.997637,919.314598
1289.903856,6439.791695,-6661.853478,995.924147
1289.904186,6883.915261,-7105.977043,1455.581446
1289.904515,7328.038826,-6809.894666,536.266849
1289.904844,7328.038826,-6513.812290,1225.752797
1289.905173,7254.018232,-6513.812290,1149.143247
1289.905503,7476.080014,-7031.956449,995.924147
1289.905832,7105.977043,-6513.812290,919.314598
1289.906161,6735.874072,-6587.832884,383.047749
1289.906491,6439.791695,-6957.935855,1225.752797
1289.906820,7179.997637,-6291.750507,842.705048
1289.907149,7105.977043,-6439.791695,1302.362347
1289.907479,7105.977043,-6291.750507,1455.581446
1289.907808,7105.977043,-6143.709319,1225.752797
1289.908137,7105.977043,-5921.647536,1225.752797
1289.908467,6883.915261,-6291.750507,842.705048
1289.908796,6291.750507,-6143.709319,1149.143247
1289.909125,6661.853478,-6513.812290,1225.752797
1289.909455,6883.915261,-7105.977043,1072.533697
1289.909784,6809.894666,-6809.894666,612.876398
1289.910113,7105.977043,-6587.832884,995.924147
1289.910442,7179.997637,-7105.977043,995.924147
1289.910772,6735.874072,-6883.915261,842.705048
1289.911101,6809.894666,-7031.956449,766.095498
1289.911430,6883.915261,-6735.874072,306.438199
1289.911760,7105.977043,-6439.791695,1149.143247
1289.912089,7031.956449,-5625.565159,1378.971896
1289.912418,7179.997637,-6217.729913,1149.143247
1289.912748,7328.038826,-6143.709319,1072.533697
1289.913077,7105.977043,-6513.812290,1149.143247
1289.913406,7179.997637,-7031.956449,689.485948
1289.913736,7105.977043,-6513.812290,1149.143247
1289.914065,7105.977043,-6809.894666,842.705048
1289.914394,7328.038826,-5699.585753,1072.533697
1289.914724,7624.121203,-5033.400406,1302.362347
1289.915053,8586.388927,-5033.400406,1455.581446
1289.915382,8586.388927,-5181.441594,1378.971896
1289.915711,8290.306550,-5477.523971,919.314598
1289.916041,6957.935855,-5995.668130,536.266849
1289.916370,5847.626942,-6735.874072,153.219100
1289.916699,5699.585753,-7772.162391,536.266849
1289.917029,6439.791695,-7031.956449,536.266849
1289.917358,7402.059420,-6883.915261,1149.143247
1289.917687,7994.224174,-6439.791695,1838.629195
1289.918017,8586.388927,-6291.750507,1532.190996
1289.918346,7772.162391,-4737.318029,1225.752797
1289.918675,7846.182985,-5477.523971,1225.752797
1289.919005,7772.162391,-5181.441594,1225.752797
1289.919334,8808.450710,-3997.112087,1225.752797
1289.919663,8956.491898,-4441.235652,1838.629195
1289.919993,9104.533087,-4367.215058,919.314598
1289.920322,8068.244768,-5107.421000,766.095498
1289.920651,7846.182985,-5255.462188,229.828649
1289.920980,8438.347739,-5107.421000,842.705048
1289.921310,8808.450710,-5921.647536,536.266849
1289.921639,8660.409521,-5329.482782,842.705048
1289.921968,7920.203579,-5551.544565,536.266849
1289.922298,8142.265362,-5255.462188,1072.533697
1289.922627,8216.285956,-4737.318029,1378.971896
1289.922956,8364.327145,-4589.276840,1378.971896
1289.923286,8660.409521,-4441.235652,1532.190996
1289.923615,8956.491898,-4737.318029,1608.800546
1289.923944,9474.636058,-3552.988522,1455.581446
1289.924274,9030.512492,-3404.947333,1608.800546
1289.924603,9474.636058,-2960.823768,1302.362347
1289.924932,9992.780217,-2812.782580,1455.581446
1289.925262,9770.718434,-3701.029710,1685.410096
1289.925591,9770.718434,-3627.009116,842.705048
1289.925920,9326.594869,-4293.194464,1378.971896
1289.926249,9178.553681,-4219.173869,919.314598
1289.926579,8956.491898,-4885.359217,842.705048
1289.926908,8660.409521,-5773.606348,1378.971896
1289.927237,8438.347739,-4959.379811,766.095498
1289.927567,7994.224174,-5699.585753,1302.362347
1289.927896,7920.203579,-5181.441594,689.485948
1289.928225,7994.224174,-5107.421000,919.314598
1289.928555,8586.388927,-4737.318029,1532.190996
1289.928884,9252.574275,-4515.256246,1149.143247
1289.929213,8586.388927,-4737.318029,766.095498
1289.929543,8586.388927,-3923.091493,995.924147
1289.929872,9178.553681,-4663.297435,76.609550
1289.930201,9770.718434,-4737.318029,1455.581446
1289.930531,9104.533087,-5329.482782,383.047749
1289.930860,8438.347739,-5921.647536,76.609550
1289.931189,8660.409521,-5033.400406,306.438199
1289.931518,9474.636058,-5477.523971,459.657299
1289.931848,9548.656652,-5033.400406,1685.410096
1289.932177,9104.533087,-5033.400406,1455.581446
1289.932506,8660.409521,-4219.173869,842.705048
1289.932836,8290.306550,-3256.906145,612.876398
1289.933165,8956.491898,-4515.256246,2451.505594
1289.933494,9696.697840,-3256.906145,1455.581446
1289.933824,9696.697840,-3478.967927,1915.238745
1289.934153,9178.553681,-2886.803174,1378.971896
1289.934482,9474.636058,-3034.844362,1072.533697
1289.934812,9844.739029,-3552.988522,1608.800546
1289.935141,9326.594869,-4071.132681,459.657299
1289.935470,9252.574275,-4219.173869,0.000000
1289.935800,9178.553681,-4145.153275,-689.485948
1289.936129,8586.388927,-4589.276840,0.000000
1289.936458,8290.306550,-6439.791695,459.657299
1289.936787,8882.471304,-5995.668130,459.657299
1289.937117,8882.471304,-6513.812290,1072.533697
1289.937446,8586.388927,-5847.626942,995.924147
1289.937775,8586.388927,-4959.379811,1378.971896
1289.938105,7698.141797,-5477.523971,2145.067394
1289.938434,8364.327145,-4367.215058,2298.286494
1289.938763,9178.553681,-3330.926739,2451.505594
1289.939093,9548.656652,-1776.494261,1762.019645
1289.939422,9992.780217,-1480.411884,1532.190996
1289.939751,9992.780217,-2072.576638,689.485948
1289.940081,9992.780217,-2368.659014,153.219100
1289.940410,9696.697840,-3404.947333,-229.828649
1289.940739,9400.615463,-4071.132681,536.266849
1289.941069,8734.430116,-6069.688724,0.000000
1289.941398,7846.182985,-7698.141797,76.609550
1289.941727,7105.977043,-9030.512492,383.047749
1289.942056,7031.956449,-9474.636058,612.876398
1289.942386,5995.668130,-9252.574275,459.657299
1289.942715,5921.647536,-9326.594869,766.095498
1289.943044,5551.544565,-7624.121203,689.485948
1289.943374,5847.626942,-6513.812290,536.266849
1289.943703,7105.977043,-5551.544565,1072.533697
1289.944032,8586.388927,-4219.173869,1762.019645
1289.944362,9622.677246,-2738.761985,1608.800546
1289.944691,9622.677246,-2220.617826,1532.190996
1289.945020,9474.636058,-1554.432478,1072.533697
1289.945350,9844.739029,-2072.576638,1302.362347
1289.945679,10881.027347,-2960.823768,919.314598
1289.946008,10288.862594,-3775.050304,995.924147
1289.946338,9474.636058,-5403.503377,1149.143247
1289.946667,8512.368333,-5995.668130,995.924147
1289.946996,6735.874072,-7624.121203,1072.533697
1289.947325,5255.462188,-8660.409521,842.705048
1289.947655,4885.359217,-8808.450710,1302.362347
1289.947984,5329.482782,-8364.327145,1685.410096
1289.948313,5625.565159,-8142.265362,2221.676944
1289.948643,5477.523971,-6661.853478,1072.533697
1289.948972,5699.585753,-6661.853478,306.438199
1289.949301,5921.647536,-6217.729913,0.000000
1289.949631,6439.791695,-5995.668130,0.000000
1289.949960,7105.977043,-6661.853478,766.095498
1289.950289,7994.224174,-5773.606348,536.266849
1289.950619,7994.224174,-5921.647536,919.314598
1289.950948,8438.347739,-5921.647536,995.924147
1289.951277,9178.553681,-4811.338623,1762.019645
1289.951607,10584.944971,-5995.668130,2068.457845
1289.951936,9622.677246,-5477.523971,1762.019645
1289.952265,8068.244768,-5107.421000,1455.581446
1289.952594,7031.956449,-5773.606348,1532.190996
1289.952924,6587.832884,-6365.771101,1608.800546
1289.953253,5551.544565,-7550.100608,2068.457845
1289.953582,4885.359217,-7179.997637,2068.457845
1289.953912,4515.256246,-6883.915261,919.314598
1289.954241,5181.441594,-6661.853478,1149.143247
1289.954570,5773.606348,-6513.812290,306.438199
1289.954900,6661.853478,-7031.956449,76.609550
1289.955229,7254.018232,-6661.853478,536.266849
1289.955558,7698.141797,-5995.668130,1149.143247
1289.955888,8068.244768,-5403.503377,1072.533697
1289.956217,8142.265362,-6513.812290,1991.848295
1289.956546,8660.409521,-6513.812290,1532.190996
1289.956876,8216.285956,-5773.606348,1455.581446
1289.957205,7772.162391,-5477.523971,919.314598
1289.957534,7994.224174,-6143.709319,1608.800546
1289.957863,7920.203579,-5847.626942,1762.019645
1289.958193,7105.977043,-7179.997637,1991.848295
1289.958522,6069.688724,-7105.977043,2068.457845
1289.958851,5255.462188,-8290.306550,1915.238745
1289.959181,4663.297435,-8290.306550,995.924147
1289.959510,4367.215058,-8364.327145,153.219100
1289.959839,4441.235652,-8216.285956,-306.438199
1289.960169,5773.606348,-7550.100608,0.000000
1289.960498,6661.853478,-7698.141797,459.657299
1289.960827,7254.018232,-6587.832884,919.314598
1289.961157,7994.224174,-5847.626942,1915.238745
1289.961486,8734.430116,-4885.359217,1838.629195
1289.961815,8956.491898,-4441.235652,1608.800546
1289.962145,8512.368333,-4219.173869,1378.971896
1289.962474,8808.450710,-3849.070898,919.314598
1289.962803,9030.512492,-4515.256246,1072.533697
1289.963132,8660.409521,-5477.523971,1455.581446
1289.963461,8142.265362,-6439.791695,1762.019645
1289.963790,6957.935855,-8068.244768,1608.800546
1289.964119,5847.626942,-8364.327145,612.876398
1289.964448,4589.276840,-9474.636058,0.000000
1289.964777,3256.906145,-9844.739029,76.609550
1289.965106,4219.173869,-8660.409521,-2145.067394
1289.965435,4515.256246,-8660.409521,-995.924147
1289.965764,5847.626942,-7402.059420,76.609550
1289.966093,7624.121203,-6957.935855,995.924147
1289.966422,9104.533087,-5477.523971,1762.019645
1289.966751,8216.285956,-4515.256246,1608.800546
1289.967080,7772.162391,-4885.359217,1072.533697
1289.967409,8290.306550,-4293.194464,1378.971896
1289.967738,8734.430116,-3923.091493,995.924147
1289.968067,9104.533087,-4959.379811,2298.286494
1289.968396,9030.512492,-4811.338623,2298.286494
1289.968725,8734.430116,-6291.750507,1915.238745
1289.969054,7920.203579,-6883.915261,2068.457845
1289.969383,5773.606348,-8142.265362,1225.752797
1289.969712,4663.297435,-7920.203579,76.609550
1289.970041,3775.050304,-8734.430116,-383.047749
1289.970370,3701.029710,-9326.594869,-306.438199
1289.970699,4885.359217,-8142.265362,-383.047749
1289.971028,5921.647536,-8068.244768,766.095498
1289.971357,7031.956449,-7031.956449,153.219100
1289.971686,7624.121203,-6143.709319,536.266849
1289.972015,7698.141797,-5329.482782,1532.190996
1289.972344,8290.306550,-4071.132681,612.876398
1289.972673,9844.739029,-3627.009116,2145.067394
1289.973002,10436.903782,-3256.906145,2374.896044
1289.973331,10362.883188,-3775.050304,2068.457845
1289.973660,9548.656652,-4441.235652,2221.676944
1289.973989,8882.471304,-5699.585753,1302.362347
1289.974318,6957.935855,-7624.121203,1302.362347
1289.974647,4885.359217,-8660.409521,842.705048
1289.974976,3701.029710,-9770.718434,536.266849
1289.975305,3034.844362,-9474.636058,-306.438199
1289.975633,3182.885551,-9474.636058,0.000000
1289.975962,4071.132681,-9400.615463,153.219100
1289.976291,5773.606348,-7698.141797,1225.752797
1289.976620,7254.018232,-5699.585753,919.314598
1289.976949,7994.224174,-4663.297435,1685.410096
1289.977278,8660.409521,-3478.967927,1608.800546
1289.977607,9104.533087,-4145.153275,1838.629195
1289.977936,8808.450710,-3997.112087,1685.410096
1289.978265,8956.491898,-4515.256246,1378.971896
1289.978594,9622.677246,-5033.400406,1838.629195
1289.978923,9548.656652,-6069.688724,1532.190996
1289.979252,8142.265362,-7402.059420,2374.896044
1289.979581,7179.997637,-7624.121203,1378.971896
1289.979910,5921.647536,-8586.388927,1378.971896
1289.980239,4811.338623,-8734.430116,229.828649
1289.980568,3552.988522,-9030.512492,0.000000
1289.980897,3627.009116,-9104.533087,-689.485948
1289.981226,3923.091493,-8882.471304,-306.438199
1289.981555,4959.379811,-7772.162391,-306.438199
1289.981884,6291.750507,-6661.853478,1302.362347
1289.982213,7624.121203,-5477.523971,1915.238745
1289.982542,8216.285956,-4219.173869,1532.190996
1289.982871,8882.471304,-3034.844362,1838.629195
1289.983200,9548.656652,-2812.782580,2221.676944
1289.983529,10510.924376,-3552.988522,1915.238745
1289.983858,9696.697840,-4367.215058,1532.190996
1289.984187,8586.388927,-6143.709319,1455.581446
1289.984516,7402.059420,-7772.162391,1838.629195
1289.984845,6069.688724,-8808.450710,1915.238745
1289.985174,5181.441594,-9326.594869,842.705048
1289.985503,4367.215058,-9030.512492,0.000000
1289.985832,3775.050304,-8512.368333,-1072.533697
1289.986161,4293.194464,-8216.285956,-1225.752797
1289.986490,4811.338623,-7920.203579,0.000000
1289.986819,6143.709319,-7328.038826,76.609550
1289.987148,7105.977043,-6661.853478,306.438199
1289.987477,7476.080014,-5107.421000,459.657299
1289.987806,8808.450710,-4293.194464,1302.362347
1289.988135,9548.656652,-4589.276840,1838.629195
1289.988464,10584.944971,-3478.967927,2298.286494
1289.988792,10214.842000,-3330.926739,1685.410096
1289.989121,10140.821405,-4071.132681,2221.676944
1289.989450,9770.718434,-5329.482782,2374.896044
1289.989779,7994.224174,-7105.977043,1838.629195
1289.990108,6587.832884,-7254.018232,1302.362347
1289.990437,5773.606348,-7402.059420,1149.143247
1289.990766,5033.400406,-7846.182985,919.314598
1289.991095,3775.050304,-8438.347739,0.000000
1289.991424,2812.782580,-8956.491898,-1149.143247
1289.991753,3330.926739,-9400.615463,-1302.362347
1289.992082,4367.215058,-8586.388927,-612.876398
1289.992411,5921.647536,-8068.244768,306.438199
1289.992740,7328.038826,-7105.977043,995.924147
1289.993069,8142.265362,-5699.585753,1532.190996
1289.993398,9030.512492,-4811.338623,1915.238745
1289.993727,10140.821405,-3627.009116,2911.162892
1289.994056,11325.150913,-3108.864956,2604.724693
1289.994385,11251.130318,-3478.967927,2145.067394
1289.994714,9252.574275,-4219.173869,1915.238745
1289.995043,7920.203579,-5329.482782,1532.190996
1289.995372,7179.997637,-6883.915261,2374.896044
1289.995701,5329.482782,-7994.224174,1072.533697
1289.996030,2960.823768,-8956.491898,-306.438199
1289.996359,1702.473667,-8734.430116,-1149.143247
1289.996688,2220.617826,-9326.594869,-995.924147
1289.997017,3701.029710,-9252.574275,0.000000
1289.997346,6291.750507,-7698.141797,1225.752797
1289.997675,7772.162391,-6217.729913,1608.800546
1289.998004,8290.306550,-4663.297435,1532.190996
1289.998333,8364.327145,-4145.153275,1762.019645
1289.998662,8142.265362,-5329.482782,1915.238745
1289.998991,8660.409521,-4737.318029,1532.190996
1289.999320,9474.636058,-4515.256246,1455.581446
1289.999649,9992.780217,-4663.297435,1991.848295
1289.999978,9252.574275,-6143.709319,2451.505594
1290.000307,8586.388927,-7105.977043,2145.067394
1290.000636,7105.977043,-7550.100608,1455.581446
1290.000965,5403.503377,-7698.141797,689.485948
1290.001294,4293.194464,-8660.409521,153.219100
1290.001623,2812.782580,-9326.594869,-689.485948
1290.001951,2738.761985,-9104.533087,-1685.410096
1290.002280,3478.967927,-9474.636058,-459.657299
1290.002609,5403.503377,-8364.327145,153.219100
1290.002938,7105.977043,-7254.018232,1378.971896
1290.003267,7846.182985,-6069.688724,1608.800546
1290.003596,8216.285956,-4885.359217,1838.629195
1290.003925,9030.512492,-3627.009116,2528.115143
1290.004254,10288.862594,-2368.659014,2451.505594
1290.004583,11103.089130,-1924.535449,1991.848295
1290.004912,10658.965565,-3330.926739,1915.238745
1290.005241,9770.718434,-4515.256246,1149.143247
1290.005570,8068.244768,-6883.915261,1532.190996
1290.005899,7031.956449,-8216.285956,1991.848295
1290.006228,5699.585753,-8660.409521,689.485948
1290.006557,4145.153275,-8512.368333,-383.047749
1290.006886,2738.761985,-8364.327145,-919.314598
1290.007215,2812.782580,-9252.574275,-995.924147
1290.007544,4663.297435,-8586.388927,-306.438199
1290.007873,6069.688724,-7550.100608,-153.219100
1290.008202,6587.832884,-6809.894666,0.000000
1290.008531,7772.162391,-5847.626942,1378.971896
1290.008860,8660.409521,-5477.523971,1685.410096
1290.009189,8734.430116,-5255.462188,1762.019645
1290.009518,9178.553681,-4367.215058,2068.457845
1290.009847,9770.718434,-3923.091493,1685.410096
1290.010176,9770.718434,-4663.297435,1608.800546
1290.010505,9104.533087,-5255.462188,1302.362347
1290.010834,8290.306550,-7105.977043,1838.629195
1290.011163,7476.080014,-7031.956449,2221.676944
1290.011492,6439.791695,-7254.018232,1685.410096
1290.011821,4885.359217,-7772.162391,689.485948
1290.012150,3478.967927,-8512.368333,-536.266849
1290.012479,2960.823768,-8216.285956,-1225.752797
1290.012808,3034.844362,-9030.512492,-995.924147
1290.013137,4885.359217,-8660.409521,383.047749
1290.013466,7031.956449,-7254.018232,1072.533697
1290.013795,8216.285956,-6735.874072,1915.238745
1290.014124,8216.285956,-4663.297435,1991.848295
1290.014453,8956.491898,-3627.009116,1532.190996
1290.014782,9770.718434,-4071.132681,2374.896044
1290.015110,11029.068536,-3923.091493,1455.581446
1290.015439,10436.903782,-4737.318029,1762.019645
1290.015768,9474.636058,-5477.523971,1762.019645
1290.016097,8142.265362,-7105.977043,1685.410096
1290.016426,6587.832884,-7402.059420,1915.238745
1290.016755,5255.462188,-8586.388927,1378.971896
1290.017084,4589.276840,-8512.368333,459.657299
1290.017413,3034.844362,-8216.285956,-383.047749
1290.017742,2590.720797,-7920.203579,-612.876398
1290.018071,4145.153275,-8660.409521,-612.876398
1290.018400,5403.503377,-8364.327145,766.095498
1290.018729,6365.771101,-7105.977043,1225.752797
1290.019058,7402.059420,-5477.523971,1685.410096
1290.019387,7698.141797,-4367.215058,2068.457845
1290.019716,8364.327145,-4885.359217,2145.067394
1290.020045,8882.471304,-4441.235652,1915.238745
1290.020374,9252.574275,-4071.132681,1762.019645
1290.020703,9696.697840,-4219.173869,1302.362347
1290.021032,9696.697840,-6143.709319,2221.676944
1290.021361,8808.450710,-7328.038826,2451.505594
1290.021690,7402.059420,-8216.285956,2068.457845
1290.022019,6143.709319,-7476.080014,1225.752797
1290.022348,5107.421000,-7698.141797,459.657299
1290.022677,3849.070898,-8512.368333,-919.314598
1290.023006,3108.864956,-8364.327145,-842.705048
1290.023335,3627.009116,-9326.594869,-1149.143247
1290.023664,4737.318029,-8586.388927,-229.828649
1290.023993,5699.585753,-7624.121203,1072.533697
1290.024322,7105.977043,-6661.853478,1302.362347
1290.024651,8216.285956,-5403.503377,2221.676944
1290.024980,8586.388927,-4663.297435,2068.457845
1290.025309,9548.656652,-3256.906145,2528.115143
1290.025638,10140.821405,-2368.659014,2681.334243
1290.025967,10658.965565,-3034.844362,1838.629195
1290.026296,9992.780217,-4663.297435,2145.067394
1290.026625,8956.491898,-6587.832884,2451.505594
1290.026954,7254.018232,-7772.162391,1378.971896
1290.027283,5329.482782,-7476.080014,383.047749
1290.027612,3923.091493,-7994.224174,-153.219100
1290.027941,2960.823768,-8586.388927,-1378.971896
1290.028269,3478.967927,-9474.636058,-459.657299
1290.028598,5033.400406,-9030.512492,-919.314598
1290.028927,5921.647536,-7920.203579,0.000000
1290.029256,7254.018232,-6587.832884,842.705048
1290.029585,7772.162391,-5847.626942,995.924147
1290.029914,7772.162391,-5773.606348,1072.533697
1290.030243,7994.224174,-5625.565159,1532.190996
1290.030572,8734.430116,-4737.318029,1762.019645
1290.030901,9770.718434,-3478.967927,1762.019645
1290.031230,10362.883188,-4071.132681,2145.067394
1290.031559,9844.739029,-4737.318029,2528.115143
1290.031888,8956.491898,-6291.750507,2451.505594
1290.032217,7994.224174,-6587.832884,2068.457845
1290.032546,6291.750507,-6735.874072,842.705048
1290.032875,4293.194464,-7698.141797,153.219100
1290.033204,2590.720797,-8290.306550,-1072.533697
1290.033533,2294.638420,-9696.697840,-1072.533697
1290.033862,3627.009116,-9252.574275,-612.876398
1290.034191,5699.585753,-8512.368333,383.047749
1290.034520,7031.956449,-7254.018232,689.485948
1290.034849,7550.100608,-6587.832884,1685.410096
1290.035178,7624.121203,-5625.565159,1072.533697
1290.035507,8364.327145,-4737.318029,1225.752797
1290.035836,9104.533087,-3997.112087,1838.629195
1290.036165,10214.842000,-3552.988522,2451.505594
1290.036494,10732.986159,-3627.009116,2298.286494
1290.036823,10510.924376,-4737.318029,2374.896044
1290.037152,9104.533087,-6069.688724,2145.067394
1290.037481,7031.956449,-7254.018232,1838.629195
1290.037810,5477.523971,-7550.100608,919.314598
1290.038139,3923.091493,-8142.265362,-306.438199
1290.038468,2442.679609,-8660.409521,-1072.533697
1290.038797,2886.803174,-8956.491898,-995.924147
1290.039126,4367.215058,-9326.594869,76.609550
1290.039455,5699.585753,-7994.224174,536.266849
1290.039784,6217.729913,-7179.997637,842.705048
1290.040113,7698.141797,-6069.688724,1838.629195
1290.040442,8068.244768,-4885.359217,2451.505594
1290.040771,8438.347739,-5033.400406,2145.067394
1290.041099,9400.615463,-3478.967927,2451.505594
1290.041428,10140.821405,-2738.761985,1838.629195
1290.041757,10584.944971,-3256.906145,1991.848295
1290.042086,9622.677246,-5403.503377,2681.334243
1290.042415,8660.409521,-7105.977043,2298.286494
1290.042744,7105.977043,-7624.121203,1762.019645
1290.043073,5107.421000,-8438.347739,842.705048
1290.043402,3775.050304,-8290.306550,-76.609550
1290.043731,2664.741391,-8734.430116,-1225.752797
1290.044060,2738.761985,-9474.636058,-919.314598
1290.044389,4589.276840,-9548.656652,0.000000
1290.044718,5255.462188,-8364.327145,919.314598
1290.045047,5921.647536,-6439.791695,842.705048
1290.045376,7105.977043,-5625.565159,1455.581446
1290.045705,8142.265362,-4293.194464,2068.457845
1290.046034,9400.615463,-3775.050304,2604.724693
1290.046363,11251.130318,-3330.926739,2834.553343
1290.046692,11547.212695,-2516.700203,2374.896044
1290.047021,10140.821405,-3552.988522,1302.362347
1290.047350,8586.388927,-5477.523971,1302.362347
1290.047679,7624.121203,-7846.182985,1762.019645
1290.048008,6365.771101,-9252.574275,1532.190996
1290.048337,5403.503377,-8882.471304,1072.533697
1290.048666,3478.967927,-8808.450710,-383.047749
1290.048995,1998.556043,-9474.636058,-1762.019645
1290.049324,1776.494261,-9474.636058,-1532.190996
1290.049653,3404.947333,-9992.780217,-383.047749
1290.049982,5551.544565,-8290.306550,0.000000
1290.050311,7179.997637,-6735.874072,919.314598
1290.050640,7772.162391,-5403.503377,1378.971896
1290.050969,8438.347739,-5033.400406,1685.410096
1290.051298,9474.636058,-3849.070898,2145.067394
1290.051627,10510.924376,-2886.803174,1838.629195
1290.051956,10881.027347,-2442.679609,1838.629195
1290.052285,10584.944971,-3701.029710,1685.410096
1290.052614,9918.759623,-5551.544565,2374.896044
1290.052943,8142.265362,-6883.915261,1991.848295
1290.053272,6735.874072,-8290.306550,1149.143247
1290.053601,5329.482782,-7994.224174,919.314598
1290.053930,4219.173869,-8586.388927,-383.047749
1290.054258,3404.947333,-9474.636058,-1302.362347
1290.054587,2368.659014,-9400.615463,-919.314598
1290.054916,3849.070898,-8734.430116,-306.438199
1290.055245,5625.565159,-8068.244768,766.095498
1290.055574,7328.038826,-7031.956449,1838.629195
1290.055903,8290.306550,-5033.400406,2374.896044
1290.056232,9178.553681,-3997.112087,2068.457845
1290.056561,9548.656652,-3182.885551,2298.286494
1290.056890,10584.944971,-2738.761985,2145.067394
1290.057219,11325.150913,-2590.720797,1762.019645
1290.057548,10807.006753,-3627.009116,2145.067394
1290.057877,8956.491898,-5329.482782,1302.362347
1290.058206,7476.080014,-7105.977043,1532.190996
1290.058535,5995.668130,-8956.491898,919.314598
1290.058864,3849.070898,-8956.491898,229.828649
1290.059193,2812.782580,-9326.594869,-689.485948
1290.059522,1776.494261,-10066.800811,-995.924147
1290.059851,2886.803174,-9474.636058,-1149.143247
1290.060180,4367.215058,-9326.594869,0.000000
1290.060509,5995.668130,-7846.182985,612.876398
1290.060838,7772.162391,-5921.647536,1072.533697
1290.061167,8808.450710,-4219.173869,1838.629195
1290.061496,9400.615463,-4145.153275,2068.457845
1290.061825,10066.800811,-4737.318029,2528.115143
1290.062154,10362.883188,-3775.050304,2221.676944
1290.062483,9474.636058,-3923.091493,1532.190996
1290.062812,8660.409521,-4737.318029,1225.752797
1290.063141,8290.306550,-5551.544565,1838.629195
1290.063470,8142.265362,-7994.224174,1915.238745
1290.063799,6291.750507,-8216.285956,1378.971896
1290.064128,4737.318029,-8438.347739,536.266849
1290.064457,3701.029710,-8512.368333,-766.095498
1290.064786,2368.659014,-8956.491898,-612.876398
1290.065115,2664.741391,-9474.636058,-842.705048
1290.065444,4145.153275,-9326.594869,0.000000
1290.065773,6587.832884,-8068.244768,842.705048
1290.066102,7624.121203,-6661.853478,1302.362347
1290.066430,8734.430116,-4293.194464,2221.676944
1290.066759,9548.656652,-2960.823768,1838.629195
1290.067088,10362.883188,-2738.761985,2068.457845
1290.067417,10658.965565,-2960.823768,2451.505594
1290.067746,10955.047942,-3849.070898,1915.238745
1290.068075,9770.718434,-4293.194464,1455.581446
1290.068404,8216.285956,-6291.750507,689.485948
1290.068733,6661.853478,-7476.080014,306.438199
1290.069062,5255.462188,-9622.677246,1532.190996
1290.069391,4737.318029,-9918.759623,306.438199
1290.069720,3108.864956,-9030.512492,-689.485948
1290.070049,1776.494261,-9474.636058,-1149.143247
1290.070378,2590.720797,-9030.512492,-842.705048
1290.070707,4441.235652,-8808.450710,-306.438199
1290.071036,5625.565159,-8068.244768,919.314598
1290.071365,7105.977043,-6291.750507,1608.800546
1290.071694,8290.306550,-5329.482782,1685.410096
1290.072023,9030.512492,-4071.132681,1915.238745
1290.072352,9474.636058,-3330.926739,1838.629195
1290.072681,10732.986159,-3701.029710,1532.190996
1290.073009,10807.006753,-3552.988522,1608.800546
1290.073338,9918.759623,-5033.400406,1608.800546
1290.073667,8956.491898,-5477.523971,1302.362347
1290.073996,7698.141797,-6883.915261,1685.410096
1290.074325,6513.812290,-8364.327145,1302.362347
1290.074654,5181.441594,-8586.388927,919.314598
1290.074983,3849.070898,-8956.491898,229.828649
1290.075312,3256.906145,-8660.409521,-1149.143247
1290.075641,2812.782580,-8882.471304,-995.924147
1290.075970,3701.029710,-8586.388927,-536.266849
1290.076299,5625.565159,-8364.327145,153.219100
1290.076628,7328.038826,-7105.977043,1225.752797
1290.076957,8512.368333,-5181.441594,1915.238745
1290.077286,8660.409521,-4663.297435,2528.115143
1290.077615,9400.615463,-3627.009116,2298.286494
1290.077944,10140.821405,-3256.906145,2145.067394
1290.078273,10066.800811,-3478.967927,1838.629195
1290.078602,9622.677246,-4071.132681,1762.019645
1290.078931,8660.409521,-5847.626942,1762.019645
1290.079259,7476.080014,-6809.894666,1915.238745
1290.079588,6069.688724,-7846.182985,1302.362347
1290.079917,5033.400406,-8142.265362,766.095498
1290.080246,3627.009116,-8438.347739,76.609550
1290.080575,3034.844362,-8808.450710,-153.219100
1290.080904,3478.967927,-8364.327145,-459.657299
1290.081233,5403.503377,-7624.121203,76.609550
1290.081562,6957.935855,-7179.997637,612.876398
1290.081891,7846.182985,-5699.585753,1378.971896
1290.082220,7994.224174,-5625.565159,1762.019645
1290.082549,8438.347739,-4959.379811,2068.457845
1290.082878,8660.409521,-4071.132681,2298.286494
1290.083207,8512.368333,-3997.112087,1149.143247
1290.083536,9178.553681,-3627.009116,1532.190996
1290.083865,9474.636058,-4737.318029,1915.238745
1290.084194,9252.574275,-5995.668130,2145.067394
1290.084523,7254.018232,-7105.977043,2221.676944
1290.084852,6291.750507,-7772.162391,1685.410096
1290.085181,5403.503377,-7994.224174,612.876398
1290.085510,4145.153275,-9178.553681,229.828649
1290.085838,2960.823768,-10066.800811,0.000000
1290.086167,3182.885551,-9770.718434,-842.705048
1290.086496,4515.256246,-9326.594869,0.000000
1290.086825,6587.832884,-7846.182985,536.266849
1290.087154,7772.162391,-6513.812290,919.314598
1290.087483,8438.347739,-5329.482782,766.095498
1290.087812,7994.224174,-5107.421000,1072.533697
1290.088141,8512.368333,-4589.276840,1225.752797
1290.088470,9622.677246,-4293.194464,1915.238745
1290.088799,10288.862594,-3849.070898,1915.238745
1290.089128,9770.718434,-3775.050304,995.924147
1290.089457,8660.409521,-5551.544565,1532.190996
1290.089786,8142.265362,-6587.832884,1532.190996
1290.090115,7328.038826,-7698.141797,1455.581446
1290.090444,5625.565159,-7402.059420,459.657299
1290.090773,3627.009116,-8216.285956,-459.657299
1290.091102,2738.761985,-8882.471304,-919.314598
1290.091431,3330.926739,-9252.574275,-612.876398
1290.091760,5329.482782,-8882.471304,536.266849
1290.092089,7179.997637,-6957.935855,1149.143247
1290.092417,8142.265362,-5329.482782,1072.533697
1290.092746,7846.182985,-5033.400406,919.314598
1290.093075,7179.997637,-5699.585753,1455.581446
1290.093404,7550.100608,-4441.235652,1149.143247
1290.093733,8808.450710,-4515.256246,1455.581446
1290.094062,8956.491898,-4219.173869,1532.190996
1290.094391,9178.553681,-3849.070898,1685.410096
1290.094720,9474.636058,-6069.688724,2298.286494
1290.095049,8290.306550,-7105.977043,2604.724693
1290.095378,6439.791695,-8290.306550,689.485948
1290.095707,5033.400406,-7698.141797,842.705048
1290.096036,3923.091493,-8586.388927,-842.705048
1290.096365,2886.803174,-9548.656652,-766.095498
1290.096694,2960.823768,-9474.636058,0.000000
1290.097023,4663.297435,-9400.615463,0.000000
1290.097352,6513.812290,-7698.141797,1072.533697
1290.097681,7179.997637,-6735.874072,1149.143247
1290.098010,7476.080014,-4811.338623,995.924147
1290.098339,7698.141797,-5181.441594,1302.362347
1290.098668,8364.327145,-4663.297435,1915.238745
1290.098996,9326.594869,-3182.885551,1991.848295
1290.099325,10288.862594,-3182.885551,2145.067394
1290.099654,10658.965565,-4367.215058,2068.457845
1290.099983,8956.491898,-5847.626942,2221.676944
1290.100312,7105.977043,-6883.915261,2221.676944
1290.100641,5995.668130,-7920.203579,1225.752797
1290.100970,5181.441594,-7698.141797,459.657299
1290.101299,4145.153275,-8068.244768,0.000000
1290.101628,3997.112087,-8882.471304,-153.219100
1290.101957,4293.194464,-8512.368333,0.000000
1290.102286,5329.482782,-8068.244768,0.000000
1290.102615,5995.668130,-7031.956449,229.828649
1290.102944,7105.977043,-6069.688724,1072.533697
1290.103273,7698.141797,-5107.421000,1225.752797
1290.103602,8068.244768,-4737.318029,1225.752797
1290.103931,8290.306550,-4811.338623,1685.410096
1290.104260,9548.656652,-4441.235652,2451.505594
1290.104589,10510.924376,-4367.215058,2145.067394
1290.104918,9400.615463,-4811.338623,1991.848295
1290.105246,7846.182985,-6069.688724,1608.800546
1290.105575,6809.894666,-7698.141797,2451.505594
1290.105904,6439.791695,-8364.327145,1302.362347
1290.106233,4811.338623,-8142.265362,612.876398
1290.106562,4071.132681,-8364.327145,76.609550
1290.106891,3552.988522,-8882.471304,-612.876398
1290.107220,3034.844362,-8142.265362,-1149.143247
1290.107549,4145.153275,-9030.512492,0.000000
1290.107878,5921.647536,-7920.203579,536.266849
1290.108207,7476.080014,-6587.832884,1149.143247
1290.108536,7920.203579,-4737.318029,842.705048
1290.108865,7772.162391,-4441.235652,1532.190996
1290.109194,9326.594869,-3701.029710,2068.457845
1290.109523,10362.883188,-3552.988522,1762.019645
1290.109852,10140.821405,-3923.091493,1455.581446
1290.110181,9474.636058,-4145.153275,1455.581446
1290.110510,8586.388927,-5847.626942,1455.581446
1290.110839,7698.141797,-8068.244768,1838.629195
1290.111168,6587.832884,-8290.306550,1608.800546
1290.111497,5773.606348,-8216.285956,1149.143247
1290.111825,4589.276840,-7920.203579,-229.828649
1290.112154,3256.906145,-8364.327145,-919.314598
1290.112483,3923.091493,-8142.265362,-689.485948
1290.112812,5181.441594,-8956.491898,76.609550
1290.113141,6439.791695,-7624.121203,1225.752797
1290.113470,6661.853478,-6587.832884,766.095498
1290.113799,7105.977043,-5329.482782,1225.752797
1290.114128,7920.203579,-4959.379811,1302.362347
1290.114457,8512.368333,-4737.318029,1532.190996
1290.114786,9400.615463,-3701.029710,2145.067394
1290.115115,9992.780217,-4071.132681,1762.019645
1290.115444,9696.697840,-4663.297435,2068.457845
1290.115773,9030.512492,-5699.585753,2068.457845
1290.116102,7920.203579,-7698.141797,1915.238745
1290.116431,7105.977043,-7846.182985,1762.019645
1290.116760,5477.523971,-8142.265362,919.314598
1290.117089,4145.153275,-8586.388927,0.000000
1290.117418,3182.885551,-8808.450710,-995.924147
1290.117747,3849.070898,-8364.327145,-1225.752797
1290.118076,4663.297435,-8882.471304,-229.828649
1290.118404,5551.544565,-7920.203579,536.266849
1290.118733,7105.977043,-6291.750507,766.095498
1290.119062,7105.977043,-5477.523971,1302.362347
1290.119391,8216.285956,-4293.194464,766.095498
1290.119720,8660.409521,-4737.318029,2145.067394
1290.120049,9992.780217,-4071.132681,2451.505594
1290.120378,10732.986159,-2812.782580,2298.286494
1290.120707,10510.924376,-3330.926739,2068.457845
1290.121036,9326.594869,-5255.462188,2221.676944
1290.121365,7920.203579,-7105.977043,2374.896044
1290.121694,6735.874072,-7846.182985,1762.019645
1290.122023,4885.359217,-7698.141797,459.657299
1290.122352,3182.885551,-8364.327145,-229.828649
1290.122681,2738.761985,-9252.574275,-612.876398
1290.123010,3182.885551,-9104.533087,-1225.752797
1290.123339,4737.318029,-8956.491898,-383.047749
1290.123668,6587.832884,-7402.059420,1225.752797
1290.123997,7846.182985,-6661.853478,995.924147
1290.124326,7550.100608,-5773.606348,766.095498
1290.124654,7254.018232,-5329.482782,766.095498
1290.124983,7920.203579,-5477.523971,1072.533697
1290.125312,9474.636058,-4811.338623,1455.581446
1290.125641,9622.677246,-5181.441594,2068.457845
1290.125970,10066.800811,-4885.359217,2068.457845
1290.126299,9918.759623,-5995.668130,2681.334243
1290.126628,8364.327145,-7105.977043,2604.724693
1290.126957,6661.853478,-7105.977043,1608.800546
1290.127286,5033.400406,-7328.038826,919.314598
1290.127615,3775.050304,-7994.224174,-383.047749
1290.127944,2442.679609,-8882.471304,-919.314598
1290.128273,2960.823768,-9252.574275,-612.876398
1290.128602,4737.318029,-9030.512492,0.000000
1290.128931,6661.853478,-7846.182985,766.095498
1290.129260,7550.100608,-6217.729913,1378.971896
1290.129589,7476.080014,-5699.585753,1838.629195
1290.129918,7994.224174,-4367.215058,1302.362347
1290.130247,8586.388927,-3997.112087,1378.971896
1290.130576,9474.636058,-4071.132681,1608.800546
1290.130905,10658.965565,-3701.029710,2374.896044
1290.131233,10436.903782,-4441.235652,1991.848295
1290.131562,8808.450710,-5921.647536,2145.067394
1290.131891,7772.162391,-6513.812290,2068.457845
1290.132220,6809.894666,-7550.100608,1302.362347
1290.132549,5033.400406,-8142.265362,536.266849
1290.132878,3404.947333,-8290.306550,-689.485948
1290.133207,2516.700203,-7994.224174,-689.485948
1290.133536,3330.926739,-8364.327145,-995.924147
1290.133865,4589.276840,-8290.306550,0.000000
1290.134194,6587.832884,-7105.977043,766.095498
1290.134523,7402.059420,-6809.894666,1072.533697
1290.134852,7772.162391,-5773.606348,1608.800546
1290.135181,7550.100608,-4885.359217,1532.190996
1290.135510,8364.327145,-4959.379811,2068.457845
1290.135839,9400.615463,-3775.050304,1685.410096
1290.136168,9696.697840,-3775.050304,1685.410096
1290.136497,9474.636058,-4219.173869,1838.629195
1290.136826,8956.491898,-6069.688724,2221.676944
1290.137155,8734.430116,-7402.059420,2221.676944
1290.137484,7105.977043,-7698.141797,2374.896044
1290.137812,5551.544565,-7624.121203,995.924147
1290.138141,4441.235652,-7920.203579,-306.438199
1290.138470,3182.885551,-8438.347739,-459.657299
1290.138799,3552.988522,-9326.594869,-1378.971896
1290.139128,4737.318029,-8734.430116,-689.485948
1290.139457,6513.812290,-7179.997637,76.609550
1290.139786,7402.059420,-6957.935855,919.314598
1290.140115,7920.203579,-5921.647536,1838.629195
1290.140444,8660.409521,-4737.318029,1838.629195
1290.140773,9104.533087,-4293.194464,1915.238745
1290.141102,9252.574275,-3552.988522,1685.410096
1290.141431,9548.656652,-3256.906145,1455.581446
1290.141760,9548.656652,-3997.112087,1762.019645
1290.142089,9400.615463,-6069.688724,2528.115143
1290.142418,8808.450710,-6587.832884,2681.334243
1290.142747,7624.121203,-7254.018232,2374.896044
1290.143076,5921.647536,-7031.956449,1302.362347
1290.143405,3701.029710,-8290.306550,76.609550
1290.143734,2146.597232,-8364.327145,-995.924147
1290.144063,2368.659014,-9400.615463,-919.314598
1290.144391,4441.235652,-9252.574275,0.000000
1290.144720,6217.729913,-7846.182985,919.314598
1290.145049,7476.080014,-6661.853478,1302.362347
1290.145378,7550.100608,-5403.503377,1149.143247
1290.145707,7550.100608,-5403.503377,1302.362347
1290.146036,8290.306550,-5477.523971,1225.752797
1290.146365,9252.574275,-4219.173869,2145.067394
1290.146694,9696.697840,-3775.050304,1608.800546
1290.147023,9918.759623,-4219.173869,1685.410096
1290.147352,9178.553681,-6069.688724,2221.676944
1290.147681,8808.450710,-7476.080014,2528.115143
1290.148010,7846.182985,-7550.100608,2145.067394
1290.148339,5921.647536,-7254.018232,1072.533697
1290.148668,3552.988522,-7920.203579,-306.438199
1290.148997,2220.617826,-9400.615463,-1149.143247
1290.149326,2368.659014,-9474.636058,-1302.362347
1290.149655,3775.050304,-9770.718434,-842.705048
1290.149984,5329.482782,-7994.224174,229.828649
1290.150313,6661.853478,-7402.059420,1225.752797
1290.150641,7179.997637,-6217.729913,1225.752797
1290.150970,7846.182985,-5625.565159,1608.800546
1290.151299,8438.347739,-4885.359217,1762.019645
1290.151628,9844.739029,-4219.173869,1608.800546
1290.151957,10658.965565,-3034.844362,1991.848295
1290.152286,10584.944971,-3775.050304,2221.676944
1290.152615,10288.862594,-4811.338623,2145.067394
1290.152944,9326.594869,-5847.626942,2221.676944
1290.153273,7105.977043,-6883.915261,1378.971896
1290.153602,5773.606348,-7179.997637,995.924147
1290.153931,4737.318029,-7328.038826,-689.485948
1290.154260,3404.947333,-8216.285956,-842.705048
1290.154589,3108.864956,-8512.368333,-766.095498
1290.154918,4515.256246,-8364.327145,0.000000
1290.155247,6217.729913,-7254.018232,459.657299
1290.155576,7624.121203,-5921.647536,1532.190996
1290.155905,7624.121203,-5329.482782,1302.362347
1290.156234,7402.059420,-5625.565159,1072.533697
1290.156563,7772.162391,-5477.523971,1608.800546
1290.156892,9400.615463,-4737.318029,1915.238745
1290.157220,9992.780217,-4293.194464,1608.800546
1290.157549,9696.697840,-4663.297435,2068.457845
1290.157878,8956.491898,-6439.791695,2451.505594
1290.158207,7920.203579,-7550.100608,2298.286494
1290.158536,6069.688724,-7550.100608,2221.676944
1290.158865,4737.318029,-7772.162391,612.876398
1290.159194,3330.926739,-8290.306550,-689.485948
1290.159523,2442.679609,-9326.594869,-1225.752797
1290.159852,2886.803174,-9696.697840,-995.924147
1290.160181,4589.276840,-9252.574275,0.000000
1290.160510,6513.812290,-8142.265362,306.438199
1290.160839,7254.018232,-6513.812290,919.314598
1290.161168,7624.121203,-5403.503377,1225.752797
1290.161497,8068.244768,-4663.297435,1225.752797
1290.161826,8734.430116,-4737.318029,1838.629195
1290.162155,9474.636058,-3923.091493,2145.067394
1290.162484,10955.047942,-2812.782580,2145.067394
1290.162813,11177.109724,-2960.823768,2374.896044
1290.163142,10955.047942,-4441.235652,3140.991542
1290.163471,8290.306550,-6587.832884,2451.505594
1290.163799,6735.874072,-6809.894666,1762.019645
1290.164128,4959.379811,-7402.059420,536.266849
1290.164457,3552.988522,-7254.018232,-76.609550
1290.164786,2812.782580,-8216.285956,-612.876398
1290.165115,3330.926739,-9548.656652,-689.485948
1290.165444,4663.297435,-8882.471304,-383.047749
1290.165773,6143.709319,-7994.224174,995.924147
1290.166101,7994.224174,-6069.688724,1302.362347
1290.166430,7994.224174,-5033.400406,1378.971896
1290.166759,7846.182985,-5329.482782,1225.752797
1290.167088,8290.306550,-5181.441594,1608.800546
1290.167417,9548.656652,-4071.132681,1685.410096
1290.167746,10362.883188,-3849.070898,1762.019645
1290.168075,10066.800811,-4367.215058,1991.848295
1290.168404,9178.553681,-5699.585753,2221.676944
1290.168733,8142.265362,-6957.935855,1685.410096
1290.169062,6735.874072,-7920.203579,1838.629195
1290.169391,5625.565159,-7698.141797,1685.410096
1290.169720,4293.194464,-8068.244768,0.000000
1290.170049,2442.679609,-9104.533087,-842.705048
1290.170378,2368.659014,-9178.553681,-1378.971896
1290.170707,3478.967927,-9918.759623,-459.657299
1290.171036,5033.400406,-9178.553681,383.047749
1290.171365,6439.791695,-7550.100608,1225.752797
1290.171694,7402.059420,-6291.750507,1455.581446
1290.172023,8142.265362,-5551.544565,2451.505594
1290.172352,8882.471304,-4515.256246,2681.334243
1290.172681,10140.821405,-3330.926739,2374.896044
1290.173010,10807.006753,-2146.597232,1685.410096
1290.173339,10658.965565,-2738.761985,1378.971896
1290.173667,9474.636058,-5699.585753,2221.676944
1290.173996,7920.203579,-6809.894666,1838.629195
1290.174325,6809.894666,-8290.306550,1302.362347
1290.174654,5181.441594,-8216.285956,612.876398
1290.174983,3478.967927,-8512.368333,-229.828649
1290.175312,2368.659014,-9252.574275,-995.924147
1290.175641,3478.967927,-8808.450710,-919.314598
1290.175970,5033.400406,-9178.553681,0.000000
1290.176299,6217.729913,-7179.997637,842.705048
1290.176628,6735.874072,-6587.832884,1378.971896
1290.176957,7550.100608,-5625.565159,1685.410096
1290.177286,7920.203579,-4811.338623,1762.019645
1290.177615,8290.306550,-4959.379811,2221.676944
1290.177944,9622.677246,-3627.009116,2221.676944
1290.178273,10066.800811,-3701.029710,2145.067394
1290.178602,10066.800811,-3701.029710,2451.505594
1290.178931,8660.409521,-5255.462188,1838.629195
1290.179260,7994.224174,-6587.832884,1915.238745
1290.179589,7105.977043,-7772.162391,1685.410096
1290.179918,5403.503377,-8364.327145,1225.752797
1290.180247,3775.050304,-8956.491898,-229.828649
1290.180576,2960.823768,-9474.636058,-1225.752797
1290.180905,3034.844362,-9548.656652,-995.924147
1290.181233,4589.276840,-9030.512492,229.828649
1290.181562,5847.626942,-8290.306550,536.266849
1290.181891,7179.997637,-6513.812290,1225.752797
1290.182220,7846.182985,-5773.606348,1225.752797
1290.182549,7994.224174,-4811.338623,1608.800546
1290.182878,9326.594869,-4589.276840,2068.457845
1290.183207,10436.903782,-2960.823768,1838.629195
1290.183536,10881.027347,-2886.803174,1915.238745
1290.183865,10955.047942,-4145.153275,2298.286494
1290.184194,10436.903782,-5255.462188,2374.896044
1290.184523,8956.491898,-6957.935855,2145.067394
1290.184852,6957.935855,-7402.059420,919.314598
1290.185181,5255.462188,-7772.162391,0.000000
1290.185510,3478.967927,-8586.388927,-536.266849
1290.185839,2960.823768,-9326.594869,-766.095498
1290.186168,2812.782580,-9474.636058,-919.314598
1290.186497,3997.112087,-8586.388927,0.000000
1290.186826,5477.523971,-7476.080014,229.828649
1290.187155,7105.977043,-6291.750507,766.095498
1290.187484,7624.121203,-5107.421000,1685.410096
1290.187813,8364.327145,-5181.441594,1455.581446
1290.188142,8956.491898,-4663.297435,2068.457845
1290.188471,9696.697840,-3849.070898,2068.457845
1290.188799,10436.903782,-3701.029710,2068.457845
1290.189128,10510.924376,-4219.173869,2374.896044
1290.189457,9622.677246,-5921.647536,2451.505594
1290.189786,8734.430116,-7179.997637,2145.067394
1290.190115,7105.977043,-7402.059420,1915.238745
1290.190444,5181.441594,-7328.038826,612.876398
1290.190773,3330.926739,-8216.285956,-383.047749
1290.191102,2072.576638,-9474.636058,-1378.971896
1290.191431,1998.556043,-10214.842000,-1225.752797
1290.191760,3478.967927,-9548.656652,-459.657299
1290.192089,5403.503377,-8660.409521,229.828649
1290.192418,6883.915261,-7105.977043,1532.190996
1290.192747,7994.224174,-5477.523971,1378.971896
1290.193076,8882.471304,-5107.421000,1991.848295
1290.193405,10584.944971,-4811.338623,2834.553343
1290.193734,10732.986159,-3330.926739,2604.724693
1290.194063,10066.800811,-2960.823768,2068.457845
1290.194392,9474.636058,-3404.947333,1608.800546
1290.194721,8808.450710,-5033.400406,2451.505594
1290.195050,8068.244768,-6735.874072,1762.019645
1290.195379,6217.729913,-8068.244768,1838.629195
1290.195708,5033.400406,-7105.977043,229.828649
1290.196037,3849.070898,-8142.265362,-689.485948
1290.196365,2294.638420,-8882.471304,-1149.143247
1290.196694,3256.906145,-9178.553681,-536.266849
1290.197023,5329.482782,-8808.450710,459.657299
1290.197352,7105.977043,-6957.935855,1225.752797
1290.197681,7624.121203,-5699.585753,689.485948
1290.198010,8216.285956,-4737.318029,1685.410096
1290.198339,8290.306550,-4737.318029,1532.190996
1290.198668,8956.491898,-4959.379811,1915.238745
1290.198997,9548.656652,-3330.926739,2298.286494
1290.199326,10807.006753,-2812.782580,2068.457845
1290.199655,10066.800811,-3627.009116,2068.457845
1290.199984,8956.491898,-5847.626942,2145.067394
1290.200313,7772.162391,-7402.059420,2145.067394
1290.200642,6439.791695,-8216.285956,1532.190996
1290.200971,5329.482782,-8512.368333,1378.971896
1290.201300,3552.988522,-9030.512492,-306.438199
1290.201629,2220.617826,-10140.821405,-1225.752797
1290.201958,2442.679609,-9844.739029,-995.924147
1290.202287,4589.276840,-9918.759623,-536.266849
1290.202616,6217.729913,-7994.224174,842.705048
1290.202945,7105.977043,-6365.771101,1149.143247
1290.203274,7994.224174,-5551.544565,1302.362347
1290.203603,8438.347739,-4737.318029,1378.971896
1290.203931,9104.533087,-5107.421000,1149.143247
1290.204260,9992.780217,-3627.009116,1838.629195
1290.204589,10510.924376,-3256.906145,1838.629195
1290.204918,10362.883188,-4515.256246,2068.457845
1290.205247,9326.594869,-5551.544565,2145.067394
1290.205576,7550.100608,-7846.182985,1991.848295
1290.205905,5921.647536,-8068.244768,1225.752797
1290.206234,4811.338623,-8290.306550,229.828649
1290.206563,3330.926739,-8734.430116,-612.876398
1290.206892,2368.659014,-8586.388927,-766.095498
1290.207221,2368.659014,-9178.553681,-995.924147
1290.207550,4367.215058,-8290.306550,383.047749
1290.207879,6439.791695,-7254.018232,995.924147
1290.208208,8438.347739,-5181.441594,1915.238745
1290.208537,8438.347739,-4145.153275,1838.629195
1290.208866,8438.347739,-3923.091493,1302.362347
1290.209195,8660.409521,-4293.194464,1915.238745
1290.209524,9992.780217,-3627.009116,1838.629195
1290.209853,10658.965565,-3701.029710,1608.800546
1290.210182,10066.800811,-4219.173869,1991.848295
1290.210511,9400.615463,-6217.729913,2068.457845
1290.210840,7994.224174,-7328.038826,1991.848295
1290.211169,6661.853478,-8512.368333,1455.581446
1290.211497,5477.523971,-8586.388927,689.485948
1290.211826,3701.029710,-9104.533087,-229.828649
1290.212155,2368.659014,-8882.471304,-1072.533697
1290.212484,2664.741391,-9622.677246,-1302.362347
1290.212813,4145.153275,-9400.615463,76.609550
1290.213142,6217.729913,-7846.182985,459.657299
1290.213471,7550.100608,-5995.668130,995.924147
1290.213800,8142.265362,-4589.276840,1225.752797
1290.214129,8586.388927,-4219.173869,1608.800546
1290.214458,10140.821405,-4219.173869,2068.457845
1290.214787,10881.027347,-3256.906145,2298.286494
1290.215116,10732.986159,-3108.864956,1915.238745
1290.215445,10288.862594,-3997.112087,1991.848295
1290.215774,9252.574275,-5551.544565,1915.238745
1290.216103,7698.141797,-7698.141797,1608.800546
1290.216432,6143.709319,-8290.306550,1762.019645
1290.216761,4737.318029,-8512.368333,612.876398
1290.217090,3552.988522,-9030.512492,-383.047749
1290.217419,3108.864956,-9104.533087,-612.876398
1290.217748,3404.947333,-8586.388927,-842.705048
1290.218077,5329.482782,-7994.224174,0.000000
1290.218406,6883.915261,-7105.977043,919.314598
1290.218735,7846.182985,-5699.585753,1072.533697
1290.219063,8512.368333,-4367.215058,1608.800546
1290.219392,8364.327145,-4293.194464,1455.581446
1290.219721,9400.615463,-4293.194464,1685.410096
1290.220050,9992.780217,-3849.070898,1685.410096
1290.220379,10288.862594,-4293.194464,2145.067394
1290.220708,10140.821405,-5107.421000,2298.286494
1290.221037,8512.368333,-6439.791695,1915.238745
1290.221366,7031.956449,-8216.285956,1532.190996
1290.221695,5625.565159,-9030.512492,1225.752797
1290.222024,4589.276840,-8660.409521,995.924147
1290.222353,3775.050304,-9104.533087,-306.438199
1290.222682,2590.720797,-9252.574275,-536.266849
1290.223011,3404.947333,-9696.697840,-459.657299
1290.223340,3775.050304,-9104.533087,-766.095498
1290.223669,5995.668130,-7772.162391,766.095498
1290.223998,7105.977043,-6365.771101,842.705048
1290.224327,7698.141797,-5255.462188,1072.533697
1290.224656,8438.347739,-4219.173869,1302.362347
1290.224985,9844.739029,-4145.153275,2068.457845
1290.225314,10955.047942,-3997.112087,2911.162892
1290.225643,10584.944971,-3256.906145,2374.896044
1290.225972,9474.636058,-4515.256246,1532.190996
1290.226301,8364.327145,-5477.523971,1991.848295
1290.226629,7550.100608,-7624.121203,1455.581446
1290.226958,6217.729913,-8068.244768,1762.019645
1290.227287,4589.276840,-8068.244768,0.000000
1290.227616,3404.947333,-9030.512492,-459.657299
1290.227945,2516.700203,-9252.574275,-612.876398
1290.228274,3552.988522,-8808.450710,-919.314598
1290.228603,5107.421000,-7920.203579,229.828649
1290.228932,6809.894666,-7031.956449,1455.581446
1290.229261,7772.162391,-5477.523971,1532.190996
1290.229590,8438.347739,-4219.173869,1991.848295
1290.229919,8808.450710,-3478.967927,2451.505594
1290.230248,9474.636058,-3034.844362,1915.238745
1290.230577,9474.636058,-3775.050304,1532.190996
1290.230906,8512.368333,-4737.318029,1915.238745
1290.231235,8290.306550,-5403.503377,842.705048
1290.231564,7698.141797,-7105.977043,1225.752797
1290.231893,6957.935855,-8438.347739,2145.067394
1290.232222,6291.750507,-9252.574275,1608.800546
1290.232551,5255.462188,-8734.430116,995.924147
1290.232880,3997.112087,-9030.512492,0.000000
1290.233209,2960.823768,-9474.636058,-842.705048
1290.233538,3552.988522,-8512.368333,-995.924147
1290.233867,4441.235652,-8438.347739,-842.705048
1290.234196,5773.606348,-7920.203579,459.657299
1290.234524,7179.997637,-6957.935855,1302.362347
1290.234853,8216.285956,-5699.585753,2145.067394
1290.235182,8734.430116,-4737.318029,1991.848295
1290.235511,9844.739029,-3404.947333,2298.286494
1290.235840,10066.800811,-3034.844362,1685.410096
1290.236169,10066.800811,-3552.988522,1685.410096
1290.236498,9696.697840,-4515.256246,1991.848295
1290.236827,8956.491898,-6291.750507,2068.457845
1290.237156,7624.121203,-7105.977043,2451.505594
1290.237485,6217.729913,-8068.244768,1991.848295
1290.237814,4663.297435,-8956.491898,459.657299
1290.238143,3256.906145,-9030.512492,153.219100
1290.238472,3182.885551,-8364.327145,-1225.752797
1290.238801,3627.009116,-7402.059420,-766.095498
1290.239130,5403.503377,-6883.915261,0.000000
1290.239459,6883.915261,-6513.812290,536.266849
1290.239788,8068.244768,-5477.523971,1302.362347
1290.240117,8290.306550,-5033.400406,1991.848295
1290.240446,8512.368333,-4737.318029,1455.581446
1290.240775,9104.533087,-4737.318029,2298.286494
1290.241104,9844.739029,-4515.256246,2068.457845
1290.241433,9696.697840,-4145.153275,1225.752797
1290.241762,8734.430116,-4885.359217,2145.067394
1290.242090,8734.430116,-5847.626942,2068.457845
1290.242419,8068.244768,-7031.956449,2298.286494
1290.242748,7550.100608,-6809.894666,1991.848295
1290.243077,5921.647536,-7402.059420,383.047749
1290.243406,3997.112087,-8364.327145,76.609550
1290.243735,3034.844362,-8586.388927,-612.876398
1290.244064,3256.906145,-9326.594869,-919.314598
1290.244393,4589.276840,-8734.430116,-153.219100
1290.244722,6143.709319,-7772.162391,612.876398
1290.245051,7328.038826,-7624.121203,919.314598
1290.245380,7328.038826,-6217.729913,1302.362347
1290.245709,7772.162391,-6069.688724,1149.143247
1290.246038,8882.471304,-4737.318029,1455.581446
1290.246367,9770.718434,-4367.215058,2068.457845
1290.246696,9844.739029,-4737.318029,1608.800546
1290.247025,9548.656652,-4589.276840,1302.362347
1290.247354,8512.368333,-6365.771101,1915.238745
1290.247683,7920.203579,-7476.080014,1838.629195
1290.248012,6661.853478,-7550.100608,1302.362347
1290.248341,5255.462188,-7698.141797,536.266849
1290.248670,4367.215058,-8438.347739,-383.047749
1290.248999,3404.947333,-8882.471304,-383.047749
1290.249328,4441.235652,-9104.533087,-76.609550
1290.249656,5699.585753,-8216.285956,383.047749
1290.249985,6809.894666,-6069.688724,842.705048
1290.250314,7476.080014,-5033.400406,459.657299
1290.250643,8142.265362,-4515.256246,1225.752797
1290.250972,8290.306550,-5181.441594,2298.286494
1290.251301,8512.368333,-5255.462188,612.876398
1290.251630,8956.491898,-3552.988522,1302.362347
1290.251959,9252.574275,-3849.070898,1838.629195
1290.252288,9326.594869,-5403.503377,2451.505594
1290.252617,8364.327145,-6513.812290,2221.676944
1290.252946,7328.038826,-7476.080014,2145.067394
1290.253275,6661.853478,-7476.080014,1915.238745
1290.253604,5625.565159,-7254.018232,1072.533697
1290.253933,4737.318029,-8290.306550,0.000000
1290.254262,3923.091493,-9178.553681,-383.047749
1290.254591,3627.009116,-9030.512492,-612.876398
1290.254920,4367.215058,-8734.430116,-306.438199
1290.255249,5995.668130,-7031.956449,383.047749
1290.255578,7402.059420,-6069.688724,995.924147
1290.255907,7846.182985,-5699.585753,1072.533697
1290.256236,7772.162391,-4663.297435,1302.362347
1290.256565,8512.368333,-4811.338623,1378.971896
1290.256894,9474.636058,-4219.173869,1762.019645
1290.257222,9178.553681,-3775.050304,1608.800546
1290.257551,8882.471304,-5255.462188,1455.581446
1290.257880,8216.285956,-6513.812290,2145.067394
1290.258209,7031.956449,-8290.306550,2068.457845
1290.258538,6439.791695,-8216.285956,1762.019645
1290.258867,5477.523971,-7698.141797,689.485948
1290.259196,4367.215058,-7846.182985,-153.219100
1290.259525,3552.988522,-8364.327145,-766.095498
1290.259854,4589.276840,-9104.533087,-536.266849
1290.260183,5329.482782,-8068.244768,76.609550
1290.260512,6513.812290,-7550.100608,459.657299
1290.260841,7328.038826,-4737.318029,842.705048
1290.261170,7402.059420,-5255.462188,1532.190996
1290.261499,8364.327145,-5921.647536,1455.581446
1290.261828,8364.327145,-4293.194464,1608.800546
1290.262157,9104.533087,-4737.318029,1685.410096
1290.262486,9252.574275,-4145.153275,1455.581446
1290.262815,8808.450710,-4663.297435,2298.286494
1290.263144,7920.203579,-6587.832884,2298.286494
1290.263473,7772.162391,-6809.894666,2145.067394
1290.263802,7179.997637,-7476.080014,2221.676944
1290.264131,6661.853478,-7254.018232,1991.848295
1290.264460,5033.400406,-7476.080014,536.266849
1290.264788,3849.070898,-8364.327145,-153.219100
1290.265117,3552.988522,-8512.368333,-766.095498
1290.265446,4441.235652,-8808.450710,229.828649
1290.265775,5699.585753,-7772.162391,842.705048
1290.266104,6365.771101,-7254.018232,919.314598
1290.266434,7105.977043,-6291.750507,1455.581446
1290.266763,7476.080014,-5181.441594,1302.362347
1290.267092,8290.306550,-4959.379811,1685.410096
1290.267421,9474.636058,-4441.235652,1762.019645
1290.267750,10288.862594,-3923.091493,1685.410096
1290.268079,9696.697840,-3923.091493,2221.676944
1290.268408,8882.471304,-5921.647536,2298.286494
1290.268737,8068.244768,-7254.018232,1915.238745
1290.269067,7328.038826,-8512.368333,1685.410096
1290.269396,5551.544565,-8068.244768,536.266849
1290.269725,3997.112087,-8364.327145,0.000000
1290.270054,3404.947333,-8364.327145,-919.314598
1290.270383,3404.947333,-8438.347739,-536.266849
1290.270712,5033.400406,-8068.244768,0.000000
1290.271041,6587.832884,-6735.874072,459.657299
1290.271370,7846.182985,-5551.544565,1149.143247
1290.271699,8142.265362,-4959.379811,1685.410096
1290.272029,8364.327145,-4441.235652,1378.971896
1290.272358,8660.409521,-4219.173869,1455.581446
1290.272687,9326.594869,-3775.050304,1532.190996
1290.273016,9918.759623,-3997.112087,1915.238745
1290.273345,10066.800811,-4737.318029,2528.115143
1290.273674,9474.636058,-5477.523971,2451.505594
1290.274003,7994.224174,-8068.244768,1838.629195
1290.274332,6439.791695,-6735.874072,1149.143247
1290.274662,5033.400406,-8068.244768,612.876398
1290.274991,3997.112087,-9992.780217,-383.047749
1290.275320,3182.885551,-8882.471304,-536.266849
1290.275649,3701.029710,-8882.471304,-689.485948
1290.275978,5107.421000,-8808.450710,-153.219100
1290.276307,6069.688724,-8660.409521,612.876398
1290.276636,6513.812290,-7624.121203,919.314598
1290.276965,7031.956449,-5403.503377,612.876398
1290.277295,7624.121203,-4811.338623,1072.533697
1290.277624,9252.574275,-4367.215058,1455.581446
1290.277953,10584.944971,-3627.009116,1378.971896
1290.278282,10955.047942,-3478.967927,2528.115143
1290.278611,10658.965565,-3627.009116,2221.676944
1290.278940,9474.636058,-5329.482782,2221.676944
1290.279269,7772.162391,-6957.935855,2681.334243
1290.279598,6439.791695,-8512.368333,1455.581446
1290.279927,4737.318029,-8068.244768,612.876398
1290.280257,3034.844362,-8142.265362,-612.876398
1290.280586,2590.720797,-8956.491898,-995.924147
1290.280915,3701.029710,-8660.409521,0.000000
1290.281244,5329.482782,-8734.430116,0.000000
1290.281573,5995.668130,-7328.038826,459.657299
1290.281902,7031.956449,-6439.791695,1149.143247
1290.282231,7105.977043,-6069.688724,689.485948
1290.282560,7402.059420,-5847.626942,1991.848295
1290.282890,8216.285956,-4737.318029,1838.629195
1290.283219,9918.759623,-3849.070898,1762.019645
1290.283548,10732.986159,-3182.885551,2374.896044
1290.283877,10658.965565,-5107.421000,2604.724693
1290.284206,9474.636058,-6217.729913,2451.505594
1290.284535,8068.244768,-7031.956449,2221.676944
1290.284864,5921.647536,-7105.977043,842.705048
1290.285193,4071.132681,-8068.244768,0.000000
1290.285522,3256.906145,-8586.388927,0.000000
1290.285852,2960.823768,-9252.574275,-536.266849
1290.286181,3182.885551,-9548.656652,-612.876398
1290.286510,4515.256246,-9326.594869,0.000000
1290.286839,5995.668130,-8290.306550,536.266849
1290.287168,6809.894666,-7105.977043,1302.362347
1290.287497,7031.956449,-6217.729913,1072.533697
1290.287826,7846.182985,-5403.503377,1302.362347
1290.288155,9400.615463,-4515.256246,2374.896044
1290.288485,10584.944971,-3108.864956,2298.286494
1290.288814,10510.924376,-2886.803174,2298.286494
1290.289143,10214.842000,-3478.967927,2451.505594
1290.289472,9326.594869,-6217.729913,2451.505594
1290.289801,7994.224174,-7476.080014,2681.334243
1290.290130,6365.771101,-7328.038826,1608.800546
1290.290459,4737.318029,-7698.141797,0.000000
1290.290788,3330.926739,-8290.306550,-995.924147
1290.291118,3182.885551,-9252.574275,-1149.143247
1290.291447,4293.194464,-9474.636058,-459.657299
1290.291776,5699.585753,-8068.244768,0.000000
1290.292105,6735.874072,-7105.977043,383.047749
1290.292434,7031.956449,-5847.626942,919.314598
1290.292763,7476.080014,-5699.585753,1532.190996
1290.293092,8216.285956,-5329.482782,2298.286494
1290.293421,8808.450710,-4219.173869,2451.505594
1290.293750,9400.615463,-3330.926739,1991.848295
1290.294080,9844.739029,-2960.823768,1838.629195
1290.294409,9844.739029,-4071.132681,2374.896044
1290.294738,8586.388927,-5921.647536,2451.505594
1290.295067,8068.244768,-7402.059420,2221.676944
1290.295396,6587.832884,-7328.038826,1455.581446
1290.295725,4811.338623,-7846.182985,306.438199
1290.296054,3182.885551,-9178.553681,-459.657299
1290.296383,2220.617826,-9622.677246,-1532.190996
1290.296713,2664.741391,-10288.862594,-1378.971896
1290.297042,4663.297435,-9400.615463,0.000000
1290.297371,6513.812290,-7254.018232,536.266849
1290.297700,7846.182985,-6143.709319,1302.362347
1290.298029,8586.388927,-5181.441594,1915.238745
1290.298358,8734.430116,-4367.215058,1685.410096
1290.298687,9178.553681,-3923.091493,1915.238745
1290.299016,10584.944971,-2812.782580,2298.286494
1290.299345,11177.109724,-3108.864956,2451.505594
1290.299675,10881.027347,-4145.153275,2145.067394
1290.300004,9474.636058,-5847.626942,2145.067394
1290.300333,7846.182985,-7624.121203,1991.848295
1290.300662,6069.688724,-7920.203579,1225.752797
1290.300991,4071.132681,-8364.327145,0.000000
1290.301320,2738.761985,-8808.450710,-1608.800546
1290.301649,2294.638420,-9474.636058,-1149.143247
1290.301978,3182.885551,-9770.718434,-612.876398
1290.302308,5181.441594,-8438.347739,229.828649
1290.302637,6587.832884,-6661.853478,919.314598
1290.302966,7772.162391,-5847.626942,1455.581446
1290.303295,8216.285956,-4811.338623,1685.410096
1290.303624,8882.471304,-4737.318029,2298.286494
1290.303953,9548.656652,-4959.379811,1838.629195
1290.304282,9918.759623,-3627.009116,1532.190996
1290.304611,9770.718434,-3701.029710,1915.238745
1290.304941,10510.924376,-5255.462188,2068.457845
1290.305270,9548.656652,-6809.894666,2528.115143
1290.305599,7328.038826,-7846.182985,1915.238745
1290.305928,5699.585753,-7624.121203,919.314598
1290.306257,3997.112087,-7624.121203,-612.876398
1290.306586,2664.741391,-8956.491898,-1149.143247
1290.306915,1850.514855,-9104.533087,-689.485948
1290.307244,2886.803174,-9474.636058,-536.266849
1290.307573,4737.318029,-8882.471304,76.609550
1290.307903,6217.729913,-7698.141797,1149.143247
1290.308232,7328.038826,-6143.709319,1608.800546
1290.308561,7846.182985,-5403.503377,1302.362347
1290.308890,8660.409521,-4663.297435,1915.238745
1290.309219,10066.800811,-3701.029710,2528.115143
1290.309548,11177.109724,-2664.741391,3370.820191
1290.309877,11399.171507,-2590.720797,3064.381992
1290.310206,10732.986159,-3775.050304,2528.115143
1290.310536,9030.512492,-5255.462188,2145.067394
1290.310865,6883.915261,-7105.977043,1762.019645
1290.311194,5699.585753,-7846.182985,842.705048
1290.311523,4145.153275,-8956.491898,0.000000
1290.311852,2368.659014,-8882.471304,-1072.533697
1290.312181,2146.597232,-9474.636058,-1302.362347
1290.312510,3701.029710,-9992.780217,-459.657299
1290.312839,4811.338623,-9030.512492,229.828649
1290.313168,6661.853478,-8290.306550,995.924147
1290.313498,7624.121203,-6143.709319,1225.752797
1290.313827,7328.038826,-5625.565159,1149.143247
1290.314156,7920.203579,-5255.462188,2145.067394
1290.314485,9252.574275,-4663.297435,1991.848295
1290.314814,10288.862594,-3404.947333,2221.676944
1290.315143,10288.862594,-3552.988522,2145.067394
1290.315472,9178.553681,-4515.256246,2145.067394
1290.315801,8290.306550,-5255.462188,1838.629195
1290.316131,7031.956449,-7105.977043,1685.410096
1290.316460,5773.606348,-7994.224174,1762.019645
1290.316789,4737.318029,-8364.327145,689.485948
1290.317118,3701.029710,-9178.553681,-383.047749
1290.317447,2294.638420,-9178.553681,-995.924147
1290.317776,2886.803174,-9474.636058,-1225.752797
1290.318105,4589.276840,-8956.491898,383.047749
1290.318434,6735.874072,-8068.244768,919.314598
1290.318764,8512.368333,-6365.771101,1608.800546
1290.319093,8068.244768,-4589.276840,1762.019645
1290.319422,8734.430116,-3701.029710,1378.971896
1290.319751,9918.759623,-2960.823768,1838.629195
1290.320080,10584.944971,-2960.823768,2221.676944
1290.320409,11325.150913,-2812.782580,1608.800546
1290.320738,11029.068536,-3404.947333,1915.238745
1290.321067,9400.615463,-5329.482782,2145.067394
1290.321396,7402.059420,-7105.977043,1838.629195
1290.321726,6439.791695,-8512.368333,1378.971896
1290.322055,4959.379811,-8512.368333,0.000000
1290.322384,2664.741391,-9548.656652,-689.485948
1290.322713,2072.576638,-9548.656652,-1149.143247
1290.323042,2960.823768,-9770.718434,-766.095498
1290.323371,4811.338623,-8882.471304,153.219100
1290.323700,6217.729913,-7179.997637,995.924147
1290.324029,7994.224174,-6587.832884,1532.190996
1290.324359,8512.368333,-4663.297435,2221.676944
1290.324688,8660.409521,-4145.153275,1838.629195
1290.325017,9178.553681,-3404.947333,1302.362347
1290.325346,9622.677246,-3034.844362,1072.533697
1290.325675,9918.759623,-4145.153275,1608.800546
1290.326004,10066.800811,-5181.441594,2068.457845
1290.326333,9252.574275,-6217.729913,1838.629195
1290.326662,7105.977043,-7402.059420,1685.410096
1290.326991,6143.709319,-8068.244768,1225.752797
1290.327321,4737.318029,-9252.574275,766.095498
1290.327650,3404.947333,-9696.697840,-536.266849
1290.327979,2738.761985,-9178.553681,-995.924147
1290.328308,3330.926739,-8438.347739,-1149.143247
1290.328637,4441.235652,-8586.388927,0.000000
1290.328966,5847.626942,-7402.059420,612.876398
1290.329295,7254.018232,-5773.606348,1225.752797
1290.329624,8290.306550,-4737.318029,1608.800546
1290.329954,9104.533087,-3330.926739,1685.410096
1290.330283,10214.842000,-3256.906145,2374.896044
1290.330612,10881.027347,-2960.823768,2374.896044
1290.330941,10066.800811,-3034.844362,2528.115143
1290.331270,9992.780217,-4219.173869,1838.629195
1290.331599,8956.491898,-5921.647536,2145.067394
1290.331928,7179.997637,-7994.224174,2221.676944
1290.332257,5995.668130,-9030.512492,1762.019645
1290.332587,3775.050304,-9252.574275,0.000000
1290.332916,1998.556043,-9770.718434,-1378.971896
1290.333245,1702.473667,-9844.739029,-1685.410096
1290.333574,3404.947333,-9622.677246,-536.266849
1290.333903,5329.482782,-8586.388927,766.095498
1290.334232,6809.894666,-6809.894666,536.266849
1290.334561,7846.182985,-5477.523971,1072.533697
1290.334890,7994.224174,-5551.544565,1455.581446
1290.335219,8142.265362,-4959.379811,1838.629195
1290.335549,9104.533087,-3849.070898,1838.629195
1290.335878,9326.594869,-3256.906145,1762.019645
1290.336207,9770.718434,-3775.050304,2068.457845
1290.336536,10066.800811,-5033.400406,2528.115143
1290.336865,9474.636058,-6143.709319,2987.772442
1290.337194,7624.121203,-6957.935855,2604.724693
1290.337523,6291.750507,-7550.100608,1455.581446
1290.337852,4441.235652,-8290.306550,306.438199
1290.338182,2960.823768,-9178.553681,-306.438199
1290.338511,2738.761985,-9030.512492,-1225.752797
1290.338840,2960.823768,-9178.553681,-383.047749
1290.339169,4441.235652,-8808.450710,229.828649
1290.339498,6217.729913,-7476.080014,842.705048
1290.339827,7772.162391,-5477.523971,1378.971896
1290.340156,7772.162391,-4515.256246,1762.019645
1290.340485,8216.285956,-4219.173869,1762.019645
1290.340814,9252.574275,-3330.926739,2068.457845
1290.341144,9992.780217,-2960.823768,1685.410096
1290.341473,11029.068536,-3182.885551,2374.896044
1290.341802,10584.944971,-4663.297435,2374.896044
1290.342131,9400.615463,-6513.812290,2145.067394
1290.342460,7772.162391,-7994.224174,1991.848295
1290.342789,6365.771101,-8512.368333,1072.533697
1290.343118,4737.318029,-9030.512492,0.000000
1290.343447,2516.700203,-9326.594869,-1225.752797
1290.343777,2368.659014,-9400.615463,-1302.362347
1290.344106,3034.844362,-9548.656652,-995.924147
1290.344435,4959.379811,-7994.224174,536.266849
1290.344764,5995.668130,-6809.894666,995.924147
1290.345093,7698.141797,-5625.565159,1455.581446
1290.345422,8882.471304,-4737.318029,1915.238745
1290.345751,8808.450710,-4515.256246,2298.286494
1290.346080,9918.759623,-3330.926739,1915.238745
1290.346410,10140.821405,-2812.782580,1838.629195
1290.346739,10140.821405,-3849.070898,1838.629195
1290.347068,9474.636058,-4737.318029,1915.238745
1290.347397,8734.430116,-6513.812290,1685.410096
1290.347726,7254.018232,-8142.265362,1532.190996
1290.348055,5773.606348,-8660.409521,842.705048
1290.348384,4145.153275,-9178.553681,0.000000
1290.348713,2738.761985,-9326.594869,-766.095498
1290.349042,2516.700203,-9474.636058,-919.314598
1290.349372,2886.803174,-9252.574275,-229.828649
1290.349701,4737.318029,-8438.347739,0.000000
1290.350030,6439.791695,-7105.977043,612.876398
1290.350359,7328.038826,-5329.482782,919.314598
1290.350688,8808.450710,-5181.441594,1838.629195
1290.351017,9992.780217,-4145.153275,2145.067394
1290.351346,10807.006753,-3923.091493,2451.505594
1290.351675,11103.089130,-2590.720797,2068.457845
1290.352005,10881.027347,-2886.803174,2528.115143
1290.352334,10214.842000,-4737.318029,2068.457845
1290.352663,8512.368333,-6439.791695,2451.505594
1290.352992,6439.791695,-7994.224174,1762.019645
1290.353321,4885.359217,-7920.203579,306.438199
1290.353650,3552.988522,-8660.409521,-76.609550
1290.353979,2146.597232,-9918.759623,-919.314598
1290.354308,2220.617826,-9252.574275,-842.705048
1290.354637,3775.050304,-8882.471304,-842.705048
1290.354967,5921.647536,-8586.388927,306.438199
1290.355296,7105.977043,-6957.935855,1302.362347
1290.355625,8512.368333,-5995.668130,1762.019645
1290.355954,8956.491898,-5107.421000,1838.629195
1290.356283,9104.533087,-4441.235652,1532.190996
1290.356612,9548.656652,-3849.070898,2298.286494
1290.356941,9992.780217,-3256.906145,2145.067394
1290.357270,9696.697840,-3849.070898,1608.800546
1290.357600,9474.636058,-5255.462188,1991.848295
1290.357929,7846.182985,-6809.894666,2374.896044
1290.358258,6513.812290,-7994.224174,1685.410096
1290.358587,5107.421000,-8660.409521,1378.971896
1290.358916,3552.988522,-8660.409521,459.657299
1290.359245,2220.617826,-9400.615463,-612.876398
1290.359574,2368.659014,-9474.636058,-1072.533697
1290.359903,3923.091493,-9178.553681,-383.047749
1290.360233,5625.565159,-8438.347739,459.657299
1290.360562,7402.059420,-6661.853478,1685.410096
1290.360891,9030.512492,-4811.338623,1685.410096
1290.361220,9400.615463,-4219.173869,1762.019645
1290.361549,9104.533087,-3849.070898,1991.848295
1290.361878,9474.636058,-3478.967927,1991.848295
1290.362207,9770.718434,-3552.988522,1762.019645
1290.362536,9400.615463,-3256.906145,2145.067394
1290.362865,9252.574275,-5107.421000,1838.629195
1290.363195,8364.327145,-6809.894666,2221.676944
1290.363524,6661.853478,-7846.182985,1685.410096
1290.363853,5403.503377,-8364.327145,919.314598
1290.364182,3849.070898,-8512.368333,459.657299
1290.364511,3182.885551,-8808.450710,-766.095498
1290.364840,3330.926739,-8660.409521,-1225.752797
1290.365169,4441.235652,-8808.450710,-459.657299
1290.365498,6513.812290,-8364.327145,1149.143247
1290.365828,8290.306550,-6809.894666,1455.581446
1290.366157,8586.388927,-5107.421000,1608.800546
1290.366486,8364.327145,-4367.215058,1608.800546
1290.366815,8216.285956,-4589.276840,1378.971896
1290.367144,8660.409521,-4219.173869,1378.971896
1290.367473,8882.471304,-4219.173869,1838.629195
1290.367802,9326.594869,-4441.235652,1838.629195
1290.368131,8734.430116,-5477.523971,1991.848295
1290.368460,7328.038826,-7179.997637,1455.581446
1290.368790,6217.729913,-8290.306550,1072.533697
1290.369119,5551.544565,-8808.450710,689.485948
1290.369448,4441.235652,-9104.533087,76.609550
1290.369777,3330.926739,-9030.512492,-383.047749
1290.370106,3849.070898,-9252.574275,-153.219100
1290.370435,4737.318029,-9474.636058,-459.657299
1290.370764,5995.668130,-8586.388927,306.438199
1290.371093,6957.935855,-6513.812290,536.266849
1290.371423,8142.265362,-5107.421000,919.314598
1290.371752,8512.368333,-4219.173869,1455.581446
1290.372081,9030.512492,-3997.112087,1608.800546
1290.372410,9400.615463,-3775.050304,1838.629195
1290.372739,9918.759623,-3404.947333,2068.457845
1290.373068,9770.718434,-3701.029710,2068.457845
1290.373397,9400.615463,-4589.276840,1991.848295
1290.373726,8216.285956,-6069.688724,1838.629195
1290.374056,6661.853478,-7550.100608,1532.190996
1290.374385,5699.585753,-7846.182985,1455.581446
1290.374714,4145.153275,-8068.244768,-306.438199
1290.375043,3404.947333,-9030.512492,-229.828649
1290.375372,3552.988522,-8956.491898,0.000000
1290.375701,4367.215058,-8734.430116,-229.828649
1290.376030,5477.523971,-7772.162391,459.657299
1290.376359,6735.874072,-6957.935855,995.924147
1290.376688,7550.100608,-5255.462188,995.924147
1290.377018,8512.368333,-4441.235652,1455.581446
1290.377347,8216.285956,-4515.256246,1685.410096
1290.377676,9178.553681,-4219.173869,1685.410096
1290.378005,9474.636058,-3701.029710,1455.581446
1290.378334,9400.615463,-4663.297435,1149.143247
1290.378663,9252.574275,-5847.626942,1915.238745
1290.378992,8216.285956,-7254.018232,1838.629195
1290.379321,6809.894666,-7994.224174,1685.410096
1290.379651,5551.544565,-8216.285956,1302.362347
1290.379980,4885.359217,-8364.327145,1455.581446
1290.380309,4071.132681,-8956.491898,306.438199
1290.380638,3330.926739,-8956.491898,-306.438199
1290.380967,3997.112087,-8808.450710,-689.485948
1290.381296,4589.276840,-7846.182985,-383.047749
1290.381625,6439.791695,-6809.894666,612.876398
1290.381954,7328.038826,-5551.544565,995.924147
1290.382283,8216.285956,-4885.359217,1915.238745
1290.382613,9178.553681,-4367.215058,2145.067394
1290.382942,9918.759623,-3997.112087,1915.238745
1290.383271,9770.718434,-4071.132681,1838.629195
1290.383600,9844.739029,-3404.947333,1608.800546
1290.383929,9326.594869,-4737.318029,1378.971896
1290.384258,7994.224174,-6365.771101,2145.067394
1290.384587,7031.956449,-7772.162391,1608.800546
1290.384916,5995.668130,-7772.162391,1072.533697
1290.385246,4367.215058,-7624.121203,459.657299
1290.385575,3627.009116,-8808.450710,-459.657299
1290.385904,3552.988522,-9030.512492,-766.095498
1290.386233,4145.153275,-8734.430116,-459.657299
1290.386562,4959.379811,-7920.203579,-306.438199
1290.386891,6291.750507,-7031.956449,612.876398
1290.387220,7624.121203,-5551.544565,1225.752797
1290.387549,8216.285956,-5329.482782,1532.190996
1290.387879,8512.368333,-4811.338623,1915.238745
1290.388208,8882.471304,-4441.235652,2451.505594
1290.388537,9474.636058,-4589.276840,1915.238745
1290.388866,8956.491898,-4589.276840,1915.238745
1290.389195,8290.306550,-5699.585753,1532.190996
1290.389524,7994.224174,-7179.997637,1685.410096
1290.389853,6883.915261,-7920.203579,2221.676944
1290.390182,5477.523971,-8734.430116,1149.143247
1290.390511,4589.276840,-8660.409521,383.047749
1290.390841,3182.885551,-9178.553681,-459.657299
1290.391170,2664.741391,-10066.800811,-842.705048
1290.391499,3478.967927,-9252.574275,-536.266849
1290.391828,4959.379811,-8438.347739,0.000000
1290.392157,7031.956449,-6957.935855,766.095498
1290.392486,8290.306550,-5551.544565,1608.800546
1290.392815,9030.512492,-4589.276840,1302.362347
1290.393144,9252.574275,-3849.070898,2145.067394
1290.393474,9622.677246,-3478.967927,2374.896044
1290.393803,9992.780217,-2664.741391,1532.190996
1290.394132,9992.780217,-3034.844362,1991.848295
1290.394461,10214.842000,-4145.153275,2145.067394
1290.394790,9104.533087,-5847.626942,2451.505594
1290.395119,7846.182985,-7328.038826,2145.067394
1290.395448,6143.709319,-7698.141797,1149.143247
1290.395777,4441.235652,-8142.265362,-459.657299
1290.396106,2590.720797,-8956.491898,0.000000
1290.396436,2294.638420,-9400.615463,-995.924147
1290.396765,3256.906145,-9178.553681,-612.876398
1290.397094,5255.462188,-7698.141797,306.438199
1290.397423,7105.977043,-7105.977043,1378.971896
1290.397752,8216.285956,-5551.544565,1455.581446
1290.398081,7994.224174,-5107.421000,1838.629195
1290.398410,8512.368333,-5255.462188,1608.800546
1290.398739,8586.388927,-4293.194464,1915.238745
1290.399069,9252.574275,-3701.029710,1302.362347
1290.399398,9844.739029,-4293.194464,1225.752797
1290.399727,9400.615463,-5403.503377,1608.800546
1290.400056,8142.265362,-6957.935855,1762.019645
1290.400385,7254.018232,-7550.100608,2145.067394
1290.400714,6809.894666,-7698.141797,1532.190996
1290.401043,5329.482782,-8364.327145,766.095498
1290.401372,3775.050304,-8586.388927,0.000000
1290.401702,2812.782580,-9178.553681,-383.047749
1290.402031,3997.112087,-9252.574275,-689.485948
1290.402360,4959.379811,-7846.182985,383.047749
1290.402689,6513.812290,-6439.791695,766.095498
1290.403018,8142.265362,-5403.503377,1149.143247
1290.403347,8586.388927,-4737.318029,2221.676944
1290.403676,9400.615463,-4219.173869,2374.896044
1290.404005,9696.697840,-3923.091493,2374.896044
1290.404334,10140.821405,-2960.823768,2298.286494
1290.404664,9474.636058,-3775.050304,1532.190996
1290.404993,8882.471304,-5255.462188,1685.410096
1290.405322,7328.038826,-7179.997637,2374.896044
1290.405651,7105.977043,-8438.347739,2221.676944
1290.405980,5995.668130,-8068.244768,1302.362347
1290.406309,3775.050304,-8364.327145,-153.219100
1290.406638,2886.803174,-8438.347739,-612.876398
1290.406967,2886.803174,-9252.574275,-1072.533697
1290.407297,4071.132681,-9400.615463,-766.095498
1290.407626,5403.503377,-8216.285956,459.657299
1290.407955,7846.182985,-6365.771101,1378.971896
1290.408284,8808.450710,-5255.462188,1532.190996
1290.408613,8660.409521,-5329.482782,1838.629195
1290.408942,8808.450710,-4663.297435,1762.019645
1290.409271,9104.533087,-3627.009116,1302.362347
1290.409600,9622.677246,-3627.009116,1302.362347
1290.409929,9326.594869,-4219.173869,1302.362347
1290.410259,8808.450710,-5403.503377,1762.019645
1290.410588,7550.100608,-7105.977043,1838.629195
1290.410917,6587.832884,-8216.285956,1991.848295
1290.411246,5403.503377,-8216.285956,1762.019645
1290.411575,4589.276840,-8734.430116,842.705048
1290.411904,3478.967927,-9474.636058,-612.876398
1290.412233,2886.803174,-9252.574275,-995.924147
1290.412562,3108.864956,-9030.512492,-689.485948
1290.412892,5181.441594,-8734.430116,-459.657299
1290.413221,6883.915261,-7476.080014,689.485948
1290.413550,8142.265362,-6217.729913,1302.362347
1290.413879,8586.388927,-5477.523971,1762.019645
1290.414208,9622.677246,-4219.173869,1455.581446
1290.414537,9696.697840,-3775.050304,1762.019645
1290.414866,10066.800811,-3627.009116,2221.676944
1290.415195,10140.821405,-3034.844362,1532.190996
1290.415525,9400.615463,-3923.091493,1762.019645
1290.415854,8290.306550,-5699.585753,2068.457845
1290.416183,7105.977043,-7254.018232,2145.067394
1290.416512,6069.688724,-8290.306550,1608.800546
1290.416841,4959.379811,-7698.141797,383.047749
1290.417170,4145.153275,-8364.327145,-536.266849
1290.417499,3256.906145,-8364.327145,-995.924147
1290.417828,3997.112087,-8734.430116,-306.438199
1290.418157,4959.379811,-8068.244768,0.000000
1290.418487,6291.750507,-6957.935855,612.876398
1290.418816,7550.100608,-5847.626942,1838.629195
1290.419145,8142.265362,-5847.626942,1455.581446
1290.419474,8216.285956,-4737.318029,1608.800546
1290.419803,8290.306550,-4737.318029,1302.362347
1290.420132,9178.553681,-4071.132681,2221.676944
1290.420461,9622.677246,-3849.070898,2068.457845
1290.420790,9696.697840,-5033.400406,2221.676944
1290.421120,8734.430116,-6217.729913,2145.067394
1290.421449,7550.100608,-7846.182985,1915.238745
1290.421778,5625.565159,-8290.306550,995.924147
1290.422107,4071.132681,-8808.450710,0.000000
1290.422436,3404.947333,-8882.471304,-766.095498
1290.422765,3552.988522,-8586.388927,-1225.752797
1290.423094,4219.173869,-9030.512492,-306.438199
1290.423423,5255.462188,-8808.450710,306.438199
1290.423753,6513.812290,-7772.162391,766.095498
1290.424082,7105.977043,-6439.791695,842.705048
1290.424411,7328.038826,-5255.462188,1685.410096
1290.424740,8364.327145,-4737.318029,1915.238745
1290.425069,9770.718434,-4071.132681,2451.505594
1290.425398,10288.862594,-3478.967927,2221.676944
1290.425727,10658.965565,-2442.679609,2298.286494
1290.426056,9474.636058,-3701.029710,2681.334243
1290.426385,8660.409521,-5699.585753,2145.067394
1290.426715,7254.018232,-6957.935855,1762.019645
1290.427044,5625.565159,-7698.141797,919.314598
1290.427373,4145.153275,-8808.450710,-536.266849
1290.427702,2738.761985,-8734.430116,-459.657299
1290.428031,2886.803174,-9474.636058,-689.485948
1290.428360,4663.297435,-9400.615463,-229.828649
1290.428689,5699.585753,-8216.285956,383.047749
1290.429018,7105.977043,-7105.977043,995.924147
1290.429348,7698.141797,-6143.709319,1302.362347
1290.429677,7920.203579,-5255.462188,1302.362347
1290.430006,8512.368333,-4515.256246,1225.752797
1290.430335,8956.491898,-3627.009116,1838.629195
1290.430664,9770.718434,-2812.782580,2145.067394
1290.430993,9992.780217,-3997.112087,2298.286494
1290.431322,9770.718434,-4811.338623,2911.162892
1290.431651,8586.388927,-6291.750507,2145.067394
1290.431980,7105.977043,-7328.038826,1762.019645
1290.432310,5995.668130,-8290.306550,1455.581446
1290.432639,4071.132681,-9104.533087,306.438199
1290.432968,3404.947333,-9474.636058,-383.047749
1290.433297,3182.885551,-9252.574275,-536.266849
1290.433626,3997.112087,-9770.718434,-1302.362347
1290.433955,4589.276840,-10066.800811,0.000000
1290.434284,5773.606348,-7920.203579,766.095498
1290.434613,6883.915261,-6957.935855,612.876398
1290.434943,7328.038826,-5181.441594,1302.362347
1290.435272,8438.347739,-4219.173869,2145.067394
1290.435601,10362.883188,-3627.009116,2145.067394
1290.435930,10881.027347,-2738.761985,2374.896044
1290.436259,10140.821405,-3182.885551,1532.190996
1290.436588,9474.636058,-4071.132681,2451.505594
1290.436917,8512.368333,-5329.482782,2068.457845
1290.437246,7772.162391,-7550.100608,1762.019645
1290.437576,6143.709319,-7698.141797,1378.971896
1290.437905,4515.256246,-8364.327145,0.000000
1290.438234,3478.967927,-8512.368333,-536.266849
1290.438563,3330.926739,-8956.491898,-689.485948
1290.438892,4145.153275,-8882.471304,0.000000
1290.439221,5329.482782,-7328.038826,76.609550
1290.439550,7105.977043,-6291.750507,1378.971896
1290.439879,7846.182985,-4811.338623,1532.190996
1290.440208,8216.285956,-4441.235652,1915.238745
1290.440538,8586.388927,-4737.318029,2221.676944
1290.440867,9474.636058,-3404.947333,1838.629195
1290.441196,9770.718434,-3478.967927,1302.362347
1290.441525,9474.636058,-3997.112087,2068.457845
1290.441854,9400.615463,-5773.606348,1762.019645
1290.442183,7846.182985,-7179.997637,2068.457845
1290.442512,6439.791695,-7846.182985,1302.362347
1290.442841,5847.626942,-8586.388927,612.876398
1290.443171,4441.235652,-8882.471304,0.000000
1290.443500,2664.741391,-10288.862594,-1225.752797
1290.443829,2368.659014,-10288.862594,-1378.971896
1290.444158,3701.029710,-9548.656652,-612.876398
1290.444487,5329.482782,-8734.430116,76.609550
1290.444816,6661.853478,-7328.038826,919.314598
1290.445145,7328.038826,-6365.771101,1455.581446
1290.445474,8290.306550,-5255.462188,1302.362347
1290.445803,8882.471304,-3552.988522,2298.286494
1290.446133,9770.718434,-3256.906145,2298.286494
1290.446462,10436.903782,-2590.720797,1991.848295
1290.446791,10436.903782,-2960.823768,1915.238745
1290.447120,9992.780217,-4293.194464,2298.286494
1290.447449,8882.471304,-5995.668130,2221.676944
1290.447778,7254.018232,-7031.956449,2145.067394
1290.448107,5699.585753,-7994.224174,842.705048
1290.448436,3997.112087,-8142.265362,-383.047749
1290.448766,2368.659014,-8882.471304,-766.095498
1290.449095,2886.803174,-9474.636058,-766.095498
1290.449424,4071.132681,-9178.553681,0.000000
1290.449753,5995.668130,-7402.059420,612.876398
1290.450082,7328.038826,-5995.668130,995.924147
1290.450411,8660.409521,-4959.379811,2221.676944
1290.450740,8512.368333,-5255.462188,2145.067394
1290.451069,8364.327145,-4737.318029,2068.457845
1290.451399,9104.533087,-3256.906145,1838.629195
1290.451728,10140.821405,-2516.700203,1532.190996
1290.452057,10288.862594,-3849.070898,2757.943793
1290.452386,9696.697840,-5551.544565,2451.505594
1290.452715,8290.306550,-6883.915261,1991.848295
1290.453044,6735.874072,-7476.080014,1225.752797
1290.453373,5403.503377,-7550.100608,306.438199
1290.453702,3478.967927,-9252.574275,-306.438199
1290.454031,2146.597232,-10214.842000,-689.485948
1290.454361,1998.556043,-10510.924376,-1225.752797
1290.454690,3108.864956,-9696.697840,-689.485948
1290.455019,5403.503377,-8808.450710,689.485948
1290.455348,7254.018232,-7550.100608,1072.533697
1290.455677,7846.182985,-6587.832884,1149.143247
1290.456006,7624.121203,-5329.482782,1685.410096
1290.456335,8734.430116,-4367.215058,1762.019645
1290.456664,9770.718434,-3182.885551,1838.629195
1290.456994,10436.903782,-2664.741391,2221.676944
1290.457323,10881.027347,-2886.803174,2145.067394
1290.457652,10362.883188,-4145.153275,2298.286494
1290.457981,8882.471304,-6587.832884,1991.848295
1290.458310,7328.038826,-7328.038826,1608.800546
1290.458639,5921.647536,-7402.059420,689.485948
1290.458968,4071.132681,-7920.203579,-766.095498
1290.459297,2812.782580,-9474.636058,-1455.581446
1290.459627,2960.823768,-9918.759623,-383.047749
1290.459956,4737.318029,-9400.615463,0.000000
1290.460285,5921.647536,-8068.244768,536.266849
1290.460614,6957.935855,-6217.729913,1225.752797
1290.460943,8142.265362,-5033.400406,1455.581446
1290.461272,7920.203579,-5255.462188,2145.067394
1290.461601,8438.347739,-4441.235652,1991.848295
1290.461930,9030.512492,-3404.947333,1608.800546
1290.462259,9548.656652,-2886.803174,1685.410096
1290.462589,9548.656652,-4071.132681,1378.971896
1290.462918,9178.553681,-5921.647536,1838.629195
1290.463247,7920.203579,-7105.977043,1991.848295
1290.463576,6587.832884,-8586.388927,1378.971896
1290.463905,5625.565159,-8216.285956,612.876398
1290.464234,3997.112087,-9104.533087,-153.219100
1290.464563,2738.761985,-9622.677246,-842.705048
1290.464892,2812.782580,-9992.780217,-1149.143247
1290.465222,3775.050304,-10066.800811,-612.876398
1290.465551,5625.565159,-8068.244768,306.438199
1290.465880,7105.977043,-6587.832884,995.924147
1290.466209,7772.162391,-5773.606348,919.314598
1290.466538,7920.203579,-4737.318029,1455.581446
1290.466867,9104.533087,-3849.070898,1991.848295
1290.467196,10066.800811,-3478.967927,2451.505594
1290.467525,10510.924376,-2590.720797,2068.457845
1290.467854,10140.821405,-2960.823768,1915.238745
1290.468183,9622.677246,-4811.338623,1762.019645
1290.468513,9104.533087,-6957.935855,2834.553343
1290.468842,7179.997637,-7846.182985,2528.115143
1290.469171,5551.544565,-7846.182985,459.657299
1290.469500,3775.050304,-7994.224174,-383.047749
1290.469829,2442.679609,-9252.574275,-1225.752797
1290.470158,2738.761985,-9696.697840,-919.314598
1290.470487,4441.235652,-9104.533087,153.219100
1290.470816,5699.585753,-7550.100608,536.266849
1290.471145,7179.997637,-6217.729913,919.314598
1290.471474,8290.306550,-4737.318029,1532.190996
1290.471804,8586.388927,-4367.215058,1455.581446
1290.472133,8512.368333,-4515.256246,1455.581446
1290.472462,9178.553681,-3775.050304,1225.752797
1290.472791,8956.491898,-3627.009116,1455.581446
1290.473120,10066.800811,-4219.173869,1608.800546
1290.473449,10066.800811,-5477.523971,1991.848295
1290.473778,8438.347739,-7179.997637,2068.457845
1290.474107,7105.977043,-7994.224174,2145.067394
1290.474436,6439.791695,-7920.203579,1378.971896
1290.474765,4737.318029,-8586.388927,536.266849
1290.475095,3034.844362,-8660.409521,-536.266849
1290.475424,2590.720797,-9326.594869,-1072.533697
1290.475753,3256.906145,-9770.718434,0.000000
1290.476082,4737.318029,-8882.471304,842.705048
1290.476411,6513.812290,-7772.162391,1072.533697
1290.476740,7105.977043,-5847.626942,1378.971896
1290.477069,7105.977043,-5551.544565,1378.971896
1290.477398,7624.121203,-3849.070898,1455.581446
1290.477727,9104.533087,-3552.988522,1608.800546
1290.478056,10510.924376,-3478.967927,1608.800546
1290.478385,10510.924376,-3552.988522,2221.676944
1290.478715,10066.800811,-4737.318029,1762.019645
1290.479044,9548.656652,-6513.812290,2604.724693
1290.479373,7772.162391,-7402.059420,2374.896044
1290.479702,6513.812290,-7994.224174,1149.143247
1290.480031,4367.215058,-8068.244768,-306.438199
1290.480360,2590.720797,-8734.430116,-842.705048
1290.480689,3627.009116,-8438.347739,-1072.533697
1290.481018,4293.194464,-8660.409521,-689.485948
1290.481347,5181.441594,-8364.327145,536.266849
1290.481676,6735.874072,-7105.977043,689.485948
1290.482006,7920.203579,-5477.523971,1378.971896
1290.482335,7920.203579,-4515.256246,1532.190996
1290.482664,8290.306550,-4663.297435,1608.800546
1290.482993,9622.677246,-4071.132681,1991.848295
1290.483322,10066.800811,-3478.967927,1378.971896
1290.483651,9844.739029,-4145.153275,2298.286494
1290.483980,9918.759623,-4737.318029,2145.067394
1290.484309,8512.368333,-7105.977043,2374.896044
1290.484638,7105.977043,-7772.162391,1915.238745
1290.484967,5403.503377,-8290.306550,1532.190996
1290.485296,4441.235652,-8586.388927,0.000000
1290.485626,2738.761985,-9400.615463,-995.924147
1290.485955,2368.659014,-9474.636058,-995.924147
1290.486284,3997.112087,-9326.594869,-1149.143247
1290.486613,6069.688724,-8956.491898,0.000000
1290.486942,7105.977043,-7772.162391,919.314598
1290.487271,7550.100608,-7105.977043,1225.752797
1290.487600,7624.121203,-5625.565159,1685.410096
1290.487929,8586.388927,-4515.256246,1685.410096
1290.488258,9770.718434,-3182.885551,1532.190996
1290.488587,10362.883188,-3034.844362,1991.848295
1290.488917,10362.883188,-3330.926739,2068.457845
1290.489246,9474.636058,-4515.256246,1915.238745
1290.489575,8216.285956,-5625.565159,2451.505594
1290.489904,7031.956449,-7254.018232,2298.286494
1290.490233,5773.606348,-8364.327145,1225.752797
1290.490562,3997.112087,-8364.327145,229.828649
1290.490891,2812.782580,-8438.347739,-995.924147
1290.491220,3330.926739,-9400.615463,-306.438199
1290.491549,4589.276840,-9104.533087,76.609550
1290.491878,5921.647536,-7920.203579,612.876398
1290.492208,6957.935855,-6957.935855,1149.143247
1290.492537,7402.059420,-5921.647536,1149.143247
1290.492866,7698.141797,-5107.421000,1378.971896
1290.493195,8142.265362,-4589.276840,2145.067394
1290.493524,9326.594869,-4293.194464,1838.629195
1290.493853,9548.656652,-3330.926739,1608.800546
1290.494182,9030.512492,-3552.988522,2068.457845
1290.494511,9030.512492,-5329.482782,2068.457845
1290.494840,8364.327145,-6809.894666,2298.286494
1290.495169,7624.121203,-7476.080014,2145.067394
1290.495498,6735.874072,-7550.100608,1225.752797
1290.495828,5107.421000,-7920.203579,1072.533697
1290.496157,4441.235652,-8882.471304,76.609550
1290.496486,3923.091493,-8882.471304,-459.657299
1290.496815,4145.153275,-8808.450710,-536.266849
1290.497144,4959.379811,-8364.327145,-383.047749
1290.497473,5699.585753,-7772.162391,842.705048
1290.497802,6217.729913,-6513.812290,1378.971896
1290.498131,6809.894666,-5699.585753,1072.533697
1290.498460,7846.182985,-4737.318029,1378.971896
1290.498789,9252.574275,-3775.050304,1455.581446
1290.499119,9770.718434,-3552.988522,1378.971896
1290.499448,9474.636058,-4219.173869,1838.629195
1290.499777,9474.636058,-5403.503377,1685.410096
1290.500106,8512.368333,-7254.018232,2374.896044
1290.500435,7402.059420,-7254.018232,2451.505594
1290.500764,6513.812290,-7772.162391,842.705048
1290.501093,5551.544565,-8660.409521,383.047749
1290.501422,4367.215058,-8808.450710,-306.438199
1290.501751,4589.276840,-7772.162391,-459.657299
1290.502080,5403.503377,-7698.141797,229.828649
1290.502409,5551.544565,-7254.018232,306.438199
1290.502739,5847.626942,-6365.771101,766.095498
1290.503068,6513.812290,-5329.482782,536.266849
1290.503397,7550.100608,-4737.318029,1455.581446
1290.503726,8512.368333,-4441.235652,1838.629195
1290.504055,9622.677246,-3404.947333,1608.800546
1290.504384,9992.780217,-3849.070898,2068.457845
1290.504713,10140.821405,-4219.173869,2451.505594
1290.505042,9770.718434,-4959.379811,2298.286494
1290.505371,9104.533087,-5995.668130,2068.457845
1290.505700,7402.059420,-7328.038826,2374.896044
1290.506030,6069.688724,-8216.285956,1455.581446
1290.506359,4367.215058,-8586.388927,153.219100
1290.506688,2294.638420,-9622.677246,-766.095498
1290.507017,1924.535449,-10066.800811,-1225.752797
1290.507346,2812.782580,-9696.697840,-536.266849
1290.507675,4663.297435,-8660.409521,0.000000
1290.508004,5995.668130,-7550.100608,76.609550
1290.508333,7402.059420,-5847.626942,766.095498
1290.508662,8068.244768,-4589.276840,1302.362347
1290.508991,9474.636058,-3923.091493,1302.362347
1290.509320,10732.986159,-3182.885551,1838.629195
1290.509650,11399.171507,-3182.885551,1838.629195
1290.509979,11177.109724,-3478.967927,2451.505594
1290.510308,10214.842000,-5477.523971,2451.505594
1290.510637,8956.491898,-6513.812290,2681.334243
1290.510966,6883.915261,-7846.182985,1762.019645
1290.511295,5847.626942,-8808.450710,459.657299
1290.511624,3330.926739,-8808.450710,0.000000
1290.511953,1850.514855,-9844.739029,-919.314598
1290.512282,2072.576638,-9030.512492,-689.485948
1290.512611,3701.029710,-8882.471304,-536.266849
1290.512941,5625.565159,-7698.141797,459.657299
1290.513270,6365.771101,-6661.853478,306.438199
1290.513599,7698.141797,-5699.585753,1302.362347
1290.513928,8512.368333,-4515.256246,1608.800546
1290.514257,9178.553681,-4293.194464,1685.410096
1290.514586,9918.759623,-4071.132681,1838.629195
1290.514915,9918.759623,-3478.967927,1991.848295
1290.515244,10214.842000,-4219.173869,1915.238745
1290.515573,9918.759623,-4663.297435,2145.067394
1290.515902,8364.327145,-6143.709319,2145.067394
1290.516232,7105.977043,-7846.182985,1762.019645
1290.516561,6217.729913,-7846.182985,1302.362347
1290.516890,4293.194464,-8438.347739,76.609550
1290.517219,2812.782580,-9178.553681,-919.314598
1290.517548,2368.659014,-9400.615463,-995.924147
1290.517877,3627.009116,-9030.512492,-383.047749
1290.518206,5033.400406,-8364.327145,-153.219100
1290.518535,6143.709319,-6957.935855,689.485948
1290.518864,7476.080014,-6217.729913,1072.533697
1290.519193,8586.388927,-4811.338623,1455.581446
1290.519522,9030.512492,-4219.173869,2374.896044
1290.519852,9844.739029,-3478.967927,2221.676944
1290.520181,10658.965565,-2590.720797,2451.505594
1290.520510,10510.924376,-3701.029710,2987.772442
1290.520839,9474.636058,-5699.585753,1685.410096
1290.521168,7772.162391,-6365.771101,1838.629195
1290.521497,6143.709319,-8512.368333,536.266849
1290.521826,5033.400406,-8512.368333,612.876398
1290.522155,3775.050304,-8734.430116,-229.828649
1290.522484,2664.741391,-9474.636058,-919.314598
1290.522813,2960.823768,-9548.656652,-536.266849
1290.523143,4515.256246,-9326.594869,0.000000
1290.523472,5921.647536,-7476.080014,0.000000
1290.523801,7105.977043,-6069.688724,842.705048
1290.524130,8438.347739,-5255.462188,1225.752797
1290.524459,9400.615463,-4145.153275,1608.800546
1290.524788,8882.471304,-4663.297435,2145.067394
1290.525117,9992.780217,-3256.906145,1915.238745
1290.525446,10288.862594,-3478.967927,1915.238745
1290.525775,9992.780217,-3701.029710,2145.067394
1290.526104,9178.553681,-5477.523971,2451.505594
1290.526433,8290.306550,-6809.894666,2374.896044
1290.526763,7105.977043,-7179.997637,1915.238745
1290.527092,5477.523971,-8438.347739,1225.752797
1290.527421,3701.029710,-8734.430116,76.609550
1290.527750,2368.659014,-9474.636058,-612.876398
1290.528079,2590.720797,-9918.759623,-1149.143247
1290.528408,3552.988522,-8660.409521,-1072.533697
1290.528737,5033.400406,-8882.471304,-229.828649
1290.529066,7328.038826,-7031.956449,612.876398
1290.529395,7920.203579,-5699.585753,1302.362347
1290.529724,8586.388927,-4293.194464,1915.238745
1290.530054,9844.739029,-3775.050304,2374.896044
1290.530383,10362.883188,-3997.112087,2528.115143
1290.530712,10584.944971,-3182.885551,2374.896044
1290.531041,9918.759623,-4071.132681,1685.410096
1290.531370,9326.594869,-5107.421000,1532.190996
1290.531699,7624.121203,-6661.853478,1838.629195
1290.532028,6809.894666,-7772.162391,1532.190996
1290.532357,5403.503377,-8290.306550,919.314598
1290.532686,3552.988522,-8068.244768,-383.047749
1290.533015,2738.761985,-8882.471304,-842.705048
1290.533345,3182.885551,-8956.491898,-1072.533697
1290.533674,4589.276840,-9178.553681,306.438199
1290.534003,5773.606348,-7772.162391,459.657299
1290.534332,7179.997637,-6217.729913,919.314598
1290.534661,8142.265362,-5181.441594,1455.581446
1290.534990,8956.491898,-4441.235652,2451.505594
1290.535319,9030.512492,-4737.318029,2068.457845
1290.535648,9400.615463,-3552.988522,1762.019645
1290.535977,9548.656652,-3182.885551,1532.190996
1290.536306,9326.594869,-4885.359217,1762.019645
1290.536635,9030.512492,-5255.462188,1991.848295
1290.536965,8068.244768,-7402.059420,2068.457845
1290.537294,7031.956449,-8068.244768,2145.067394
1290.537623,5847.626942,-7772.162391,842.705048
1290.537952,4367.215058,-8882.471304,229.828649
1290.538281,3182.885551,-8808.450710,-536.266849
1290.538610,3330.926739,-9178.553681,-1149.143247
1290.538939,4071.132681,-8882.471304,-612.876398
1290.539268,5551.544565,-8660.409521,0.000000
1290.539597,7254.018232,-7105.977043,1302.362347
1290.539926,8068.244768,-5995.668130,1378.971896
1290.540256,7994.224174,-5033.400406,2068.457845
1290.540585,8956.491898,-4071.132681,2068.457845
1290.540914,9918.759623,-4145.153275,2221.676944
1290.541243,10584.944971,-2590.720797,2451.505594
1290.541572,10288.862594,-3404.947333,1991.848295
1290.541901,9252.574275,-4737.318029,1762.019645
1290.542230,7994.224174,-6217.729913,1991.848295
1290.542559,6587.832884,-8068.244768,1225.752797
1290.542888,5033.400406,-8364.327145,459.657299
1290.543217,3330.926739,-8956.491898,-76.609550
1290.543546,2442.679609,-9770.718434,-995.924147
1290.543876,3182.885551,-9474.636058,-689.485948
1290.544205,5255.462188,-9326.594869,0.000000
1290.544534,6513.812290,-7328.038826,919.314598
1290.544863,7550.100608,-6069.688724,1225.752797
1290.545192,8290.306550,-5255.462188,1302.362347
1290.545521,8586.388927,-4293.194464,2145.067394
1290.545850,9030.512492,-3923.091493,1455.581446
1290.546179,9474.636058,-3701.029710,1608.800546
1290.546508,9474.636058,-3404.947333,1915.238745
1290.546837,9696.697840,-4219.173869,1915.238745
1290.547167,9252.574275,-5551.544565,2451.505594
1290.547496,7994.224174,-6217.729913,2298.286494
1290.547825,6809.894666,-7846.182985,1685.410096
1290.548154,5551.544565,-8142.265362,612.876398
1290.548483,3849.070898,-8660.409521,306.438199
1290.548812,2590.720797,-9770.718434,-459.657299
1290.549141,3034.844362,-9770.718434,-689.485948
1290.549470,3552.988522,-9326.594869,-689.485948
1290.549799,4589.276840,-9030.512492,0.000000
1290.550128,6365.771101,-7550.100608,229.828649
1290.550458,7772.162391,-6217.729913,1378.971896
1290.550787,8364.327145,-4959.379811,1685.410096
1290.551116,9104.533087,-3404.947333,2221.676944
1290.551445,10658.965565,-3108.864956,1838.629195
1290.551774,11325.150913,-2812.782580,2451.505594
1290.552103,10510.924376,-3404.947333,1991.848295
1290.552432,9104.533087,-4737.318029,1532.190996
1290.552761,8216.285956,-6735.874072,2068.457845
1290.553090,7328.038826,-8734.430116,1455.581446
1290.553419,5773.606348,-7994.224174,536.266849
1290.553748,3923.091493,-8734.430116,229.828649
1290.554078,3330.926739,-9178.553681,-536.266849
1290.554407,4071.132681,-8808.450710,-306.438199
1290.554736,4811.338623,-8586.388927,459.657299
1290.555065,5477.523971,-7550.100608,536.266849
1290.555394,6143.709319,-6513.812290,459.657299
1290.555723,6735.874072,-5699.585753,1149.143247
1290.556052,7328.038826,-4663.297435,1225.752797
1290.556381,8512.368333,-4663.297435,2451.505594
1290.556710,9770.718434,-2960.823768,2451.505594
1290.557039,10288.862594,-3108.864956,1762.019645
1290.557369,9770.718434,-3478.967927,2145.067394
1290.557698,9474.636058,-4589.276840,2374.896044
1290.558027,8216.285956,-7105.977043,1991.848295
1290.558356,7105.977043,-6957.935855,1685.410096
1290.558685,5773.606348,-8808.450710,612.876398
1290.559014,4515.256246,-9252.574275,153.219100
1290.559343,3552.988522,-10140.821405,-459.657299
1290.559672,2886.803174,-10807.006753,-1072.533697
1290.560001,3701.029710,-9696.697840,-459.657299
1290.560330,5033.400406,-8290.306550,0.000000
1290.560659,6587.832884,-6883.915261,689.485948
1290.560989,7624.121203,-5255.462188,766.095498
1290.561318,8068.244768,-4219.173869,1455.581446
1290.561647,9178.553681,-3552.988522,2221.676944
1290.561976,10584.944971,-3108.864956,2528.115143
1290.562305,11103.089130,-2368.659014,2987.772442
1290.562634,10881.027347,-2886.803174,2221.676944
1290.562963,9770.718434,-4589.276840,1991.848295
1290.563292,8438.347739,-7031.956449,2298.286494
1290.563621,7105.977043,-8290.306550,1762.019645
1290.563950,5625.565159,-7624.121203,689.485948
1290.564280,3552.988522,-8956.491898,-306.438199
1290.564609,2368.659014,-9844.739029,-995.924147
1290.564938,2590.720797,-9844.739029,-919.314598
1290.565267,3923.091493,-10214.842000,0.000000
1290.565596,5255.462188,-8142.265362,612.876398
1290.565925,6809.894666,-6439.791695,612.876398
1290.566254,7698.141797,-5329.482782,1072.533697
1290.566583,7994.224174,-4959.379811,1762.019645
1290.566912,8808.450710,-4811.338623,1762.019645
1290.567241,9548.656652,-3627.009116,1838.629195
1290.567571,9992.780217,-3182.885551,1685.410096
1290.567900,9992.780217,-4367.215058,1915.238745
1290.568229,9400.615463,-5773.606348,2757.943793
1290.568558,8290.306550,-7105.977043,2451.505594
1290.568887,6883.915261,-7402.059420,1685.410096
1290.569216,5699.585753,-7328.038826,995.924147
1290.569546,4441.235652,-8512.368333,153.219100
1290.569875,3256.906145,-8660.409521,-383.047749
1290.570204,2516.700203,-9326.594869,-459.657299
1290.570533,3256.906145,-9400.615463,-612.876398
1290.570863,4737.318029,-8364.327145,76.609550
1290.571192,6957.935855,-6809.894666,1302.362347
1290.571521,7994.224174,-5551.544565,1225.752797
1290.571850,8364.327145,-4515.256246,1608.800546
1290.572179,9104.533087,-4071.132681,2068.457845
1290.572509,10288.862594,-3552.988522,1838.629195
1290.572838,11177.109724,-2886.803174,2834.553343
1290.573167,10658.965565,-3552.988522,1838.629195
1290.573496,9474.636058,-5995.668130,1762.019645
1290.573826,7550.100608,-7402.059420,1991.848295
1290.574155,6365.771101,-8216.285956,1608.800546
1290.574484,4811.338623,-8068.244768,919.314598
1290.574813,3627.009116,-8438.347739,-383.047749
1290.575143,2516.700203,-8956.491898,-1378.971896
1290.575472,2738.761985,-9252.574275,-1149.143247
1290.575801,3849.070898,-8882.471304,153.219100
1290.576130,6069.688724,-8068.244768,459.657299
1290.576460,7328.038826,-5847.626942,919.314598
1290.576789,8216.285956,-4811.338623,1149.143247
1290.577118,8364.327145,-5033.400406,1532.190996
1290.577447,8734.430116,-3627.009116,2451.505594
1290.577777,9400.615463,-4293.194464,1532.190996
1290.578106,9696.697840,-3627.009116,1685.410096
1290.578435,9696.697840,-4293.194464,2221.676944
1290.578764,9252.574275,-6809.894666,2451.505594
1290.579094,7550.100608,-7624.121203,1991.848295
1290.579423,6069.688724,-8586.388927,1838.629195
1290.579752,5403.503377,-8142.265362,766.095498
1290.580081,3775.050304,-8142.265362,-306.438199
1290.580411,2886.803174,-8808.450710,-536.266849
1290.580740,3997.112087,-8956.491898,-842.705048
1290.581069,4663.297435,-8734.430116,-76.609550
1290.581398,5847.626942,-7920.203579,1072.533697
1290.581728,7328.038826,-6587.832884,1072.533697
1290.582057,8438.347739,-4811.338623,1149.143247
1290.582386,8512.368333,-4589.276840,1532.190996
1290.582715,8956.491898,-4219.173869,2068.457845
1290.583045,10140.821405,-3108.864956,2298.286494
1290.583374,10732.986159,-2294.638420,2221.676944
1290.583703,9770.718434,-3034.844362,2068.457845
1290.584032,9030.512492,-4737.318029,1991.848295
1290.584361,7624.121203,-7698.141797,2145.067394
1290.584691,6365.771101,-8512.368333,1608.800546
1290.585020,4515.256246,-8068.244768,1302.362347
1290.585349,3182.885551,-8882.471304,-229.828649
1290.585678,2886.803174,-9030.512492,-459.657299
1290.586008,3330.926739,-9474.636058,-612.876398
1290.586337,4737.318029,-8956.491898,76.609550
1290.586666,5995.668130,-7254.018232,229.828649
1290.586995,7550.100608,-6587.832884,459.657299
1290.587325,8216.285956,-5107.421000,1532.190996
1290.587654,8142.265362,-5329.482782,1455.581446
1290.587983,8956.491898,-4589.276840,1378.971896
1290.588312,9770.718434,-3923.091493,1685.410096
1290.588642,10066.800811,-3701.029710,1685.410096
1290.588971,9696.697840,-3997.112087,1838.629195
1290.589300,8956.491898,-5329.482782,1762.019645
1290.589629,7772.162391,-6439.791695,1378.971896
1290.589959,6661.853478,-7698.141797,1532.190996
1290.590288,5699.585753,-7920.203579,1149.143247
1290.590617,4663.297435,-8734.430116,383.047749
1290.590946,3552.988522,-8808.450710,-76.609550
1290.591276,3404.947333,-8512.368333,-995.924147
1290.591605,4441.235652,-8808.450710,0.000000
1290.591934,5995.668130,-8290.306550,689.485948
1290.592263,7179.997637,-6587.832884,1072.533697
1290.592593,7550.100608,-5477.523971,1455.581446
1290.592922,8068.244768,-4959.379811,1685.410096
1290.593251,9400.615463,-4441.235652,1838.629195
1290.593580,9918.759623,-4441.235652,2068.457845
1290.593910,9770.718434,-3108.864956,2604.724693
1290.594239,9622.677246,-4219.173869,1149.143247
1290.594568,8882.471304,-5329.482782,1685.410096
1290.594897,7550.100608,-7254.018232,1608.800546
1290.595227,6883.915261,-8660.409521,1532.190996
1290.595556,5477.523971,-7698.141797,995.924147
1290.595885,3552.988522,-8586.388927,-919.314598
1290.596214,2590.720797,-9104.533087,-995.924147
1290.596543,3775.050304,-8808.450710,-689.485948
1290.596873,5107.421000,-9400.615463,689.485948
1290.597202,6217.729913,-7179.997637,842.705048
1290.597531,7105.977043,-6291.750507,995.924147
1290.597860,7772.162391,-5181.441594,1302.362347
1290.598190,8216.285956,-4959.379811,1915.238745
1290.598519,7698.141797,-4885.359217,1991.848295
1290.598848,8956.491898,-3330.926739,1685.410096
1290.599177,9326.594869,-3552.988522,1838.629195
1290.599507,9770.718434,-4219.173869,2298.286494
1290.599836,9400.615463,-5699.585753,2298.286494
1290.600165,8512.368333,-6735.874072,2528.115143
1290.600494,6809.894666,-7105.977043,1149.143247
1290.600824,5551.544565,-7624.121203,306.438199
1290.601153,3849.070898,-9178.553681,-383.047749
1290.601482,3478.967927,-9844.739029,-995.924147
1290.601811,3182.885551,-9696.697840,-612.876398
1290.602141,4515.256246,-9252.574275,153.219100
1290.602470,6217.729913,-8142.265362,536.266849
1290.602799,7254.018232,-6883.915261,1149.143247
1290.603128,7624.121203,-5403.503377,1455.581446
1290.603458,8216.285956,-4959.379811,1532.190996
1290.603787,9400.615463,-3404.947333,1762.019645
1290.604116,10288.862594,-2960.823768,1532.190996
1290.604445,10362.883188,-2960.823768,2068.457845
1290.604775,10362.883188,-4367.215058,2451.505594
1290.605104,9770.718434,-5699.585753,2145.067394
