#time,accel_x,accel_y,accel_z
1440.963650,7031.956449,-6439.791695,1149.143247
1440.963981,7105.977043,-6291.750507,1149.143247
1440.964311,7031.956449,-6439.791695,1608.800546
1440.964642,6513.812290,-6217.729913,1072.533697
1440.964972,6883.915261,-7031.956449,995.924147
1440.965303,6513.812290,-7031.956449,1378.971896
1440.965634,6439.791695,-6291.750507,766.095498
1440.965964,6439.791695,-6957.935855,1225.752797
1440.966295,6735.874072,-7105.977043,1378.971896
1440.966625,6809.894666,-7105.977043,689.485948
1440.966956,6365.771101,-7105.977043,612.876398
1440.967286,6735.874072,-7105.977043,1149.143247
1440.967617,7031.956449,-7105.977043,689.485948
1440.967947,7179.997637,-6439.791695,1225.752797
1440.968278,7031.956449,-6883.915261,1608.800546
1440.968608,7254.018232,-6513.812290,1149.143247
1440.968939,7920.203579,-6365.771101,919.314598
1440.969270,7105.977043,-6735.874072,1225.752797
1440.969600,7105.977043,-6217.729913,995.924147
1440.969931,7328.038826,-6069.688724,1072.533697
1440.970261,7105.977043,-6809.894666,1685.410096
1440.970592,7179.997637,-6069.688724,1149.143247
1440.970922,7328.038826,-6513.812290,1072.533697
1440.971253,7031.956449,-6365.771101,919.314598
1440.971583,6957.935855,-6661.853478,1378.971896
1440.971914,7105.977043,-5921.647536,842.705048
1440.972244,6809.894666,-6661.853478,1225.752797
1440.972575,6957.935855,-6661.853478,1225.752797
1440.972906,7031.956449,-6513.812290,1149.143247
1440.973236,7254.018232,-6513.812290,0.000000
1440.973567,6809.894666,-6661.853478,1302.362347
1440.973897,7105.977043,-6735.874072,1149.143247
1440.974228,7179.997637,-6883.915261,1149.143247
1440.974558,6809.894666,-6661.853478,995.924147
1440.974889,6735.874072,-6735.874072,1072.533697
1440.975219,7105.977043,-6587.832884,995.924147
1440.975550,7179.997637,-6661.853478,1072.533697
1440.975880,7179.997637,-6587.832884,1072.533697
1440.976211,7179.997637,-6217.729913,919.314598
1440.976541,7105.977043,-6365.771101,1225.752797
1440.976872,7105.977043,-6439.791695,1225.752797
1440.977203,6883.915261,-5995.668130,1378.971896
1440.977533,6883.915261,-6217.729913,1072.533697
1440.977864,6883.915261,-6513.812290,1072.533697
1440.978194,6735.874072,-6513.812290,995.924147
1440.978525,7105.977043,-6143.709319,689.485948
1440.978855,6957.935855,-6883.915261,1225.752797
1440.979186,7031.956449,-6883.915261,1072.533697
1440.979516,7179.997637,-6513.812290,612.876398
1440.979847,6513.812290,-6883.915261,995.924147
1440.980177,6513.812290,-6957.935855,1149.143247
1440.980508,6809.894666,-6735.874072,1378.971896
1440.980839,6735.874072,-6513.812290,1685.410096
1440.981169,6291.750507,-6291.750507,919.314598
1440.981500,6661.853478,-6957.935855,536.266849
1440.981830,6439.791695,-6957.935855,689.485948
1440.982161,6513.812290,-6883.915261,689.485948
1440.982491,7254.018232,-7105.977043,919.314598
1440.982822,6957.935855,-6513.812290,842.705048
1440.983152,7254.018232,-7031.956449,1762.019645
1440.983483,7476.080014,-6883.915261,1149.143247
1440.983813,7105.977043,-6439.791695,689.485948
1440.984144,7624.121203,-6661.853478,842.705048
1440.984474,7179.997637,-6883.915261,995.924147
1440.984805,7328.038826,-6513.812290,995.924147
1440.985136,7179.997637,-6217.729913,1149.143247
1440.985466,7476.080014,-6439.791695,1608.800546
1440.985797,7105.977043,-6217.729913,995.924147
1440.986127,7105.977043,-5921.647536,1072.533697
1440.986458,6957.935855,-6217.729913,1225.752797
1440.986788,6809.894666,-6217.729913,919.314598
1440.987119,6957.935855,-6291.750507,612.876398
1440.987449,6957.935855,-6883.915261,1225.752797
1440.987780,7105.977043,-6661.853478,995.924147
1440.988110,7031.956449,-6809.894666,1072.533697
1440.988441,7105.977043,-6957.935855,2145.067394
1440.988772,6587.832884,-6735.874072,995.924147
1440.989102,6735.874072,-6735.874072,766.095498
1440.989433,6587.832884,-6735.874072,995.924147
1440.989763,7031.956449,-6587.832884,919.314598
1440.990094,7624.121203,-6217.729913,842.705048
1440.990424,6587.832884,-5921.647536,1455.581446
1440.990755,7402.059420,-6365.771101,1149.143247
1440.991085,7476.080014,-6217.729913,1378.971896
1440.991416,7105.977043,-6883.915261,1608.800546
1440.991746,7105.977043,-6439.791695,1149.143247
1440.992077,7179.997637,-6365.771101,919.314598
1440.992408,7476.080014,-6809.894666,919.314598
1440.992738,7105.977043,-6439.791695,842.705048
1440.993069,7328.038826,-6809.894666,1685.410096
1440.993399,7031.956449,-6365.771101,1072.533697
1440.993730,6809.894666,-6365.771101,1225.752797
1440.994060,6513.812290,-6439.791695,1072.533697
1440.994391,6587.832884,-6587.832884,842.705048
1440.994721,6883.915261,-7254.018232,995.924147
1440.995052,6661.853478,-6809.894666,919.314598
1440.995382,6291.750507,-6809.894666,919.314598
1440.995713,6513.812290,-6957.935855,842.705048
1440.996043,6439.791695,-6809.894666,1225.752797
1440.996374,6883.915261,-7328.038826,689.485948
1440.996705,6661.853478,-6957.935855,1072.533697
1440.997035,6883.915261,-7254.018232,1149.143247
1440.997366,7179.997637,-6957.935855,1072.533697
1440.997696,7105.977043,-5773.606348,842.705048
1440.998027,7031.956449,-6735.874072,612.876398
1440.998357,7254.018232,-6439.791695,919.314598
1440.998688,7105.977043,-6217.729913,1072.533697
1440.999018,6587.832884,-6143.709319,995.924147
1440.999349,6809.894666,-5921.647536,842.705048
1440.999679,6957.935855,-6143.709319,689.485948
1441.000010,7105.977043,-6513.812290,842.705048
1441.000341,6957.935855,-6365.771101,919.314598
1441.000671,7105.977043,-5921.647536,1149.143247
1441.001002,7476.080014,-6365.771101,1149.143247
1441.001332,7328.038826,-6143.709319,1149.143247
1441.001663,6883.915261,-6291.750507,536.266849
1441.001993,6883.915261,-6513.812290,919.314598
1441.002324,7031.956449,-6217.729913,1302.362347
1441.002654,7105.977043,-6735.874072,842.705048
1441.002985,7031.956449,-7105.977043,1149.143247
1441.003315,6883.915261,-6143.709319,1225.752797
1441.003646,7328.038826,-6957.935855,1762.019645
1441.003977,6809.894666,-6809.894666,1225.752797
1441.004307,6735.874072,-6661.853478,842.705048
1441.004638,7105.977043,-6735.874072,766.095498
1441.004968,7402.059420,-6661.853478,1532.190996
1441.005299,7550.100608,-6661.853478,766.095498
1441.005629,7476.080014,-6661.853478,995.924147
1441.005960,7254.018232,-6513.812290,1149.143247
1441.006290,6957.935855,-6661.853478,1072.533697
1441.006621,6883.915261,-6217.729913,1455.581446
1441.006951,7105.977043,-6143.709319,919.314598
1441.007282,7105.977043,-5995.668130,1225.752797
1441.007612,7031.956449,-5995.668130,1378.971896
1441.007943,6735.874072,-6217.729913,1225.752797
1441.008274,6957.935855,-6143.709319,1455.581446
1441.008604,6735.874072,-6439.791695,1225.752797
1441.008935,6587.832884,-6143.709319,919.314598
1441.009265,6809.894666,-6735.874072,1072.533697
1441.009596,6735.874072,-7105.977043,1225.752797
1441.009926,7031.956449,-6883.915261,689.485948
1441.010257,6957.935855,-6735.874072,1072.533697
1441.010587,6809.894666,-7105.977043,1149.143247
1441.010918,6883.915261,-7031.956449,1149.143247
1441.011248,6291.750507,-7105.977043,919.314598
1441.011579,6513.812290,-7031.956449,1072.533697
1441.011910,6587.832884,-6809.894666,766.095498
1441.012240,6957.935855,-6513.812290,842.705048
1441.012571,6883.915261,-6439.791695,919.314598
1441.012901,6809.894666,-6291.750507,842.705048
1441.013232,7179.997637,-6439.791695,1072.533697
1441.013562,7105.977043,-6439.791695,1225.752797
1441.013893,7179.997637,-6365.771101,919.314598
1441.014223,7105.977043,-6069.688724,842.705048
1441.014554,7328.038826,-6735.874072,1072.533697
1441.014884,7254.018232,-6365.771101,919.314598
1441.015215,6735.874072,-6661.853478,995.924147
1441.015546,6735.874072,-6735.874072,1225.752797
1441.015876,7179.997637,-6513.812290,995.924147
1441.016207,6809.894666,-6069.688724,842.705048
1441.016537,6661.853478,-6069.688724,919.314598
1441.016868,7105.977043,-6439.791695,995.924147
1441.017198,7179.997637,-6217.729913,1225.752797
1441.017529,7031.956449,-6513.812290,919.314598
1441.017859,6661.853478,-6365.771101,1225.752797
1441.018190,7105.977043,-6661.853478,995.924147
1441.018520,7105.977043,-7328.038826,612.876398
1441.018851,7105.977043,-6661.853478,2145.067394
1441.019181,6809.894666,-6957.935855,1149.143247
1441.019512,7328.038826,-6661.853478,689.485948
1441.019843,7105.977043,-6439.791695,995.924147
1441.020173,7031.956449,-6957.935855,1072.533697
1441.020504,7179.997637,-6069.688724,1455.581446
1441.020834,7254.018232,-6143.709319,995.924147
1441.021165,7179.997637,-5995.668130,919.314598
1441.021495,7031.956449,-5995.668130,1225.752797
1441.021826,7328.038826,-6365.771101,1455.581446
1441.022156,7179.997637,-6439.791695,1149.143247
1441.022487,6883.915261,-6217.729913,919.314598
1441.022817,7105.977043,-6587.832884,919.314598
1441.023148,7105.977043,-6883.915261,1072.533697
1441.023479,7254.018232,-6957.935855,1149.143247
1441.023809,6883.915261,-6587.832884,689.485948
1441.024140,6365.771101,-7105.977043,1149.143247
1441.024470,6513.812290,-6661.853478,1608.800546
1441.024801,6513.812290,-7254.018232,1072.533697
1441.025131,7105.977043,-6735.874072,1149.143247
1441.025462,6513.812290,-6735.874072,1072.533697
1441.025792,6735.874072,-6883.915261,919.314598
1441.026123,6587.832884,-6883.915261,1072.533697
1441.026453,6735.874072,-6735.874072,1225.752797
1441.026784,6735.874072,-7105.977043,995.924147
1441.027115,7105.977043,-6957.935855,1378.971896
1441.027445,7254.018232,-6809.894666,919.314598
1441.027776,7105.977043,-7031.956449,995.924147
1441.028106,7105.977043,-6365.771101,1455.581446
1441.028437,6957.935855,-6587.832884,689.485948
1441.028767,7031.956449,-6217.729913,1072.533697
1441.029097,6957.935855,-6069.688724,995.924147
1441.029427,7476.080014,-6217.729913,1225.752797
1441.029757,7031.956449,-6217.729913,766.095498
1441.030086,6957.935855,-6069.688724,995.924147
1441.030416,6661.853478,-5921.647536,842.705048
1441.030746,7105.977043,-6217.729913,842.705048
1441.031076,6587.832884,-6291.750507,1302.362347
1441.031405,7105.977043,-6439.791695,1072.533697
1441.031735,7179.997637,-7328.038826,995.924147
1441.032065,6957.935855,-6883.915261,1149.143247
1441.032395,7105.977043,-6587.832884,919.314598
1441.032724,6883.915261,-6513.812290,1225.752797
1441.033054,6883.915261,-6661.853478,766.095498
1441.033384,7031.956449,-6735.874072,612.876398
1441.033714,6735.874072,-6587.832884,1072.533697
1441.034043,6735.874072,-6587.832884,536.266849
1441.034373,7105.977043,-6661.853478,1149.143247
1441.034703,7105.977043,-6513.812290,842.705048
1441.035033,7105.977043,-6513.812290,689.485948
1441.035362,7402.059420,-6217.729913,1225.752797
1441.035692,7624.121203,-6661.853478,995.924147
1441.036022,7105.977043,-6661.853478,1072.533697
1441.036352,7105.977043,-6365.771101,1149.143247
1441.036682,7328.038826,-6365.771101,1302.362347
1441.037011,7105.977043,-5995.668130,1532.190996
1441.037341,6291.750507,-6439.791695,1149.143247
1441.037671,6809.894666,-6513.812290,995.924147
1441.038001,6883.915261,-6365.771101,842.705048
1441.038330,6439.791695,-6217.729913,1149.143247
1441.038660,6291.750507,-6439.791695,1455.581446
1441.038990,6735.874072,-6957.935855,1302.362347
1441.039320,6661.853478,-6957.935855,1378.971896
1441.039649,6661.853478,-6809.894666,1225.752797
1441.039979,6735.874072,-7105.977043,995.924147
1441.040309,6661.853478,-6439.791695,995.924147
1441.040639,7031.956449,-7179.997637,842.705048
1441.040968,6883.915261,-7031.956449,1072.533697
1441.041298,6587.832884,-6883.915261,1149.143247
1441.041628,7105.977043,-6587.832884,229.828649
1441.041958,6883.915261,-6365.771101,919.314598
1441.042287,7105.977043,-6957.935855,1225.752797
1441.042617,7179.997637,-6365.771101,1225.752797
1441.042947,7328.038826,-6587.832884,919.314598
1441.043277,7105.977043,-6809.894666,459.657299
1441.043607,6957.935855,-6439.791695,919.314598
1441.043936,7105.977043,-6143.709319,689.485948
1441.044266,6883.915261,-6587.832884,842.705048
1441.044596,7179.997637,-6217.729913,1608.800546
1441.044926,7105.977043,-6069.688724,1225.752797
1441.045255,7328.038826,-6439.791695,1225.752797
1441.045585,7105.977043,-6513.812290,1072.533697
1441.045915,6735.874072,-6217.729913,842.705048
1441.046245,6661.853478,-6587.832884,919.314598
1441.046574,6957.935855,-6735.874072,1225.752797
1441.046904,7105.977043,-6217.729913,995.924147
1441.047234,7105.977043,-6735.874072,689.485948
1441.047564,6957.935855,-6439.791695,1608.800546
1441.047893,6735.874072,-6587.832884,612.876398
1441.048223,6735.874072,-7031.956449,689.485948
1441.048553,6809.894666,-6661.853478,919.314598
1441.048883,7105.977043,-6735.874072,766.095498
1441.049212,7254.018232,-6883.915261,1225.752797
1441.049542,7402.059420,-6143.709319,1149.143247
1441.049872,7328.038826,-6291.750507,995.924147
1441.050202,7179.997637,-6291.750507,995.924147
1441.050532,7105.977043,-6513.812290,1302.362347
1441.050861,7550.100608,-6513.812290,1072.533697
1441.051191,7105.977043,-6365.771101,1072.533697
1441.051521,6957.935855,-6143.709319,995.924147
1441.051851,7031.956449,-6439.791695,1455.581446
1441.052180,7105.977043,-6587.832884,1302.362347
1441.052510,6883.915261,-6587.832884,1149.143247
1441.052840,6883.915261,-6735.874072,1149.143247
1441.053170,6661.853478,-6439.791695,1225.752797
1441.053499,6587.832884,-6661.853478,766.095498
1441.053829,6661.853478,-6883.915261,1915.238745
1441.054159,6883.915261,-6735.874072,1762.019645
1441.054489,6883.915261,-6513.812290,919.314598
1441.054818,6587.832884,-6735.874072,1149.143247
1441.055148,6735.874072,-7105.977043,995.924147
1441.055478,6661.853478,-7105.977043,153.219100
1441.055808,6513.812290,-7105.977043,766.095498
1441.056137,6513.812290,-7550.100608,995.924147
1441.056467,7105.977043,-6661.853478,842.705048
1441.056797,7031.956449,-6661.853478,1915.238745
1441.057127,7105.977043,-6809.894666,1149.143247
1441.057457,6809.894666,-6217.729913,1072.533697
1441.057786,7328.038826,-6143.709319,1149.143247
1441.058116,7105.977043,-6217.729913,1072.533697
1441.058446,7105.977043,-5773.606348,1378.971896
1441.058776,7105.977043,-6291.750507,1302.362347
1441.059105,7328.038826,-6069.688724,1149.143247
1441.059435,7105.977043,-6513.812290,1455.581446
1441.059765,7179.997637,-6143.709319,612.876398
1441.060095,6809.894666,-6291.750507,612.876398
1441.060424,6883.915261,-6365.771101,1149.143247
1441.060754,6735.874072,-6883.915261,766.095498
1441.061084,7031.956449,-6883.915261,1149.143247
1441.061414,6957.935855,-6661.853478,1072.533697
1441.061743,6883.915261,-6883.915261,919.314598
1441.062073,7105.977043,-6365.771101,995.924147
1441.062403,6957.935855,-6587.832884,1225.752797
1441.062733,7328.038826,-6439.791695,229.828649
1441.063062,6957.935855,-6735.874072,1225.752797
1441.063392,6661.853478,-6735.874072,842.705048
1441.063722,7105.977043,-6735.874072,459.657299
1441.064052,7179.997637,-6365.771101,995.924147
1441.064382,7328.038826,-7105.977043,1378.971896
1441.064711,7402.059420,-6809.894666,842.705048
1441.065041,7328.038826,-6439.791695,842.705048
1441.065371,7179.997637,-6883.915261,689.485948
1441.065701,7179.997637,-6587.832884,1072.533697
1441.066030,7105.977043,-5625.565159,1072.533697
1441.066360,7179.997637,-6365.771101,1072.533697
1441.066690,7105.977043,-6143.709319,1149.143247
1441.067020,6809.894666,-6291.750507,1072.533697
1441.067349,7105.977043,-6365.771101,995.924147
1441.067679,6883.915261,-6143.709319,1225.752797
1441.068009,6883.915261,-6217.729913,1149.143247
1441.068339,6735.874072,-6883.915261,919.314598
1441.068668,6587.832884,-7328.038826,1302.362347
1441.068998,6809.894666,-6587.832884,1532.190996
1441.069328,6661.853478,-6661.853478,1149.143247
1441.069658,6661.853478,-6735.874072,1302.362347
1441.069987,6735.874072,-6883.915261,995.924147
1441.070317,6883.915261,-7179.997637,766.095498
1441.070647,6587.832884,-6809.894666,1302.362347
1441.070977,6883.915261,-6661.853478,766.095498
1441.071307,6883.915261,-6883.915261,919.314598
1441.071636,6809.894666,-6291.750507,1225.752797
1441.071966,7328.038826,-6587.832884,1149.143247
1441.072296,7402.059420,-6587.832884,1455.581446
1441.072626,7105.977043,-6957.935855,1149.143247
1441.072955,7105.977043,-6439.791695,919.314598
1441.073285,6809.894666,-6439.791695,1608.800546
1441.073615,7105.977043,-6587.832884,919.314598
1441.073945,7179.997637,-6587.832884,1378.971896
1441.074274,7105.977043,-6439.791695,1225.752797
1441.074604,7402.059420,-6217.729913,1378.971896
1441.074934,7254.018232,-6661.853478,766.095498
1441.075264,6957.935855,-6291.750507,1225.752797
1441.075593,6735.874072,-6439.791695,689.485948
1441.075923,6809.894666,-6587.832884,842.705048
1441.076253,7031.956449,-6661.853478,1225.752797
1441.076583,7105.977043,-6883.915261,383.047749
1441.076912,6957.935855,-6883.915261,995.924147
1441.077242,7031.956449,-6883.915261,1378.971896
1441.077572,6735.874072,-7031.956449,766.095498
1441.077902,6513.812290,-6217.729913,1455.581446
1441.078232,6957.935855,-6661.853478,842.705048
1441.078561,7179.997637,-6439.791695,919.314598
1441.078891,7105.977043,-6291.750507,1302.362347
1441.079221,7328.038826,-6217.729913,919.314598
1441.079551,7328.038826,-5403.503377,1455.581446
1441.079880,7550.100608,-5403.503377,689.485948
1441.080210,7994.224174,-5551.544565,995.924147
1441.080540,7994.224174,-5181.441594,1072.533697
1441.080870,8438.347739,-5995.668130,1302.362347
1441.081199,7698.141797,-6217.729913,612.876398
1441.081529,6365.771101,-7031.956449,306.438199
1441.081859,6069.688724,-7105.977043,306.438199
1441.082189,6513.812290,-6587.832884,459.657299
1441.082518,7920.203579,-6587.832884,612.876398
1441.082848,7846.182985,-5773.606348,1455.581446
1441.083178,8142.265362,-5625.565159,1532.190996
1441.083508,8216.285956,-4219.173869,1149.143247
1441.083837,7772.162391,-4515.256246,766.095498
1441.084167,7994.224174,-5477.523971,1149.143247
1441.084497,8142.265362,-4367.215058,1302.362347
1441.084827,8586.388927,-5551.544565,842.705048
1441.085157,8216.285956,-4811.338623,612.876398
1441.085486,7031.956449,-5477.523971,383.047749
1441.085816,7994.224174,-5551.544565,612.876398
1441.086146,8364.327145,-5477.523971,842.705048
1441.086476,8068.244768,-6217.729913,919.314598
1441.086805,8142.265362,-5921.647536,842.705048
1441.087135,8216.285956,-5403.503377,1149.143247
1441.087465,7846.182985,-5773.606348,995.924147
1441.087795,7846.182985,-4811.338623,995.924147
1441.088124,8586.388927,-4367.215058,919.314598
1441.088454,9400.615463,-4293.194464,1455.581446
1441.088784,9548.656652,-4145.153275,1685.410096
1441.089114,9770.718434,-3034.844362,1685.410096
1441.089443,9622.677246,-3330.926739,1225.752797
1441.089773,9622.677246,-3256.906145,1685.410096
1441.090103,9918.759623,-2886.803174,612.876398
1441.090433,9548.656652,-3775.050304,1455.581446
1441.090762,9548.656652,-3627.009116,1072.533697
1441.091092,9474.636058,-4737.318029,1378.971896
1441.091422,9178.553681,-4737.318029,1072.533697
1441.091752,8882.471304,-5033.400406,1455.581446
1441.092082,8586.388927,-5477.523971,1608.800546
1441.092411,7994.224174,-4959.379811,919.314598
1441.092741,7402.059420,-5329.482782,842.705048
1441.093071,7772.162391,-4589.276840,919.314598
1441.093401,9030.512492,-4441.235652,1378.971896
1441.093730,9474.636058,-3923.091493,1378.971896
1441.094060,9252.574275,-4145.153275,919.314598
1441.094390,9104.533087,-4367.215058,842.705048
1441.094720,9770.718434,-3775.050304,153.219100
1441.095049,9326.594869,-5181.441594,536.266849
1441.095379,9104.533087,-5181.441594,842.705048
1441.095709,8808.450710,-5403.503377,76.609550
1441.096039,8512.368333,-5551.544565,459.657299
1441.096368,8142.265362,-5181.441594,0.000000
1441.096698,8290.306550,-4885.359217,383.047749
1441.097028,9178.553681,-5255.462188,995.924147
1441.097358,9178.553681,-5181.441594,1608.800546
1441.097687,8734.430116,-3108.864956,2451.505594
1441.098017,9326.594869,-3627.009116,1685.410096
1441.098347,9178.553681,-3701.029710,2374.896044
1441.098677,9178.553681,-3404.947333,1991.848295
1441.099007,9104.533087,-3775.050304,1915.238745
1441.099336,9622.677246,-2960.823768,2374.896044
1441.099666,9400.615463,-4145.153275,1225.752797
1441.099996,8956.491898,-4071.132681,995.924147
1441.100326,8808.450710,-3923.091493,76.609550
1441.100655,8808.450710,-4145.153275,0.000000
1441.100985,8956.491898,-4145.153275,0.000000
1441.101315,8364.327145,-5773.606348,-306.438199
1441.101645,8290.306550,-5995.668130,-383.047749
1441.101974,8808.450710,-5773.606348,229.828649
1441.102304,9326.594869,-7698.141797,919.314598
1441.102634,9104.533087,-5477.523971,995.924147
1441.102964,8734.430116,-5995.668130,1991.848295
1441.103293,9104.533087,-4737.318029,2221.676944
1441.103623,9400.615463,-3256.906145,1532.190996
1441.103953,9622.677246,-3034.844362,2757.943793
1441.104283,9918.759623,-2368.659014,1915.238745
1441.104612,9844.739029,-1998.556043,1455.581446
1441.104942,9696.697840,-962.267725,536.266849
1441.105272,10066.800811,-2664.741391,0.000000
1441.105602,9918.759623,-2960.823768,229.828649
1441.105932,9252.574275,-3849.070898,0.000000
1441.106261,9030.512492,-5699.585753,0.000000
1441.106591,9178.553681,-6291.750507,842.705048
1441.106921,8512.368333,-7254.018232,76.609550
1441.107251,7994.224174,-7698.141797,459.657299
1441.107580,7179.997637,-8068.244768,1225.752797
1441.107910,7254.018232,-7920.203579,766.095498
1441.108240,6809.894666,-5625.565159,1608.800546
1441.108570,7105.977043,-5033.400406,995.924147
1441.108899,8586.388927,-3701.029710,1302.362347
1441.109229,9770.718434,-2516.700203,1762.019645
1441.109559,10362.883188,-2294.638420,1838.629195
1441.109889,10436.903782,0.000000,1762.019645
1441.110218,10288.862594,-296.082377,612.876398
1441.110548,10732.986159,-814.226536,536.266849
1441.110878,11547.212695,-814.226536,689.485948
1441.111208,13027.624579,-2146.597232,1378.971896
1441.111537,12657.521608,-2960.823768,1302.362347
1441.111867,11399.171507,-5033.400406,1915.238745
1441.112197,9474.636058,-5773.606348,1608.800546
1441.112527,7402.059420,-6735.874072,383.047749
1441.112857,5403.503377,-9030.512492,383.047749
1441.113186,4367.215058,-9178.553681,76.609550
1441.113516,4441.235652,-9400.615463,-536.266849
1441.113846,5625.565159,-7846.182985,-229.828649
1441.114176,7105.977043,-7550.100608,612.876398
1441.114505,8438.347739,-5403.503377,1072.533697
1441.114835,9178.553681,-3330.926739,919.314598
1441.115165,9326.594869,-2368.659014,1149.143247
1441.115495,10066.800811,-1184.329507,383.047749
1441.115824,10807.006753,-444.123565,842.705048
1441.116154,11769.274478,0.000000,1149.143247
1441.116484,12361.439231,-1184.329507,1302.362347
1441.116814,12805.562797,-1628.453072,2604.724693
1441.117143,13027.624579,-2886.803174,2987.772442
1441.117473,12139.377449,-3478.967927,2528.115143
1441.117803,9326.594869,-4441.235652,1838.629195
1441.118133,7105.977043,-6735.874072,459.657299
1441.118462,5181.441594,-7328.038826,153.219100
1441.118792,4515.256246,-6883.915261,-459.657299
1441.119122,4663.297435,-8068.244768,-842.705048
1441.119452,6291.750507,-5403.503377,0.000000
1441.119782,8660.409521,-3552.988522,76.609550
1441.120111,10881.027347,-2886.803174,842.705048
1441.120441,12139.377449,-2516.700203,2068.457845
1441.120771,11399.171507,-2072.576638,1532.190996
1441.121101,10510.924376,-2442.679609,842.705048
1441.121430,9474.636058,-3256.906145,1608.800546
1441.121760,9622.677246,-4737.318029,1072.533697
1441.122090,8734.430116,-7105.977043,1685.410096
1441.122420,8586.388927,-7476.080014,2221.676944
1441.122749,8882.471304,-7846.182985,2451.505594
1441.123079,8882.471304,-6365.771101,1762.019645
1441.123409,7328.038826,-4515.256246,612.876398
1441.123739,6291.750507,-3552.988522,-919.314598
1441.124068,7105.977043,-3034.844362,-995.924147
1441.124398,8660.409521,-3330.926739,0.000000
1441.124728,10288.862594,-3182.885551,1532.190996
1441.125058,10881.027347,-1998.556043,2068.457845
1441.125387,11325.150913,-962.267725,612.876398
1441.125717,10807.006753,-2812.782580,1378.971896
1441.126047,10955.047942,-4441.235652,2451.505594
1441.126377,10807.006753,-5329.482782,2068.457845
1441.126707,9474.636058,-4737.318029,1225.752797
1441.127036,8216.285956,-4293.194464,459.657299
1441.127366,8438.347739,-4515.256246,306.438199
1441.127696,7624.121203,-7402.059420,1455.581446
1441.128026,7105.977043,-9696.697840,1685.410096
1441.128355,6069.688724,-7550.100608,1072.533697
1441.128685,5699.585753,-5033.400406,-919.314598
1441.129015,5699.585753,-4515.256246,-995.924147
1441.129345,7254.018232,-5995.668130,1072.533697
1441.129674,9622.677246,-5699.585753,2068.457845
1441.130004,10140.821405,-2812.782580,1302.362347
1441.130334,10066.800811,-296.082377,1072.533697
1441.130664,11325.150913,74.020594,1378.971896
1441.130993,11991.336260,-2220.617826,1149.143247
1441.131323,10214.842000,-5625.565159,1991.848295
1441.131652,10436.903782,-3330.926739,1072.533697
1441.131981,10510.924376,-4219.173869,1149.143247
1441.132310,10362.883188,-3849.070898,1838.629195
1441.132640,10658.965565,-4737.318029,2911.162892
1441.132969,10214.842000,-5403.503377,1762.019645
1441.133298,8068.244768,-4145.153275,229.828649
1441.133627,6365.771101,-5107.421000,306.438199
1441.133957,7328.038826,-4885.359217,919.314598
1441.134286,8290.306550,-5403.503377,-306.438199
1441.134615,6957.935855,-5329.482782,0.000000
1441.134944,6587.832884,-5921.647536,536.266849
1441.135274,8512.368333,-6883.915261,1225.752797
1441.135603,9474.636058,-5255.462188,1991.848295
1441.135932,9326.594869,-4811.338623,1455.581446
1441.136261,9178.553681,-3627.009116,0.000000
1441.136591,8586.388927,-4885.359217,383.047749
1441.136920,8142.265362,-7698.141797,1378.971896
1441.137249,8512.368333,-6735.874072,1455.581446
1441.137578,9400.615463,-3849.070898,766.095498
1441.137908,9178.553681,-3701.029710,1149.143247
1441.138237,9178.553681,-5477.523971,2221.676944
1441.138566,8882.471304,-5921.647536,2221.676944
1441.138895,8364.327145,-2960.823768,536.266849
1441.139225,7624.121203,-3108.864956,0.000000
1441.139554,7920.203579,-3182.885551,689.485948
1441.139883,7550.100608,-5033.400406,689.485948
1441.140212,7031.956449,-5625.565159,1072.533697
1441.140542,8290.306550,-4737.318029,995.924147
1441.140871,9548.656652,-4959.379811,1149.143247
1441.141200,10362.883188,-5551.544565,1991.848295
1441.141529,9326.594869,-6069.688724,1915.238745
1441.141859,7846.182985,-6365.771101,995.924147
1441.142188,6143.709319,-7328.038826,0.000000
1441.142517,4885.359217,-8660.409521,0.000000
1441.142846,4663.297435,-9178.553681,612.876398
1441.143176,5699.585753,-8734.430116,383.047749
1441.143505,5255.462188,-7105.977043,153.219100
1441.143834,5033.400406,-7402.059420,153.219100
1441.144163,6143.709319,-7179.997637,995.924147
1441.144493,7402.059420,-7105.977043,1302.362347
1441.144822,7179.997637,-6883.915261,995.924147
1441.145151,6809.894666,-5329.482782,689.485948
1441.145480,8142.265362,-4737.318029,842.705048
1441.145810,9252.574275,-6365.771101,2068.457845
1441.146139,9992.780217,-4737.318029,3524.039291
1441.146468,10288.862594,-3404.947333,2068.457845
1441.146797,9178.553681,-2886.803174,1608.800546
1441.147127,8142.265362,-3552.988522,2221.676944
1441.147456,8142.265362,-4219.173869,1762.019645
1441.147785,7698.141797,-4145.153275,1072.533697
1441.148114,7328.038826,-4441.235652,1225.752797
1441.148444,7846.182985,-3478.967927,229.828649
1441.148773,8142.265362,-4663.297435,153.219100
1441.149102,7031.956449,-7402.059420,1532.190996
1441.149431,6365.771101,-9178.553681,689.485948
1441.149761,6217.729913,-9178.553681,76.609550
1441.150090,5847.626942,-8364.327145,0.000000
1441.150419,5477.523971,-9918.759623,1149.143247
1441.150748,6735.874072,-9030.512492,1685.410096
1441.151078,6957.935855,-7920.203579,1225.752797
1441.151407,5847.626942,-7846.182985,995.924147
1441.151736,5625.565159,-8290.306550,1532.190996
1441.152065,5847.626942,-7328.038826,919.314598
1441.152395,5107.421000,-6365.771101,76.609550
1441.152724,5329.482782,-5403.503377,995.924147
1441.153053,6735.874072,-5773.606348,612.876398
1441.153382,8290.306550,-5181.441594,842.705048
1441.153712,8882.471304,-6291.750507,2145.067394
1441.154041,7550.100608,-7624.121203,1455.581446
1441.154370,6513.812290,-7254.018232,1072.533697
1441.154699,5255.462188,-8882.471304,536.266849
1441.155029,5255.462188,-8364.327145,383.047749
1441.155358,6957.935855,-6735.874072,1532.190996
1441.155687,7624.121203,-6883.915261,1762.019645
1441.156016,7846.182985,-6439.791695,2221.676944
1441.156346,6957.935855,-4663.297435,1762.019645
1441.156675,6513.812290,-5255.462188,1302.362347
1441.157004,5995.668130,-5329.482782,612.876398
1441.157333,6661.853478,-5033.400406,1455.581446
1441.157663,7698.141797,-5699.585753,995.924147
1441.157992,8734.430116,-4737.318029,1225.752797
1441.158321,8512.368333,-5921.647536,1455.581446
1441.158650,8808.450710,-4515.256246,1072.533697
1441.158980,7550.100608,-7402.059420,995.924147
1441.159309,6143.709319,-8734.430116,229.828649
1441.159638,5551.544565,-8068.244768,-689.485948
1441.159967,5921.647536,-8068.244768,383.047749
1441.160297,5995.668130,-7920.203579,229.828649
1441.160626,6439.791695,-7476.080014,995.924147
1441.160955,7550.100608,-6661.853478,1608.800546
1441.161284,7254.018232,-6661.853478,919.314598
1441.161614,6143.709319,-5403.503377,919.314598
1441.161943,6365.771101,-6069.688724,76.609550
1441.162272,7994.224174,-5773.606348,536.266849
1441.162601,8808.450710,-4811.338623,536.266849
1441.162931,9400.615463,-4737.318029,2221.676944
1441.163260,10658.965565,-5255.462188,1838.629195
1441.163589,9178.553681,-5921.647536,1915.238745
1441.163918,7105.977043,-6883.915261,766.095498
1441.164248,5921.647536,-7476.080014,383.047749
1441.164577,6143.709319,-7772.162391,536.266849
1441.164906,5847.626942,-7402.059420,842.705048
1441.165235,5773.606348,-7772.162391,766.095498
1441.165565,5773.606348,-5403.503377,995.924147
1441.165894,5625.565159,-6513.812290,153.219100
1441.166223,5403.503377,-6957.935855,153.219100
1441.166552,5477.523971,-6809.894666,995.924147
1441.166882,7105.977043,-6809.894666,612.876398
1441.167211,7550.100608,-5773.606348,995.924147
1441.167540,8734.430116,-4737.318029,919.314598
1441.167869,9474.636058,-4737.318029,1149.143247
1441.168199,9326.594869,-5329.482782,995.924147
1441.168528,7402.059420,-6735.874072,459.657299
1441.168857,6291.750507,-7105.977043,229.828649
1441.169186,5847.626942,-8512.368333,153.219100
1441.169516,6217.729913,-8216.285956,919.314598
1441.169845,5699.585753,-8956.491898,1532.190996
1441.170174,6883.915261,-7920.203579,2221.676944
1441.170503,6883.915261,-5995.668130,1302.362347
1441.170833,4959.379811,-6735.874072,842.705048
1441.171162,4441.235652,-5255.462188,0.000000
1441.171491,5847.626942,-6365.771101,0.000000
1441.171820,7772.162391,-6735.874072,1762.019645
1441.172150,7994.224174,-5995.668130,1762.019645
1441.172479,8882.471304,-6143.709319,2145.067394
1441.172808,8956.491898,-5847.626942,1838.629195
1441.173137,7994.224174,-6439.791695,1762.019645
1441.173467,7254.018232,-7254.018232,995.924147
1441.173796,6587.832884,-7920.203579,1225.752797
1441.174125,5995.668130,-8660.409521,612.876398
1441.174454,5699.585753,-7105.977043,1149.143247
1441.174784,5773.606348,-6069.688724,1915.238745
1441.175113,7402.059420,-5477.523971,1455.581446
1441.175442,7402.059420,-6439.791695,2451.505594
1441.175771,6957.935855,-5255.462188,1915.238745
1441.176101,6513.812290,-4663.297435,1149.143247
1441.176430,6735.874072,-3849.070898,1072.533697
1441.176759,7624.121203,-4737.318029,612.876398
1441.177088,8364.327145,-4737.318029,536.266849
1441.177418,8142.265362,-6069.688724,1378.971896
1441.177747,7698.141797,-8364.327145,1302.362347
1441.178076,6513.812290,-7698.141797,1072.533697
1441.178405,5329.482782,-8660.409521,689.485948
1441.178735,5477.523971,-9400.615463,306.438199
1441.179064,6291.750507,-8956.491898,1072.533697
1441.179393,5625.565159,-8734.430116,1378.971896
1441.179722,5847.626942,-7105.977043,1378.971896
1441.180052,6365.771101,-6365.771101,919.314598
1441.180381,5773.606348,-5403.503377,766.095498
1441.180710,5107.421000,-6661.853478,919.314598
1441.181039,5995.668130,-5847.626942,1455.581446
1441.181369,7698.141797,-4663.297435,1072.533697
1441.181698,8216.285956,-4293.194464,919.314598
1441.182027,8438.347739,-4589.276840,1225.752797
1441.182356,8734.430116,-5921.647536,1762.019645
1441.182686,9104.533087,-7698.141797,1302.362347
1441.183015,7254.018232,-7402.059420,1072.533697
1441.183344,6513.812290,-7846.182985,919.314598
1441.183673,6291.750507,-7254.018232,766.095498
1441.184003,7624.121203,-6957.935855,995.924147
1441.184332,7328.038826,-7031.956449,1455.581446
1441.184661,7550.100608,-5477.523971,1149.143247
1441.184990,6735.874072,-6661.853478,1225.752797
1441.185320,6957.935855,-4663.297435,1608.800546
1441.185649,6809.894666,-5033.400406,1072.533697
1441.185978,6735.874072,-4145.153275,0.000000
1441.186307,6587.832884,-5699.585753,995.924147
1441.186637,8142.265362,-5995.668130,1378.971896
1441.186966,9770.718434,-6217.729913,2145.067394
1441.187295,8586.388927,-7402.059420,1762.019645
1441.187624,7105.977043,-7254.018232,612.876398
1441.187954,6143.709319,-8660.409521,153.219100
1441.188283,5773.606348,-10066.800811,0.000000
1441.188612,5477.523971,-8956.491898,1149.143247
1441.188941,5847.626942,-7476.080014,0.000000
1441.189271,5699.585753,-5921.647536,536.266849
1441.189600,5477.523971,-7105.977043,995.924147
1441.189929,6735.874072,-7179.997637,766.095498
1441.190258,6143.709319,-5255.462188,1302.362347
1441.190588,6365.771101,-6069.688724,919.314598
1441.190917,7179.997637,-4959.379811,612.876398
1441.191246,7772.162391,-4737.318029,919.314598
1441.191575,9178.553681,-5773.606348,842.705048
1441.191905,9178.553681,-6365.771101,1762.019645
1441.192234,8290.306550,-7920.203579,1915.238745
1441.192563,6957.935855,-8216.285956,995.924147
1441.192892,6587.832884,-8512.368333,842.705048
1441.193222,6735.874072,-7550.100608,842.705048
1441.193551,5995.668130,-7179.997637,153.219100
1441.193880,6217.729913,-6809.894666,1532.190996
1441.194209,7254.018232,-4737.318029,1225.752797
1441.194539,7402.059420,-4885.359217,1302.362347
1441.194868,6957.935855,-4219.173869,1225.752797
1441.195197,6661.853478,-5181.441594,1072.533697
1441.195526,7179.997637,-5625.565159,1455.581446
1441.195856,7328.038826,-5551.544565,1302.362347
1441.196185,7624.121203,-5107.421000,1915.238745
1441.196514,8586.388927,-4737.318029,1302.362347
1441.196843,8438.347739,-7254.018232,1608.800546
1441.197173,7402.059420,-8586.388927,1532.190996
1441.197502,6143.709319,-8882.471304,536.266849
1441.197831,5625.565159,-9992.780217,383.047749
1441.198160,4885.359217,-8956.491898,689.485948
1441.198490,5773.606348,-8586.388927,383.047749
1441.198819,6439.791695,-6439.791695,689.485948
1441.199148,7031.956449,-6069.688724,1838.629195
1441.199477,7105.977043,-5625.565159,536.266849
1441.199806,6661.853478,-4515.256246,995.924147
1441.200136,6661.853478,-5403.503377,1302.362347
1441.200465,7550.100608,-4589.276840,1149.143247
1441.200794,7920.203579,-4515.256246,1302.362347
1441.201123,8216.285956,-5181.441594,1378.971896
1441.201453,9474.636058,-6513.812290,2681.334243
1441.201782,8660.409521,-7772.162391,2451.505594
1441.202111,7328.038826,-7254.018232,1378.971896
1441.202440,5181.441594,-8586.388927,536.266849
1441.202770,4441.235652,-10140.821405,383.047749
1441.203099,4367.215058,-9918.759623,612.876398
1441.203428,5033.400406,-7476.080014,766.095498
1441.203757,5847.626942,-6291.750507,1149.143247
1441.204087,5921.647536,-5847.626942,842.705048
1441.204416,5773.606348,-4811.338623,842.705048
1441.204745,5699.585753,-5403.503377,1072.533697
1441.205074,7476.080014,-3923.091493,1608.800546
1441.205404,9178.553681,-3330.926739,1302.362347
1441.205733,9252.574275,-4145.153275,995.924147
1441.206062,9030.512492,-4589.276840,1838.629195
1441.206391,9326.594869,-7328.038826,2145.067394
1441.206721,8364.327145,-8882.471304,2145.067394
1441.207050,5699.585753,-9400.615463,1072.533697
1441.207379,5033.400406,-9918.759623,612.876398
1441.207708,5181.441594,-9844.739029,919.314598
1441.208038,4959.379811,-9104.533087,689.485948
1441.208367,4145.153275,-7402.059420,536.266849
1441.208696,4811.338623,-7179.997637,0.000000
1441.209025,5625.565159,-5329.482782,0.000000
1441.209355,6365.771101,-4515.256246,766.095498
1441.209684,7846.182985,-4663.297435,2145.067394
1441.210013,9400.615463,-5329.482782,2145.067394
1441.210342,9252.574275,-4071.132681,1608.800546
1441.210672,9252.574275,-2738.761985,1378.971896
1441.211001,9622.677246,-4219.173869,1532.190996
1441.211330,9622.677246,-6661.853478,1685.410096
1441.211659,8364.327145,-7772.162391,2451.505594
1441.211989,7105.977043,-8956.491898,1149.143247
1441.212318,6809.894666,-8364.327145,1149.143247
1441.212647,5625.565159,-8734.430116,919.314598
1441.212976,5477.523971,-7550.100608,689.485948
1441.213306,4737.318029,-6217.729913,-459.657299
1441.213635,4589.276840,-7179.997637,-383.047749
1441.213964,4589.276840,-6587.832884,-536.266849
1441.214293,6513.812290,-5477.523971,306.438199
1441.214623,8068.244768,-5255.462188,995.924147
1441.214952,9178.553681,-4589.276840,1378.971896
1441.215281,9696.697840,-4145.153275,1225.752797
1441.215610,9474.636058,-3775.050304,1915.238745
1441.215940,9918.759623,-6217.729913,2221.676944
1441.216269,8882.471304,-7105.977043,1838.629195
1441.216598,6809.894666,-8142.265362,1302.362347
1441.216927,4737.318029,-9696.697840,306.438199
1441.217257,3775.050304,-8512.368333,919.314598
1441.217586,3552.988522,-9844.739029,153.219100
1441.217915,4737.318029,-8142.265362,306.438199
1441.218244,4885.359217,-6809.894666,306.438199
1441.218574,5329.482782,-7624.121203,306.438199
1441.218903,6291.750507,-5033.400406,536.266849
1441.219232,7031.956449,-3478.967927,306.438199
1441.219561,8882.471304,-3256.906145,383.047749
1441.219891,10066.800811,-3108.864956,1532.190996
1441.220220,11473.192101,-4219.173869,2604.724693
1441.220549,11621.233289,-3997.112087,2451.505594
1441.220878,9770.718434,-6143.709319,1762.019645
1441.221208,7624.121203,-8068.244768,1608.800546
1441.221537,5773.606348,-8956.491898,0.000000
1441.221866,5329.482782,-10214.842000,1378.971896
1441.222195,4959.379811,-9918.759623,536.266849
1441.222525,5033.400406,-8956.491898,689.485948
1441.222854,4959.379811,-6587.832884,229.828649
1441.223183,4959.379811,-6735.874072,-229.828649
1441.223512,5181.441594,-5995.668130,0.000000
1441.223842,6143.709319,-4885.359217,153.219100
1441.224171,7550.100608,-5921.647536,1378.971896
1441.224500,9104.533087,-3330.926739,1685.410096
1441.224829,9696.697840,-3775.050304,1072.533697
1441.225159,10066.800811,-3552.988522,1762.019645
1441.225488,9918.759623,-4959.379811,2604.724693
1441.225817,9030.512492,-7402.059420,2451.505594
1441.226146,7254.018232,-7179.997637,1762.019645
1441.226476,6069.688724,-8882.471304,842.705048
1441.226805,4737.318029,-9992.780217,0.000000
1441.227134,3923.091493,-9992.780217,536.266849
1441.227463,3923.091493,-10140.821405,459.657299
1441.227793,4737.318029,-7698.141797,-383.047749
1441.228122,4515.256246,-7105.977043,-612.876398
1441.228451,5107.421000,-5329.482782,229.828649
1441.228780,7328.038826,-4737.318029,612.876398
1441.229110,9030.512492,-3478.967927,1378.971896
1441.229439,9992.780217,-2664.741391,842.705048
1441.229768,10436.903782,-3404.947333,2451.505594
1441.230097,10436.903782,-3256.906145,2757.943793
1441.230427,9030.512492,-6143.709319,2068.457845
1441.230756,7772.162391,-7328.038826,2451.505594
1441.231085,7105.977043,-8438.347739,2451.505594
1441.231414,6439.791695,-9252.574275,1455.581446
1441.231743,5329.482782,-8734.430116,1455.581446
1441.232072,4663.297435,-8512.368333,689.485948
1441.232402,4589.276840,-7772.162391,153.219100
1441.232731,3478.967927,-7624.121203,-536.266849
1441.233060,3256.906145,-7476.080014,-459.657299
1441.233389,5033.400406,-6587.832884,536.266849
1441.233718,7846.182985,-5107.421000,842.705048
1441.234048,8956.491898,-3478.967927,1685.410096
1441.234377,9474.636058,-2812.782580,1455.581446
1441.234706,10732.986159,-3404.947333,2145.067394
1441.235035,10288.862594,-5107.421000,1302.362347
1441.235364,8734.430116,-7031.956449,2451.505594
1441.235694,7772.162391,-7550.100608,1838.629195
1441.236023,6661.853478,-9400.615463,1225.752797
1441.236352,5329.482782,-10362.883188,995.924147
1441.236681,4959.379811,-10066.800811,689.485948
1441.237010,5181.441594,-10807.006753,1762.019645
1441.237339,4737.318029,-7105.977043,0.000000
1441.237669,3404.947333,-6883.915261,76.609550
1441.237998,2886.803174,-6883.915261,-612.876398
1441.238327,4811.338623,-4737.318029,842.705048
1441.238656,7920.203579,-4515.256246,306.438199
1441.238985,8512.368333,-3552.988522,1225.752797
1441.239315,10288.862594,-3404.947333,2681.334243
1441.239644,10584.944971,-5033.400406,2604.724693
1441.239973,8882.471304,-5107.421000,1149.143247
1441.240302,7031.956449,-7254.018232,2068.457845
1441.240631,7254.018232,-8956.491898,919.314598
1441.240961,7624.121203,-8142.265362,1225.752797
1441.241290,6217.729913,-9548.656652,2221.676944
1441.241619,6439.791695,-8586.388927,2298.286494
1441.241948,6883.915261,-6513.812290,842.705048
1441.242277,4885.359217,-7476.080014,-459.657299
1441.242606,3627.009116,-6735.874072,229.828649
1441.242936,5329.482782,-5329.482782,229.828649
1441.243265,6587.832884,-5255.462188,0.000000
1441.243594,6439.791695,-3330.926739,0.000000
1441.243923,8734.430116,-3478.967927,1455.581446
1441.244252,10436.903782,-3997.112087,1532.190996
1441.244582,9474.636058,-4959.379811,1838.629195
1441.244911,8586.388927,-7402.059420,2451.505594
1441.245240,8364.327145,-6957.935855,2068.457845
1441.245569,7179.997637,-9696.697840,1608.800546
1441.245898,5847.626942,-8956.491898,995.924147
1441.246228,5477.523971,-8808.450710,536.266849
1441.246557,6661.853478,-8438.347739,1455.581446
1441.246886,5995.668130,-7698.141797,766.095498
1441.247215,4515.256246,-6809.894666,536.266849
1441.247544,4367.215058,-5625.565159,76.609550
1441.247873,4737.318029,-5699.585753,-766.095498
1441.248203,5551.544565,-4885.359217,0.000000
1441.248532,6513.812290,-4737.318029,459.657299
1441.248861,8882.471304,-3849.070898,919.314598
1441.249190,10140.821405,-4737.318029,1225.752797
1441.249519,8660.409521,-7031.956449,1915.238745
1441.249849,7920.203579,-7179.997637,1991.848295
1441.250178,7994.224174,-8364.327145,1532.190996
1441.250507,7402.059420,-8216.285956,1149.143247
1441.250836,6365.771101,-8586.388927,1838.629195
1441.251165,7254.018232,-7624.121203,1455.581446
1441.251495,6883.915261,-7105.977043,689.485948
1441.251824,5403.503377,-8290.306550,1225.752797
1441.252153,4663.297435,-6439.791695,766.095498
1441.252482,4811.338623,-5329.482782,-383.047749
1441.252811,4737.318029,-4737.318029,0.000000
1441.253140,5773.606348,-4737.318029,0.000000
1441.253470,8364.327145,-5625.565159,1225.752797
1441.253799,9474.636058,-4663.297435,2298.286494
1441.254128,9474.636058,-5329.482782,1915.238745
1441.254457,8882.471304,-6957.935855,2145.067394
1441.254786,8586.388927,-6365.771101,2298.286494
1441.255116,7846.182985,-7846.182985,1302.362347
1441.255445,7476.080014,-7550.100608,2145.067394
1441.255774,7550.100608,-7179.997637,1915.238745
1441.256103,7624.121203,-7402.059420,995.924147
1441.256432,5921.647536,-6587.832884,612.876398
1441.256762,3775.050304,-7846.182985,459.657299
1441.257091,4441.235652,-6217.729913,-766.095498
1441.257420,4589.276840,-5995.668130,-229.828649
1441.257749,5329.482782,-5033.400406,-229.828649
1441.258078,7328.038826,-4885.359217,229.828649
1441.258407,9030.512492,-4071.132681,1991.848295
1441.258737,9918.759623,-5995.668130,1455.581446
1441.259066,8586.388927,-7402.059420,2451.505594
1441.259395,7772.162391,-7254.018232,1838.629195
1441.259724,7105.977043,-8364.327145,1378.971896
1441.260053,6069.688724,-8438.347739,842.705048
1441.260383,6143.709319,-8512.368333,1838.629195
1441.260712,6883.915261,-8216.285956,1532.190996
1441.261041,6439.791695,-7179.997637,1685.410096
1441.261370,5107.421000,-6957.935855,153.219100
1441.261699,4515.256246,-7105.977043,-306.438199
1441.262029,4737.318029,-6513.812290,-459.657299
1441.262358,5329.482782,-6365.771101,459.657299
1441.262687,6809.894666,-5477.523971,76.609550
1441.263016,8216.285956,-3701.029710,536.266849
1441.263345,9548.656652,-3478.967927,1378.971896
1441.263674,9844.739029,-5403.503377,1608.800546
1441.264004,9548.656652,-7254.018232,2681.334243
1441.264333,8956.491898,-7179.997637,2604.724693
1441.264662,7105.977043,-7476.080014,1072.533697
1441.264991,5995.668130,-7402.059420,1072.533697
1441.265320,6883.915261,-7179.997637,1608.800546
1441.265650,8068.244768,-7179.997637,1838.629195
1441.265979,6439.791695,-6291.750507,1532.190996
1441.266308,4959.379811,-7179.997637,1072.533697
1441.266637,4737.318029,-6217.729913,-459.657299
1441.266966,5181.441594,-5033.400406,-383.047749
1441.267296,5403.503377,-5921.647536,459.657299
1441.267625,7254.018232,-4811.338623,536.266849
1441.267954,9326.594869,-4737.318029,1838.629195
1441.268283,9992.780217,-5403.503377,2528.115143
1441.268612,9400.615463,-6365.771101,2451.505594
1441.268941,7624.121203,-6883.915261,1685.410096
1441.269271,5477.523971,-8660.409521,536.266849
1441.269600,4589.276840,-10436.903782,689.485948
1441.269929,5107.421000,-8882.471304,1225.752797
1441.270258,6439.791695,-7254.018232,842.705048
1441.270587,6439.791695,-6661.853478,1455.581446
1441.270917,6587.832884,-7179.997637,1302.362347
1441.271246,6809.894666,-5255.462188,842.705048
1441.271575,7105.977043,-4367.215058,459.657299
1441.271904,7476.080014,-5033.400406,306.438199
1441.272233,6809.894666,-3849.070898,76.609550
1441.272563,7920.203579,-4737.318029,306.438199
1441.272892,8882.471304,-5699.585753,1225.752797
1441.273221,8808.450710,-6143.709319,2068.457845
1441.273550,7920.203579,-7920.203579,2068.457845
1441.273879,7328.038826,-7105.977043,1455.581446
1441.274208,7476.080014,-7254.018232,1378.971896
1441.274538,7105.977043,-8068.244768,1608.800546
1441.274867,6513.812290,-8068.244768,2068.457845
1441.275196,4811.338623,-7550.100608,995.924147
1441.275525,4145.153275,-7624.121203,0.000000
1441.275854,4367.215058,-7772.162391,229.828649
1441.276184,5107.421000,-6069.688724,689.485948
1441.276513,6439.791695,-7105.977043,919.314598
1441.276842,7402.059420,-5773.606348,919.314598
1441.277171,8068.244768,-3923.091493,919.314598
1441.277500,8882.471304,-4367.215058,842.705048
1441.277830,8808.450710,-4737.318029,1072.533697
1441.278159,7772.162391,-8290.306550,1302.362347
1441.278488,7105.977043,-7550.100608,766.095498
1441.278817,6587.832884,-8142.265362,842.705048
1441.279146,6661.853478,-9474.636058,1302.362347
1441.279475,7772.162391,-5921.647536,1838.629195
1441.279805,8142.265362,-6735.874072,1608.800546
1441.280134,6883.915261,-6587.832884,1072.533697
1441.280463,4959.379811,-5477.523971,76.609550
1441.280792,5329.482782,-6217.729913,689.485948
1441.281121,6883.915261,-5329.482782,153.219100
1441.281451,7698.141797,-5773.606348,1302.362347
1441.281780,8290.306550,-5033.400406,1838.629195
1441.282109,8216.285956,-4219.173869,536.266849
1441.282438,8512.368333,-5107.421000,1762.019645
1441.282767,8734.430116,-6069.688724,1608.800546
1441.283097,7920.203579,-7031.956449,1685.410096
1441.283426,6883.915261,-7105.977043,1072.533697
1441.283755,6291.750507,-7476.080014,612.876398
1441.284084,6439.791695,-8364.327145,1225.752797
1441.284413,6735.874072,-7624.121203,1762.019645
1441.284742,7105.977043,-7402.059420,1455.581446
1441.285072,6365.771101,-5921.647536,766.095498
1441.285401,5625.565159,-6143.709319,919.314598
1441.285730,5477.523971,-6587.832884,306.438199
1441.286059,6587.832884,-5255.462188,689.485948
1441.286388,6809.894666,-5181.441594,153.219100
1441.286718,7550.100608,-5033.400406,612.876398
1441.287047,8068.244768,-4515.256246,766.095498
1441.287376,7994.224174,-7105.977043,1532.190996
1441.287705,6883.915261,-8438.347739,1532.190996
1441.288034,6587.832884,-8808.450710,919.314598
1441.288364,6735.874072,-8290.306550,1378.971896
1441.288693,7105.977043,-8808.450710,689.485948
1441.289022,6883.915261,-8586.388927,2221.676944
1441.289351,6735.874072,-7179.997637,1455.581446
1441.289680,6883.915261,-6883.915261,1072.533697
1441.290009,6143.709319,-5255.462188,919.314598
1441.290339,5847.626942,-5255.462188,689.485948
1441.290668,6661.853478,-4737.318029,689.485948
1441.290997,7105.977043,-5181.441594,1072.533697
1441.291326,7179.997637,-4589.276840,383.047749
1441.291655,8290.306550,-3923.091493,689.485948
1441.291985,9400.615463,-5477.523971,1762.019645
1441.292314,8808.450710,-7402.059420,1685.410096
1441.292643,7031.956449,-7698.141797,689.485948
1441.292972,5847.626942,-8882.471304,0.000000
1441.293301,5847.626942,-9252.574275,383.047749
1441.293630,7105.977043,-8956.491898,1302.362347
1441.293960,7920.203579,-7772.162391,2451.505594
1441.294289,7994.224174,-6809.894666,1838.629195
1441.294618,7179.997637,-5107.421000,153.219100
1441.294947,6587.832884,-5699.585753,1225.752797
1441.295276,6513.812290,-5255.462188,1302.362347
1441.295606,6661.853478,-5033.400406,306.438199
1441.295935,6217.729913,-5403.503377,153.219100
1441.296264,5773.606348,-4959.379811,0.000000
1441.296593,6513.812290,-6439.791695,383.047749
1441.296922,7328.038826,-7328.038826,1302.362347
1441.297252,7105.977043,-8882.471304,1532.190996
1441.297581,6439.791695,-8586.388927,1455.581446
1441.297910,5033.400406,-9474.636058,995.924147
1441.298239,5625.565159,-8956.491898,1149.143247
1441.298568,6809.894666,-7105.977043,1378.971896
1441.298897,7920.203579,-6735.874072,2145.067394
1441.299227,7772.162391,-5181.441594,1532.190996
1441.299556,7698.141797,-4441.235652,1455.581446
1441.299885,7476.080014,-3775.050304,1685.410096
1441.300214,7550.100608,-3701.029710,1685.410096
1441.300543,8142.265362,-4515.256246,1455.581446
1441.300873,7476.080014,-3775.050304,919.314598
1441.301202,7105.977043,-5033.400406,1072.533697
1441.301531,6809.894666,-6883.915261,1072.533697
1441.301860,5551.544565,-8216.285956,995.924147
1441.302189,4737.318029,-9400.615463,0.000000
1441.302519,5477.523971,-8808.450710,229.828649
1441.302848,6439.791695,-9400.615463,766.095498
1441.303177,7846.182985,-8586.388927,2068.457845
1441.303506,8216.285956,-6513.812290,3370.820191
1441.303835,8364.327145,-4811.338623,2068.457845
1441.304164,7402.059420,-5033.400406,612.876398
1441.304494,6957.935855,-4293.194464,1225.752797
1441.304823,6883.915261,-5181.441594,1225.752797
1441.305152,7105.977043,-6217.729913,2604.724693
1441.305481,6957.935855,-4959.379811,1072.533697
1441.305810,6957.935855,-5181.441594,229.828649
1441.306140,7254.018232,-6291.750507,689.485948
1441.306469,6439.791695,-9252.574275,612.876398
1441.306798,5699.585753,-10510.924376,459.657299
1441.307127,4515.256246,-9770.718434,0.000000
1441.307456,4737.318029,-9696.697840,-229.828649
1441.307786,5551.544565,-9844.739029,153.219100
1441.308115,6513.812290,-8142.265362,919.314598
1441.308444,7624.121203,-6217.729913,612.876398
1441.308773,7698.141797,-5033.400406,1072.533697
1441.309102,7624.121203,-3775.050304,1455.581446
1441.309431,8364.327145,-3775.050304,1302.362347
1441.309761,8660.409521,-3627.009116,1302.362347
1441.310090,7624.121203,-3849.070898,383.047749
1441.310419,7772.162391,-4145.153275,383.047749
1441.310748,8290.306550,-4959.379811,1762.019645
1441.311077,9326.594869,-5995.668130,1915.238745
1441.311407,7550.100608,-7624.121203,1072.533697
1441.311736,5847.626942,-9696.697840,766.095498
1441.312065,4811.338623,-10066.800811,842.705048
1441.312394,5033.400406,-9178.553681,0.000000
1441.312723,5847.626942,-8142.265362,612.876398
1441.313053,6883.915261,-6809.894666,1225.752797
1441.313382,8068.244768,-5403.503377,1532.190996
1441.313711,7254.018232,-4515.256246,1302.362347
1441.314040,6439.791695,-4885.359217,1149.143247
1441.314369,7031.956449,-4959.379811,459.657299
1441.314698,7031.956449,-4145.153275,0.000000
1441.315028,8142.265362,-4589.276840,995.924147
1441.315357,9622.677246,-5107.421000,1991.848295
1441.315686,9992.780217,-6439.791695,1455.581446
1441.316015,8142.265362,-6957.935855,1149.143247
1441.316344,5847.626942,-7994.224174,536.266849
1441.316674,6217.729913,-9030.512492,612.876398
1441.317003,6513.812290,-9474.636058,1072.533697
1441.317332,5921.647536,-9548.656652,766.095498
1441.317661,5921.647536,-7550.100608,1302.362347
1441.317990,7179.997637,-6661.853478,1378.971896
1441.318320,7402.059420,-4811.338623,1149.143247
1441.318649,5625.565159,-3330.926739,689.485948
1441.318978,6069.688724,-4885.359217,459.657299
1441.319307,6587.832884,-4737.318029,383.047749
1441.319636,7105.977043,-4737.318029,459.657299
1441.319965,8142.265362,-4441.235652,1685.410096
1441.320295,9992.780217,-5329.482782,2221.676944
1441.320624,9474.636058,-6365.771101,1302.362347
1441.320953,7402.059420,-7476.080014,1991.848295
1441.321282,6365.771101,-9400.615463,995.924147
1441.321611,5921.647536,-9252.574275,229.828649
1441.321941,4885.359217,-9474.636058,306.438199
1441.322270,5255.462188,-9474.636058,842.705048
1441.322599,6513.812290,-7476.080014,766.095498
1441.322928,6365.771101,-6439.791695,1225.752797
1441.323257,5403.503377,-5329.482782,0.000000
1441.323587,5477.523971,-4441.235652,0.000000
1441.323916,6291.750507,-4885.359217,536.266849
1441.324245,7179.997637,-4663.297435,612.876398
1441.324574,8216.285956,-4367.215058,1455.581446
1441.324903,9400.615463,-4811.338623,842.705048
1441.325232,9548.656652,-5625.565159,2068.457845
1441.325562,8882.471304,-7179.997637,2451.505594
1441.325891,7994.224174,-7550.100608,1608.800546
1441.326220,7476.080014,-7846.182985,995.924147
1441.326549,5477.523971,-9696.697840,842.705048
1441.326878,5107.421000,-9400.615463,919.314598
1441.327208,6069.688724,-7179.997637,1302.362347
1441.327537,6513.812290,-6143.709319,1072.533697
1441.327866,6365.771101,-5255.462188,153.219100
1441.328195,4663.297435,-5477.523971,459.657299
1441.328524,5477.523971,-5033.400406,842.705048
1441.328854,6809.894666,-5033.400406,459.657299
1441.329183,7476.080014,-3182.885551,1532.190996
1441.329512,7994.224174,-3701.029710,1225.752797
1441.329841,9918.759623,-5255.462188,1378.971896
1441.330170,9992.780217,-6217.729913,2834.553343
1441.330499,8808.450710,-8512.368333,2298.286494
1441.330829,7846.182985,-8586.388927,1225.752797
1441.331158,6365.771101,-8290.306550,689.485948
1441.331487,5699.585753,-9918.759623,842.705048
1441.331816,6143.709319,-9104.533087,1072.533697
1441.332145,6217.729913,-7179.997637,995.924147
1441.332475,6365.771101,-5255.462188,229.828649
1441.332804,5699.585753,-5921.647536,536.266849
1441.333133,5551.544565,-4737.318029,153.219100
1441.333462,5551.544565,-4737.318029,0.000000
1441.333791,5551.544565,-5403.503377,842.705048
1441.334120,6809.894666,-4959.379811,689.485948
1441.334449,8068.244768,-5921.647536,689.485948
1441.334778,9400.615463,-5921.647536,2374.896044
1441.335108,9104.533087,-6957.935855,1915.238745
1441.335437,7624.121203,-9326.594869,1302.362347
1441.335766,6587.832884,-9030.512492,1149.143247
1441.336095,6069.688724,-9474.636058,689.485948
1441.336424,5995.668130,-9030.512492,842.705048
1441.336753,5551.544565,-7772.162391,1762.019645
1441.337082,6513.812290,-6143.709319,842.705048
1441.337411,6143.709319,-5107.421000,306.438199
1441.337741,6513.812290,-4737.318029,459.657299
1441.338070,7772.162391,-3478.967927,1302.362347
1441.338399,8068.244768,-2442.679609,766.095498
1441.338728,7920.203579,-2294.638420,229.828649
1441.339057,8438.347739,-3627.009116,766.095498
1441.339386,9474.636058,-4071.132681,1608.800546
1441.339715,9696.697840,-6069.688724,2298.286494
1441.340044,8512.368333,-8660.409521,2451.505594
1441.340374,7105.977043,-7994.224174,1762.019645
1441.340703,6291.750507,-9178.553681,612.876398
1441.341032,5773.606348,-10214.842000,1302.362347
1441.341361,5699.585753,-8882.471304,2145.067394
1441.341690,5773.606348,-7402.059420,766.095498
1441.342019,6291.750507,-6661.853478,612.876398
1441.342348,5921.647536,-5699.585753,536.266849
1441.342677,5847.626942,-5699.585753,153.219100
1441.343007,5995.668130,-5699.585753,689.485948
1441.343336,6957.935855,-4515.256246,306.438199
1441.343665,7846.182985,-3923.091493,76.609550
1441.343994,8660.409521,-4515.256246,1378.971896
1441.344323,8956.491898,-5921.647536,1302.362347
1441.344652,7994.224174,-7846.182985,1915.238745
1441.344981,6365.771101,-9474.636058,1072.533697
1441.345310,5403.503377,-10362.883188,459.657299
1441.345640,5403.503377,-10807.006753,766.095498
1441.345969,5107.421000,-10807.006753,842.705048
1441.346298,6217.729913,-8882.471304,919.314598
1441.346627,6661.853478,-7105.977043,689.485948
1441.346956,6291.750507,-5847.626942,459.657299
1441.347285,7402.059420,-3997.112087,1149.143247
1441.347614,6883.915261,-2960.823768,1072.533697
1441.347943,7031.956449,-2812.782580,0.000000
1441.348273,7328.038826,-2960.823768,1149.143247
1441.348602,9178.553681,-4515.256246,2221.676944
1441.348931,9474.636058,-3701.029710,2451.505594
1441.349260,7994.224174,-6143.709319,2221.676944
1441.349589,7105.977043,-6365.771101,1762.019645
1441.349918,6291.750507,-7105.977043,612.876398
1441.350247,5699.585753,-11177.109724,995.924147
1441.350576,5773.606348,-9104.533087,1762.019645
1441.350906,7105.977043,-9474.636058,1378.971896
1441.351235,6809.894666,-8882.471304,1302.362347
1441.351564,5551.544565,-6587.832884,766.095498
1441.351893,5847.626942,-6883.915261,383.047749
1441.352222,5921.647536,-5181.441594,0.000000
1441.352551,5995.668130,-5625.565159,459.657299
1441.352880,7105.977043,-4367.215058,842.705048
1441.353209,7624.121203,-2960.823768,459.657299
1441.353539,8808.450710,-3923.091493,1838.629195
1441.353868,8808.450710,-4589.276840,1532.190996
1441.354197,8290.306550,-6883.915261,2068.457845
1441.354526,7031.956449,-7624.121203,1838.629195
1441.354855,5921.647536,-8882.471304,1532.190996
1441.355184,5329.482782,-10510.924376,229.828649
1441.355513,5625.565159,-10066.800811,842.705048
1441.355842,6143.709319,-10362.883188,1838.629195
1441.356172,7105.977043,-7920.203579,1302.362347
1441.356501,6291.750507,-7994.224174,1302.362347
1441.356830,5847.626942,-5773.606348,995.924147
1441.357159,5847.626942,-4737.318029,766.095498
1441.357488,5995.668130,-4737.318029,0.000000
1441.357817,6735.874072,-1998.556043,229.828649
1441.358146,7698.141797,-2960.823768,842.705048
1441.358475,10066.800811,-2146.597232,1915.238745
1441.358805,9696.697840,-3701.029710,2068.457845
1441.359134,8660.409521,-7179.997637,2221.676944
1441.359463,8142.265362,-8216.285956,2451.505594
1441.359792,6735.874072,-9622.677246,1072.533697
1441.360121,5551.544565,-10288.862594,919.314598
1441.360450,5551.544565,-10140.821405,842.705048
1441.360779,6587.832884,-8956.491898,689.485948
1441.361108,7476.080014,-7624.121203,1225.752797
1441.361438,5995.668130,-7328.038826,1149.143247
1441.361767,5995.668130,-5847.626942,1072.533697
1441.362096,7105.977043,-4293.194464,459.657299
1441.362425,7105.977043,-3182.885551,612.876398
1441.362754,6217.729913,-2442.679609,612.876398
1441.363083,7105.977043,-3256.906145,229.828649
1441.363412,8956.491898,-4145.153275,1532.190996
1441.363741,8882.471304,-6069.688724,1838.629195
1441.364071,8734.430116,-7328.038826,2374.896044
1441.364400,7920.203579,-8142.265362,2528.115143
1441.364729,6217.729913,-9548.656652,153.219100
1441.365058,5625.565159,-10584.944971,1072.533697
1441.365387,6291.750507,-10658.965565,1685.410096
1441.365716,6661.853478,-8956.491898,1072.533697
1441.366045,5107.421000,-8290.306550,612.876398
1441.366374,4811.338623,-7698.141797,536.266849
1441.366704,6069.688724,-5329.482782,-306.438199
1441.367033,6365.771101,-4367.215058,383.047749
1441.367362,6513.812290,-3552.988522,383.047749
1441.367691,8290.306550,-1998.556043,-229.828649
1441.368020,9178.553681,-3256.906145,919.314598
1441.368349,9400.615463,-4885.359217,1608.800546
1441.368678,9770.718434,-5921.647536,2451.505594
1441.369007,8216.285956,-7476.080014,2145.067394
1441.369337,6217.729913,-9992.780217,536.266849
1441.369666,5551.544565,-9030.512492,1685.410096
1441.369995,7105.977043,-10362.883188,1838.629195
1441.370324,7624.121203,-10140.821405,1838.629195
1441.370653,5699.585753,-8512.368333,1532.190996
1441.370982,4367.215058,-8512.368333,-229.828649
1441.371311,5181.441594,-5403.503377,-306.438199
1441.371640,4737.318029,-4737.318029,306.438199
1441.371970,5699.585753,-4441.235652,-459.657299
1441.372299,6883.915261,-2368.659014,-229.828649
1441.372628,8142.265362,-3330.926739,766.095498
1441.372957,9178.553681,-4441.235652,1149.143247
1441.373286,9474.636058,-4885.359217,3447.429741
1441.373615,9548.656652,-5551.544565,2451.505594
1441.373944,8586.388927,-7698.141797,1532.190996
1441.374273,6957.935855,-8586.388927,2068.457845
1441.374603,7031.956449,-8068.244768,1378.971896
1441.374932,7105.977043,-8882.471304,766.095498
1441.375261,6809.894666,-8290.306550,1149.143247
1441.375590,4885.359217,-7698.141797,153.219100
1441.375919,5625.565159,-7476.080014,766.095498
1441.376248,5403.503377,-6513.812290,995.924147
1441.376577,5181.441594,-5033.400406,-383.047749
1441.376906,5107.421000,-3108.864956,-612.876398
1441.377236,7328.038826,-3330.926739,459.657299
1441.377565,8364.327145,-4737.318029,995.924147
1441.377894,9326.594869,-5033.400406,2145.067394
1441.378223,8512.368333,-6513.812290,2528.115143
1441.378552,8290.306550,-6143.709319,1532.190996
1441.378881,7698.141797,-7179.997637,1532.190996
1441.379210,7402.059420,-7846.182985,2068.457845
1441.379539,7328.038826,-8364.327145,766.095498
1441.379869,6809.894666,-8068.244768,1072.533697
1441.380198,5477.523971,-8142.265362,229.828649
1441.380527,4959.379811,-7476.080014,306.438199
1441.380856,6143.709319,-6883.915261,919.314598
1441.381185,6809.894666,-6809.894666,995.924147
1441.381514,6069.688724,-5477.523971,229.828649
1441.381843,5847.626942,-4737.318029,689.485948
1441.382172,7550.100608,-5033.400406,536.266849
1441.382502,8068.244768,-4737.318029,766.095498
1441.382831,7105.977043,-5921.647536,995.924147
1441.383160,6513.812290,-7105.977043,995.924147
1441.383489,7031.956449,-7624.121203,766.095498
1441.383818,7550.100608,-9252.574275,1455.581446
1441.384147,7624.121203,-7994.224174,1608.800546
1441.384476,8364.327145,-7402.059420,2068.457845
1441.384805,7698.141797,-7624.121203,1685.410096
1441.385135,6957.935855,-5699.585753,995.924147
1441.385464,7105.977043,-5625.565159,1532.190996
1441.385793,7105.977043,-6069.688724,1225.752797
1441.386122,5477.523971,-5255.462188,919.314598
1441.386451,5403.503377,-5033.400406,995.924147
1441.386780,5773.606348,-4589.276840,229.828649
1441.387109,6365.771101,-4663.297435,1762.019645
1441.387438,7105.977043,-6069.688724,1838.629195
1441.387768,7920.203579,-5329.482782,1532.190996
1441.388097,7920.203579,-5625.565159,1455.581446
1441.388426,8142.265362,-6957.935855,1455.581446
1441.388755,8586.388927,-8364.327145,1915.238745
1441.389084,8660.409521,-7550.100608,2451.505594
1441.389413,8364.327145,-8068.244768,1455.581446
1441.389742,6661.853478,-7994.224174,306.438199
1441.390071,4959.379811,-7105.977043,0.000000
1441.390401,4515.256246,-8364.327145,229.828649
1441.390730,5773.606348,-8142.265362,995.924147
1441.391059,6069.688724,-5699.585753,689.485948
1441.391388,5699.585753,-5107.421000,-153.219100
1441.391717,5921.647536,-5255.462188,0.000000
1441.392046,5329.482782,-4737.318029,-842.705048
1441.392375,5181.441594,-7402.059420,0.000000
1441.392704,5847.626942,-7476.080014,1762.019645
1441.393034,8438.347739,-7328.038826,1608.800546
1441.393363,8882.471304,-9030.512492,1762.019645
1441.393692,8512.368333,-8290.306550,2911.162892
1441.394021,8882.471304,-6883.915261,1838.629195
1441.394350,8660.409521,-6365.771101,1225.752797
1441.394679,6143.709319,-6513.812290,689.485948
1441.395008,5773.606348,-6587.832884,306.438199
1441.395337,5921.647536,-5921.647536,689.485948
1441.395667,5847.626942,-5107.421000,0.000000
1441.395996,6217.729913,-5847.626942,689.485948
1441.396325,7550.100608,-4145.153275,995.924147
1441.396654,8290.306550,-4071.132681,1455.581446
1441.396983,7772.162391,-4071.132681,1149.143247
1441.397312,7624.121203,-4515.256246,1378.971896
1441.397641,7328.038826,-6217.729913,536.266849
1441.397970,7846.182985,-7698.141797,1072.533697
1441.398300,8512.368333,-8438.347739,2451.505594
1441.398629,9178.553681,-7624.121203,2145.067394
1441.398958,8956.491898,-7105.977043,2374.896044
1441.399287,7772.162391,-7031.956449,1225.752797
1441.399616,7476.080014,-7105.977043,1149.143247
1441.399945,6809.894666,-5699.585753,612.876398
1441.400274,4959.379811,-6883.915261,229.828649
1441.400603,4441.235652,-6069.688724,0.000000
1441.400933,4737.318029,-6587.832884,0.000000
1441.401262,5921.647536,-6143.709319,76.609550
1441.401591,5551.544565,-7476.080014,306.438199
1441.401920,7179.997637,-7550.100608,919.314598
1441.402249,7105.977043,-7179.997637,612.876398
1441.402578,7328.038826,-8290.306550,995.924147
1441.402907,8438.347739,-6365.771101,1838.629195
1441.403236,8882.471304,-7105.977043,2374.896044
1441.403566,7994.224174,-7698.141797,2221.676944
1441.403895,7550.100608,-5921.647536,1455.581446
1441.404224,6809.894666,-6143.709319,536.266849
1441.404553,5625.565159,-6217.729913,383.047749
1441.404882,5329.482782,-7179.997637,1302.362347
1441.405211,5477.523971,-6291.750507,306.438199
1441.405540,5181.441594,-6217.729913,0.000000
1441.405869,5551.544565,-5329.482782,306.438199
1441.406199,6957.935855,-4515.256246,76.609550
1441.406528,8364.327145,-6661.853478,1532.190996
1441.406857,7550.100608,-6809.894666,1072.533697
1441.407186,7105.977043,-7031.956449,1149.143247
1441.407515,7328.038826,-8216.285956,1762.019645
1441.407844,8216.285956,-7254.018232,2374.896044
1441.408173,8956.491898,-6291.750507,2834.553343
1441.408502,8882.471304,-5107.421000,2451.505594
1441.408832,7698.141797,-4441.235652,1225.752797
1441.409161,6143.709319,-6587.832884,1302.362347
1441.409490,5477.523971,-6291.750507,536.266849
1441.409819,5033.400406,-6217.729913,0.000000
1441.410148,4959.379811,-5403.503377,0.000000
1441.410477,5625.565159,-6883.915261,306.438199
1441.410806,6291.750507,-6661.853478,1378.971896
1441.411135,7328.038826,-6957.935855,1225.752797
1441.411465,7254.018232,-6957.935855,995.924147
1441.411794,7402.059420,-6069.688724,1072.533697
1441.412123,7402.059420,-7105.977043,919.314598
1441.412452,7624.121203,-8216.285956,1762.019645
1441.412781,7994.224174,-8068.244768,3294.210641
1441.413110,8142.265362,-6661.853478,2145.067394
1441.413439,7105.977043,-4663.297435,536.266849
1441.413768,5773.606348,-6143.709319,1532.190996
1441.414098,5625.565159,-6291.750507,1149.143247
1441.414427,5995.668130,-6883.915261,76.609550
1441.414756,4737.318029,-6143.709319,383.047749
1441.415085,5255.462188,-6661.853478,76.609550
1441.415414,6809.894666,-6735.874072,76.609550
1441.415743,6513.812290,-7328.038826,536.266849
1441.416072,6365.771101,-8586.388927,1378.971896
1441.416401,6513.812290,-7624.121203,536.266849
1441.416731,5847.626942,-8216.285956,689.485948
1441.417060,5699.585753,-7550.100608,536.266849
1441.417389,6809.894666,-7698.141797,919.314598
1441.417718,7920.203579,-6883.915261,1378.971896
1441.418047,7402.059420,-5477.523971,1378.971896
1441.418376,7402.059420,-6069.688724,1532.190996
1441.418705,8068.244768,-5181.441594,1149.143247
1441.419034,7105.977043,-4885.359217,766.095498
1441.419364,6661.853478,-5329.482782,689.485948
1441.419693,7698.141797,-4663.297435,76.609550
1441.420022,8438.347739,-6439.791695,995.924147
1441.420351,7994.224174,-6365.771101,995.924147
1441.420680,6735.874072,-6439.791695,383.047749
1441.421009,5847.626942,-7846.182985,689.485948
1441.421338,5625.565159,-7476.080014,0.000000
1441.421667,7328.038826,-7254.018232,383.047749
1441.421997,8142.265362,-7402.059420,2451.505594
1441.422326,9474.636058,-6291.750507,2834.553343
1441.422655,9178.553681,-4441.235652,1991.848295
1441.422984,7698.141797,-3701.029710,842.705048
1441.423313,6735.874072,-5033.400406,842.705048
1441.423642,6957.935855,-5995.668130,1149.143247
1441.423971,7105.977043,-7031.956449,1302.362347
1441.424300,6735.874072,-6365.771101,1072.533697
1441.424630,7772.162391,-6143.709319,612.876398
1441.424959,7402.059420,-5847.626942,0.000000
1441.425288,6365.771101,-6883.915261,536.266849
1441.425617,6513.812290,-9696.697840,612.876398
1441.425946,6809.894666,-7254.018232,919.314598
1441.426275,6291.750507,-7994.224174,383.047749
1441.426604,5995.668130,-8142.265362,766.095498
1441.426933,7254.018232,-6883.915261,689.485948
1441.427263,7550.100608,-7846.182985,1225.752797
1441.427592,8142.265362,-5255.462188,1991.848295
1441.427921,7105.977043,-4959.379811,689.485948
1441.428250,7031.956449,-4959.379811,1072.533697
1441.428579,6365.771101,-5625.565159,689.485948
1441.428908,6143.709319,-7105.977043,919.314598
1441.429237,6809.894666,-4737.318029,919.314598
1441.429566,7254.018232,-6143.709319,1532.190996
1441.429896,8216.285956,-6735.874072,1608.800546
1441.430225,7550.100608,-7550.100608,1378.971896
1441.430554,6291.750507,-8068.244768,1685.410096
1441.430883,5921.647536,-8290.306550,383.047749
1441.431212,4811.338623,-8734.430116,0.000000
1441.431541,4811.338623,-8068.244768,0.000000
1441.431870,6513.812290,-7105.977043,919.314598
1441.432199,7550.100608,-5329.482782,1685.410096
1441.432529,7402.059420,-5329.482782,1378.971896
1441.432858,7994.224174,-5551.544565,1225.752797
1441.433187,8290.306550,-5107.421000,1838.629195
1441.433516,7994.224174,-4071.132681,1378.971896
1441.433845,7698.141797,-4589.276840,1149.143247
1441.434174,8216.285956,-4737.318029,1378.971896
1441.434503,8364.327145,-5625.565159,1072.533697
1441.434832,7846.182985,-7179.997637,1378.971896
1441.435161,6735.874072,-8364.327145,2068.457845
1441.435490,5921.647536,-8290.306550,612.876398
1441.435819,4811.338623,-9770.718434,612.876398
1441.436148,4071.132681,-9622.677246,306.438199
1441.436477,3997.112087,-8956.491898,306.438199
1441.436807,5403.503377,-9030.512492,612.876398
1441.437136,6809.894666,-7179.997637,1302.362347
1441.437465,5847.626942,-6587.832884,1149.143247
1441.437794,5625.565159,-6291.750507,919.314598
1441.438123,6217.729913,-4811.338623,1149.143247
1441.438452,6661.853478,-5995.668130,689.485948
1441.438781,7402.059420,-5329.482782,1762.019645
1441.439110,8512.368333,-5921.647536,2145.067394
1441.439439,8956.491898,-5847.626942,2451.505594
1441.439768,7179.997637,-6957.935855,2145.067394
1441.440097,4959.379811,-9326.594869,919.314598
1441.440426,4441.235652,-9178.553681,306.438199
1441.440755,3775.050304,-10288.862594,0.000000
1441.441084,3701.029710,-9400.615463,229.828649
1441.441413,4811.338623,-7772.162391,842.705048
1441.441742,6735.874072,-7402.059420,1225.752797
1441.442071,6883.915261,-6957.935855,1838.629195
1441.442401,6143.709319,-6291.750507,689.485948
1441.442730,5625.565159,-5477.523971,229.828649
1441.443059,5625.565159,-7105.977043,459.657299
1441.443388,5847.626942,-7550.100608,919.314598
1441.443717,6661.853478,-6735.874072,919.314598
1441.444046,6957.935855,-7920.203579,1838.629195
1441.444375,7624.121203,-7105.977043,1302.362347
1441.444704,5847.626942,-10140.821405,1149.143247
1441.445033,4441.235652,-9992.780217,842.705048
1441.445362,3256.906145,-11547.212695,0.000000
1441.445691,2442.679609,-12435.459826,-612.876398
1441.446020,2368.659014,-11769.274478,1302.362347
1441.446349,4293.194464,-9474.636058,1378.971896
1441.446678,7328.038826,-4589.276840,2374.896044
1441.447007,7920.203579,-2812.782580,2451.505594
1441.447336,8882.471304,-2812.782580,3217.601092
1441.447665,7920.203579,-3775.050304,2374.896044
1441.447995,6365.771101,-4367.215058,919.314598
1441.448324,5477.523971,-4885.359217,-536.266849
1441.448653,5255.462188,-7698.141797,536.266849
1441.448982,5847.626942,-9770.718434,1608.800546
1441.449311,5699.585753,-10288.862594,536.266849
1441.449640,6291.750507,-11399.171507,2221.676944
1441.449969,6439.791695,-12435.459826,1532.190996
1441.450298,3923.091493,-12583.501014,-536.266849
1441.450627,148.041188,-12805.562797,-1149.143247
1441.450956,-518.144159,-13027.624579,-1991.848295
1441.451285,740.205942,-13989.892304,-1378.971896
1441.451614,1480.411884,-12879.583391,1378.971896
1441.451943,2664.741391,-10214.842000,2681.334243
1441.452272,5699.585753,-6809.894666,1762.019645
1441.452601,7402.059420,-2812.782580,3677.258390
1441.452930,7328.038826,-2368.659014,2374.896044
1441.453259,8216.285956,-1998.556043,2451.505594
1441.453588,8216.285956,-4071.132681,2374.896044
1441.453918,7105.977043,-4959.379811,919.314598
1441.454247,5403.503377,-8808.450710,459.657299
1441.454576,3701.029710,-13249.686362,842.705048
1441.454905,4145.153275,-13027.624579,1532.190996
1441.455234,4219.173869,-13175.665768,306.438199
1441.455563,4367.215058,-13101.645173,1455.581446
1441.455892,3775.050304,-11103.089130,612.876398
1441.456221,2960.823768,-8216.285956,-842.705048
1441.456550,1036.288319,-8438.347739,-2374.896044
1441.456879,1776.494261,-10066.800811,0.000000
1441.457208,3404.947333,-9844.739029,1455.581446
1441.457537,4071.132681,-8586.388927,2068.457845
1441.457866,5699.585753,-4441.235652,2681.334243
1441.458195,8734.430116,-4219.173869,2145.067394
1441.458524,9696.697840,-5477.523971,3294.210641
1441.458853,7550.100608,-7031.956449,3524.039291
1441.459182,5625.565159,-5847.626942,995.924147
1441.459512,4959.379811,-6883.915261,-1838.629195
1441.459841,3627.009116,-11251.130318,0.000000
1441.460170,3849.070898,-14211.954086,2681.334243
1441.460499,4959.379811,-13545.768739,2528.115143
1441.460828,5551.544565,-8882.471304,1378.971896
1441.461157,4959.379811,-5773.606348,-612.876398
1441.461486,5477.523971,-5181.441594,536.266849
1441.461815,5477.523971,-7550.100608,1302.362347
1441.462144,4811.338623,-7624.121203,919.314598
1441.462473,3552.988522,-7031.956449,-306.438199
1441.462802,3478.967927,-8364.327145,-459.657299
1441.463131,4811.338623,-9918.759623,1455.581446
1441.463460,5921.647536,-10881.027347,2451.505594
1441.463789,6291.750507,-9548.656652,1532.190996
1441.464118,5699.585753,-7846.182985,229.828649
1441.464447,5329.482782,-7550.100608,766.095498
1441.464776,6439.791695,-7105.977043,995.924147
1441.465105,6809.894666,-7402.059420,919.314598
1441.465435,6513.812290,-7698.141797,842.705048
1441.465764,5329.482782,-8956.491898,1838.629195
1441.466093,4663.297435,-9252.574275,2528.115143
1441.466422,4737.318029,-7476.080014,1685.410096
1441.466751,4589.276840,-7105.977043,153.219100
1441.467080,3478.967927,-7698.141797,-229.828649
1441.467409,2368.659014,-10362.883188,383.047749
1441.467738,2738.761985,-11325.150913,995.924147
1441.468067,3627.009116,-9548.656652,383.047749
1441.468396,3923.091493,-8290.306550,76.609550
1441.468725,4367.215058,-10732.986159,1302.362347
1441.469054,5255.462188,-10807.006753,2221.676944
1441.469383,5921.647536,-9326.594869,995.924147
1441.469712,5921.647536,-7920.203579,1072.533697
1441.470041,6513.812290,-6735.874072,1149.143247
1441.470370,6217.729913,-7698.141797,1455.581446
1441.470699,4885.359217,-9178.553681,1608.800546
1441.471029,3997.112087,-9770.718434,1302.362347
1441.471358,3552.988522,-8882.471304,383.047749
1441.471687,2812.782580,-9400.615463,306.438199
1441.472016,2590.720797,-10584.944971,766.095498
1441.472345,3404.947333,-10288.862594,689.485948
1441.472674,3849.070898,-10066.800811,459.657299
1441.473003,3923.091493,-8734.430116,1378.971896
1441.473332,4885.359217,-7328.038826,1685.410096
1441.473661,6735.874072,-6883.915261,1302.362347
1441.473990,6957.935855,-6143.709319,1302.362347
1441.474319,6217.729913,-7402.059420,1838.629195
1441.474648,6439.791695,-8216.285956,2374.896044
1441.474977,6587.832884,-8882.471304,1685.410096
1441.475306,5625.565159,-8660.409521,1072.533697
1441.475635,4145.153275,-8660.409521,995.924147
1441.475964,3330.926739,-10288.862594,-459.657299
1441.476293,2590.720797,-10732.986159,153.219100
1441.476623,2442.679609,-11621.233289,0.000000
1441.476952,4071.132681,-10658.965565,0.000000
1441.477281,4959.379811,-8956.491898,536.266849
1441.477610,5181.441594,-9400.615463,1072.533697
1441.477939,6069.688724,-7994.224174,1991.848295
1441.478268,6439.791695,-6735.874072,1762.019645
1441.478597,6661.853478,-4959.379811,2068.457845
1441.478926,6661.853478,-4441.235652,1608.800546
1441.479255,7402.059420,-6291.750507,2604.724693
1441.479584,7624.121203,-5847.626942,1685.410096
1441.479913,6439.791695,-6513.812290,1072.533697
1441.480242,5625.565159,-6735.874072,306.438199
1441.480571,5699.585753,-8734.430116,612.876398
1441.480900,4737.318029,-10881.027347,1225.752797
1441.481229,3923.091493,-11177.109724,689.485948
1441.481558,3552.988522,-11325.150913,229.828649
1441.481887,4145.153275,-10288.862594,1302.362347
1441.482216,4589.276840,-9992.780217,1072.533697
1441.482546,4885.359217,-9622.677246,1225.752797
1441.482875,4885.359217,-8142.265362,842.705048
1441.483204,5033.400406,-8142.265362,919.314598
1441.483533,5255.462188,-6809.894666,1762.019645
1441.483862,5403.503377,-6365.771101,1225.752797
1441.484191,5699.585753,-6661.853478,229.828649
1441.484520,5773.606348,-6513.812290,689.485948
1441.484849,4811.338623,-7402.059420,842.705048
1441.485178,4959.379811,-8512.368333,1455.581446
1441.485507,4737.318029,-10658.965565,1608.800546
1441.485836,3997.112087,-11695.253884,1685.410096
1441.486165,3701.029710,-11843.295072,1608.800546
1441.486494,3775.050304,-11177.109724,2221.676944
1441.486823,4811.338623,-9326.594869,1838.629195
1441.487152,5255.462188,-7994.224174,1838.629195
1441.487481,5107.421000,-6291.750507,1915.238745
1441.487810,4589.276840,-6439.791695,842.705048
1441.488140,3849.070898,-6957.935855,459.657299
1441.488469,3775.050304,-7550.100608,459.657299
1441.488798,3849.070898,-8290.306550,-153.219100
1441.489127,4219.173869,-8068.244768,0.000000
1441.489456,4663.297435,-9696.697840,306.438199
1441.489785,5181.441594,-11103.089130,689.485948
1441.490114,4737.318029,-11177.109724,1149.143247
1441.490443,3849.070898,-12139.377449,536.266849
1441.490772,4071.132681,-11399.171507,1072.533697
1441.491101,4663.297435,-11029.068536,1762.019645
1441.491430,5477.523971,-9992.780217,2681.334243
1441.491759,5921.647536,-7550.100608,2604.724693
1441.492088,6291.750507,-5255.462188,2987.772442
1441.492417,7105.977043,-4441.235652,3140.991542
1441.492746,7920.203579,-4737.318029,3370.820191
1441.493075,7031.956449,-5033.400406,2911.162892
1441.493404,5773.606348,-5551.544565,1455.581446
1441.493734,4885.359217,-7254.018232,995.924147
1441.494063,4811.338623,-8734.430116,919.314598
1441.494392,4737.318029,-10066.800811,1532.190996
1441.494721,4737.318029,-11029.068536,2374.896044
1441.495050,4145.153275,-11843.295072,1685.410096
1441.495379,3775.050304,-11399.171507,1838.629195
1441.495708,4885.359217,-10584.944971,2451.505594
1441.496037,6217.729913,-8808.450710,3677.258390
1441.496366,6735.874072,-6513.812290,3907.087040
1441.496695,6957.935855,-4811.338623,4213.525239
1441.497024,7550.100608,-3256.906145,4213.525239
1441.497353,8364.327145,-3256.906145,3907.087040
1441.497682,7698.141797,-3775.050304,3447.429741
1441.498011,6735.874072,-4737.318029,2757.943793
1441.498340,6513.812290,-5551.544565,2528.115143
1441.498669,6513.812290,-7254.018232,2911.162892
1441.498998,6883.915261,-8142.265362,3677.258390
1441.499327,6883.915261,-8512.368333,4060.306139
1441.499657,6439.791695,-8660.409521,3064.381992
1441.499986,5329.482782,-8364.327145,2911.162892
1441.500315,5773.606348,-8142.265362,3294.210641
1441.500644,6291.750507,-7105.977043,3753.867940
1441.500973,6587.832884,-5995.668130,4060.306139
1441.501302,7105.977043,-4737.318029,3983.696590
1441.501631,7698.141797,-4589.276840,4826.401637
1441.501960,8364.327145,-4811.338623,5209.449386
1441.502289,8364.327145,-4515.256246,4903.011187
1441.502618,7920.203579,-5255.462188,4673.182538
1441.502947,7179.997637,-6217.729913,4060.306139
1441.503276,6439.791695,-7772.162391,4060.306139
1441.503605,5995.668130,-9770.718434,3983.696590
1441.503934,5329.482782,-10510.924376,4213.525239
1441.504263,4515.256246,-11029.068536,3140.991542
1441.504592,3849.070898,-11029.068536,3217.601092
1441.504921,3034.844362,-10436.903782,3677.258390
1441.505251,3478.967927,-9622.677246,3830.477490
1441.505580,4663.297435,-8068.244768,3677.258390
1441.505909,5477.523971,-6661.853478,4596.572988
1441.506238,7402.059420,-5255.462188,5362.668486
1441.506567,8808.450710,-4441.235652,5975.544884
1441.506896,9474.636058,-3627.009116,6205.373534
1441.507225,9844.739029,-2516.700203,5822.325785
1441.507554,10214.842000,-2442.679609,5515.887586
1441.507883,10066.800811,-3108.864956,6128.763984
1441.508212,9770.718434,-4219.173869,5669.106685
1441.508541,8586.388927,-5033.400406,5056.230287
1441.508870,7994.224174,-5847.626942,4290.134789
1441.509199,6957.935855,-7624.121203,4213.525239
1441.509528,5181.441594,-8956.491898,4519.963438
1441.509857,4367.215058,-10066.800811,3677.258390
1441.510186,2960.823768,-10066.800811,2987.772442
1441.510515,2146.597232,-10658.965565,3064.381992
1441.510844,2442.679609,-9844.739029,3140.991542
1441.511174,3775.050304,-8364.327145,3677.258390
1441.511503,5551.544565,-6439.791695,3753.867940
1441.511832,7254.018232,-5181.441594,4596.572988
1441.512161,9696.697840,-4293.194464,5515.887586
1441.512490,10881.027347,-3404.947333,6205.373534
1441.512819,10732.986159,-1776.494261,5439.278036
1441.513148,9548.656652,-1924.535449,4443.353888
1441.513477,9178.553681,-3997.112087,4060.306139
1441.513806,8142.265362,-6143.709319,4903.011187
1441.514135,7254.018232,-7772.162391,4060.306139
1441.514464,6291.750507,-8586.388927,2681.334243
1441.514793,5329.482782,-9622.677246,2298.286494
1441.515122,4737.318029,-10066.800811,2451.505594
1441.515451,4663.297435,-9326.594869,3140.991542
1441.515780,5255.462188,-8142.265362,3600.648841
1441.516109,6143.709319,-5921.647536,3217.601092
1441.516438,7624.121203,-4515.256246,4060.306139
1441.516768,9548.656652,-4071.132681,4903.011187
1441.517097,10140.821405,-4663.297435,4903.011187
1441.517426,9474.636058,-4441.235652,4213.525239
1441.517755,7179.997637,-4811.338623,2604.724693
1441.518084,6291.750507,-6069.688724,2298.286494
1441.518413,6217.729913,-7846.182985,2757.943793
1441.518742,6069.688724,-8438.347739,3447.429741
1441.519071,5995.668130,-8586.388927,3294.210641
1441.519400,6217.729913,-8364.327145,3677.258390
1441.519729,6513.812290,-7624.121203,4366.744339
1441.520058,7179.997637,-7624.121203,3830.477490
1441.520387,6809.894666,-6291.750507,3600.648841
1441.520716,6883.915261,-5773.606348,3370.820191
1441.521045,7179.997637,-4959.379811,3677.258390
1441.521374,8216.285956,-3330.926739,4136.915689
1441.521703,8882.471304,-3108.864956,3753.867940
1441.522032,9104.533087,-4071.132681,4366.744339
1441.522362,7920.203579,-4885.359217,3830.477490
1441.522691,6587.832884,-7105.977043,3447.429741
1441.523020,5847.626942,-8882.471304,3447.429741
1441.523349,5181.441594,-10436.903782,3294.210641
1441.523678,4811.338623,-9844.739029,3294.210641
1441.524007,5033.400406,-9474.636058,3677.258390
1441.524336,6513.812290,-7772.162391,3677.258390
1441.524665,6365.771101,-5329.482782,2604.724693
1441.524994,6513.812290,-5329.482782,3907.087040
1441.525323,7105.977043,-5329.482782,4826.401637
1441.525652,7550.100608,-5625.565159,4826.401637
1441.525981,8068.244768,-3849.070898,5286.058936
1441.526310,9178.553681,-3701.029710,5209.449386
1441.526639,10214.842000,-3330.926739,4979.620737
1441.526968,9548.656652,-3849.070898,4826.401637
1441.527297,8142.265362,-5107.421000,3907.087040
1441.527626,6809.894666,-6365.771101,2911.162892
1441.527955,5477.523971,-9178.553681,2374.896044
1441.528285,4145.153275,-11251.130318,2604.724693
1441.528614,3923.091493,-11991.336260,3217.601092
1441.528943,4145.153275,-10584.944971,4213.525239
1441.529272,4959.379811,-8438.347739,3294.210641
1441.529601,5921.647536,-6143.709319,3830.477490
1441.529930,7698.141797,-4885.359217,4903.011187
1441.530259,9104.533087,-4071.132681,5515.887586
1441.530588,9696.697840,-2664.741391,6052.154434
1441.530917,9252.574275,-1924.535449,5745.716235
1441.531246,9252.574275,-2516.700203,5056.230287
1441.531575,8216.285956,-4071.132681,5286.058936
1441.531904,7105.977043,-5995.668130,5822.325785
1441.532233,7402.059420,-7846.182985,5132.839837
1441.532562,7846.182985,-9326.594869,4673.182538
1441.532891,6513.812290,-9474.636058,4596.572988
1441.533221,4811.338623,-9326.594869,3370.820191
1441.533550,4885.359217,-8364.327145,2757.943793
1441.533879,3849.070898,-7328.038826,3064.381992
1441.534208,4885.359217,-7105.977043,4060.306139
1441.534537,7328.038826,-5921.647536,5056.230287
1441.534866,8142.265362,-4885.359217,5439.278036
1441.535195,7105.977043,-4589.276840,5209.449386
1441.535525,6661.853478,-4885.359217,4519.963438
1441.535854,7179.997637,-5699.585753,4443.353888
1441.536183,7624.121203,-5403.503377,4443.353888
1441.536512,7772.162391,-4885.359217,4979.620737
1441.536841,7994.224174,-5033.400406,4213.525239
1441.537170,7328.038826,-7254.018232,3983.696590
1441.537499,6513.812290,-9104.533087,4596.572988
1441.537829,6809.894666,-8956.491898,4979.620737
1441.538158,6291.750507,-7698.141797,3753.867940
1441.538487,5699.585753,-7105.977043,3600.648841
1441.538816,5477.523971,-8216.285956,3983.696590
1441.539145,6439.791695,-8438.347739,4903.011187
1441.539474,7105.977043,-5773.606348,4443.353888
1441.539803,6809.894666,-2960.823768,3447.429741
1441.540133,6513.812290,-2368.659014,2528.115143
1441.540462,7105.977043,-4737.318029,2834.553343
1441.540791,7920.203579,-5995.668130,4519.963438
1441.541120,8734.430116,-6661.853478,4903.011187
1441.541449,9030.512492,-7402.059420,5209.449386
1441.541778,7698.141797,-7994.224174,4519.963438
1441.542107,6143.709319,-9696.697840,4136.915689
1441.542437,5329.482782,-9548.656652,4749.792088
1441.542766,6809.894666,-7105.977043,3600.648841
1441.543095,7772.162391,-5921.647536,3294.210641
1441.543424,7179.997637,-4885.359217,3370.820191
1441.543753,6957.935855,-5255.462188,3677.258390
1441.544082,6661.853478,-4885.359217,3447.429741
1441.544411,5773.606348,-4811.338623,2757.943793
1441.544741,5403.503377,-6809.894666,3064.381992
1441.545070,6735.874072,-7031.956449,3600.648841
1441.545399,8364.327145,-5033.400406,3370.820191
1441.545728,7994.224174,-4071.132681,3524.039291
1441.546057,7550.100608,-6883.915261,2987.772442
1441.546386,7698.141797,-8290.306550,3064.381992
1441.546715,7328.038826,-7698.141797,3524.039291
1441.547045,6365.771101,-8068.244768,2604.724693
1441.547374,5625.565159,-8512.368333,3064.381992
1441.547703,5477.523971,-9400.615463,3447.429741
1441.548032,7105.977043,-6513.812290,4060.306139
1441.548361,8438.347739,-4515.256246,3217.601092
1441.548690,9030.512492,-3182.885551,2528.115143
1441.549019,6587.832884,-3108.864956,1455.581446
1441.549349,4367.215058,-4811.338623,766.095498
1441.549678,5033.400406,-4885.359217,995.924147
1441.550007,7105.977043,-5625.565159,1378.971896
1441.550336,8438.347739,-6735.874072,2374.896044
1441.550665,8956.491898,-7920.203579,4136.915689
1441.550994,9548.656652,-9178.553681,3524.039291
1441.551323,8808.450710,-7328.038826,1915.238745
1441.551653,6735.874072,-7254.018232,1072.533697
1441.551982,5847.626942,-8586.388927,919.314598
1441.552311,5033.400406,-8808.450710,1532.190996
1441.552640,4219.173869,-8438.347739,1685.410096
1441.552969,4589.276840,-5403.503377,919.314598
1441.553298,6883.915261,-5107.421000,2145.067394
1441.553627,7994.224174,-6957.935855,4060.306139
1441.553957,8438.347739,-6513.812290,4826.401637
1441.554286,8290.306550,-4589.276840,3217.601092
1441.554615,7550.100608,-1628.453072,689.485948
1441.554944,7105.977043,-4219.173869,842.705048
1441.555273,7772.162391,-6439.791695,1532.190996
1441.555602,9030.512492,-4885.359217,1302.362347
1441.555931,8068.244768,-5773.606348,153.219100
1441.556261,7624.121203,-7698.141797,459.657299
1441.556590,6513.812290,-10658.965565,1685.410096
1441.556919,5995.668130,-11991.336260,1302.362347
1441.557248,4663.297435,-10732.986159,1225.752797
1441.557577,3478.967927,-9548.656652,0.000000
1441.557906,3775.050304,-7550.100608,-383.047749
1441.558235,5181.441594,-5551.544565,459.657299
1441.558564,7328.038826,-5773.606348,1991.848295
1441.558894,9622.677246,-3923.091493,2987.772442
1441.559223,9252.574275,-4145.153275,2451.505594
1441.559552,8216.285956,-2738.761985,1838.629195
1441.559881,7550.100608,-3330.926739,1072.533697
1441.560210,8586.388927,-3775.050304,1532.190996
1441.560539,9770.718434,-4219.173869,1455.581446
1441.560868,9104.533087,-5847.626942,2528.115143
1441.561198,7624.121203,-5995.668130,1378.971896
1441.561527,5699.585753,-8808.450710,-383.047749
1441.561856,4219.173869,-9696.697840,-689.485948
1441.562185,3404.947333,-9844.739029,-306.438199
1441.562514,3849.070898,-11695.253884,0.000000
1441.562843,4515.256246,-8956.491898,842.705048
1441.563172,5477.523971,-7476.080014,1378.971896
1441.563502,7624.121203,-6661.853478,1838.629195
1441.563831,8586.388927,-5033.400406,3294.210641
1441.564160,8364.327145,-4737.318029,2374.896044
1441.564489,7402.059420,-2886.803174,1378.971896
1441.564818,7772.162391,-3108.864956,536.266849
1441.565147,9474.636058,-2664.741391,1915.238745
1441.565476,11251.130318,-2738.761985,1915.238745
1441.565806,10732.986159,-5477.523971,1915.238745
1441.566135,8364.327145,-6217.729913,1072.533697
1441.566464,6069.688724,-8586.388927,383.047749
1441.566793,4737.318029,-10362.883188,-612.876398
1441.567122,3256.906145,-12953.603985,306.438199
1441.567451,2516.700203,-11843.295072,-383.047749
1441.567780,3923.091493,-8586.388927,-612.876398
1441.568110,5921.647536,-8734.430116,1762.019645
1441.568439,8512.368333,-6291.750507,2298.286494
1441.568768,9030.512492,-4367.215058,2604.724693
1441.569097,8068.244768,-2886.803174,1685.410096
1441.569426,7031.956449,-3034.844362,1225.752797
1441.569755,7846.182985,-2960.823768,1762.019645
1441.570084,9622.677246,-2738.761985,2068.457845
1441.570414,9992.780217,-3478.967927,1225.752797
1441.570743,8882.471304,-5477.523971,766.095498
1441.571072,7179.997637,-6883.915261,-76.609550
1441.571401,5847.626942,-10510.924376,842.705048
1441.571730,5033.400406,-12435.459826,0.000000
1441.572059,3256.906145,-11695.253884,-383.047749
1441.572388,2812.782580,-10658.965565,-766.095498
1441.572718,4737.318029,-9696.697840,1532.190996
1441.573047,6217.729913,-7994.224174,1685.410096
1441.573376,7179.997637,-4737.318029,1532.190996
1441.573705,7328.038826,-3330.926739,1685.410096
1441.574034,7920.203579,-2960.823768,1532.190996
1441.574363,8216.285956,-2516.700203,1762.019645
1441.574692,8956.491898,-1924.535449,2145.067394
1441.575022,10288.862594,-1628.453072,1532.190996
1441.575351,10510.924376,-3330.926739,995.924147
1441.575680,9474.636058,-5329.482782,1762.019645
1441.576009,7698.141797,-7846.182985,766.095498
1441.576338,6291.750507,-11843.295072,766.095498
1441.576667,3849.070898,-12879.583391,76.609550
1441.576996,2664.741391,-11917.315666,-612.876398
1441.577326,2886.803174,-10584.944971,0.000000
1441.577655,4515.256246,-10140.821405,1532.190996
1441.577984,5921.647536,-7624.121203,1302.362347
1441.578313,6587.832884,-4219.173869,1532.190996
1441.578642,7402.059420,-2812.782580,1838.629195
1441.578971,8290.306550,-1998.556043,2221.676944
1441.579300,9178.553681,-2516.700203,2451.505594
1441.579630,10066.800811,-2368.659014,2068.457845
1441.579959,10584.944971,-1924.535449,1072.533697
1441.580288,9178.553681,-3997.112087,536.266849
1441.580617,7994.224174,-5995.668130,689.485948
1441.580946,6365.771101,-8882.471304,0.000000
1441.581275,5403.503377,-11547.212695,-76.609550
1441.581604,3997.112087,-13175.665768,612.876398
1441.581934,3701.029710,-13027.624579,766.095498
1441.582263,4441.235652,-11325.150913,919.314598
1441.582592,5551.544565,-9104.533087,1838.629195
1441.582921,6513.812290,-5699.585753,2145.067394
1441.583250,7550.100608,-3256.906145,2068.457845
1441.583579,7031.956449,-2368.659014,1225.752797
1441.583908,7920.203579,-2220.617826,2145.067394
1441.584238,9400.615463,-888.247130,1991.848295
1441.584567,10066.800811,-1702.473667,1455.581446
1441.584896,9770.718434,-3256.906145,1762.019645
1441.585225,8734.430116,-5921.647536,1302.362347
1441.585554,7624.121203,-8660.409521,612.876398
1441.585883,5625.565159,-10288.862594,689.485948
1441.586212,3997.112087,-11621.233289,-383.047749
1441.586542,3404.947333,-11029.068536,-459.657299
1441.586871,4367.215058,-11325.150913,153.219100
1441.587200,5403.503377,-10807.006753,1149.143247
1441.587529,6587.832884,-7179.997637,1685.410096
1441.587858,6883.915261,-4737.318029,1225.752797
1441.588187,7105.977043,-3552.988522,1225.752797
1441.588516,7772.162391,-3552.988522,1149.143247
1441.588846,8512.368333,-2590.720797,2068.457845
1441.589175,9992.780217,-1702.473667,1991.848295
1441.589504,10732.986159,-1924.535449,1532.190996
1441.589833,10288.862594,-3849.070898,1225.752797
1441.590162,8734.430116,-5847.626942,919.314598
1441.590491,7254.018232,-8586.388927,612.876398
1441.590820,5551.544565,-11695.253884,306.438199
1441.591150,4219.173869,-12509.480420,0.000000
1441.591479,3552.988522,-11621.233289,76.609550
1441.591808,3997.112087,-10955.047942,919.314598
1441.592137,4811.338623,-8734.430116,1455.581446
1441.592466,5699.585753,-6217.729913,1762.019645
1441.592795,7105.977043,-4293.194464,1455.581446
1441.593124,8216.285956,-3034.844362,2068.457845
1441.593454,8660.409521,-2516.700203,1915.238745
1441.593783,8808.450710,-1480.411884,1225.752797
1441.594112,8438.347739,-1554.432478,995.924147
1441.594441,8956.491898,-3108.864956,383.047749
1441.594770,7772.162391,-6069.688724,612.876398
1441.595099,6957.935855,-8216.285956,536.266849
1441.595428,6513.812290,-10436.903782,536.266849
1441.595758,5699.585753,-12435.459826,383.047749
1441.596087,4663.297435,-11621.233289,919.314598
1441.596416,4293.194464,-10584.944971,766.095498
1441.596745,4589.276840,-8956.491898,1149.143247
1441.597074,5181.441594,-5921.647536,1225.752797
1441.597403,6365.771101,-5551.544565,1608.800546
1441.597732,7994.224174,-4145.153275,2757.943793
1441.598062,8364.327145,-3256.906145,2221.676944
1441.598391,8290.306550,-1554.432478,1072.533697
1441.598720,8808.450710,-444.123565,1072.533697
1441.599049,9918.759623,-1406.391290,1072.533697
1441.599378,8956.491898,-3997.112087,306.438199
1441.599707,7476.080014,-6439.791695,1149.143247
1441.600036,7550.100608,-9844.739029,689.485948
1441.600366,5995.668130,-11917.315666,842.705048
1441.600695,4219.173869,-11325.150913,76.609550
1441.601024,4293.194464,-11695.253884,0.000000
1441.601353,6069.688724,-10807.006753,1608.800546
1441.601682,6513.812290,-8216.285956,1072.533697
1441.602011,6365.771101,-5551.544565,1149.143247
1441.602340,7328.038826,-4441.235652,1685.410096
1441.602670,8660.409521,-4071.132681,2068.457845
1441.602999,7254.018232,-3330.926739,2145.067394
1441.603328,7105.977043,-1998.556043,1149.143247
1441.603657,8512.368333,-1554.432478,459.657299
1441.603986,9400.615463,-2590.720797,383.047749
1441.604315,9400.615463,-4811.338623,1149.143247
1441.604644,8956.491898,-7254.018232,1532.190996
1441.604973,8364.327145,-10436.903782,1685.410096
1441.605303,5477.523971,-11029.068536,153.219100
1441.605632,3108.864956,-10955.047942,-689.485948
1441.605961,4663.297435,-11991.336260,229.828649
1441.606290,5625.565159,-10436.903782,1225.752797
1441.606619,5773.606348,-8586.388927,1532.190996
1441.606948,6439.791695,-5847.626942,1915.238745
1441.607277,7624.121203,-4293.194464,919.314598
1441.607607,8068.244768,-3923.091493,1455.581446
1441.607936,7328.038826,-2368.659014,1685.410096
1441.608265,8512.368333,-2146.597232,689.485948
1441.608594,9104.533087,-2294.638420,536.266849
1441.608923,8290.306550,-3404.947333,306.438199
1441.609252,7698.141797,-6291.750507,306.438199
1441.609581,7105.977043,-8438.347739,612.876398
1441.609911,5699.585753,-11177.109724,0.000000
1441.610240,4737.318029,-11843.295072,459.657299
1441.610569,5551.544565,-10658.965565,919.314598
1441.610898,6957.935855,-10510.924376,2068.457845
1441.611227,7179.997637,-7550.100608,1991.848295
1441.611556,6809.894666,-5181.441594,1762.019645
1441.611885,6439.791695,-4219.173869,842.705048
1441.612215,7179.997637,-3627.009116,2068.457845
1441.612544,6957.935855,-2886.803174,1838.629195
1441.612873,7994.224174,-1480.411884,995.924147
1441.613202,8512.368333,-1998.556043,1225.752797
1441.613531,8586.388927,-4071.132681,1149.143247
1441.613860,7328.038826,-5699.585753,229.828649
1441.614189,6365.771101,-7402.059420,536.266849
1441.614519,5995.668130,-9178.553681,0.000000
1441.614848,4959.379811,-11917.315666,76.609550
1441.615177,4515.256246,-11251.130318,1149.143247
1441.615506,5847.626942,-9622.677246,1149.143247
1441.615835,7179.997637,-9696.697840,1915.238745
1441.616164,7994.224174,-6439.791695,2528.115143
1441.616493,8216.285956,-4293.194464,1532.190996
1441.616823,7698.141797,-3701.029710,2221.676944
1441.617152,7846.182985,-3330.926739,1455.581446
1441.617481,7402.059420,-2960.823768,459.657299
1441.617810,7994.224174,-1628.453072,0.000000
1441.618139,8586.388927,-4071.132681,229.828649
1441.618468,7846.182985,-5107.421000,0.000000
1441.618797,6809.894666,-6661.853478,-229.828649
1441.619127,6069.688724,-10288.862594,229.828649
1441.619456,5403.503377,-11177.109724,842.705048
1441.619785,5033.400406,-11177.109724,689.485948
1441.620114,5995.668130,-9696.697840,842.705048
1441.620443,7179.997637,-8290.306550,2221.676944
1441.620772,8512.368333,-7846.182985,3064.381992
1441.621101,7698.141797,-4219.173869,2374.896044
1441.621431,6957.935855,-3034.844362,995.924147
1441.621760,6883.915261,-2886.803174,689.485948
1441.622089,7105.977043,-2886.803174,153.219100
1441.622418,7031.956449,-3701.029710,536.266849
1441.622747,7402.059420,-3256.906145,229.828649
1441.623076,7698.141797,-5181.441594,-842.705048
1441.623405,6735.874072,-6957.935855,0.000000
1441.623735,6291.750507,-10436.903782,383.047749
1441.624064,6069.688724,-10807.006753,0.000000
1441.624393,4663.297435,-10584.944971,-153.219100
1441.624722,4885.359217,-9104.533087,-766.095498
1441.625051,7105.977043,-8512.368333,1225.752797
1441.625380,9104.533087,-7920.203579,2987.772442
1441.625709,9326.594869,-5477.523971,3370.820191
1441.626039,8364.327145,-3775.050304,2374.896044
1441.626368,7846.182985,-2960.823768,1838.629195
1441.626697,7402.059420,-3997.112087,1149.143247
1441.627026,7105.977043,-3775.050304,1149.143247
1441.627355,7624.121203,-3330.926739,306.438199
1441.627684,7698.141797,-4737.318029,-1532.190996
1441.628013,5921.647536,-6809.894666,-689.485948
1441.628343,5403.503377,-9400.615463,-383.047749
1441.628672,5551.544565,-10140.821405,0.000000
1441.629001,4885.359217,-11621.233289,459.657299
1441.629330,4663.297435,-11177.109724,383.047749
1441.629659,6143.709319,-9252.574275,1838.629195
1441.629988,7772.162391,-8586.388927,2987.772442
1441.630317,8364.327145,-5773.606348,2987.772442
1441.630647,8068.244768,-3552.988522,2451.505594
1441.630976,7698.141797,-3552.988522,1991.848295
1441.631305,7550.100608,-3849.070898,1608.800546
1441.631634,7105.977043,-4145.153275,1991.848295
1441.631963,7254.018232,-3256.906145,459.657299
1441.632292,7476.080014,-4737.318029,153.219100
1441.632621,6735.874072,-6217.729913,229.828649
1441.632950,5995.668130,-8512.368333,-153.219100
1441.633279,5773.606348,-9400.615463,919.314598
1441.633608,5403.503377,-10584.944971,842.705048
1441.633938,4959.379811,-10658.965565,1072.533697
1441.634267,5477.523971,-7624.121203,1532.190996
1441.634596,6957.935855,-6661.853478,2145.067394
1441.634925,8586.388927,-5107.421000,2528.115143
1441.635254,8290.306550,-3478.967927,3370.820191
1441.635583,8660.409521,-3775.050304,2834.553343
1441.635912,9104.533087,-3182.885551,2451.505594
1441.636241,7698.141797,-4663.297435,2068.457845
1441.636570,7550.100608,-5329.482782,1915.238745
1441.636899,7772.162391,-5921.647536,689.485948
1441.637229,6217.729913,-6143.709319,-919.314598
1441.637558,3849.070898,-6587.832884,-2145.067394
1441.637887,4737.318029,-8882.471304,-1072.533697
1441.638216,5699.585753,-10658.965565,0.000000
1441.638545,5329.482782,-11325.150913,612.876398
1441.638874,5107.421000,-9104.533087,1762.019645
1441.639203,7476.080014,-7550.100608,1991.848295
1441.639532,9696.697840,-5921.647536,3677.258390
1441.639861,9622.677246,-3997.112087,3907.087040
1441.640190,9992.780217,-3330.926739,2681.334243
1441.640519,9474.636058,-2368.659014,1991.848295
1441.640849,8216.285956,-3552.988522,1762.019645
1441.641178,7328.038826,-4663.297435,0.000000
1441.641507,7698.141797,-6143.709319,766.095498
1441.641836,7772.162391,-7402.059420,612.876398
1441.642165,6365.771101,-7476.080014,-1378.971896
1441.642494,4959.379811,-9622.677246,-153.219100
1441.642823,4959.379811,-11177.109724,306.438199
1441.643152,4441.235652,-11547.212695,-612.876398
1441.643481,2886.803174,-9696.697840,-229.828649
1441.643810,4367.215058,-7254.018232,-306.438199
1441.644139,7698.141797,-6069.688724,1302.362347
1441.644469,8956.491898,-5033.400406,3907.087040
1441.644798,9474.636058,-3404.947333,4136.915689
1441.645127,10436.903782,-1998.556043,2451.505594
1441.645456,9622.677246,-2294.638420,2145.067394
1441.645785,8216.285956,-5255.462188,1532.190996
1441.646114,8364.327145,-5773.606348,1991.848295
1441.646443,8142.265362,-5921.647536,0.000000
1441.646772,5921.647536,-7105.977043,-1991.848295
1441.647101,4071.132681,-7105.977043,-2528.115143
1441.647430,4219.173869,-10288.862594,-1608.800546
1441.647760,4219.173869,-11399.171507,-766.095498
1441.648089,2960.823768,-12805.562797,229.828649
1441.648418,4145.153275,-8882.471304,842.705048
1441.648747,6513.812290,-6439.791695,1225.752797
1441.649076,8808.450710,-5921.647536,3600.648841
1441.649405,9622.677246,-3923.091493,4443.353888
1441.649734,10362.883188,-2072.576638,3447.429741
1441.650063,9696.697840,-1406.391290,2604.724693
1441.650392,8290.306550,-2220.617826,1455.581446
1441.650721,7772.162391,-4737.318029,1455.581446
1441.651050,9326.594869,-5551.544565,1378.971896
1441.651380,8142.265362,-7476.080014,153.219100
1441.651709,5551.544565,-8438.347739,-229.828649
1441.652038,4441.235652,-9178.553681,-1532.190996
1441.652367,3775.050304,-10658.965565,-1762.019645
1441.652696,2960.823768,-12065.356855,-1149.143247
1441.653025,2664.741391,-11473.192101,-612.876398
1441.653354,4441.235652,-7994.224174,229.828649
1441.653683,6735.874072,-6365.771101,1532.190996
1441.654012,8882.471304,-5329.482782,3447.429741
1441.654341,11103.089130,-3997.112087,4903.011187
1441.654670,11103.089130,-1702.473667,4673.182538
1441.655000,9474.636058,-2220.617826,2374.896044
1441.655329,7994.224174,-3182.885551,1532.190996
1441.655658,9104.533087,-4145.153275,1302.362347
1441.655987,9696.697840,-5329.482782,1455.581446
1441.656316,7920.203579,-5625.565159,0.000000
1441.656645,4811.338623,-7550.100608,-1685.410096
1441.656974,3997.112087,-10436.903782,-1072.533697
1441.657303,3256.906145,-11695.253884,-306.438199
1441.657632,2516.700203,-12287.418637,153.219100
1441.657961,2812.782580,-10362.883188,76.609550
1441.658290,5329.482782,-7846.182985,1072.533697
1441.658620,7772.162391,-6661.853478,2834.553343
1441.658949,9770.718434,-4589.276840,3830.477490
1441.659278,9918.759623,-1776.494261,3600.648841
1441.659607,10140.821405,-1036.288319,1838.629195
1441.659936,8956.491898,-1480.411884,995.924147
1441.660265,8734.430116,-3182.885551,1762.019645
1441.660594,9474.636058,-4293.194464,2145.067394
1441.660923,9548.656652,-5551.544565,842.705048
1441.661252,6513.812290,-7994.224174,-536.266849
1441.661581,4811.338623,-9326.594869,-1072.533697
1441.661911,4145.153275,-11251.130318,-919.314598
1441.662240,2886.803174,-12139.377449,-919.314598
1441.662569,1998.556043,-11325.150913,-1302.362347
1441.662898,3997.112087,-8438.347739,-612.876398
1441.663227,7550.100608,-7476.080014,2374.896044
1441.663556,9030.512492,-4663.297435,3830.477490
1441.663885,9622.677246,-2738.761985,4213.525239
1441.664214,9622.677246,-1776.494261,2528.115143
1441.664543,9474.636058,-296.082377,1378.971896
1441.664872,9178.553681,-2368.659014,1991.848295
1441.665201,10140.821405,-4367.215058,1838.629195
1441.665531,10510.924376,-5625.565159,1378.971896
1441.665860,7772.162391,-7105.977043,-229.828649
1441.666189,4441.235652,-8142.265362,-2068.457845
1441.666518,3108.864956,-10510.924376,-2451.505594
1441.666847,2738.761985,-13545.768739,-153.219100
1441.667176,2442.679609,-14730.098246,-306.438199
1441.667505,2664.741391,-10732.986159,0.000000
1441.667834,5033.400406,-7772.162391,536.266849
1441.668163,7846.182985,-6661.853478,1608.800546
1441.668492,9696.697840,-5033.400406,3600.648841
1441.668821,9770.718434,-2812.782580,3600.648841
1441.669151,9474.636058,888.247130,1762.019645
1441.669480,8364.327145,444.123565,689.485948
1441.669809,8808.450710,-1702.473667,1532.190996
1441.670138,10658.965565,-3849.070898,1915.238745
1441.670467,9992.780217,-5699.585753,1072.533697
1441.670796,6809.894666,-7105.977043,0.000000
1441.671125,5181.441594,-9326.594869,-536.266849
1441.671454,4589.276840,-12287.418637,-689.485948
1441.671783,2220.617826,-13471.748144,-842.705048
1441.672112,1110.308913,-12731.542202,-383.047749
1441.672442,2886.803174,-9252.574275,-306.438199
1441.672771,6143.709319,-7920.203579,1455.581446
1441.673100,8290.306550,-5847.626942,3983.696590
1441.673429,9844.739029,-2812.782580,3677.258390
1441.673758,9770.718434,-1554.432478,2451.505594
1441.674087,8290.306550,-296.082377,1378.971896
1441.674416,8882.471304,-2590.720797,1685.410096
1441.674745,10955.047942,-2960.823768,2681.334243
1441.675074,11547.212695,-3552.988522,2221.676944
1441.675403,8586.388927,-5329.482782,0.000000
1441.675732,5181.441594,-7254.018232,-1838.629195
1441.676062,4441.235652,-10214.842000,-1685.410096
1441.676391,4515.256246,-13545.768739,0.000000
1441.676720,3182.885551,-13323.706956,-612.876398
1441.677049,2368.659014,-11917.315666,0.000000
1441.677378,4515.256246,-9548.656652,842.705048
1441.677707,7624.121203,-8364.327145,2374.896044
1441.678036,8882.471304,-5329.482782,4366.744339
1441.678365,9400.615463,-1776.494261,3370.820191
1441.678694,9918.759623,296.082377,1455.581446
1441.679023,8956.491898,1036.288319,1991.848295
1441.679352,9548.656652,-1184.329507,1915.238745
1441.679682,10658.965565,-3256.906145,1991.848295
1441.680011,9548.656652,-4663.297435,1302.362347
1441.680340,7105.977043,-6365.771101,-1072.533697
1441.680669,5181.441594,-9400.615463,-689.485948
1441.680998,4811.338623,-12435.459826,229.828649
1441.681327,3627.009116,-14804.118840,0.000000
1441.681656,2590.720797,-13471.748144,-1072.533697
1441.681985,3182.885551,-10436.903782,-153.219100
1441.682314,5329.482782,-7994.224174,153.219100
1441.682643,7031.956449,-5921.647536,2221.676944
1441.682972,8586.388927,-3182.885551,3677.258390
1441.683302,10066.800811,-1702.473667,2451.505594
1441.683631,9696.697840,0.000000,1991.848295
1441.683960,9474.636058,-296.082377,2451.505594
1441.684289,10955.047942,-2220.617826,2298.286494
1441.684618,11251.130318,-3034.844362,2221.676944
1441.684947,8290.306550,-4071.132681,76.609550
1441.685276,5033.400406,-6513.812290,-1608.800546
1441.685605,4367.215058,-9178.553681,-995.924147
1441.685934,3552.988522,-13249.686362,-459.657299
1441.686263,2812.782580,-15248.242405,-459.657299
1441.686593,2738.761985,-12879.583391,766.095498
1441.686922,4737.318029,-11029.068536,1149.143247
1441.687251,6735.874072,-8734.430116,1838.629195
1441.687580,7402.059420,-5329.482782,3294.210641
1441.687909,9548.656652,-1924.535449,2298.286494
1441.688238,9474.636058,-296.082377,1378.971896
1441.688567,8882.471304,74.020594,1532.190996
1441.688896,9770.718434,-1554.432478,1685.410096
1441.689225,10584.944971,-3256.906145,1762.019645
1441.689554,9696.697840,-4441.235652,995.924147
1441.689883,6883.915261,-7846.182985,-383.047749
1441.690213,6587.832884,-9770.718434,-536.266849
1441.690542,5477.523971,-12731.542202,153.219100
1441.690871,3256.906145,-14804.118840,0.000000
1441.691200,2220.617826,-13101.645173,-536.266849
1441.691529,2664.741391,-10732.986159,-536.266849
1441.691858,4959.379811,-9548.656652,383.047749
1441.692187,6365.771101,-6513.812290,2145.067394
1441.692516,8068.244768,-3478.967927,3600.648841
1441.692845,9696.697840,-2072.576638,2681.334243
1441.693174,10066.800811,-814.226536,3447.429741
1441.693503,9992.780217,74.020594,2987.772442
1441.693833,10955.047942,-740.205942,2298.286494
1441.694162,9918.759623,-296.082377,1072.533697
1441.694491,8142.265362,-4219.173869,76.609550
1441.694820,6809.894666,-7328.038826,-919.314598
1441.695149,5033.400406,-9474.636058,229.828649
1441.695478,3923.091493,-13175.665768,153.219100
1441.695807,2294.638420,-15174.221811,-536.266849
1441.696136,1332.370696,-12953.603985,0.000000
1441.696465,3627.009116,-12287.418637,919.314598
1441.696794,6735.874072,-9622.677246,3217.601092
1441.697124,8660.409521,-5551.544565,3447.429741
1441.697453,8290.306550,-1776.494261,1608.800546
1441.697782,7698.141797,-370.102971,1302.362347
1441.698111,8290.306550,148.041188,1762.019645
1441.698440,9178.553681,1184.329507,1072.533697
1441.698769,10362.883188,-1258.350101,1762.019645
1441.699098,10955.047942,-3478.967927,2451.505594
1441.699427,9474.636058,-7402.059420,1762.019645
1441.699756,7031.956449,-8882.471304,1072.533697
1441.700085,4737.318029,-10510.924376,306.438199
1441.700414,3923.091493,-13767.830521,-612.876398
1441.700744,2220.617826,-13323.706956,-383.047749
1441.701073,1480.411884,-11621.233289,-1072.533697
1441.701402,4441.235652,-10584.944971,153.219100
1441.701731,7179.997637,-8290.306550,3140.991542
1441.702060,8290.306550,-4959.379811,2757.943793
1441.702389,8882.471304,-3330.926739,3370.820191
1441.702718,9030.512492,-1036.288319,2757.943793
1441.703047,9178.553681,-740.205942,919.314598
1441.703376,9030.512492,-814.226536,1302.362347
1441.703705,10510.924376,-1628.453072,1302.362347
1441.704034,10436.903782,-3701.029710,383.047749
1441.704364,7550.100608,-6291.750507,153.219100
1441.704693,5921.647536,-9918.759623,383.047749
1441.705022,5255.462188,-12583.501014,0.000000
1441.705351,3849.070898,-14878.139434,76.609550
1441.705680,2368.659014,-13175.665768,306.438199
1441.706009,4145.153275,-11843.295072,1225.752797
1441.706338,6513.812290,-8882.471304,1532.190996
1441.706667,7031.956449,-5625.565159,2681.334243
1441.706996,7920.203579,-2590.720797,2681.334243
1441.707325,9400.615463,296.082377,1762.019645
1441.707654,8956.491898,740.205942,1532.190996
1441.707984,9030.512492,-222.061783,1838.629195
1441.708313,10658.965565,-1702.473667,2451.505594
1441.708642,10807.006753,-2812.782580,1225.752797
1441.708971,9178.553681,-5477.523971,1149.143247
1441.709300,6809.894666,-9326.594869,689.485948
1441.709629,5033.400406,-12213.398043,0.000000
1441.709958,2960.823768,-13471.748144,-1072.533697
1441.710287,1924.535449,-12065.356855,-1072.533697
1441.710616,2960.823768,-10658.965565,-229.828649
1441.710945,5255.462188,-10510.924376,1762.019645
1441.711275,6365.771101,-8290.306550,2374.896044
1441.711604,7328.038826,-4219.173869,2298.286494
1441.711933,8512.368333,-2960.823768,2451.505594
1441.712262,8290.306550,-1702.473667,2298.286494
1441.712591,8438.347739,-1184.329507,1838.629195
1441.712920,9622.677246,222.061783,919.314598
1441.713249,10881.027347,-370.102971,153.219100
1441.713578,9326.594869,-3182.885551,-919.314598
1441.713907,7105.977043,-7402.059420,229.828649
1441.714236,6439.791695,-10066.800811,383.047749
1441.714565,5921.647536,-13841.851115,842.705048
1441.714895,3627.009116,-15174.221811,1532.190996
1441.715224,3627.009116,-12509.480420,0.000000
1441.715553,4145.153275,-11251.130318,0.000000
1441.715882,4885.359217,-8438.347739,1149.143247
1441.716211,6439.791695,-4219.173869,1149.143247
1441.716540,7624.121203,-2886.803174,1072.533697
1441.716869,8216.285956,-1406.391290,2451.505594
1441.717198,8808.450710,-2294.638420,2451.505594
1441.717527,9622.677246,-2368.659014,2681.334243
1441.717856,9548.656652,-1184.329507,1608.800546
1441.718185,9030.512492,-2368.659014,229.828649
1441.718515,7994.224174,-6439.791695,0.000000
1441.718844,7254.018232,-8290.306550,536.266849
1441.719173,5847.626942,-10362.883188,-766.095498
1441.719502,4367.215058,-11769.274478,-612.876398
1441.719831,3849.070898,-11769.274478,76.609550
1441.720160,3775.050304,-11843.295072,459.657299
1441.720489,5403.503377,-10807.006753,2145.067394
1441.720818,6513.812290,-7328.038826,2068.457845
1441.721147,7254.018232,-4885.359217,2374.896044
1441.721476,9104.533087,-4293.194464,3753.867940
1441.721806,9770.718434,-1554.432478,2298.286494
1441.722135,9474.636058,-740.205942,1762.019645
1441.722464,8808.450710,0.000000,383.047749
1441.722793,8512.368333,-1036.288319,-229.828649
1441.723122,7624.121203,-3627.009116,-306.438199
1441.723451,6513.812290,-6957.935855,459.657299
1441.723780,6365.771101,-10214.842000,1072.533697
1441.724109,4589.276840,-13101.645173,1225.752797
1441.724438,3034.844362,-13323.706956,383.047749
1441.724767,3627.009116,-11695.253884,536.266849
1441.725096,5625.565159,-10066.800811,1149.143247
1441.725426,6217.729913,-8364.327145,1685.410096
1441.725755,5995.668130,-5773.606348,1608.800546
1441.726084,7994.224174,-3552.988522,1915.238745
1441.726413,9400.615463,-2294.638420,2834.553343
1441.726742,9548.656652,-2590.720797,2221.676944
1441.727071,8734.430116,-2294.638420,2911.162892
1441.727400,9474.636058,-1850.514855,1302.362347
1441.727729,8808.450710,-3478.967927,0.000000
1441.728058,7105.977043,-5699.585753,0.000000
1441.728387,5773.606348,-8734.430116,306.438199
1441.728716,5329.482782,-11177.109724,-689.485948
1441.729046,3182.885551,-11843.295072,0.000000
1441.729375,3775.050304,-11621.233289,766.095498
1441.729704,6069.688724,-10510.924376,1225.752797
1441.730033,7920.203579,-8882.471304,3370.820191
1441.730362,8364.327145,-6587.832884,3524.039291
1441.730691,8364.327145,-3997.112087,2374.896044
1441.731020,8290.306550,-1998.556043,2528.115143
1441.731349,7994.224174,-2368.659014,1455.581446
1441.731678,7550.100608,-2664.741391,1072.533697
1441.732007,7402.059420,-2294.638420,919.314598
1441.732336,8142.265362,-3701.029710,-306.438199
1441.732666,6735.874072,-5403.503377,-536.266849
1441.732995,5625.565159,-8586.388927,0.000000
1441.733324,5921.647536,-11399.171507,-383.047749
1441.733653,5181.441594,-11769.274478,612.876398
1441.733982,4145.153275,-11621.233289,76.609550
1441.734311,5329.482782,-9918.759623,612.876398
1441.734640,7254.018232,-9178.553681,1608.800546
1441.734969,8364.327145,-6661.853478,2451.505594
1441.735298,9030.512492,-4293.194464,2374.896044
1441.735627,8438.347739,-3701.029710,3370.820191
1441.735956,8660.409521,-3627.009116,2145.067394
1441.736286,8068.244768,-3034.844362,612.876398
1441.736615,7105.977043,-1998.556043,459.657299
1441.736944,7254.018232,-3108.864956,-766.095498
1441.737273,7698.141797,-5033.400406,229.828649
1441.737602,6439.791695,-6439.791695,-612.876398
1441.737931,5551.544565,-9474.636058,0.000000
1441.738260,4959.379811,-10436.903782,766.095498
1441.738589,4071.132681,-13693.809927,842.705048
1441.738918,3775.050304,-11029.068536,842.705048
1441.739247,5773.606348,-7698.141797,1838.629195
1441.739576,8290.306550,-7105.977043,2221.676944
1441.739906,9400.615463,-4589.276840,3064.381992
1441.740235,8512.368333,-3997.112087,2987.772442
1441.740564,8438.347739,-2812.782580,1532.190996
1441.740893,8216.285956,-2442.679609,919.314598
1441.741222,7328.038826,-3849.070898,1072.533697
1441.741551,7550.100608,-4737.318029,689.485948
1441.741880,8512.368333,-5477.523971,229.828649
1441.742209,6439.791695,-6291.750507,-995.924147
1441.742538,5995.668130,-8956.491898,-995.924147
1441.742867,5625.565159,-10510.924376,459.657299
1441.743196,4737.318029,-12065.356855,0.000000
1441.743526,4071.132681,-11251.130318,0.000000
1441.743855,5329.482782,-7254.018232,1225.752797
1441.744184,7846.182985,-7476.080014,2298.286494
1441.744513,9992.780217,-5995.668130,3524.039291
1441.744842,9918.759623,-4071.132681,4443.353888
1441.745171,9770.718434,-3108.864956,2604.724693
1441.745500,7920.203579,-1998.556043,1915.238745
1441.745829,6513.812290,-3923.091493,1302.362347
1441.746158,7624.121203,-4663.297435,76.609550
1441.746487,7772.162391,-5329.482782,76.609550
1441.746816,6735.874072,-5773.606348,-842.705048
1441.747146,4959.379811,-8512.368333,-1762.019645
1441.747475,4959.379811,-10584.944971,536.266849
1441.747804,4885.359217,-12435.459826,0.000000
1441.748133,3997.112087,-11843.295072,612.876398
1441.748462,3552.988522,-7550.100608,536.266849
1441.748791,5921.647536,-7402.059420,766.095498
1441.749120,8808.450710,-6291.750507,2987.772442
1441.749449,10066.800811,-4219.173869,4060.306139
1441.749778,10362.883188,-2442.679609,2987.772442
1441.750107,9104.533087,-1702.473667,2221.676944
1441.750436,7179.997637,-4071.132681,1455.581446
1441.750766,7105.977043,-5033.400406,1455.581446
1441.751095,8364.327145,-4737.318029,842.705048
1441.751424,8586.388927,-5699.585753,-383.047749
1441.751753,5773.606348,-6513.812290,-612.876398
1441.752082,4959.379811,-8586.388927,-383.047749
1441.752411,5329.482782,-10807.006753,-153.219100
1441.752740,4293.194464,-11251.130318,689.485948
1441.753069,3478.967927,-10584.944971,689.485948
1441.753398,5403.503377,-7402.059420,919.314598
1441.753727,7698.141797,-6809.894666,2528.115143
1441.754056,9548.656652,-5255.462188,4136.915689
1441.754386,10362.883188,-2220.617826,3294.210641
1441.754715,9252.574275,-2516.700203,2374.896044
1441.755044,8586.388927,-3108.864956,1302.362347
1441.755373,7328.038826,-4959.379811,1072.533697
1441.755702,8216.285956,-5995.668130,1378.971896
1441.756031,8216.285956,-7179.997637,1225.752797
1441.756360,6439.791695,-8142.265362,229.828649
1441.756689,4663.297435,-8290.306550,-1455.581446
1441.757018,3627.009116,-9326.594869,-1838.629195
1441.757347,3775.050304,-9696.697840,-1225.752797
1441.757676,4071.132681,-9622.677246,-612.876398
1441.758006,5403.503377,-7402.059420,612.876398
1441.758335,8142.265362,-7105.977043,2681.334243
1441.758664,10362.883188,-6217.729913,4749.792088
1441.758993,10584.944971,-3478.967927,4903.011187
1441.759322,9622.677246,-2294.638420,3753.867940
1441.759651,8882.471304,-1998.556043,1608.800546
1441.759980,7328.038826,-3330.926739,995.924147
1441.760309,6957.935855,-5033.400406,0.000000
1441.760638,7550.100608,-5329.482782,383.047749
1441.760967,6661.853478,-7254.018232,-766.095498
1441.761296,4885.359217,-9030.512492,-1685.410096
1441.761626,3552.988522,-11029.068536,-612.876398
1441.761955,3701.029710,-12657.521608,-306.438199
1441.762284,3256.906145,-12287.418637,-306.438199
1441.762613,3923.091493,-9548.656652,76.609550
1441.762942,6957.935855,-6439.791695,1532.190996
1441.763271,9326.594869,-5107.421000,2681.334243
1441.763600,9918.759623,-3108.864956,3677.258390
1441.763929,10584.944971,-1480.411884,3294.210641
1441.764258,10955.047942,-740.205942,2604.724693
1441.764587,9696.697840,-1776.494261,1685.410096
1441.764916,7994.224174,-4811.338623,1225.752797
1441.765246,8290.306550,-6291.750507,1838.629195
1441.765575,7550.100608,-6957.935855,0.000000
1441.765904,4959.379811,-8290.306550,-1532.190996
1441.766233,4071.132681,-8956.491898,-2068.457845
1441.766562,5033.400406,-11547.212695,-1149.143247
1441.766891,3849.070898,-12287.418637,-689.485948
1441.767220,2664.741391,-11251.130318,0.000000
1441.767549,3701.029710,-7105.977043,-306.438199
1441.767878,6809.894666,-4737.318029,1762.019645
1441.768207,9326.594869,-5255.462188,3447.429741
1441.768536,10881.027347,-3923.091493,4979.620737
1441.768866,11399.171507,-2368.659014,4749.792088
1441.769195,10362.883188,-1184.329507,2528.115143
1441.769524,8290.306550,-1480.411884,1915.238745
1441.769853,8068.244768,-4441.235652,459.657299
1441.770182,8734.430116,-5329.482782,459.657299
1441.770511,7031.956449,-6957.935855,-842.705048
1441.770840,4811.338623,-8660.409521,-1685.410096
1441.771169,4367.215058,-9992.780217,-1072.533697
1441.771498,3997.112087,-12731.542202,-229.828649
1441.771827,3256.906145,-13323.706956,0.000000
1441.772156,2738.761985,-10436.903782,-306.438199
1441.772486,4885.359217,-7105.977043,383.047749
1441.772815,7624.121203,-5477.523971,1915.238745
1441.773144,9992.780217,-3330.926739,3753.867940
1441.773473,10955.047942,-2294.638420,4290.134789
1441.773802,10955.047942,-2368.659014,3907.087040
1441.774131,10140.821405,-1702.473667,2987.772442
1441.774460,8808.450710,-2516.700203,1991.848295
1441.774789,8512.368333,-4737.318029,1685.410096
1441.775118,8142.265362,-5551.544565,459.657299
1441.775447,5625.565159,-7254.018232,-612.876398
