#time,accel_x,accel_y,accel_z
1183.893499,7031.956449,-6735.874072,1225.752797
1183.893829,6661.853478,-6957.935855,995.924147
1183.894160,6587.832884,-6957.935855,1149.143247
1183.894490,6587.832884,-6587.832884,1532.190996
1183.894820,7031.956449,-6735.874072,995.924147
1183.895151,6809.894666,-6735.874072,919.314598
1183.895481,6809.894666,-6291.750507,919.314598
1183.895812,6883.915261,-6661.853478,1072.533697
1183.896142,7031.956449,-6439.791695,919.314598
1183.896472,6809.894666,-6365.771101,919.314598
1183.896803,6735.874072,-6661.853478,919.314598
1183.897133,6957.935855,-6661.853478,689.485948
1183.897464,6809.894666,-6957.935855,1608.800546
1183.897794,6957.935855,-6661.853478,919.314598
1183.898124,6883.915261,-6661.853478,919.314598
1183.898455,7031.956449,-6439.791695,1072.533697
1183.898785,6883.915261,-6587.832884,842.705048
1183.899116,7105.977043,-6587.832884,1378.971896
1183.899446,7179.997637,-6439.791695,919.314598
1183.899776,7254.018232,-6439.791695,1225.752797
1183.900107,6809.894666,-6291.750507,689.485948
1183.900437,6809.894666,-6291.750507,919.314598
1183.900768,6957.935855,-6069.688724,612.876398
1183.901098,7105.977043,-6735.874072,1072.533697
1183.901428,7031.956449,-6513.812290,919.314598
1183.901759,6957.935855,-6661.853478,995.924147
1183.902089,7328.038826,-6587.832884,612.876398
1183.902420,6957.935855,-6291.750507,689.485948
1183.902750,7105.977043,-6439.791695,995.924147
1183.903080,6883.915261,-6217.729913,842.705048
1183.903411,7031.956449,-6365.771101,919.314598
1183.903741,7031.956449,-5699.585753,995.924147
1183.904071,7179.997637,-6587.832884,1072.533697
1183.904402,7031.956449,-6439.791695,842.705048
1183.904732,7031.956449,-6735.874072,995.924147
1183.905063,6957.935855,-6439.791695,919.314598
1183.905393,6809.894666,-6661.853478,1225.752797
1183.905723,7031.956449,-6513.812290,919.314598
1183.906054,7105.977043,-6661.853478,919.314598
1183.906384,6735.874072,-6365.771101,995.924147
1183.906715,7031.956449,-6513.812290,1225.752797
1183.907045,7179.997637,-6587.832884,1072.533697
1183.907375,7105.977043,-6439.791695,1072.533697
1183.907706,6957.935855,-6735.874072,995.924147
1183.908036,7031.956449,-6439.791695,1072.533697
1183.908367,7105.977043,-6365.771101,919.314598
1183.908697,6809.894666,-6513.812290,1149.143247
1183.909027,6883.915261,-6513.812290,1072.533697
1183.909358,6809.894666,-6365.771101,1072.533697
1183.909688,6809.894666,-6217.729913,1302.362347
1183.910019,6735.874072,-6513.812290,536.266849
1183.910349,6809.894666,-6735.874072,1225.752797
1183.910679,6883.915261,-6661.853478,1072.533697
1183.911010,7105.977043,-6513.812290,689.485948
1183.911340,7105.977043,-6439.791695,1225.752797
1183.911671,6513.812290,-6883.915261,1302.362347
1183.912001,6809.894666,-6883.915261,1072.533697
1183.912331,6809.894666,-6809.894666,919.314598
1183.912662,6513.812290,-6439.791695,689.485948
1183.912992,7031.956449,-6883.915261,1149.143247
1183.913322,7031.956449,-6883.915261,1149.143247
1183.913653,6661.853478,-6883.915261,1378.971896
1183.913983,7031.956449,-6735.874072,1149.143247
1183.914314,6957.935855,-6365.771101,1455.581446
1183.914644,7031.956449,-6513.812290,995.924147
1183.914974,6957.935855,-6439.791695,842.705048
1183.915305,6957.935855,-6809.894666,995.924147
1183.915635,7105.977043,-6513.812290,536.266849
1183.915966,7105.977043,-6143.709319,1072.533697
1183.916296,6883.915261,-6735.874072,1072.533697
1183.916626,6735.874072,-7031.956449,919.314598
1183.916957,6883.915261,-6365.771101,842.705048
1183.917287,7031.956449,-6439.791695,459.657299
1183.917618,7179.997637,-6439.791695,766.095498
1183.917948,7031.956449,-6439.791695,842.705048
1183.918278,7179.997637,-6513.812290,1302.362347
1183.918609,7254.018232,-6291.750507,1072.533697
1183.918939,7105.977043,-6439.791695,1225.752797
1183.919270,7105.977043,-6513.812290,689.485948
1183.919600,7105.977043,-6439.791695,1149.143247
1183.919930,7105.977043,-6513.812290,1378.971896
1183.920261,7031.956449,-6957.935855,766.095498
1183.920591,6957.935855,-7031.956449,1072.533697
1183.920922,7031.956449,-6587.832884,919.314598
1183.921252,7031.956449,-6513.812290,1072.533697
1183.921582,7328.038826,-6365.771101,1225.752797
1183.921913,7105.977043,-6439.791695,1225.752797
1183.922243,6957.935855,-6365.771101,1149.143247
1183.922573,7105.977043,-6291.750507,842.705048
1183.922904,6735.874072,-6439.791695,1072.533697
1183.923234,6809.894666,-6439.791695,919.314598
1183.923565,6587.832884,-6291.750507,919.314598
1183.923895,6809.894666,-6809.894666,1149.143247
1183.924225,6883.915261,-6661.853478,1072.533697
1183.924556,7105.977043,-6587.832884,1149.143247
1183.924886,6883.915261,-6735.874072,1072.533697
1183.925217,6809.894666,-6735.874072,1072.533697
1183.925547,6809.894666,-6513.812290,1455.581446
1183.925877,6883.915261,-6439.791695,1072.533697
1183.926208,6735.874072,-6365.771101,1072.533697
1183.926538,7105.977043,-7031.956449,1378.971896
1183.926869,6735.874072,-6809.894666,842.705048
1183.927199,6587.832884,-6661.853478,919.314598
1183.927529,6957.935855,-6809.894666,1072.533697
1183.927860,6809.894666,-6217.729913,689.485948
1183.928190,7105.977043,-7105.977043,995.924147
1183.928521,6883.915261,-6883.915261,995.924147
1183.928851,6957.935855,-6587.832884,919.314598
1183.929181,6735.874072,-6513.812290,1072.533697
1183.929512,6809.894666,-6143.709319,1455.581446
1183.929842,6809.894666,-6513.812290,919.314598
1183.930173,7031.956449,-6439.791695,766.095498
1183.930503,6883.915261,-6735.874072,919.314598
1183.930833,7031.956449,-6365.771101,689.485948
1183.931164,7031.956449,-6217.729913,919.314598
1183.931494,6957.935855,-6661.853478,1072.533697
1183.931824,7105.977043,-6809.894666,1072.533697
1183.932155,7254.018232,-6587.832884,1225.752797
1183.932485,7179.997637,-6439.791695,1378.971896
1183.932816,6883.915261,-6957.935855,1072.533697
1183.933146,7105.977043,-6661.853478,1225.752797
1183.933476,7179.997637,-6439.791695,919.314598
1183.933807,7031.956449,-6661.853478,689.485948
1183.934137,7402.059420,-6217.729913,919.314598
1183.934468,7105.977043,-6439.791695,995.924147
1183.934798,7105.977043,-6587.832884,919.314598
1183.935128,7179.997637,-6513.812290,995.924147
1183.935459,7402.059420,-6143.709319,536.266849
1183.935789,7105.977043,-6661.853478,612.876398
1183.936120,7105.977043,-6735.874072,1072.533697
1183.936450,6883.915261,-6587.832884,1072.533697
1183.936780,7031.956449,-6661.853478,1149.143247
1183.937111,7105.977043,-6291.750507,995.924147
1183.937441,7031.956449,-6513.812290,689.485948
1183.937772,6809.894666,-6217.729913,919.314598
1183.938102,7105.977043,-6439.791695,1072.533697
1183.938432,6883.915261,-6587.832884,1225.752797
1183.938763,6809.894666,-6587.832884,1302.362347
1183.939093,6883.915261,-6513.812290,1072.533697
1183.939424,6661.853478,-6587.832884,1072.533697
1183.939754,7105.977043,-6809.894666,1225.752797
1183.940084,6587.832884,-6809.894666,1455.581446
1183.940415,7031.956449,-6587.832884,1378.971896
1183.940745,7031.956449,-6513.812290,689.485948
1183.941075,6957.935855,-6661.853478,995.924147
1183.941406,6883.915261,-6957.935855,842.705048
1183.941736,7328.038826,-6957.935855,1149.143247
1183.942067,6809.894666,-6661.853478,1072.533697
1183.942397,6809.894666,-6513.812290,995.924147
1183.942727,6809.894666,-6809.894666,995.924147
1183.943058,7105.977043,-6735.874072,842.705048
1183.943388,6883.915261,-6735.874072,1072.533697
1183.943719,6883.915261,-7031.956449,995.924147
1183.944049,6513.812290,-6735.874072,1225.752797
1183.944379,7031.956449,-6513.812290,919.314598
1183.944710,7105.977043,-6809.894666,1378.971896
1183.945040,6957.935855,-6735.874072,1072.533697
1183.945371,7031.956449,-6661.853478,919.314598
1183.945701,7105.977043,-6365.771101,536.266849
1183.946031,6513.812290,-6291.750507,1608.800546
1183.946362,7105.977043,-6883.915261,1225.752797
1183.946692,6883.915261,-6587.832884,842.705048
1183.947023,6809.894666,-6365.771101,995.924147
1183.947353,6809.894666,-6735.874072,842.705048
1183.947683,6957.935855,-6291.750507,766.095498
1183.948014,7328.038826,-6365.771101,1149.143247
1183.948344,7105.977043,-6439.791695,1149.143247
1183.948675,7179.997637,-6439.791695,766.095498
1183.949005,7179.997637,-6587.832884,995.924147
1183.949335,7476.080014,-6661.853478,536.266849
1183.949666,7254.018232,-6513.812290,995.924147
1183.949996,7328.038826,-6291.750507,995.924147
1183.950326,7105.977043,-6735.874072,919.314598
1183.950657,7105.977043,-6291.750507,1225.752797
1183.950987,6957.935855,-6217.729913,612.876398
1183.951318,7105.977043,-6513.812290,919.314598
1183.951648,6883.915261,-6661.853478,612.876398
1183.951978,6957.935855,-6291.750507,995.924147
1183.952309,6883.915261,-6439.791695,919.314598
1183.952639,7105.977043,-6513.812290,919.314598
1183.952970,7105.977043,-6809.894666,919.314598
1183.953300,7105.977043,-7105.977043,1072.533697
1183.953630,7105.977043,-6291.750507,1072.533697
1183.953961,7179.997637,-7031.956449,919.314598
1183.954291,7031.956449,-6661.853478,842.705048
1183.954622,7031.956449,-6957.935855,766.095498
1183.954952,6883.915261,-6513.812290,1149.143247
1183.955282,6587.832884,-5847.626942,842.705048
1183.955613,6883.915261,-6439.791695,842.705048
1183.955943,6661.853478,-6809.894666,1149.143247
1183.956274,6957.935855,-6661.853478,842.705048
1183.956604,6809.894666,-7105.977043,919.314598
1183.956934,6587.832884,-6661.853478,1685.410096
1183.957265,6809.894666,-6957.935855,919.314598
1183.957595,6883.915261,-6883.915261,1149.143247
1183.957924,6809.894666,-6809.894666,1225.752797
1183.958254,7328.038826,-6883.915261,1608.800546
1183.958584,7105.977043,-6365.771101,1149.143247
1183.958914,7105.977043,-6587.832884,1225.752797
1183.959243,7031.956449,-6513.812290,1302.362347
1183.959573,7031.956449,-6439.791695,1072.533697
1183.959903,6957.935855,-6513.812290,1762.019645
1183.960232,6883.915261,-6217.729913,919.314598
1183.960562,6661.853478,-6513.812290,842.705048
1183.960892,6957.935855,-6735.874072,1149.143247
1183.961222,7105.977043,-7031.956449,1072.533697
1183.961551,7105.977043,-6883.915261,995.924147
1183.961881,7105.977043,-6809.894666,1225.752797
1183.962211,7105.977043,-6661.853478,766.095498
1183.962540,7105.977043,-6735.874072,1072.533697
1183.962870,7179.997637,-6661.853478,1072.533697
1183.963200,7179.997637,-6365.771101,995.924147
1183.963530,7031.956449,-6661.853478,1149.143247
1183.963859,6809.894666,-6587.832884,842.705048
1183.964189,6883.915261,-6217.729913,612.876398
1183.964519,7476.080014,-6439.791695,1302.362347
1183.964848,7179.997637,-6365.771101,1149.143247
1183.965178,7105.977043,-6217.729913,919.314598
1183.965508,7105.977043,-6587.832884,995.924147
1183.965838,7328.038826,-6587.832884,536.266849
1183.966167,7328.038826,-6513.812290,1149.143247
1183.966497,7105.977043,-6735.874072,1072.533697
1183.966827,6883.915261,-6587.832884,766.095498
1183.967156,7105.977043,-6587.832884,1149.143247
1183.967486,7031.956449,-6513.812290,1225.752797
1183.967816,7105.977043,-6439.791695,1225.752797
1183.968146,6883.915261,-6365.771101,1149.143247
1183.968475,6809.894666,-6439.791695,919.314598
1183.968805,6809.894666,-6143.709319,1455.581446
1183.969135,7105.977043,-6809.894666,842.705048
1183.969464,6661.853478,-6365.771101,919.314598
1183.969794,7105.977043,-6587.832884,919.314598
1183.970124,6883.915261,-6661.853478,919.314598
1183.970454,6513.812290,-6143.709319,919.314598
1183.970783,7105.977043,-6957.935855,919.314598
1183.971113,6957.935855,-6809.894666,1072.533697
1183.971443,6883.915261,-6883.915261,995.924147
1183.971772,6735.874072,-6661.853478,1149.143247
1183.972102,6587.832884,-6513.812290,1455.581446
1183.972432,6883.915261,-6661.853478,1072.533697
1183.972762,7254.018232,-6587.832884,919.314598
1183.973091,7031.956449,-6661.853478,1149.143247
1183.973421,7254.018232,-6883.915261,1455.581446
1183.973751,7328.038826,-6587.832884,689.485948
1183.974080,6809.894666,-6735.874072,1149.143247
1183.974410,6957.935855,-7031.956449,1225.752797
1183.974740,7031.956449,-6883.915261,995.924147
1183.975070,7328.038826,-6809.894666,766.095498
1183.975399,7179.997637,-6883.915261,1149.143247
1183.975729,6957.935855,-6439.791695,1072.533697
1183.976059,6957.935855,-6291.750507,1455.581446
1183.976388,7105.977043,-6587.832884,1149.143247
1183.976718,7031.956449,-6069.688724,1149.143247
1183.977048,6735.874072,-6217.729913,995.924147
1183.977378,6735.874072,-6365.771101,766.095498
1183.977707,6809.894666,-6439.791695,1455.581446
1183.978037,7254.018232,-6291.750507,689.485948
1183.978367,7105.977043,-6439.791695,1072.533697
1183.978696,7105.977043,-6365.771101,919.314598
1183.979026,7031.956449,-6809.894666,842.705048
1183.979356,6735.874072,-6513.812290,1302.362347
1183.979686,7105.977043,-6217.729913,1378.971896
1183.980015,7179.997637,-6439.791695,1072.533697
1183.980345,6809.894666,-6439.791695,1072.533697
1183.980675,7031.956449,-6661.853478,766.095498
1183.981004,7254.018232,-6439.791695,1455.581446
1183.981334,7254.018232,-6439.791695,842.705048
1183.981664,7105.977043,-6513.812290,689.485948
1183.981994,6957.935855,-6587.832884,1072.533697
1183.982323,7105.977043,-6661.853478,1072.533697
1183.982653,7179.997637,-6439.791695,1072.533697
1183.982983,7105.977043,-6513.812290,919.314598
1183.983312,7179.997637,-6735.874072,919.314598
1183.983642,7031.956449,-6513.812290,842.705048
1183.983972,6957.935855,-6587.832884,1072.533697
1183.984302,7031.956449,-6587.832884,689.485948
1183.984631,6809.894666,-6587.832884,919.314598
1183.984961,6809.894666,-6661.853478,919.314598
1183.985291,6957.935855,-6439.791695,919.314598
1183.985620,7105.977043,-6439.791695,1149.143247
1183.985950,7105.977043,-6587.832884,995.924147
1183.986280,7031.956449,-6365.771101,1149.143247
1183.986610,6957.935855,-6291.750507,1149.143247
1183.986939,6883.915261,-6661.853478,1149.143247
1183.987269,7105.977043,-6809.894666,1225.752797
1183.987599,6957.935855,-6735.874072,919.314598
1183.987928,7031.956449,-6809.894666,1072.533697
1183.988258,6957.935855,-6661.853478,995.924147
1183.988588,7254.018232,-6735.874072,459.657299
1183.988918,7105.977043,-6513.812290,1302.362347
1183.989247,7179.997637,-6661.853478,1225.752797
1183.989577,6957.935855,-6439.791695,1149.143247
1183.989907,6735.874072,-6513.812290,995.924147
1183.990236,7105.977043,-6513.812290,919.314598
1183.990566,6957.935855,-6513.812290,995.924147
1183.990896,7105.977043,-6735.874072,1225.752797
1183.991226,7031.956449,-6809.894666,1149.143247
1183.991555,6809.894666,-6291.750507,1225.752797
1183.991885,7105.977043,-6513.812290,919.314598
1183.992215,7031.956449,-6513.812290,1149.143247
1183.992544,7105.977043,-6809.894666,995.924147
1183.992874,7031.956449,-6587.832884,995.924147
1183.993204,7031.956449,-6217.729913,842.705048
1183.993534,6809.894666,-6587.832884,1072.533697
1183.993863,7105.977043,-6661.853478,689.485948
1183.994193,7105.977043,-6513.812290,1072.533697
1183.994523,7031.956449,-6957.935855,1072.533697
1183.994853,7105.977043,-7031.956449,766.095498
1183.995182,7105.977043,-6809.894666,842.705048
1183.995512,7031.956449,-6883.915261,1225.752797
1183.995842,7105.977043,-6661.853478,995.924147
1183.996171,7031.956449,-6883.915261,766.095498
1183.996501,7031.956449,-6883.915261,1072.533697
1183.996831,6883.915261,-6365.771101,842.705048
1183.997161,6957.935855,-6365.771101,919.314598
1183.997490,6957.935855,-6587.832884,919.314598
1183.997820,7105.977043,-6735.874072,1302.362347
1183.998150,7105.977043,-6439.791695,1225.752797
1183.998479,7031.956449,-6735.874072,842.705048
1183.998809,7031.956449,-6439.791695,689.485948
1183.999139,7105.977043,-6587.832884,995.924147
1183.999469,7105.977043,-6735.874072,919.314598
1183.999798,7105.977043,-6661.853478,1072.533697
1184.000128,6735.874072,-6735.874072,919.314598
1184.000458,7105.977043,-6809.894666,842.705048
1184.000787,7105.977043,-6661.853478,689.485948
1184.001117,7105.977043,-6883.915261,995.924147
1184.001447,6957.935855,-6587.832884,1149.143247
1184.001777,7105.977043,-6439.791695,1072.533697
1184.002106,7105.977043,-6513.812290,1762.019645
1184.002436,6809.894666,-6439.791695,842.705048
1184.002766,6883.915261,-6439.791695,919.314598
1184.003095,7105.977043,-6587.832884,995.924147
1184.003425,6587.832884,-6587.832884,689.485948
1184.003755,7031.956449,-6439.791695,919.314598
1184.004085,6957.935855,-6735.874072,1225.752797
1184.004414,7031.956449,-6735.874072,1225.752797
1184.004744,6883.915261,-6661.853478,919.314598
1184.005074,6883.915261,-6587.832884,766.095498
1184.005403,6809.894666,-6069.688724,1915.238745
1184.005733,7105.977043,-6661.853478,1378.971896
1184.006063,7031.956449,-6143.709319,1302.362347
1184.006393,7105.977043,-6365.771101,995.924147
1184.006722,7031.956449,-6143.709319,1149.143247
1184.007052,7254.018232,-5403.503377,1149.143247
1184.007382,7624.121203,-5477.523971,995.924147
1184.007711,8290.306550,-5255.462188,1455.581446
1184.008041,8290.306550,-5181.441594,1532.190996
1184.008371,8512.368333,-5403.503377,1685.410096
1184.008701,7328.038826,-6069.688724,689.485948
1184.009030,5921.647536,-7179.997637,229.828649
1184.009360,6217.729913,-7105.977043,153.219100
1184.009690,6291.750507,-7105.977043,1302.362347
1184.010019,7328.038826,-7254.018232,1072.533697
1184.010349,7994.224174,-6883.915261,1378.971896
1184.010679,8364.327145,-5551.544565,1302.362347
1184.011009,8438.347739,-4145.153275,995.924147
1184.011338,8068.244768,-4589.276840,1608.800546
1184.011668,8364.327145,-4367.215058,919.314598
1184.011998,8956.491898,-4367.215058,1378.971896
1184.012327,9178.553681,-4293.194464,1225.752797
1184.012657,8512.368333,-3923.091493,919.314598
1184.012987,8068.244768,-4737.318029,383.047749
1184.013317,8216.285956,-4367.215058,612.876398
1184.013646,8660.409521,-5477.523971,842.705048
1184.013976,8660.409521,-5847.626942,1302.362347
1184.014306,8512.368333,-5255.462188,766.095498
1184.014635,7920.203579,-5921.647536,536.266849
1184.014965,8068.244768,-5107.421000,995.924147
1184.015295,8216.285956,-5551.544565,766.095498
1184.015625,8660.409521,-5033.400406,1378.971896
1184.015954,9252.574275,-4589.276840,1149.143247
1184.016284,9178.553681,-4441.235652,1455.581446
1184.016614,8956.491898,-3330.926739,1455.581446
1184.016943,9326.594869,-3627.009116,1685.410096
1184.017273,9844.739029,-3701.029710,1302.362347
1184.017603,9326.594869,-3404.947333,1378.971896
1184.017933,9178.553681,-4071.132681,995.924147
1184.018262,8734.430116,-4293.194464,689.485948
1184.018592,8364.327145,-5847.626942,1072.533697
1184.018922,8290.306550,-6661.853478,842.705048
1184.019251,8142.265362,-7031.956449,919.314598
1184.019581,7698.141797,-6809.894666,842.705048
1184.019911,7402.059420,-6217.729913,383.047749
1184.020241,6883.915261,-7105.977043,1072.533697
1184.020570,7105.977043,-5995.668130,919.314598
1184.020900,7328.038826,-5255.462188,383.047749
1184.021230,7550.100608,-4737.318029,689.485948
1184.021559,8290.306550,-4293.194464,766.095498
1184.021889,9178.553681,-4885.359217,536.266849
1184.022219,9326.594869,-3997.112087,1072.533697
1184.022549,9474.636058,-4219.173869,612.876398
1184.022878,9622.677246,-4811.338623,995.924147
1184.023208,9178.553681,-5403.503377,1072.533697
1184.023538,8956.491898,-6365.771101,153.219100
1184.023867,7920.203579,-6069.688724,76.609550
1184.024197,7994.224174,-6439.791695,153.219100
1184.024527,7698.141797,-6809.894666,1149.143247
1184.024857,7624.121203,-5995.668130,1302.362347
1184.025186,7402.059420,-5921.647536,995.924147
1184.025516,7105.977043,-4885.359217,1149.143247
1184.025846,7179.997637,-5625.565159,612.876398
1184.026175,8068.244768,-5033.400406,1915.238745
1184.026505,8586.388927,-3997.112087,2068.457845
1184.026835,8216.285956,-3997.112087,1532.190996
1184.027165,8808.450710,-4071.132681,1685.410096
1184.027494,9400.615463,-4737.318029,1991.848295
1184.027824,8364.327145,-5847.626942,1608.800546
1184.028154,7994.224174,-5699.585753,689.485948
1184.028483,7105.977043,-7105.977043,306.438199
1184.028813,6661.853478,-7179.997637,0.000000
1184.029143,5847.626942,-8586.388927,153.219100
1184.029473,5847.626942,-8364.327145,0.000000
1184.029802,5847.626942,-7105.977043,-459.657299
1184.030132,5995.668130,-7402.059420,0.000000
1184.030462,6143.709319,-7105.977043,0.000000
1184.030792,6143.709319,-7402.059420,153.219100
1184.031121,7105.977043,-6365.771101,1072.533697
1184.031451,7328.038826,-6291.750507,1072.533697
1184.031781,7698.141797,-6217.729913,1225.752797
1184.032110,8734.430116,-6291.750507,1608.800546
1184.032440,8734.430116,-6513.812290,2374.896044
1184.032770,8660.409521,-6217.729913,1991.848295
1184.033100,7402.059420,-6217.729913,1685.410096
1184.033429,6735.874072,-6217.729913,995.924147
1184.033759,6217.729913,-6439.791695,536.266849
1184.034089,6143.709319,-6439.791695,1225.752797
1184.034418,6291.750507,-5477.523971,229.828649
1184.034748,6439.791695,-5625.565159,306.438199
1184.035078,6957.935855,-5181.441594,306.438199
1184.035408,7476.080014,-5181.441594,306.438199
1184.035737,7550.100608,-5403.503377,919.314598
1184.036067,7920.203579,-5403.503377,1302.362347
1184.036397,8364.327145,-5921.647536,1608.800546
1184.036726,8586.388927,-6439.791695,2068.457845
1184.037056,8438.347739,-7179.997637,2757.943793
1184.037386,7772.162391,-7031.956449,2528.115143
1184.037716,7179.997637,-7402.059420,2451.505594
1184.038045,7179.997637,-7846.182985,2298.286494
1184.038375,6735.874072,-7698.141797,2145.067394
1184.038705,5847.626942,-6957.935855,1302.362347
1184.039034,4737.318029,-6809.894666,459.657299
1184.039364,4219.173869,-6513.812290,229.828649
1184.039694,4515.256246,-7254.018232,76.609550
1184.040024,5107.421000,-6143.709319,0.000000
1184.040353,5181.441594,-5773.606348,229.828649
1184.040683,6217.729913,-5847.626942,229.828649
1184.041013,6957.935855,-6143.709319,612.876398
1184.041342,7328.038826,-7624.121203,1302.362347
1184.041672,7772.162391,-7328.038826,1685.410096
1184.042002,7550.100608,-7328.038826,1838.629195
1184.042332,7550.100608,-8068.244768,2451.505594
1184.042661,7550.100608,-8290.306550,2681.334243
1184.042991,7550.100608,-8290.306550,2757.943793
1184.043321,7550.100608,-6587.832884,2221.676944
1184.043650,7105.977043,-6069.688724,1762.019645
1184.043980,6809.894666,-6291.750507,1455.581446
1184.044310,6513.812290,-5847.626942,842.705048
1184.044640,5921.647536,-5107.421000,76.609550
1184.044969,5847.626942,-4589.276840,-229.828649
1184.045299,5551.544565,-4811.338623,-919.314598
1184.045629,6217.729913,-5551.544565,-306.438199
1184.045958,6661.853478,-6069.688724,229.828649
1184.046288,7254.018232,-6661.853478,383.047749
1184.046618,7402.059420,-7402.059420,689.485948
1184.046948,7476.080014,-8438.347739,1302.362347
1184.047277,7624.121203,-8142.265362,1685.410096
1184.047607,7772.162391,-8068.244768,2451.505594
1184.047937,7772.162391,-7402.059420,2681.334243
1184.048266,8512.368333,-7105.977043,2911.162892
1184.048596,8956.491898,-5921.647536,3064.381992
1184.048926,8586.388927,-5033.400406,2757.943793
1184.049256,7624.121203,-4071.132681,2068.457845
1184.049585,6809.894666,-4071.132681,689.485948
1184.049915,6439.791695,-5033.400406,0.000000
1184.050245,5995.668130,-5403.503377,-383.047749
1184.050574,5921.647536,-5995.668130,-766.095498
1184.050904,5995.668130,-6439.791695,-995.924147
1184.051234,5773.606348,-7624.121203,-842.705048
1184.051564,6217.729913,-8808.450710,-153.219100
1184.051893,6809.894666,-8586.388927,229.828649
1184.052223,6883.915261,-7624.121203,1455.581446
1184.052553,7550.100608,-8142.265362,1685.410096
1184.052882,7994.224174,-7476.080014,2681.334243
1184.053212,8216.285956,-7179.997637,2757.943793
1184.053542,8290.306550,-6587.832884,2604.724693
1184.053872,8660.409521,-5255.462188,2604.724693
1184.054201,7920.203579,-4737.318029,2145.067394
1184.054531,7624.121203,-4441.235652,1302.362347
1184.054861,7105.977043,-4441.235652,306.438199
1184.055190,6513.812290,-5181.441594,-153.219100
1184.055520,5551.544565,-5699.585753,-536.266849
1184.055850,5477.523971,-6069.688724,-919.314598
1184.056180,6439.791695,-6735.874072,-536.266849
1184.056509,6957.935855,-7031.956449,0.000000
1184.056839,7254.018232,-7624.121203,766.095498
1184.057168,7179.997637,-7402.059420,919.314598
1184.057497,7328.038826,-7846.182985,1532.190996
1184.057826,7624.121203,-7476.080014,2374.896044
1184.058156,7105.977043,-7624.121203,2987.772442
1184.058485,6587.832884,-7179.997637,2451.505594
1184.058814,6809.894666,-6661.853478,2451.505594
1184.059143,7105.977043,-6513.812290,2451.505594
1184.059473,7402.059420,-6587.832884,2681.334243
1184.059802,7031.956449,-5773.606348,1378.971896
1184.060131,5773.606348,-5847.626942,459.657299
1184.060460,5107.421000,-6365.771101,-536.266849
1184.060790,4737.318029,-6661.853478,-1072.533697
1184.061119,5403.503377,-6883.915261,-612.876398
1184.061448,6143.709319,-6291.750507,-229.828649
1184.061777,7402.059420,-6587.832884,383.047749
1184.062107,7698.141797,-6809.894666,1455.581446
1184.062436,7846.182985,-6809.894666,1915.238745
1184.062765,7846.182985,-6661.853478,2451.505594
1184.063095,8438.347739,-5847.626942,2451.505594
1184.063424,7920.203579,-6439.791695,2604.724693
1184.063753,7402.059420,-6143.709319,2451.505594
1184.064082,7550.100608,-6513.812290,2451.505594
1184.064412,7476.080014,-5773.606348,2374.896044
1184.064741,7772.162391,-6661.853478,1762.019645
1184.065070,7031.956449,-6143.709319,1149.143247
1184.065399,6735.874072,-5181.441594,-229.828649
1184.065729,6365.771101,-5995.668130,-536.266849
1184.066058,6735.874072,-5921.647536,-306.438199
1184.066387,5847.626942,-6069.688724,-766.095498
1184.066716,5773.606348,-6291.750507,-919.314598
1184.067046,6217.729913,-6661.853478,-536.266849
1184.067375,7105.977043,-8290.306550,536.266849
1184.067704,7254.018232,-8512.368333,1072.533697
1184.068033,7105.977043,-8438.347739,1685.410096
1184.068363,7328.038826,-8512.368333,2145.067394
1184.068692,7624.121203,-7179.997637,2298.286494
1184.069021,7624.121203,-6291.750507,2834.553343
1184.069350,7328.038826,-6439.791695,2451.505594
1184.069680,7550.100608,-5699.585753,2374.896044
1184.070009,8142.265362,-5255.462188,2068.457845
1184.070338,7920.203579,-4959.379811,1685.410096
1184.070667,6957.935855,-4515.256246,153.219100
1184.070997,6439.791695,-5403.503377,0.000000
1184.071326,6217.729913,-5921.647536,-536.266849
1184.071655,6365.771101,-6439.791695,-306.438199
1184.071984,6365.771101,-6513.812290,-766.095498
1184.072314,5847.626942,-7179.997637,-612.876398
1184.072643,6217.729913,-8512.368333,0.000000
1184.072972,6513.812290,-8512.368333,766.095498
1184.073302,6809.894666,-8660.409521,1455.581446
1184.073631,7698.141797,-8808.450710,2145.067394
1184.073960,7994.224174,-8142.265362,2911.162892
1184.074289,7994.224174,-6809.894666,2451.505594
1184.074619,7698.141797,-6439.791695,2451.505594
1184.074948,7920.203579,-5403.503377,2757.943793
1184.075277,7994.224174,-5107.421000,1915.238745
1184.075606,7328.038826,-4737.318029,919.314598
1184.075936,6439.791695,-4145.153275,0.000000
1184.076265,5773.606348,-5181.441594,0.000000
1184.076594,6143.709319,-5329.482782,0.000000
1184.076923,5995.668130,-5921.647536,-612.876398
1184.077253,6217.729913,-5847.626942,-689.485948
1184.077582,7105.977043,-6587.832884,306.438199
1184.077911,7772.162391,-7476.080014,459.657299
1184.078240,7031.956449,-7698.141797,1149.143247
1184.078570,6513.812290,-7402.059420,1149.143247
1184.078899,6883.915261,-7254.018232,1991.848295
1184.079228,7402.059420,-7994.224174,2068.457845
1184.079557,7920.203579,-7476.080014,2834.553343
1184.079887,6809.894666,-7105.977043,2528.115143
1184.080216,7105.977043,-6143.709319,2068.457845
1184.080545,7179.997637,-6069.688724,1838.629195
1184.080874,7105.977043,-5921.647536,995.924147
1184.081204,6291.750507,-5699.585753,0.000000
1184.081533,5107.421000,-6143.709319,-919.314598
1184.081862,5625.565159,-6661.853478,-459.657299
1184.082192,5773.606348,-7031.956449,-612.876398
1184.082521,6069.688724,-6957.935855,0.000000
1184.082850,6291.750507,-6735.874072,0.000000
1184.083179,7031.956449,-7328.038826,1072.533697
1184.083509,7476.080014,-7550.100608,1685.410096
1184.083838,7624.121203,-6587.832884,2145.067394
1184.084167,7698.141797,-6069.688724,2145.067394
1184.084496,8734.430116,-6587.832884,2604.724693
1184.084826,8512.368333,-6291.750507,2374.896044
1184.085155,7994.224174,-6365.771101,2451.505594
1184.085484,7772.162391,-5773.606348,2604.724693
1184.085813,7328.038826,-6143.709319,1762.019645
1184.086143,6809.894666,-5847.626942,842.705048
1184.086472,6069.688724,-5255.462188,76.609550
1184.086801,6291.750507,-5551.544565,-153.219100
1184.087130,6735.874072,-5921.647536,-459.657299
1184.087460,6217.729913,-5995.668130,-536.266849
1184.087789,5625.565159,-6365.771101,-766.095498
1184.088118,6069.688724,-6513.812290,-153.219100
1184.088447,6661.853478,-7846.182985,459.657299
1184.088777,6587.832884,-8734.430116,995.924147
1184.089106,6587.832884,-8142.265362,1532.190996
1184.089435,7105.977043,-8216.285956,1915.238745
1184.089764,7698.141797,-7105.977043,2374.896044
1184.090094,7402.059420,-7254.018232,2834.553343
1184.090423,7698.141797,-6513.812290,2298.286494
1184.090752,8216.285956,-5921.647536,2681.334243
1184.091082,8438.347739,-5921.647536,2298.286494
1184.091411,7624.121203,-4737.318029,995.924147
1184.091740,6365.771101,-4737.318029,0.000000
1184.092069,5773.606348,-5477.523971,76.609550
1184.092399,6069.688724,-6069.688724,0.000000
1184.092728,5699.585753,-6957.935855,0.000000
1184.093057,5995.668130,-6439.791695,0.000000
1184.093386,5995.668130,-7031.956449,-306.438199
1184.093716,6217.729913,-8216.285956,229.828649
1184.094045,6143.709319,-8956.491898,612.876398
1184.094374,6365.771101,-8586.388927,995.924147
1184.094703,7179.997637,-7772.162391,1532.190996
1184.095033,7402.059420,-7328.038826,2528.115143
1184.095362,7846.182985,-7031.956449,2681.334243
1184.095691,7698.141797,-6957.935855,2528.115143
1184.096020,7994.224174,-5329.482782,2451.505594
1184.096350,8216.285956,-5107.421000,1915.238745
1184.096679,7772.162391,-4293.194464,1455.581446
1184.097008,6883.915261,-4071.132681,229.828649
1184.097337,6291.750507,-4959.379811,0.000000
1184.097667,6587.832884,-5033.400406,536.266849
1184.097996,6661.853478,-5329.482782,-536.266849
1184.098325,6735.874072,-5329.482782,-229.828649
1184.098654,7105.977043,-6069.688724,153.219100
1184.098984,7772.162391,-7254.018232,689.485948
1184.099313,7994.224174,-7402.059420,995.924147
1184.099642,6883.915261,-7550.100608,1072.533697
1184.099972,7105.977043,-7328.038826,1762.019645
1184.100301,7550.100608,-7254.018232,2068.457845
1184.100630,7328.038826,-7624.121203,2757.943793
1184.100959,7105.977043,-6809.894666,2298.286494
1184.101289,7179.997637,-6661.853478,2451.505594
1184.101618,7105.977043,-6661.853478,2068.457845
1184.101947,6217.729913,-6143.709319,612.876398
1184.102276,5329.482782,-5181.441594,0.000000
1184.102606,5255.462188,-6143.709319,-612.876398
1184.102935,5403.503377,-7105.977043,0.000000
1184.103264,5847.626942,-7105.977043,-383.047749
1184.103593,6439.791695,-6143.709319,-1149.143247
1184.103923,6661.853478,-6513.812290,-229.828649
1184.104252,7105.977043,-7476.080014,459.657299
1184.104581,7328.038826,-8068.244768,1378.971896
1184.104910,7698.141797,-7031.956449,1838.629195
1184.105240,8364.327145,-6291.750507,1915.238745
1184.105569,8586.388927,-5847.626942,2528.115143
1184.105898,8142.265362,-6291.750507,2911.162892
1184.106227,7920.203579,-6217.729913,2681.334243
1184.106557,7698.141797,-5403.503377,2298.286494
1184.106886,7254.018232,-5921.647536,1608.800546
1184.107215,6587.832884,-5921.647536,995.924147
1184.107544,6291.750507,-5847.626942,383.047749
1184.107874,5551.544565,-6513.812290,-612.876398
1184.108203,6217.729913,-5773.606348,0.000000
1184.108532,6217.729913,-6143.709319,-459.657299
1184.108862,6513.812290,-6217.729913,-306.438199
1184.109191,6439.791695,-6735.874072,-383.047749
1184.109520,6587.832884,-7476.080014,383.047749
1184.109849,7179.997637,-8438.347739,1149.143247
1184.110179,6883.915261,-8068.244768,1455.581446
1184.110508,7031.956449,-7994.224174,2451.505594
1184.110837,7254.018232,-7402.059420,2451.505594
1184.111166,7624.121203,-6513.812290,2604.724693
1184.111496,7772.162391,-6513.812290,3064.381992
1184.111825,8808.450710,-5329.482782,2987.772442
1184.112154,9326.594869,-5255.462188,2834.553343
1184.112483,8068.244768,-4071.132681,1455.581446
1184.112813,6365.771101,-3478.967927,0.000000
1184.113142,6143.709319,-5921.647536,-153.219100
1184.113471,5921.647536,-6439.791695,0.000000
1184.113800,5847.626942,-7105.977043,-612.876398
1184.114130,4959.379811,-6365.771101,-612.876398
1184.114459,5699.585753,-7328.038826,-383.047749
1184.114788,5921.647536,-8956.491898,0.000000
1184.115117,5995.668130,-8882.471304,383.047749
1184.115447,6365.771101,-8512.368333,689.485948
1184.115776,7105.977043,-7846.182985,2298.286494
1184.116105,7772.162391,-7698.141797,2834.553343
1184.116434,8290.306550,-7254.018232,3140.991542
1184.116764,8216.285956,-5921.647536,2911.162892
1184.117093,8660.409521,-4737.318029,2757.943793
1184.117422,9030.512492,-4737.318029,1915.238745
1184.117751,8216.285956,-4293.194464,1302.362347
1184.118081,7105.977043,-4219.173869,0.000000
1184.118410,6661.853478,-5329.482782,0.000000
1184.118739,6143.709319,-5181.441594,229.828649
1184.119069,6143.709319,-6439.791695,-612.876398
1184.119398,5995.668130,-6143.709319,-766.095498
1184.119727,6439.791695,-6957.935855,-229.828649
1184.120056,6809.894666,-7698.141797,0.000000
1184.120386,6883.915261,-7698.141797,919.314598
1184.120715,7105.977043,-7772.162391,1225.752797
1184.121044,7105.977043,-7476.080014,1838.629195
1184.121373,7328.038826,-7476.080014,2068.457845
1184.121703,7105.977043,-7698.141797,1915.238745
1184.122032,6883.915261,-7476.080014,2374.896044
1184.122361,7476.080014,-6809.894666,2451.505594
1184.122690,7920.203579,-6513.812290,2145.067394
1184.123020,7328.038826,-5921.647536,1149.143247
1184.123349,6291.750507,-4885.359217,1302.362347
1184.123678,5847.626942,-6365.771101,-229.828649
1184.124007,5255.462188,-6513.812290,-383.047749
1184.124337,5403.503377,-6957.935855,-766.095498
1184.124666,5477.523971,-6587.832884,-536.266849
1184.124995,6217.729913,-6513.812290,536.266849
1184.125324,7402.059420,-6513.812290,1378.971896
1184.125654,8068.244768,-6365.771101,1838.629195
1184.125983,7920.203579,-5995.668130,2298.286494
1184.126312,8438.347739,-5847.626942,2834.553343
1184.126641,8290.306550,-6439.791695,2911.162892
1184.126971,7772.162391,-6439.791695,2681.334243
1184.127300,6957.935855,-6513.812290,2221.676944
1184.127629,7105.977043,-6809.894666,2145.067394
1184.127959,7328.038826,-6809.894666,2298.286494
1184.128288,7031.956449,-7031.956449,1072.533697
1184.128617,6217.729913,-5181.441594,229.828649
1184.128946,5773.606348,-5921.647536,-383.047749
1184.129276,5773.606348,-6217.729913,-306.438199
1184.129605,5995.668130,-5921.647536,-612.876398
1184.129934,5921.647536,-6069.688724,-995.924147
1184.130263,6143.709319,-6365.771101,-383.047749
1184.130593,6957.935855,-7476.080014,689.485948
1184.130922,7105.977043,-7994.224174,1685.410096
1184.131251,6735.874072,-7920.203579,1455.581446
1184.131580,7254.018232,-7920.203579,2221.676944
1184.131910,8438.347739,-7105.977043,2987.772442
1184.132239,8512.368333,-6439.791695,2757.943793
1184.132568,8068.244768,-6069.688724,3064.381992
1184.132897,8734.430116,-5107.421000,2681.334243
1184.133227,8660.409521,-5329.482782,2451.505594
1184.133556,7772.162391,-5107.421000,1302.362347
1184.133885,6809.894666,-5255.462188,0.000000
1184.134214,5995.668130,-5625.565159,-612.876398
1184.134544,5847.626942,-6957.935855,-536.266849
1184.134873,5329.482782,-7105.977043,-919.314598
1184.135202,5403.503377,-6661.853478,-766.095498
1184.135531,5107.421000,-7179.997637,-306.438199
1184.135861,5847.626942,-8586.388927,306.438199
1184.136190,6587.832884,-9030.512492,1149.143247
1184.136519,7031.956449,-8586.388927,1762.019645
1184.136849,7624.121203,-7550.100608,2374.896044
1184.137178,8364.327145,-7328.038826,2145.067394
1184.137507,8512.368333,-6735.874072,2681.334243
1184.137836,7920.203579,-6143.709319,2604.724693
1184.138166,8364.327145,-5329.482782,2757.943793
1184.138495,8808.450710,-4885.359217,2451.505594
1184.138824,7624.121203,-4811.338623,1149.143247
1184.139153,6735.874072,-4293.194464,153.219100
1184.139483,5847.626942,-5107.421000,-153.219100
1184.139812,5847.626942,-6069.688724,-459.657299
1184.140141,5625.565159,-6069.688724,-612.876398
1184.140470,5551.544565,-6069.688724,-919.314598
1184.140800,6217.729913,-6587.832884,-536.266849
1184.141129,7254.018232,-7550.100608,459.657299
1184.141458,7624.121203,-8068.244768,995.924147
1184.141787,7031.956449,-7698.141797,1455.581446
1184.142117,7105.977043,-6809.894666,1455.581446
1184.142446,7624.121203,-7328.038826,2145.067394
1184.142775,7994.224174,-7476.080014,2681.334243
1184.143104,7328.038826,-7179.997637,2681.334243
1184.143434,7105.977043,-6143.709319,2068.457845
1184.143763,7328.038826,-6291.750507,1608.800546
1184.144092,7031.956449,-5921.647536,459.657299
1184.144421,5995.668130,-5477.523971,-383.047749
1184.144751,5107.421000,-6661.853478,-383.047749
1184.145080,5551.544565,-6513.812290,-306.438199
1184.145409,5699.585753,-6809.894666,-536.266849
1184.145739,5773.606348,-6217.729913,-383.047749
1184.146068,6069.688724,-6439.791695,0.000000
1184.146397,7105.977043,-7328.038826,1149.143247
1184.146726,7402.059420,-7105.977043,1455.581446
1184.147056,7476.080014,-7031.956449,1838.629195
1184.147385,7920.203579,-6735.874072,2757.943793
1184.147714,8734.430116,-7105.977043,2221.676944
1184.148043,8512.368333,-6883.915261,2911.162892
1184.148373,7994.224174,-6439.791695,2911.162892
1184.148702,7698.141797,-6291.750507,2145.067394
1184.149031,7179.997637,-5773.606348,2298.286494
1184.149360,6883.915261,-5551.544565,995.924147
1184.149690,6587.832884,-4737.318029,0.000000
1184.150019,6291.750507,-5255.462188,-766.095498
1184.150348,5773.606348,-6439.791695,-766.095498
1184.150677,5847.626942,-6069.688724,-766.095498
1184.151007,5995.668130,-5995.668130,-689.485948
1184.151336,6661.853478,-6513.812290,0.000000
1184.151665,7179.997637,-7920.203579,459.657299
1184.151994,7031.956449,-7994.224174,612.876398
1184.152324,7254.018232,-8068.244768,1532.190996
1184.152653,7328.038826,-7698.141797,1991.848295
1184.152982,8216.285956,-6809.894666,2757.943793
1184.153311,8290.306550,-6513.812290,2834.553343
1184.153641,7920.203579,-6439.791695,3064.381992
1184.153970,7920.203579,-5403.503377,2145.067394
1184.154299,7920.203579,-5847.626942,2451.505594
1184.154629,7624.121203,-4885.359217,1302.362347
1184.154958,6661.853478,-4663.297435,153.219100
1184.155287,5773.606348,-5181.441594,-306.438199
1184.155616,5551.544565,-6143.709319,-766.095498
1184.155946,5255.462188,-7402.059420,-995.924147
1184.156275,5847.626942,-6883.915261,-536.266849
1184.156604,6365.771101,-7698.141797,0.000000
1184.156933,6809.894666,-8586.388927,229.828649
1184.157263,6809.894666,-8882.471304,766.095498
1184.157592,6735.874072,-8956.491898,1455.581446
1184.157921,7550.100608,-7846.182985,2451.505594
1184.158250,8068.244768,-6587.832884,2451.505594
1184.158580,7994.224174,-5847.626942,3064.381992
1184.158909,8216.285956,-4885.359217,3064.381992
1184.159238,8882.471304,-4515.256246,2451.505594
1184.159567,9104.533087,-3849.070898,1915.238745
1184.159896,7402.059420,-4071.132681,766.095498
1184.160226,6587.832884,-4219.173869,76.609550
1184.160555,5921.647536,-5773.606348,-459.657299
1184.160884,5625.565159,-6883.915261,-536.266849
1184.161213,5625.565159,-6661.853478,-536.266849
1184.161542,5921.647536,-6809.894666,-995.924147
1184.161871,6513.812290,-7698.141797,0.000000
1184.162201,7550.100608,-8364.327145,612.876398
1184.162530,7254.018232,-7624.121203,1072.533697
1184.162859,6365.771101,-7179.997637,842.705048
1184.163188,6587.832884,-7994.224174,1685.410096
1184.163517,7179.997637,-7624.121203,2145.067394
1184.163846,7698.141797,-7105.977043,2298.286494
1184.164176,7179.997637,-6661.853478,2604.724693
1184.164505,7254.018232,-5699.585753,2298.286494
1184.164834,8068.244768,-6587.832884,1991.848295
1184.165163,7402.059420,-5625.565159,1378.971896
1184.165492,6513.812290,-5551.544565,0.000000
1184.165822,5255.462188,-5699.585753,-919.314598
1184.166151,5181.441594,-7402.059420,-612.876398
1184.166480,5181.441594,-7698.141797,-689.485948
1184.166809,5403.503377,-6735.874072,-459.657299
1184.167138,6735.874072,-6513.812290,76.609550
1184.167467,7328.038826,-7328.038826,1455.581446
1184.167797,7476.080014,-6809.894666,1608.800546
1184.168126,7105.977043,-6661.853478,1915.238745
1184.168455,8142.265362,-5699.585753,2145.067394
1184.168784,9104.533087,-5625.565159,2911.162892
1184.169113,8364.327145,-6513.812290,2528.115143
1184.169443,7772.162391,-6439.791695,2528.115143
1184.169772,7624.121203,-6217.729913,2145.067394
1184.170101,7624.121203,-6143.709319,995.924147
1184.170430,7031.956449,-6143.709319,1149.143247
1184.170759,6143.709319,-6143.709319,0.000000
1184.171088,5921.647536,-6143.709319,-689.485948
1184.171418,5921.647536,-6217.729913,-766.095498
1184.171747,5403.503377,-6143.709319,-919.314598
1184.172076,5403.503377,-6661.853478,-766.095498
1184.172405,6143.709319,-7402.059420,-153.219100
1184.172734,7105.977043,-7254.018232,306.438199
1184.173063,6735.874072,-7994.224174,919.314598
1184.173393,6957.935855,-7698.141797,1762.019645
1184.173722,7402.059420,-7624.121203,1915.238745
1184.174051,8438.347739,-6661.853478,2604.724693
1184.174380,8660.409521,-5847.626942,2528.115143
1184.174709,8660.409521,-5921.647536,3294.210641
1184.175039,8956.491898,-5699.585753,3217.601092
1184.175368,8216.285956,-5995.668130,2451.505594
1184.175697,7031.956449,-5033.400406,842.705048
1184.176026,5773.606348,-4885.359217,0.000000
1184.176355,5773.606348,-5625.565159,-689.485948
1184.176684,5551.544565,-6365.771101,-612.876398
1184.177014,5329.482782,-6883.915261,-919.314598
1184.177343,5329.482782,-6217.729913,-995.924147
1184.177672,5773.606348,-7328.038826,-306.438199
1184.178001,6661.853478,-8290.306550,306.438199
1184.178330,6883.915261,-8660.409521,1072.533697
1184.178660,6883.915261,-8364.327145,1838.629195
1184.178989,7550.100608,-7550.100608,2298.286494
1184.179318,7698.141797,-6143.709319,3140.991542
1184.179647,8660.409521,-5773.606348,3524.039291
1184.179976,9326.594869,-5403.503377,2681.334243
1184.180305,8956.491898,-4737.318029,2757.943793
1184.180635,7920.203579,-5329.482782,2451.505594
1184.180964,7179.997637,-4219.173869,1149.143247
1184.181293,6513.812290,-4515.256246,0.000000
1184.181622,5847.626942,-6143.709319,-306.438199
1184.181951,6143.709319,-6217.729913,-229.828649
1184.182281,5921.647536,-6365.771101,-689.485948
1184.182610,6143.709319,-6217.729913,-995.924147
1184.182939,6957.935855,-6809.894666,-536.266849
1184.183268,7550.100608,-7772.162391,689.485948
1184.183597,7476.080014,-7772.162391,919.314598
1184.183926,6661.853478,-7624.121203,1072.533697
1184.184256,6661.853478,-7698.141797,1838.629195
1184.184585,7105.977043,-8216.285956,2145.067394
1184.184914,7328.038826,-7624.121203,2757.943793
1184.185243,7179.997637,-7105.977043,3064.381992
1184.185572,7994.224174,-6291.750507,2374.896044
1184.185901,7772.162391,-6143.709319,2221.676944
1184.186231,7476.080014,-6069.688724,1532.190996
1184.186560,6365.771101,-5699.585753,153.219100
1184.186889,5403.503377,-6365.771101,-153.219100
1184.187218,4885.359217,-6809.894666,-612.876398
1184.187547,5255.462188,-6439.791695,-689.485948
1184.187877,6143.709319,-6291.750507,-306.438199
1184.188206,7105.977043,-6291.750507,153.219100
1184.188535,7772.162391,-6661.853478,1762.019645
1184.188864,7994.224174,-6809.894666,1915.238745
1184.189193,7254.018232,-6291.750507,1762.019645
1184.189522,7624.121203,-6587.832884,2298.286494
1184.189852,8216.285956,-6587.832884,2834.553343
1184.190181,7772.162391,-7328.038826,2604.724693
1184.190510,7698.141797,-6809.894666,2604.724693
1184.190839,7772.162391,-6069.688724,2681.334243
1184.191168,7698.141797,-6957.935855,1838.629195
1184.191498,6957.935855,-6143.709319,1532.190996
1184.191827,6069.688724,-5625.565159,229.828649
1184.192156,5699.585753,-5625.565159,-842.705048
1184.192485,5625.565159,-5625.565159,-1225.752797
1184.192814,5625.565159,-6439.791695,-919.314598
1184.193143,6143.709319,-6439.791695,-306.438199
1184.193473,6291.750507,-7328.038826,-153.219100
1184.193802,6513.812290,-7846.182985,306.438199
1184.194131,6587.832884,-7846.182985,1149.143247
1184.194460,6661.853478,-8364.327145,1378.971896
1184.194789,7476.080014,-7550.100608,1991.848295
1184.195118,8364.327145,-7105.977043,2681.334243
1184.195448,9030.512492,-6513.812290,2987.772442
1184.195777,8956.491898,-5551.544565,2987.772442
1184.196106,9030.512492,-5107.421000,3064.381992
1184.196435,8290.306550,-4885.359217,2221.676944
1184.196764,7698.141797,-4959.379811,919.314598
1184.197094,7105.977043,-5107.421000,76.609550
1184.197423,6439.791695,-5107.421000,-383.047749
1184.197752,5477.523971,-6587.832884,-995.924147
1184.198081,5033.400406,-6513.812290,-1378.971896
1184.198410,5107.421000,-7476.080014,-919.314598
1184.198739,5773.606348,-8364.327145,-306.438199
1184.199069,6143.709319,-8660.409521,459.657299
1184.199398,6217.729913,-8586.388927,1072.533697
1184.199727,6809.894666,-8290.306550,1072.533697
1184.200056,7402.059420,-7846.182985,1608.800546
1184.200385,7846.182985,-7254.018232,2681.334243
1184.200715,8364.327145,-7031.956449,2834.553343
1184.201044,8142.265362,-5847.626942,2757.943793
1184.201373,8660.409521,-5477.523971,2757.943793
1184.201702,8586.388927,-4885.359217,2451.505594
1184.202031,7920.203579,-4811.338623,1685.410096
1184.202360,6809.894666,-3627.009116,306.438199
1184.202690,6217.729913,-4367.215058,-459.657299
1184.203019,6291.750507,-5403.503377,-306.438199
1184.203348,6513.812290,-5847.626942,-153.219100
1184.203677,6513.812290,-6069.688724,-459.657299
1184.204006,6735.874072,-6291.750507,0.000000
1184.204336,7402.059420,-7476.080014,842.705048
1184.204665,7550.100608,-8068.244768,1685.410096
1184.204994,7105.977043,-7624.121203,1455.581446
1184.205323,6439.791695,-7550.100608,1838.629195
1184.205652,6661.853478,-7476.080014,1991.848295
1184.205981,6661.853478,-7402.059420,2451.505594
1184.206311,6957.935855,-7105.977043,2451.505594
1184.206640,7698.141797,-6439.791695,2681.334243
1184.206969,7476.080014,-6365.771101,2298.286494
1184.207298,6661.853478,-6439.791695,1072.533697
1184.207627,5847.626942,-5773.606348,383.047749
1184.207956,5107.421000,-6513.812290,-1072.533697
1184.208286,5477.523971,-7179.997637,-612.876398
1184.208615,5551.544565,-6957.935855,-306.438199
1184.208944,5921.647536,-6587.832884,-229.828649
1184.209273,6809.894666,-5921.647536,383.047749
1184.209602,7550.100608,-6883.915261,1685.410096
1184.209932,8142.265362,-6661.853478,1762.019645
1184.210261,7624.121203,-6513.812290,2451.505594
1184.210590,7772.162391,-6365.771101,2374.896044
1184.210919,7846.182985,-6587.832884,2298.286494
1184.211248,7328.038826,-6513.812290,2451.505594
1184.211577,7328.038826,-7031.956449,2451.505594
1184.211907,7698.141797,-6513.812290,2298.286494
1184.212236,7772.162391,-6735.874072,1991.848295
1184.212565,7698.141797,-5773.606348,919.314598
1184.212894,7031.956449,-5625.565159,153.219100
1184.213223,6661.853478,-5477.523971,-229.828649
1184.213553,6439.791695,-6143.709319,-689.485948
1184.213882,6439.791695,-6069.688724,-842.705048
1184.214211,6217.729913,-6291.750507,-612.876398
1184.214540,6069.688724,-6735.874072,-383.047749
1184.214869,6291.750507,-8068.244768,229.828649
1184.215198,6217.729913,-8438.347739,536.266849
1184.215528,6513.812290,-8142.265362,1149.143247
1184.215857,7031.956449,-7920.203579,1991.848295
1184.216186,7772.162391,-7328.038826,2528.115143
1184.216515,8438.347739,-6587.832884,2757.943793
1184.216844,8586.388927,-5699.585753,3064.381992
1184.217173,8586.388927,-4811.338623,3140.991542
1184.217503,8808.450710,-5181.441594,2451.505594
1184.217832,8068.244768,-4515.256246,1532.190996
1184.218161,7105.977043,-4737.318029,842.705048
1184.218490,6143.709319,-4885.359217,-383.047749
1184.218819,5625.565159,-5921.647536,-766.095498
1184.219149,5181.441594,-6883.915261,-919.314598
1184.219478,5477.523971,-7105.977043,-612.876398
1184.219807,5921.647536,-7476.080014,-76.609550
1184.220136,5847.626942,-8438.347739,229.828649
1184.220465,5847.626942,-8512.368333,612.876398
1184.220794,6439.791695,-8660.409521,1302.362347
1184.221124,7105.977043,-8142.265362,2298.286494
1184.221453,7994.224174,-7328.038826,2451.505594
1184.221782,8512.368333,-6217.729913,2987.772442
1184.222111,8734.430116,-5847.626942,2987.772442
1184.222440,9178.553681,-5033.400406,2681.334243
1184.222770,9030.512492,-4589.276840,2451.505594
1184.223099,8068.244768,-4219.173869,1225.752797
1184.223428,6957.935855,-4071.132681,689.485948
1184.223757,6365.771101,-4367.215058,-306.438199
1184.224086,5921.647536,-5699.585753,0.000000
1184.224415,5921.647536,-5995.668130,-766.095498
1184.224745,5773.606348,-5921.647536,0.000000
1184.225074,6069.688724,-6735.874072,-459.657299
1184.225403,6735.874072,-7550.100608,536.266849
1184.225732,7105.977043,-8216.285956,1225.752797
1184.226061,7031.956449,-7994.224174,1685.410096
1184.226391,7328.038826,-7920.203579,1455.581446
1184.226720,7328.038826,-7698.141797,2374.896044
1184.227049,7550.100608,-7105.977043,2451.505594
1184.227378,7772.162391,-7105.977043,2528.115143
1184.227707,7772.162391,-6809.894666,3217.601092
1184.228036,7772.162391,-5995.668130,1915.238745
1184.228366,6883.915261,-5921.647536,1072.533697
1184.228695,5847.626942,-5477.523971,0.000000
1184.229024,5033.400406,-6587.832884,-766.095498
1184.229353,5181.441594,-7254.018232,-1072.533697
1184.229682,5033.400406,-7105.977043,-995.924147
1184.230011,5329.482782,-6883.915261,-1149.143247
1184.230341,5995.668130,-6809.894666,-383.047749
1184.230670,7031.956449,-7994.224174,842.705048
1184.230999,7550.100608,-7550.100608,1762.019645
1184.231328,7624.121203,-6809.894666,2068.457845
1184.231657,8216.285956,-6143.709319,2374.896044
1184.231987,8882.471304,-5181.441594,2451.505594
1184.232316,9030.512492,-6439.791695,2757.943793
1184.232645,8290.306550,-5921.647536,2681.334243
1184.232974,7772.162391,-5033.400406,2298.286494
1184.233303,7179.997637,-6217.729913,1838.629195
1184.233632,7031.956449,-5329.482782,459.657299
1184.233962,6587.832884,-5107.421000,-612.876398
1184.234291,6513.812290,-5921.647536,-229.828649
1184.234620,6143.709319,-6735.874072,-229.828649
1184.234949,6143.709319,-6661.853478,-766.095498
1184.235278,6439.791695,-6439.791695,-459.657299
1184.235608,5699.585753,-7031.956449,-766.095498
1184.235937,5625.565159,-8216.285956,612.876398
1184.236266,5995.668130,-8956.491898,1302.362347
1184.236595,6513.812290,-8808.450710,1608.800546
1184.236924,6883.915261,-6587.832884,2221.676944
1184.237253,7698.141797,-6143.709319,2451.505594
1184.237583,8142.265362,-6661.853478,2834.553343
1184.237912,8216.285956,-5847.626942,3370.820191
1184.238241,9030.512492,-5181.441594,3140.991542
1184.238570,9030.512492,-5329.482782,2374.896044
1184.238899,7994.224174,-4441.235652,1302.362347
1184.239228,7031.956449,-5329.482782,153.219100
1184.239558,6069.688724,-6439.791695,-229.828649
1184.239887,5033.400406,-6587.832884,-153.219100
1184.240216,4959.379811,-7328.038826,-1149.143247
1184.240545,5033.400406,-7179.997637,-995.924147
1184.240874,5403.503377,-8364.327145,-306.438199
1184.241204,6291.750507,-8808.450710,536.266849
1184.241533,6291.750507,-8734.430116,766.095498
1184.241862,5699.585753,-8290.306550,842.705048
1184.242191,7031.956449,-7254.018232,1991.848295
1184.242520,8586.388927,-6809.894666,2757.943793
1184.242849,8956.491898,-5847.626942,3217.601092
1184.243179,9474.636058,-5329.482782,3064.381992
1184.243508,9400.615463,-4959.379811,2757.943793
1184.243837,8956.491898,-5255.462188,2068.457845
1184.244166,7920.203579,-4441.235652,1302.362347
1184.244495,7105.977043,-3997.112087,383.047749
1184.244825,6217.729913,-4885.359217,-306.438199
1184.245154,5847.626942,-5847.626942,-612.876398
1184.245483,5625.565159,-6069.688724,-766.095498
1184.245812,5773.606348,-6883.915261,-919.314598
1184.246141,5551.544565,-7550.100608,-306.438199
1184.246470,6365.771101,-8216.285956,459.657299
1184.246800,6661.853478,-8438.347739,919.314598
1184.247129,6661.853478,-7994.224174,1532.190996
1184.247458,7402.059420,-7328.038826,1608.800546
1184.247787,7624.121203,-7179.997637,2221.676944
1184.248116,7550.100608,-7179.997637,2221.676944
1184.248446,7328.038826,-6587.832884,2451.505594
1184.248775,7994.224174,-6217.729913,2757.943793
1184.249104,8364.327145,-5995.668130,2374.896044
1184.249433,7698.141797,-5107.421000,995.924147
1184.249762,6069.688724,-5107.421000,-306.438199
1184.250091,5181.441594,-6143.709319,-766.095498
1184.250421,5403.503377,-7031.956449,-383.047749
1184.250750,4811.338623,-7179.997637,-766.095498
1184.251079,5255.462188,-6883.915261,-766.095498
1184.251408,5847.626942,-6957.935855,-306.438199
1184.251737,6957.935855,-7772.162391,536.266849
1184.252066,7476.080014,-8068.244768,1378.971896
1184.252396,7476.080014,-7476.080014,1762.019645
1184.252725,7920.203579,-6735.874072,2834.553343
1184.253054,8660.409521,-6291.750507,2451.505594
1184.253383,8438.347739,-6439.791695,2757.943793
1184.253712,8068.244768,-5773.606348,2757.943793
1184.254042,8438.347739,-5551.544565,2528.115143
1184.254371,8438.347739,-5477.523971,2221.676944
1184.254700,7328.038826,-4515.256246,1149.143247
1184.255029,6291.750507,-4663.297435,0.000000
1184.255358,5181.441594,-5699.585753,-612.876398
1184.255687,5551.544565,-6365.771101,-536.266849
1184.256017,5699.585753,-6291.750507,-842.705048
1184.256346,6217.729913,-5995.668130,383.047749
1184.256675,6587.832884,-6587.832884,383.047749
1184.257004,6809.894666,-7698.141797,689.485948
1184.257333,6661.853478,-7920.203579,1225.752797
1184.257663,6587.832884,-8216.285956,1608.800546
1184.257992,7105.977043,-7476.080014,2451.505594
1184.258321,7328.038826,-6957.935855,2374.896044
1184.258650,7402.059420,-6365.771101,2681.334243
1184.258979,8290.306550,-6217.729913,3217.601092
1184.259309,8660.409521,-5181.441594,3600.648841
1184.259638,9030.512492,-5033.400406,2528.115143
1184.259967,7179.997637,-4589.276840,1225.752797
1184.260296,6365.771101,-4663.297435,76.609550
1184.260625,5477.523971,-5773.606348,-536.266849
1184.260955,5403.503377,-7105.977043,-689.485948
1184.261284,4811.338623,-7402.059420,-1072.533697
1184.261613,5477.523971,-7328.038826,-842.705048
1184.261942,6069.688724,-8660.409521,-306.438199
1184.262272,6513.812290,-9030.512492,612.876398
1184.262601,6809.894666,-9252.574275,1225.752797
1184.262930,6809.894666,-8142.265362,1302.362347
1184.263259,7476.080014,-7105.977043,1838.629195
1184.263588,8216.285956,-6809.894666,2451.505594
1184.263918,7994.224174,-5921.647536,2911.162892
1184.264247,8660.409521,-5699.585753,3140.991542
1184.264576,9104.533087,-4885.359217,2681.334243
1184.264905,8660.409521,-4367.215058,2068.457845
1184.265234,7920.203579,-4219.173869,1302.362347
1184.265564,7105.977043,-4441.235652,153.219100
1184.265893,6957.935855,-5255.462188,459.657299
1184.266222,6365.771101,-5551.544565,-612.876398
1184.266551,5995.668130,-5625.565159,-536.266849
1184.266880,5699.585753,-6291.750507,-766.095498
1184.267210,5921.647536,-7402.059420,-306.438199
1184.267539,6365.771101,-8512.368333,536.266849
1184.267868,7105.977043,-8438.347739,1225.752797
1184.268197,7031.956449,-7476.080014,1608.800546
1184.268526,7105.977043,-7994.224174,2374.896044
1184.268856,7179.997637,-7105.977043,1915.238745
1184.269185,7105.977043,-6809.894666,1838.629195
1184.269514,7254.018232,-6069.688724,2221.676944
1184.269843,8216.285956,-6069.688724,2757.943793
1184.270173,8586.388927,-6069.688724,2068.457845
1184.270502,7179.997637,-5329.482782,1225.752797
1184.270831,5921.647536,-5921.647536,0.000000
1184.271160,5329.482782,-6513.812290,-383.047749
1184.271489,5255.462188,-7402.059420,-306.438199
1184.271819,5255.462188,-7328.038826,-689.485948
1184.272148,5107.421000,-7179.997637,-1149.143247
1184.272477,6143.709319,-7550.100608,0.000000
1184.272806,7105.977043,-8290.306550,689.485948
1184.273135,7254.018232,-7402.059420,1455.581446
1184.273465,7179.997637,-6957.935855,1532.190996
1184.273794,8216.285956,-6513.812290,2451.505594
1184.274123,8734.430116,-5921.647536,2604.724693
1184.274452,8438.347739,-6143.709319,2987.772442
1184.274781,8438.347739,-5181.441594,2451.505594
1184.275111,8808.450710,-4885.359217,2451.505594
1184.275440,8512.368333,-4885.359217,2451.505594
1184.275769,7772.162391,-4737.318029,1225.752797
1184.276098,6809.894666,-4811.338623,1225.752797
1184.276428,5921.647536,-5403.503377,-612.876398
1184.276757,5995.668130,-5995.668130,-842.705048
1184.277086,5847.626942,-6439.791695,-459.657299
1184.277415,6069.688724,-7031.956449,-459.657299
1184.277744,6217.729913,-7476.080014,0.000000
1184.278074,6587.832884,-7920.203579,536.266849
1184.278403,6365.771101,-8216.285956,919.314598
1184.278732,6513.812290,-7846.182985,1455.581446
1184.279061,7105.977043,-8142.265362,2145.067394
1184.279390,8142.265362,-6661.853478,2451.505594
1184.279720,7624.121203,-6365.771101,2374.896044
1184.280049,8068.244768,-5551.544565,2911.162892
1184.280378,8512.368333,-5403.503377,2528.115143
1184.280707,8068.244768,-5773.606348,2068.457845
1184.281036,7179.997637,-4589.276840,766.095498
1184.281366,5847.626942,-5625.565159,0.000000
1184.281695,5255.462188,-6513.812290,-689.485948
1184.282024,4959.379811,-7550.100608,-995.924147
1184.282353,5033.400406,-8216.285956,-383.047749
1184.282683,5255.462188,-7254.018232,-919.314598
1184.283012,5773.606348,-7994.224174,0.000000
1184.283341,6217.729913,-8586.388927,383.047749
1184.283670,6809.894666,-8660.409521,1532.190996
1184.283999,6957.935855,-8142.265362,1762.019645
1184.284329,7550.100608,-6661.853478,2451.505594
1184.284658,8216.285956,-6217.729913,2374.896044
1184.284987,8512.368333,-5477.523971,2987.772442
1184.285316,9030.512492,-5107.421000,3447.429741
1184.285645,9474.636058,-4737.318029,2911.162892
1184.285975,8660.409521,-5033.400406,2068.457845
1184.286304,7402.059420,-4885.359217,689.485948
1184.286633,5773.606348,-5995.668130,229.828649
1184.286962,5625.565159,-6587.832884,0.000000
1184.287291,5329.482782,-6957.935855,-689.485948
1184.287621,5403.503377,-6365.771101,-842.705048
1184.287950,5773.606348,-6217.729913,-306.438199
1184.288279,7105.977043,-6883.915261,383.047749
1184.288608,7402.059420,-7328.038826,1149.143247
1184.288938,7031.956449,-7105.977043,842.705048
1184.289267,6439.791695,-6809.894666,1149.143247
1184.289596,7402.059420,-7105.977043,2145.067394
1184.289925,8068.244768,-7105.977043,2834.553343
1184.290254,7624.121203,-6661.853478,2604.724693
1184.290584,7920.203579,-6143.709319,2298.286494
1184.290913,8512.368333,-6217.729913,2451.505594
1184.291242,8734.430116,-6587.832884,2145.067394
1184.291571,7105.977043,-5847.626942,919.314598
1184.291900,5551.544565,-6291.750507,76.609550
1184.292230,4737.318029,-6661.853478,-766.095498
1184.292559,4737.318029,-7476.080014,-1302.362347
1184.292888,4737.318029,-7105.977043,-612.876398
1184.293217,5625.565159,-6291.750507,-612.876398
1184.293546,6587.832884,-6883.915261,0.000000
1184.293876,7328.038826,-7105.977043,689.485948
1184.294205,7179.997637,-7254.018232,1455.581446
1184.294534,7772.162391,-6439.791695,1608.800546
1184.294863,8290.306550,-6291.750507,1915.238745
1184.295193,8808.450710,-6661.853478,2528.115143
1184.295522,8586.388927,-6809.894666,3140.991542
1184.295851,8808.450710,-5995.668130,3064.381992
1184.296180,8290.306550,-5995.668130,2145.067394
1184.296509,7550.100608,-5995.668130,1838.629195
1184.296839,7031.956449,-5625.565159,689.485948
1184.297168,6365.771101,-5847.626942,-229.828649
1184.297497,5477.523971,-5995.668130,-536.266849
1184.297826,5403.503377,-6513.812290,-919.314598
1184.298155,5181.441594,-6217.729913,-1072.533697
1184.298485,5477.523971,-6439.791695,-229.828649
1184.298814,6735.874072,-7105.977043,383.047749
1184.299143,7105.977043,-7920.203579,689.485948
1184.299472,6513.812290,-7846.182985,1072.533697
1184.299801,6883.915261,-7920.203579,612.876398
1184.300131,7550.100608,-7402.059420,2145.067394
1184.300460,8216.285956,-6957.935855,2528.115143
1184.300789,7624.121203,-7105.977043,2451.505594
1184.301118,8290.306550,-6069.688724,3140.991542
1184.301448,8734.430116,-5921.647536,2757.943793
1184.301777,8438.347739,-5181.441594,2451.505594
1184.302106,7254.018232,-4885.359217,1072.533697
1184.302435,5625.565159,-5403.503377,0.000000
1184.302764,4663.297435,-5995.668130,-612.876398
1184.303094,4663.297435,-6883.915261,-1608.800546
1184.303423,4293.194464,-6735.874072,-1685.410096
1184.303752,4663.297435,-7179.997637,-766.095498
1184.304081,5847.626942,-8438.347739,-306.438199
1184.304410,6735.874072,-8882.471304,919.314598
1184.304740,7031.956449,-8660.409521,1302.362347
1184.305069,7328.038826,-7846.182985,2145.067394
1184.305398,8216.285956,-6957.935855,2528.115143
1184.305727,8956.491898,-5847.626942,2757.943793
1184.306056,9030.512492,-5181.441594,3064.381992
1184.306386,9770.718434,-4589.276840,2987.772442
1184.306715,9622.677246,-4441.235652,3064.381992
1184.307044,8660.409521,-4293.194464,1915.238745
1184.307373,7254.018232,-4293.194464,766.095498
1184.307703,5995.668130,-4959.379811,-229.828649
1184.308032,5255.462188,-6069.688724,-536.266849
1184.308361,5181.441594,-6661.853478,-842.705048
1184.308690,5551.544565,-6291.750507,-612.876398
1184.309019,5847.626942,-6735.874072,-689.485948
1184.309349,6661.853478,-7846.182985,0.000000
1184.309678,6735.874072,-8586.388927,1149.143247
1184.310007,7105.977043,-8808.450710,1302.362347
1184.310336,7254.018232,-7846.182985,1532.190996
1184.310665,7328.038826,-7624.121203,1838.629195
1184.310995,7254.018232,-6513.812290,2145.067394
1184.311324,7105.977043,-6661.853478,2451.505594
1184.311653,7624.121203,-6365.771101,2451.505594
1184.311982,8142.265362,-5551.544565,2145.067394
1184.312311,8438.347739,-5625.565159,2145.067394
1184.312641,7476.080014,-5477.523971,689.485948
1184.312970,5699.585753,-6069.688724,0.000000
1184.313299,4885.359217,-6957.935855,-995.924147
1184.313628,4885.359217,-7031.956449,-1149.143247
1184.313958,5403.503377,-6735.874072,-919.314598
1184.314287,5551.544565,-6661.853478,-766.095498
1184.314616,6439.791695,-7994.224174,0.000000
1184.314945,7476.080014,-8586.388927,1455.581446
1184.315274,8142.265362,-7698.141797,1455.581446
1184.315604,8216.285956,-6957.935855,2068.457845
1184.315933,8734.430116,-6217.729913,1838.629195
1184.316262,8586.388927,-6587.832884,2757.943793
1184.316591,8290.306550,-6217.729913,2757.943793
1184.316920,8734.430116,-4811.338623,2681.334243
1184.317250,8142.265362,-5033.400406,2451.505594
1184.317579,7772.162391,-5107.421000,1838.629195
1184.317908,7105.977043,-5181.441594,536.266849
1184.318237,5477.523971,-5477.523971,-383.047749
1184.318566,5181.441594,-5847.626942,-689.485948
1184.318896,5625.565159,-6957.935855,-612.876398
1184.319225,5625.565159,-6809.894666,-536.266849
1184.319554,6069.688724,-6661.853478,0.000000
1184.319883,6957.935855,-6661.853478,153.219100
1184.320213,6883.915261,-7402.059420,1225.752797
1184.320542,7105.977043,-7846.182985,1608.800546
1184.320871,7105.977043,-6957.935855,1762.019645
1184.321200,7550.100608,-6883.915261,2298.286494
1184.321529,7846.182985,-6365.771101,2757.943793
1184.321859,7624.121203,-6661.853478,2987.772442
1184.322188,7772.162391,-6513.812290,2604.724693
1184.322517,8142.265362,-5847.626942,2604.724693
1184.322846,7772.162391,-5995.668130,2068.457845
1184.323175,7402.059420,-5033.400406,1149.143247
1184.323505,5699.585753,-5551.544565,-229.828649
1184.323834,5033.400406,-6439.791695,-536.266849
1184.324163,5329.482782,-7031.956449,-766.095498
1184.324492,5625.565159,-6957.935855,-689.485948
1184.324821,5255.462188,-7179.997637,-612.876398
1184.325151,5995.668130,-7550.100608,0.000000
1184.325480,6735.874072,-8364.327145,766.095498
1184.325809,7105.977043,-8586.388927,1608.800546
1184.326138,7179.997637,-7698.141797,1225.752797
1184.326468,7624.121203,-6735.874072,2145.067394
1184.326797,8068.244768,-6217.729913,2451.505594
1184.327126,7994.224174,-6513.812290,2681.334243
1184.327455,8808.450710,-6069.688724,2834.553343
1184.327784,9178.553681,-5107.421000,2681.334243
1184.328114,8808.450710,-4811.338623,2221.676944
1184.328443,7476.080014,-4293.194464,1072.533697
1184.328772,6365.771101,-4663.297435,0.000000
1184.329101,6291.750507,-4959.379811,-536.266849
1184.329430,5847.626942,-6365.771101,-612.876398
1184.329760,5477.523971,-6291.750507,-842.705048
1184.330089,5699.585753,-6439.791695,-689.485948
1184.330418,6439.791695,-7031.956449,0.000000
1184.330747,7105.977043,-8142.265362,612.876398
1184.331076,7105.977043,-8364.327145,1378.971896
1184.331406,7105.977043,-7920.203579,1455.581446
1184.331735,7031.956449,-7698.141797,1608.800546
1184.332064,7328.038826,-7328.038826,1838.629195
1184.332393,7105.977043,-7402.059420,2451.505594
1184.332723,7476.080014,-6735.874072,2604.724693
1184.333052,7846.182985,-5995.668130,2374.896044
1184.333381,7772.162391,-5477.523971,1838.629195
1184.333710,7328.038826,-5033.400406,842.705048
1184.334039,6217.729913,-5699.585753,0.000000
1184.334369,5625.565159,-6587.832884,-383.047749
1184.334698,5329.482782,-6513.812290,-766.095498
1184.335027,5107.421000,-6587.832884,-1302.362347
1184.335356,5773.606348,-6439.791695,-459.657299
1184.335685,6809.894666,-7920.203579,306.438199
1184.336015,7105.977043,-8364.327145,1225.752797
1184.336344,7254.018232,-7550.100608,1455.581446
1184.336673,7105.977043,-6587.832884,2681.334243
1184.337002,7550.100608,-6513.812290,2451.505594
1184.337331,8142.265362,-6291.750507,2681.334243
1184.337661,8512.368333,-6069.688724,3140.991542
1184.337990,8512.368333,-5403.503377,3140.991542
1184.338319,8364.327145,-5033.400406,2451.505594
1184.338648,7846.182985,-5403.503377,1991.848295
1184.338978,7105.977043,-4219.173869,612.876398
1184.339307,5995.668130,-5033.400406,-612.876398
1184.339636,5995.668130,-5847.626942,-306.438199
1184.339965,6291.750507,-6217.729913,-383.047749
1184.340294,6291.750507,-5921.647536,-612.876398
1184.340624,6365.771101,-6143.709319,-536.266849
1184.340953,6883.915261,-7031.956449,0.000000
1184.341282,6883.915261,-8734.430116,689.485948
1184.341611,6439.791695,-8956.491898,1532.190996
1184.341940,5921.647536,-8438.347739,1608.800546
1184.342270,7031.956449,-7476.080014,2068.457845
1184.342599,7550.100608,-7254.018232,2911.162892
1184.342928,7476.080014,-7105.977043,2987.772442
1184.343257,8068.244768,-5921.647536,3064.381992
1184.343586,8956.491898,-5477.523971,2681.334243
1184.343916,8290.306550,-5477.523971,2221.676944
1184.344245,7328.038826,-4959.379811,766.095498
1184.344574,5921.647536,-5995.668130,-383.047749
1184.344903,5329.482782,-6809.894666,-536.266849
1184.345233,5255.462188,-7476.080014,-612.876398
1184.345562,4737.318029,-7328.038826,-1225.752797
1184.345891,5033.400406,-7476.080014,-459.657299
1184.346220,5551.544565,-8290.306550,0.000000
1184.346549,6365.771101,-8290.306550,1072.533697
1184.346879,6587.832884,-8438.347739,1685.410096
1184.347208,7105.977043,-7328.038826,2374.896044
1184.347537,8290.306550,-6883.915261,2911.162892
1184.347866,8808.450710,-5995.668130,2911.162892
1184.348195,8660.409521,-5773.606348,2987.772442
1184.348525,8956.491898,-5551.544565,3140.991542
1184.348854,8512.368333,-5181.441594,2528.115143
1184.349183,7994.224174,-5329.482782,1532.190996
1184.349512,7105.977043,-4589.276840,612.876398
1184.349841,6217.729913,-6143.709319,153.219100
1184.350171,5255.462188,-5921.647536,-612.876398
1184.350500,5181.441594,-6069.688724,-995.924147
1184.350829,5033.400406,-6439.791695,-1302.362347
1184.351158,5773.606348,-6217.729913,-995.924147
1184.351488,6735.874072,-7328.038826,612.876398
1184.351817,7476.080014,-7402.059420,919.314598
1184.352146,7328.038826,-7550.100608,1378.971896
1184.352475,7328.038826,-7179.997637,1762.019645
1184.352804,7920.203579,-7031.956449,2681.334243
1184.353134,8142.265362,-6661.853478,2451.505594
1184.353463,7846.182985,-6661.853478,2528.115143
1184.353792,7846.182985,-6217.729913,2451.505594
1184.354121,8364.327145,-6069.688724,2374.896044
1184.354450,8364.327145,-6439.791695,1838.629195
1184.354780,7476.080014,-5403.503377,229.828649
1184.355109,5329.482782,-5847.626942,-306.438199
1184.355438,4589.276840,-7105.977043,-766.095498
1184.355767,4737.318029,-6957.935855,-1685.410096
1184.356096,5181.441594,-7031.956449,-1072.533697
1184.356426,6217.729913,-7105.977043,229.828649
1184.356755,6513.812290,-7550.100608,76.609550
1184.357084,7105.977043,-8068.244768,842.705048
1184.357413,7179.997637,-7698.141797,1455.581446
1184.357743,7402.059420,-6809.894666,1991.848295
1184.358072,8882.471304,-6809.894666,2911.162892
1184.358401,8808.450710,-6587.832884,2681.334243
1184.358730,8586.388927,-6291.750507,2834.553343
1184.359059,8290.306550,-5107.421000,2374.896044
1184.359389,8290.306550,-5403.503377,2451.505594
1184.359718,7846.182985,-5773.606348,1838.629195
1184.360047,6809.894666,-5033.400406,536.266849
1184.360376,5773.606348,-5033.400406,-536.266849
1184.360706,5477.523971,-5699.585753,-612.876398
1184.361035,5773.606348,-6365.771101,-689.485948
1184.361364,5625.565159,-6365.771101,-536.266849
1184.361694,5921.647536,-7031.956449,0.000000
1184.362023,7105.977043,-6809.894666,306.438199
1184.362352,7105.977043,-7328.038826,1149.143247
1184.362682,7031.956449,-7772.162391,1762.019645
1184.363011,7254.018232,-7254.018232,2068.457845
1184.363340,8216.285956,-7105.977043,2374.896044
1184.363669,8290.306550,-6365.771101,2451.505594
1184.363999,7846.182985,-6809.894666,2298.286494
1184.364328,7624.121203,-6365.771101,2681.334243
1184.364657,7920.203579,-6735.874072,2221.676944
1184.364987,7402.059420,-5773.606348,1608.800546
1184.365316,5995.668130,-5033.400406,459.657299
1184.365645,5181.441594,-6143.709319,-306.438199
1184.365974,4589.276840,-6883.915261,-995.924147
1184.366304,4737.318029,-7698.141797,-842.705048
1184.366633,5033.400406,-7550.100608,-689.485948
1184.366962,5477.523971,-7031.956449,-383.047749
1184.367292,6439.791695,-8068.244768,612.876398
1184.367621,7031.956449,-7698.141797,1072.533697
1184.367950,7550.100608,-7328.038826,1532.190996
1184.368280,7698.141797,-7328.038826,1915.238745
1184.368609,8142.265362,-6661.853478,2681.334243
1184.368938,8734.430116,-6513.812290,2451.505594
1184.369267,8808.450710,-5995.668130,2757.943793
1184.369597,8882.471304,-5477.523971,2681.334243
1184.369926,8512.368333,-5181.441594,2451.505594
1184.370255,7846.182985,-5107.421000,1302.362347
1184.370585,6735.874072,-4811.338623,459.657299
1184.370914,6217.729913,-5403.503377,0.000000
1184.371243,5403.503377,-5921.647536,-459.657299
1184.371573,4737.318029,-5625.565159,-383.047749
1184.371902,5255.462188,-6069.688724,-1072.533697
1184.372231,6217.729913,-6439.791695,0.000000
1184.372560,7624.121203,-6809.894666,919.314598
1184.372890,8216.285956,-7476.080014,1608.800546
1184.373219,7550.100608,-6661.853478,1302.362347
1184.373548,7179.997637,-7105.977043,1302.362347
1184.373878,7624.121203,-7105.977043,2374.896044
1184.374207,8290.306550,-7105.977043,2757.943793
1184.374536,7624.121203,-6809.894666,2528.115143
1184.374866,7846.182985,-6217.729913,2451.505594
1184.375195,8216.285956,-6661.853478,2298.286494
1184.375524,7402.059420,-6365.771101,1608.800546
1184.375853,5847.626942,-6587.832884,153.219100
1184.376183,4663.297435,-6069.688724,-459.657299
1184.376512,4367.215058,-7105.977043,-1455.581446
1184.376841,4441.235652,-8216.285956,-919.314598
1184.377171,4959.379811,-7402.059420,-919.314598
1184.377500,5921.647536,-7476.080014,-459.657299
1184.377829,6809.894666,-6883.915261,153.219100
1184.378158,7550.100608,-7624.121203,1225.752797
1184.378488,7920.203579,-7179.997637,1685.410096
1184.378817,8364.327145,-6143.709319,2528.115143
1184.379146,8808.450710,-5995.668130,2528.115143
1184.379476,8660.409521,-5995.668130,2834.553343
1184.379805,8512.368333,-5847.626942,3447.429741
1184.380134,8882.471304,-5403.503377,2757.943793
1184.380464,8290.306550,-5551.544565,2834.553343
1184.380793,7550.100608,-5477.523971,1302.362347
1184.381122,6735.874072,-4811.338623,459.657299
1184.381451,5699.585753,-5551.544565,-306.438199
1184.381781,5773.606348,-5921.647536,-612.876398
1184.382110,6291.750507,-5551.544565,-612.876398
1184.382439,5699.585753,-6217.729913,-536.266849
1184.382769,6217.729913,-6513.812290,-306.438199
1184.383098,7031.956449,-7402.059420,536.266849
1184.383427,7550.100608,-7994.224174,919.314598
1184.383757,7624.121203,-8586.388927,1685.410096
1184.384086,7031.956449,-8068.244768,1762.019645
1184.384415,7698.141797,-7179.997637,2528.115143
1184.384744,7698.141797,-7105.977043,2298.286494
1184.385074,7846.182985,-7402.059420,2451.505594
1184.385403,7846.182985,-6217.729913,2757.943793
1184.385732,8068.244768,-5847.626942,2528.115143
1184.386062,7476.080014,-5699.585753,1762.019645
1184.386391,6069.688724,-5181.441594,76.609550
1184.386720,5255.462188,-5921.647536,-1149.143247
1184.387049,4811.338623,-6661.853478,-842.705048
1184.387379,5107.421000,-7105.977043,-689.485948
1184.387708,5107.421000,-7105.977043,-1072.533697
1184.388037,5773.606348,-7254.018232,-766.095498
1184.388367,6439.791695,-7846.182985,229.828649
1184.388696,7179.997637,-8586.388927,1225.752797
1184.389025,7328.038826,-8068.244768,1532.190996
1184.389355,7402.059420,-7402.059420,1838.629195
1184.389684,8216.285956,-6217.729913,1838.629195
1184.390013,8586.388927,-6217.729913,2987.772442
1184.390342,9030.512492,-5699.585753,3140.991542
1184.390672,9030.512492,-4811.338623,3064.381992
1184.391001,8734.430116,-4367.215058,2298.286494
1184.391330,7476.080014,-4737.318029,1225.752797
1184.391660,6365.771101,-4885.359217,0.000000
1184.391989,5625.565159,-5699.585753,-612.876398
1184.392318,5477.523971,-6365.771101,-459.657299
1184.392648,5995.668130,-6439.791695,0.000000
1184.392977,5847.626942,-6439.791695,-306.438199
1184.393306,6735.874072,-6439.791695,-306.438199
1184.393635,7179.997637,-7476.080014,306.438199
1184.393965,7550.100608,-7846.182985,1378.971896
1184.394294,7179.997637,-7846.182985,766.095498
1184.394623,7105.977043,-7328.038826,1532.190996
1184.394953,7328.038826,-7772.162391,1991.848295
1184.395282,7550.100608,-7476.080014,2221.676944
1184.395611,7328.038826,-7624.121203,2451.505594
1184.395940,7254.018232,-6587.832884,2451.505594
1184.396270,7698.141797,-6217.729913,2298.286494
1184.396599,7328.038826,-6291.750507,1455.581446
1184.396928,6217.729913,-5773.606348,536.266849
1184.397258,5329.482782,-5403.503377,-306.438199
1184.397587,5255.462188,-6587.832884,-842.705048
1184.397916,5477.523971,-6661.853478,-766.095498
1184.398246,5625.565159,-6365.771101,-842.705048
1184.398575,6217.729913,-6513.812290,-229.828649
1184.398904,7550.100608,-6661.853478,689.485948
1184.399233,7994.224174,-7254.018232,1455.581446
1184.399563,7846.182985,-6735.874072,2221.676944
1184.399892,8364.327145,-6291.750507,1915.238745
1184.400221,8586.388927,-5921.647536,2298.286494
1184.400551,8216.285956,-6143.709319,2451.505594
1184.400880,8216.285956,-6143.709319,2911.162892
1184.401209,8142.265362,-5699.585753,2987.772442
1184.401539,7994.224174,-5773.606348,2221.676944
1184.401868,7402.059420,-5625.565159,1378.971896
1184.402197,6069.688724,-5107.421000,459.657299
1184.402526,5847.626942,-5403.503377,-229.828649
1184.402856,5699.585753,-5995.668130,-689.485948
1184.403185,5995.668130,-6883.915261,-1302.362347
1184.403514,5181.441594,-7105.977043,-153.219100
1184.403844,6217.729913,-6883.915261,-689.485948
1184.404173,6365.771101,-7698.141797,76.609550
1184.404502,6809.894666,-9252.574275,689.485948
1184.404831,6883.915261,-8216.285956,1225.752797
1184.405161,7031.956449,-8216.285956,2221.676944
1184.405490,7550.100608,-7179.997637,2298.286494
1184.405819,7402.059420,-6587.832884,2145.067394
1184.406149,7624.121203,-6883.915261,3217.601092
1184.406478,8216.285956,-5699.585753,2528.115143
1184.406807,8142.265362,-6217.729913,2451.505594
1184.407137,7624.121203,-5107.421000,1608.800546
1184.407466,6735.874072,-4663.297435,612.876398
1184.407795,5847.626942,-5847.626942,459.657299
1184.408124,5551.544565,-5921.647536,-612.876398
1184.408454,5255.462188,-7105.977043,-1225.752797
1184.408783,5181.441594,-6365.771101,-1072.533697
1184.409112,5477.523971,-7105.977043,-612.876398
1184.409442,7031.956449,-7994.224174,459.657299
1184.409771,7328.038826,-8660.409521,1378.971896
1184.410100,6957.935855,-8512.368333,1225.752797
1184.410430,7179.997637,-7550.100608,1915.238745
1184.410759,8142.265362,-7105.977043,2298.286494
1184.411088,8364.327145,-6735.874072,3064.381992
1184.411417,8660.409521,-5921.647536,3600.648841
1184.411747,8660.409521,-5181.441594,2681.334243
1184.412076,8586.388927,-5033.400406,2221.676944
1184.412405,7994.224174,-4367.215058,1838.629195
1184.412735,6661.853478,-4737.318029,0.000000
1184.413064,5625.565159,-5403.503377,-459.657299
1184.413393,5403.503377,-5847.626942,-536.266849
1184.413723,5847.626942,-6143.709319,-766.095498
1184.414052,5847.626942,-6069.688724,-1608.800546
1184.414381,6439.791695,-6365.771101,-536.266849
1184.414710,7328.038826,-7105.977043,766.095498
1184.415040,7402.059420,-7920.203579,919.314598
1184.415369,7105.977043,-7328.038826,1455.581446
1184.415698,7031.956449,-7402.059420,1685.410096
1184.416028,7550.100608,-7476.080014,2298.286494
1184.416357,7624.121203,-7105.977043,2681.334243
1184.416686,7105.977043,-6513.812290,2528.115143
1184.417015,7402.059420,-5847.626942,2604.724693
1184.417345,7772.162391,-5995.668130,2221.676944
1184.417674,7328.038826,-5847.626942,1838.629195
1184.418003,6365.771101,-5551.544565,459.657299
1184.418333,5625.565159,-5995.668130,-383.047749
1184.418662,4959.379811,-6587.832884,-766.095498
1184.418991,5255.462188,-7624.121203,-1072.533697
1184.419321,5477.523971,-7105.977043,-612.876398
1184.419650,6217.729913,-6809.894666,-306.438199
1184.419979,7254.018232,-7328.038826,229.828649
1184.420308,7402.059420,-7772.162391,1532.190996
1184.420638,7550.100608,-7624.121203,1762.019645
1184.420967,7254.018232,-6957.935855,2145.067394
1184.421296,7920.203579,-6883.915261,1915.238745
1184.421626,8364.327145,-6513.812290,2604.724693
1184.421955,8512.368333,-5921.647536,3064.381992
1184.422284,8660.409521,-5477.523971,2451.505594
1184.422614,8068.244768,-5255.462188,2145.067394
1184.422943,7624.121203,-5255.462188,1685.410096
1184.423272,6883.915261,-4737.318029,306.438199
1184.423601,6365.771101,-5181.441594,0.000000
1184.423931,5847.626942,-5699.585753,-306.438199
1184.424260,5255.462188,-6291.750507,-1225.752797
1184.424589,5477.523971,-7105.977043,-459.657299
1184.424919,5625.565159,-6661.853478,-306.438199
1184.425248,6735.874072,-7254.018232,306.438199
1184.425577,7031.956449,-8216.285956,995.924147
1184.425906,6957.935855,-8290.306550,1532.190996
1184.426236,6513.812290,-8290.306550,1991.848295
1184.426565,7105.977043,-7179.997637,2681.334243
1184.426894,7846.182985,-6809.894666,2451.505594
1184.427224,7846.182985,-6143.709319,2757.943793
1184.427553,7846.182985,-5995.668130,3600.648841
1184.427882,8290.306550,-6069.688724,2681.334243
1184.428212,7772.162391,-5181.441594,1838.629195
1184.428541,6439.791695,-4663.297435,306.438199
1184.428870,5773.606348,-5477.523971,0.000000
1184.429199,5477.523971,-6217.729913,-459.657299
1184.429529,5329.482782,-7254.018232,-383.047749
1184.429858,5255.462188,-6957.935855,-1149.143247
1184.430187,5403.503377,-7179.997637,0.000000
1184.430517,6217.729913,-7994.224174,0.000000
1184.430846,6217.729913,-9104.533087,1302.362347
1184.431175,6587.832884,-8512.368333,1532.190996
1184.431505,7328.038826,-7624.121203,1991.848295
1184.431834,7772.162391,-7179.997637,2374.896044
1184.432163,8512.368333,-6365.771101,3370.820191
1184.432492,8882.471304,-6217.729913,3294.210641
1184.432822,9104.533087,-5329.482782,3064.381992
1184.433151,8290.306550,-4737.318029,2298.286494
1184.433480,7994.224174,-5033.400406,1225.752797
1184.433810,6661.853478,-4885.359217,383.047749
1184.434139,5847.626942,-5995.668130,-229.828649
1184.434468,5625.565159,-6069.688724,-306.438199
1184.434797,5773.606348,-5773.606348,-766.095498
1184.435127,5773.606348,-6587.832884,-766.095498
1184.435456,5699.585753,-6883.915261,-459.657299
1184.435785,6439.791695,-7846.182985,229.828649
1184.436115,7105.977043,-7550.100608,842.705048
1184.436444,7105.977043,-7476.080014,1302.362347
1184.436773,7402.059420,-7402.059420,2374.896044
1184.437103,7624.121203,-7402.059420,2451.505594
1184.437432,7846.182985,-7328.038826,2451.505594
1184.437761,7772.162391,-6365.771101,2681.334243
1184.438090,8438.347739,-4737.318029,2221.676944
1184.438420,8438.347739,-5477.523971,2298.286494
1184.438749,7698.141797,-5403.503377,1762.019645
1184.439078,6661.853478,-5403.503377,76.609550
1184.439408,5551.544565,-5921.647536,-995.924147
1184.439737,5625.565159,-6587.832884,-919.314598
1184.440066,5255.462188,-7328.038826,-1149.143247
1184.440396,5255.462188,-7254.018232,-689.485948
1184.440725,5551.544565,-7254.018232,-383.047749
1184.441054,6809.894666,-7624.121203,919.314598
1184.441383,7105.977043,-8142.265362,1302.362347
1184.441713,7624.121203,-7698.141797,1838.629195
1184.442042,7846.182985,-6957.935855,2145.067394
1184.442371,8290.306550,-6809.894666,2451.505594
1184.442701,8512.368333,-6513.812290,2451.505594
1184.443030,8734.430116,-5995.668130,2757.943793
1184.443359,8660.409521,-5255.462188,2604.724693
1184.443688,8364.327145,-5255.462188,1762.019645
1184.444018,8068.244768,-4737.318029,1149.143247
1184.444347,7105.977043,-4737.318029,536.266849
1184.444676,6809.894666,-5033.400406,-229.828649
1184.445006,6661.853478,-5551.544565,-383.047749
1184.445335,6217.729913,-5921.647536,-383.047749
1184.445664,6217.729913,-6365.771101,-459.657299
1184.445994,6217.729913,-7105.977043,-153.219100
1184.446323,6365.771101,-8068.244768,229.828649
1184.446652,6439.791695,-8364.327145,842.705048
1184.446981,6217.729913,-8364.327145,995.924147
1184.447311,7179.997637,-8364.327145,2068.457845
1184.447640,7328.038826,-7920.203579,2528.115143
1184.447969,7328.038826,-7698.141797,2757.943793
1184.448299,7328.038826,-6809.894666,2145.067394
1184.448628,7994.224174,-5551.544565,2298.286494
1184.448957,7772.162391,-6217.729913,2221.676944
1184.449287,7476.080014,-5625.565159,1378.971896
1184.449616,6513.812290,-5181.441594,229.828649
1184.449945,5773.606348,-5847.626942,-306.438199
1184.450274,5551.544565,-6587.832884,-536.266849
1184.450604,5255.462188,-7031.956449,-995.924147
1184.450933,5551.544565,-7105.977043,-536.266849
1184.451262,5477.523971,-7105.977043,-153.219100
1184.451592,6365.771101,-8438.347739,0.000000
1184.451921,6883.915261,-8660.409521,689.485948
1184.452250,6661.853478,-8438.347739,1225.752797
1184.452580,6957.935855,-7698.141797,1762.019645
1184.452909,7846.182985,-7105.977043,2528.115143
1184.453238,8438.347739,-6957.935855,2987.772442
1184.453567,8734.430116,-6217.729913,3370.820191
1184.453897,9178.553681,-5551.544565,3140.991542
1184.454226,8808.450710,-4737.318029,2298.286494
1184.454555,7772.162391,-4219.173869,1838.629195
1184.454885,6883.915261,-4071.132681,612.876398
1184.455214,6587.832884,-5107.421000,153.219100
1184.455543,6439.791695,-5329.482782,0.000000
1184.455872,5921.647536,-5625.565159,-612.876398
1184.456202,5403.503377,-5551.544565,-995.924147
1184.456531,6143.709319,-6217.729913,-229.828649
1184.456860,7031.956449,-7105.977043,612.876398
1184.457190,7328.038826,-7328.038826,1149.143247
1184.457519,7179.997637,-7772.162391,1455.581446
1184.457848,7624.121203,-7254.018232,1838.629195
1184.458178,7105.977043,-7624.121203,2068.457845
1184.458507,7328.038826,-7698.141797,2298.286494
1184.458836,7550.100608,-7179.997637,2451.505594
1184.459165,8438.347739,-6217.729913,2528.115143
1184.459495,7994.224174,-6439.791695,2451.505594
1184.459824,7105.977043,-5625.565159,1532.190996
1184.460153,6143.709319,-5329.482782,0.000000
1184.460483,5403.503377,-5699.585753,-612.876398
1184.460812,5033.400406,-6587.832884,-842.705048
1184.461141,4885.359217,-6957.935855,-995.924147
1184.461471,5329.482782,-6809.894666,-919.314598
1184.461800,5699.585753,-7105.977043,-153.219100
1184.462129,6883.915261,-7698.141797,459.657299
1184.462458,6957.935855,-8068.244768,842.705048
1184.462788,7550.100608,-7624.121203,1685.410096
1184.463117,8290.306550,-7179.997637,1915.238745
1184.463446,8586.388927,-6883.915261,2834.553343
1184.463775,8882.471304,-6661.853478,2911.162892
1184.464105,8586.388927,-6291.750507,2987.772442
1184.464434,8512.368333,-5181.441594,2757.943793
1184.464763,8290.306550,-5773.606348,2298.286494
1184.465092,7624.121203,-5329.482782,1838.629195
1184.465422,6587.832884,-4589.276840,0.000000
1184.465751,5773.606348,-4959.379811,-459.657299
1184.466080,5551.544565,-5255.462188,-459.657299
1184.466409,5403.503377,-6143.709319,-1072.533697
1184.466739,5403.503377,-6291.750507,-536.266849
1184.467068,6365.771101,-6439.791695,-229.828649
1184.467397,6587.832884,-7698.141797,0.000000
1184.467726,6957.935855,-8438.347739,1225.752797
1184.468056,6365.771101,-9252.574275,1915.238745
1184.468385,7328.038826,-7772.162391,2681.334243
1184.468714,7179.997637,-7402.059420,2451.505594
1184.469043,7179.997637,-7105.977043,2451.505594
1184.469373,7846.182985,-6439.791695,2911.162892
1184.469702,8808.450710,-6069.688724,2451.505594
1184.470031,8512.368333,-5477.523971,2451.505594
1184.470360,7402.059420,-4441.235652,1532.190996
1184.470690,6069.688724,-4367.215058,153.219100
1184.471019,5255.462188,-5551.544565,-459.657299
1184.471348,5329.482782,-5921.647536,-919.314598
1184.471677,5625.565159,-7031.956449,-1149.143247
1184.472007,5773.606348,-7402.059420,-919.314598
1184.472336,5921.647536,-7772.162391,-153.219100
1184.472665,6291.750507,-8512.368333,153.219100
1184.472994,6809.894666,-9178.553681,1149.143247
1184.473324,7105.977043,-8364.327145,1302.362347
1184.473653,7772.162391,-7698.141797,2068.457845
1184.473982,8364.327145,-7105.977043,2681.334243
1184.474311,8808.450710,-6661.853478,2528.115143
1184.474641,8290.306550,-5625.565159,2911.162892
1184.474970,8586.388927,-5329.482782,2604.724693
1184.475299,8290.306550,-5181.441594,2068.457845
1184.475628,7402.059420,-4737.318029,1072.533697
1184.475958,6735.874072,-4589.276840,153.219100
1184.476287,6069.688724,-5033.400406,-306.438199
1184.476616,6143.709319,-6069.688724,306.438199
1184.476945,6217.729913,-6439.791695,0.000000
1184.477275,6291.750507,-5403.503377,-919.314598
1184.477604,6069.688724,-6143.709319,-766.095498
1184.477933,6365.771101,-7476.080014,536.266849
1184.478262,7402.059420,-8660.409521,1532.190996
1184.478592,7624.121203,-8068.244768,1915.238745
1184.478921,7476.080014,-6587.832884,1991.848295
1184.479250,7105.977043,-7031.956449,1455.581446
1184.479579,7179.997637,-7179.997637,2221.676944
1184.479909,7179.997637,-7550.100608,2374.896044
1184.480238,7328.038826,-6143.709319,2068.457845
1184.480567,7920.203579,-5847.626942,1685.410096
1184.480897,7254.018232,-6069.688724,1302.362347
1184.481226,6143.709319,-5773.606348,306.438199
1184.481555,5181.441594,-6661.853478,-383.047749
1184.481884,5255.462188,-6291.750507,0.000000
1184.482214,5255.462188,-6587.832884,-842.705048
1184.482543,5181.441594,-6883.915261,-995.924147
1184.482872,5847.626942,-6661.853478,-383.047749
1184.483201,6661.853478,-7550.100608,383.047749
1184.483531,7698.141797,-7772.162391,1149.143247
1184.483860,7105.977043,-7920.203579,1915.238745
1184.484189,7846.182985,-7105.977043,2221.676944
1184.484518,8216.285956,-6661.853478,2451.505594
1184.484848,7994.224174,-6513.812290,2681.334243
1184.485177,8216.285956,-6143.709319,2757.943793
1184.485506,8216.285956,-5699.585753,2834.553343
1184.485835,8364.327145,-5329.482782,2451.505594
1184.486165,7254.018232,-4293.194464,1455.581446
1184.486494,6439.791695,-3997.112087,842.705048
1184.486823,6291.750507,-4589.276840,229.828649
1184.487152,6587.832884,-5477.523971,0.000000
1184.487482,6587.832884,-5699.585753,0.000000
1184.487811,6217.729913,-5921.647536,-459.657299
1184.488140,6439.791695,-6439.791695,-383.047749
1184.488469,6587.832884,-7994.224174,306.438199
1184.488799,6957.935855,-8956.491898,1455.581446
1184.489128,7105.977043,-8660.409521,1685.410096
1184.489457,7105.977043,-7846.182985,2374.896044
1184.489786,7254.018232,-7698.141797,2298.286494
1184.490116,7772.162391,-7328.038826,2604.724693
1184.490445,7994.224174,-6883.915261,3217.601092
1184.490774,8808.450710,-5699.585753,2528.115143
1184.491103,7698.141797,-4663.297435,2298.286494
1184.491433,6883.915261,-4885.359217,1072.533697
1184.491762,6143.709319,-5107.421000,229.828649
1184.492091,5181.441594,-5995.668130,-612.876398
1184.492420,5181.441594,-6661.853478,-383.047749
1184.492750,5107.421000,-7550.100608,-536.266849
1184.493079,4885.359217,-7550.100608,-995.924147
1184.493408,4959.379811,-8290.306550,-842.705048
1184.493737,6513.812290,-8586.388927,383.047749
1184.494067,7328.038826,-8956.491898,1072.533697
1184.494396,7031.956449,-8512.368333,1608.800546
1184.494725,7254.018232,-7846.182985,2145.067394
1184.495054,7772.162391,-7105.977043,2374.896044
1184.495384,8586.388927,-6661.853478,2834.553343
1184.495713,7772.162391,-5699.585753,2681.334243
1184.496042,8586.388927,-4885.359217,2528.115143
1184.496371,8808.450710,-4737.318029,2145.067394
1184.496701,7624.121203,-4293.194464,1455.581446
1184.497030,6217.729913,-4219.173869,383.047749
1184.497359,5847.626942,-5329.482782,-383.047749
1184.497688,5773.606348,-6069.688724,-536.266849
1184.498018,5477.523971,-6587.832884,-995.924147
1184.498347,5625.565159,-6069.688724,-1225.752797
1184.498676,6513.812290,-6513.812290,-536.266849
1184.499006,7920.203579,-8068.244768,1378.971896
1184.499335,8216.285956,-7624.121203,1991.848295
1184.499664,7105.977043,-6809.894666,1608.800546
1184.499993,6587.832884,-6735.874072,2145.067394
1184.500323,7254.018232,-6513.812290,2451.505594
1184.500652,8142.265362,-6957.935855,2757.943793
1184.500981,8216.285956,-6143.709319,3294.210641
1184.501310,8364.327145,-5625.565159,2451.505594
1184.501640,8142.265362,-5403.503377,2681.334243
1184.501969,6809.894666,-5551.544565,842.705048
1184.502298,5403.503377,-6439.791695,-383.047749
1184.502627,4811.338623,-6513.812290,-919.314598
1184.502957,4515.256246,-7105.977043,-1225.752797
1184.503286,4737.318029,-7698.141797,-1225.752797
1184.503615,5107.421000,-7476.080014,-766.095498
1184.503944,6439.791695,-7476.080014,-383.047749
1184.504274,6883.915261,-7846.182985,766.095498
1184.504603,7031.956449,-8216.285956,1915.238745
1184.504932,7550.100608,-7105.977043,2068.457845
1184.505261,7994.224174,-5921.647536,2298.286494
1184.505591,8364.327145,-6069.688724,2528.115143
1184.505920,8956.491898,-5921.647536,3677.258390
1184.506249,9104.533087,-5699.585753,3294.210641
1184.506578,9326.594869,-5107.421000,2757.943793
1184.506908,8290.306550,-4885.359217,2298.286494
1184.507237,7476.080014,-4737.318029,1225.752797
1184.507566,6809.894666,-4811.338623,383.047749
1184.507895,6143.709319,-5181.441594,0.000000
1184.508225,5995.668130,-5921.647536,-612.876398
1184.508554,5403.503377,-5921.647536,-766.095498
1184.508883,5255.462188,-6587.832884,-689.485948
1184.509212,5625.565159,-6809.894666,0.000000
1184.509542,6735.874072,-7920.203579,689.485948
1184.509871,7920.203579,-8068.244768,1685.410096
1184.510200,7105.977043,-8438.347739,1762.019645
1184.510529,7328.038826,-7920.203579,2374.896044
1184.510859,7624.121203,-7105.977043,2298.286494
1184.511188,8216.285956,-7179.997637,2451.505594
1184.511517,8216.285956,-6069.688724,2298.286494
1184.511846,8216.285956,-5699.585753,2374.896044
1184.512176,8142.265362,-5921.647536,2221.676944
1184.512505,7550.100608,-5773.606348,1455.581446
1184.512834,5921.647536,-5403.503377,0.000000
1184.513163,4959.379811,-6291.750507,-536.266849
1184.513493,4737.318029,-6957.935855,-612.876398
1184.513822,4811.338623,-6957.935855,-689.485948
1184.514151,5181.441594,-7179.997637,-842.705048
1184.514480,5403.503377,-7031.956449,-459.657299
1184.514810,6439.791695,-7846.182985,383.047749
1184.515139,7105.977043,-8882.471304,1225.752797
1184.515468,7402.059420,-8216.285956,1685.410096
1184.515797,7550.100608,-7920.203579,1532.190996
1184.516127,7846.182985,-7402.059420,2528.115143
1184.516456,8512.368333,-6883.915261,2451.505594
1184.516785,8956.491898,-6439.791695,2834.553343
1184.517114,8808.450710,-5329.482782,2528.115143
1184.517444,8068.244768,-4589.276840,2068.457845
1184.517773,7179.997637,-4293.194464,919.314598
1184.518102,5921.647536,-4145.153275,306.438199
1184.518432,6069.688724,-4811.338623,0.000000
1184.518761,5773.606348,-5551.544565,-536.266849
1184.519090,5107.421000,-6217.729913,-842.705048
1184.519419,5625.565159,-5773.606348,-689.485948
1184.519749,6809.894666,-7105.977043,229.828649
1184.520078,7476.080014,-7994.224174,1225.752797
1184.520407,7550.100608,-7476.080014,1608.800546
1184.520736,7476.080014,-7031.956449,1455.581446
1184.521066,7328.038826,-7179.997637,2068.457845
1184.521395,7624.121203,-7402.059420,2451.505594
1184.521724,7624.121203,-7254.018232,2681.334243
1184.522053,7624.121203,-6587.832884,2145.067394
1184.522383,7550.100608,-6217.729913,2221.676944
1184.522712,7328.038826,-6291.750507,1762.019645
1184.523041,7105.977043,-6069.688724,1072.533697
1184.523370,5773.606348,-5255.462188,0.000000
1184.523700,4959.379811,-6513.812290,-612.876398
1184.524029,5329.482782,-6957.935855,-766.095498
1184.524358,5773.606348,-7550.100608,-995.924147
1184.524687,5551.544565,-7476.080014,-612.876398
1184.525017,6069.688724,-7624.121203,-229.828649
1184.525346,7105.977043,-8068.244768,842.705048
1184.525675,7328.038826,-7476.080014,1685.410096
1184.526004,7550.100608,-7476.080014,1991.848295
1184.526334,7920.203579,-7105.977043,2145.067394
1184.526663,8586.388927,-6217.729913,2451.505594
1184.526992,8512.368333,-6439.791695,2987.772442
1184.527321,8808.450710,-5329.482782,2451.505594
1184.527651,8660.409521,-4367.215058,2451.505594
1184.527980,8290.306550,-4589.276840,2145.067394
1184.528309,7624.121203,-4293.194464,1302.362347
1184.528638,6883.915261,-4367.215058,919.314598
1184.528968,6809.894666,-5329.482782,76.609550
1184.529297,6143.709319,-5699.585753,-766.095498
1184.529626,5625.565159,-6439.791695,-689.485948
1184.529955,5477.523971,-7105.977043,-229.828649
1184.530285,6217.729913,-7772.162391,383.047749
1184.530614,5995.668130,-8512.368333,306.438199
1184.530943,6217.729913,-8586.388927,842.705048
1184.531272,6217.729913,-8290.306550,1225.752797
1184.531602,7328.038826,-8068.244768,2068.457845
1184.531931,7994.224174,-7254.018232,2681.334243
1184.532260,8438.347739,-6217.729913,2681.334243
1184.532589,8364.327145,-5107.421000,3140.991542
1184.532919,8290.306550,-4885.359217,2681.334243
1184.533248,8142.265362,-4515.256246,1608.800546
1184.533577,7476.080014,-4959.379811,1225.752797
1184.533906,6587.832884,-5033.400406,229.828649
1184.534236,5403.503377,-6217.729913,-459.657299
1184.534565,4959.379811,-7402.059420,-842.705048
1184.534894,4737.318029,-7624.121203,-919.314598
1184.535223,5033.400406,-7920.203579,-919.314598
1184.535553,5329.482782,-8364.327145,-229.828649
1184.535882,5625.565159,-8808.450710,0.000000
1184.536211,6513.812290,-8290.306550,1455.581446
1184.536540,6883.915261,-8068.244768,1225.752797
1184.536870,7846.182985,-6957.935855,1991.848295
1184.537199,8290.306550,-6809.894666,2604.724693
1184.537528,8586.388927,-6439.791695,2911.162892
1184.537858,9030.512492,-5403.503377,3370.820191
1184.538187,8808.450710,-5181.441594,2757.943793
1184.538516,8364.327145,-4811.338623,1838.629195
1184.538845,7624.121203,-5033.400406,1149.143247
1184.539175,6735.874072,-4737.318029,153.219100
1184.539504,6291.750507,-4811.338623,-689.485948
1184.539833,6143.709319,-5477.523971,-459.657299
1184.540162,5995.668130,-5921.647536,-842.705048
1184.540492,5847.626942,-6513.812290,-612.876398
1184.540821,6217.729913,-6513.812290,-306.438199
1184.541150,6809.894666,-7105.977043,229.828649
1184.541479,6735.874072,-7920.203579,689.485948
1184.541809,6957.935855,-7402.059420,1762.019645
1184.542138,7476.080014,-7698.141797,1838.629195
1184.542467,8290.306550,-7328.038826,2987.772442
1184.542796,8068.244768,-6809.894666,2681.334243
1184.543126,7846.182985,-6439.791695,2145.067394
1184.543455,7846.182985,-6217.729913,2451.505594
1184.543784,7994.224174,-6883.915261,1762.019645
1184.544113,6883.915261,-5329.482782,1072.533697
1184.544443,5847.626942,-5625.565159,306.438199
1184.544772,5329.482782,-6439.791695,-766.095498
1184.545101,5107.421000,-7031.956449,-612.876398
1184.545430,5181.441594,-7328.038826,-766.095498
1184.545760,5403.503377,-7254.018232,-612.876398
1184.546089,5699.585753,-7328.038826,-612.876398
1184.546418,6513.812290,-8068.244768,306.438199
1184.546747,7105.977043,-7624.121203,995.924147
1184.547077,7476.080014,-7328.038826,1838.629195
1184.547406,8290.306550,-7105.977043,2911.162892
1184.547735,8882.471304,-6365.771101,3217.601092
1184.548064,8956.491898,-5625.565159,3370.820191
1184.548394,9474.636058,-5255.462188,2987.772442
1184.548723,8956.491898,-4811.338623,2987.772442
1184.549052,8364.327145,-5255.462188,2528.115143
1184.549381,7550.100608,-4293.194464,1225.752797
1184.549711,6439.791695,-4367.215058,-536.266849
1184.550040,6069.688724,-5033.400406,-612.876398
1184.550369,5995.668130,-6291.750507,-689.485948
1184.550698,5847.626942,-6735.874072,-229.828649
1184.551028,5699.585753,-6439.791695,-459.657299
1184.551357,5921.647536,-6587.832884,-459.657299
1184.551686,5995.668130,-7476.080014,-76.609550
1184.552015,6291.750507,-9400.615463,1072.533697
1184.552345,6365.771101,-8956.491898,1302.362347
1184.552674,6735.874072,-8290.306550,1838.629195
1184.553003,7105.977043,-7179.997637,2757.943793
1184.553332,7994.224174,-7105.977043,2757.943793
1184.553662,8734.430116,-6069.688724,3294.210641
1184.553991,9252.574275,-4811.338623,2757.943793
1184.554320,8512.368333,-4885.359217,2298.286494
1184.554649,7179.997637,-4293.194464,1378.971896
1184.554979,6069.688724,-4737.318029,0.000000
1184.555308,5847.626942,-6069.688724,-536.266849
1184.555637,5181.441594,-6883.915261,-689.485948
1184.555966,5329.482782,-7328.038826,-842.705048
1184.556296,4885.359217,-7624.121203,-995.924147
1184.556625,5477.523971,-8216.285956,-383.047749
1184.556954,6217.729913,-9030.512492,153.219100
1184.557284,6291.750507,-8956.491898,842.705048
1184.557613,6809.894666,-8364.327145,1302.362347
1184.557942,7328.038826,-7920.203579,1991.848295
1184.558271,7994.224174,-7328.038826,2374.896044
1184.558601,8808.450710,-6513.812290,2987.772442
1184.558930,9326.594869,-6291.750507,3370.820191
1184.559259,9474.636058,-5033.400406,2757.943793
1184.559588,8586.388927,-4737.318029,2068.457845
1184.559918,7402.059420,-3627.009116,1608.800546
1184.560247,6883.915261,-4589.276840,229.828649
1184.560576,6957.935855,-5477.523971,0.000000
1184.560905,6439.791695,-5255.462188,-536.266849
1184.561234,5921.647536,-5773.606348,-919.314598
1184.561563,5551.544565,-6217.729913,-1072.533697
1184.561892,6143.709319,-7550.100608,-153.219100
1184.562222,6513.812290,-8290.306550,383.047749
1184.562551,6587.832884,-8068.244768,919.314598
1184.562880,6957.935855,-7698.141797,1302.362347
1184.563209,6957.935855,-6957.935855,1685.410096
1184.563538,7179.997637,-7476.080014,2528.115143
1184.563867,7920.203579,-6883.915261,2451.505594
1184.564196,7550.100608,-6439.791695,2757.943793
1184.564525,7920.203579,-5551.544565,2374.896044
1184.564854,7624.121203,-6217.729913,2145.067394
1184.565184,7328.038826,-5995.668130,1608.800546
1184.565513,6069.688724,-5403.503377,76.609550
1184.565842,5625.565159,-6587.832884,-612.876398
1184.566171,5551.544565,-6439.791695,-766.095498
1184.566500,4737.318029,-7105.977043,-1149.143247
1184.566829,4737.318029,-7179.997637,-995.924147
1184.567158,5403.503377,-7179.997637,-612.876398
1184.567487,6735.874072,-8142.265362,459.657299
1184.567817,6957.935855,-8364.327145,1455.581446
1184.568146,7402.059420,-6735.874072,2298.286494
1184.568475,7994.224174,-6809.894666,1762.019645
1184.568804,8290.306550,-6661.853478,2987.772442
1184.569133,8512.368333,-6365.771101,3140.991542
1184.569462,8586.388927,-5921.647536,3064.381992
1184.569791,9178.553681,-4515.256246,3294.210641
1184.570120,8216.285956,-5329.482782,2068.457845
1184.570450,7550.100608,-4737.318029,1455.581446
1184.570779,7105.977043,-4589.276840,0.000000
1184.571108,6513.812290,-5033.400406,0.000000
1184.571437,6587.832884,-5403.503377,-536.266849
1184.571766,6217.729913,-5847.626942,-1302.362347
1184.572095,5847.626942,-6809.894666,-612.876398
1184.572424,5773.606348,-7550.100608,-383.047749
1184.572753,6143.709319,-8364.327145,383.047749
1184.573082,5995.668130,-9030.512492,766.095498
1184.573412,5773.606348,-8882.471304,1149.143247
1184.573741,6513.812290,-8586.388927,1608.800546
1184.574070,7624.121203,-7550.100608,2451.505594
1184.574399,8364.327145,-6957.935855,2451.505594
1184.574728,8660.409521,-5773.606348,3370.820191
1184.575057,8808.450710,-4811.338623,2911.162892
1184.575386,8216.285956,-5107.421000,2145.067394
1184.575715,7994.224174,-4219.173869,2145.067394
1184.576045,6883.915261,-4515.256246,76.609550
1184.576374,6439.791695,-5477.523971,0.000000
1184.576703,5773.606348,-6217.729913,-536.266849
1184.577032,5551.544565,-7402.059420,-689.485948
1184.577361,5551.544565,-7031.956449,-612.876398
1184.577690,5107.421000,-7698.141797,-612.876398
1184.578019,5995.668130,-9104.533087,229.828649
1184.578348,6069.688724,-9178.553681,1149.143247
1184.578678,6587.832884,-8734.430116,1302.362347
1184.579007,7031.956449,-7179.997637,2298.286494
1184.579336,7846.182985,-6957.935855,2681.334243
1184.579665,8290.306550,-6957.935855,3370.820191
1184.579994,9104.533087,-5477.523971,3217.601092
1184.580323,9326.594869,-4885.359217,3524.039291
1184.580652,8734.430116,-4515.256246,2145.067394
1184.580981,7920.203579,-4219.173869,842.705048
1184.581310,7031.956449,-4589.276840,153.219100
1184.581640,6291.750507,-5699.585753,-306.438199
1184.581969,5551.544565,-5699.585753,-689.485948
1184.582298,5551.544565,-6513.812290,-689.485948
1184.582627,5181.441594,-6365.771101,-1072.533697
1184.582956,5181.441594,-7624.121203,-919.314598
1184.583285,6587.832884,-8438.347739,919.314598
1184.583614,6957.935855,-8660.409521,995.924147
1184.583943,7105.977043,-7994.224174,1378.971896
1184.584273,7254.018232,-7105.977043,1915.238745
1184.584602,7550.100608,-7105.977043,2221.676944
1184.584931,8438.347739,-6661.853478,2451.505594
1184.585260,8364.327145,-6217.729913,2757.943793
1184.585589,8734.430116,-5773.606348,2987.772442
1184.585918,8364.327145,-5477.523971,1838.629195
1184.586247,7105.977043,-5181.441594,842.705048
1184.586576,5921.647536,-5699.585753,0.000000
1184.586906,4959.379811,-6735.874072,-612.876398
1184.587235,4663.297435,-7476.080014,-919.314598
1184.587564,4663.297435,-7476.080014,-1225.752797
1184.587893,4959.379811,-7031.956449,-1149.143247
1184.588222,5477.523971,-7476.080014,-306.438199
1184.588551,6883.915261,-8068.244768,612.876398
1184.588880,7772.162391,-8142.265362,1762.019645
1184.589209,7698.141797,-6661.853478,1685.410096
1184.589538,8512.368333,-6365.771101,1915.238745
1184.589868,9104.533087,-6143.709319,2911.162892
1184.590197,9104.533087,-6291.750507,3140.991542
1184.590526,9178.553681,-5921.647536,3140.991542
1184.590855,9400.615463,-5033.400406,2834.553343
1184.591184,8216.285956,-4811.338623,1838.629195
1184.591513,7402.059420,-4737.318029,689.485948
1184.591842,7105.977043,-4515.256246,76.609550
1184.592171,6513.812290,-5847.626942,0.000000
1184.592501,5551.544565,-5625.565159,-76.609550
1184.592830,5477.523971,-6365.771101,-919.314598
1184.593159,5329.482782,-6957.935855,-919.314598
1184.593488,5699.585753,-7846.182985,-153.219100
1184.593817,6291.750507,-8438.347739,306.438199
1184.594146,6217.729913,-8586.388927,995.924147
1184.594475,6365.771101,-8216.285956,1685.410096
1184.594804,7254.018232,-7772.162391,2451.505594
1184.595134,8216.285956,-6809.894666,2757.943793
1184.595463,8660.409521,-6809.894666,3217.601092
1184.595792,8216.285956,-6217.729913,3140.991542
1184.596121,8660.409521,-5033.400406,2834.553343
1184.596450,8438.347739,-5625.565159,2298.286494
1184.596779,8142.265362,-4737.318029,1991.848295
1184.597108,6661.853478,-4885.359217,-229.828649
1184.597437,4885.359217,-5847.626942,-766.095498
1184.597766,4811.338623,-6365.771101,-1072.533697
1184.598096,4811.338623,-7402.059420,-1149.143247
1184.598425,4589.276840,-7328.038826,-229.828649
1184.598754,5181.441594,-8290.306550,0.000000
1184.599083,6069.688724,-8586.388927,306.438199
1184.599412,6365.771101,-8882.471304,1072.533697
1184.599741,6661.853478,-8956.491898,1838.629195
1184.600070,7402.059420,-7179.997637,2451.505594
1184.600399,8364.327145,-6513.812290,2604.724693
1184.600729,8882.471304,-6217.729913,2757.943793
1184.601058,9400.615463,-5551.544565,3447.429741
1184.601387,9548.656652,-5329.482782,2987.772442
1184.601716,8512.368333,-4441.235652,2374.896044
1184.602045,7254.018232,-3997.112087,766.095498
1184.602374,6439.791695,-4441.235652,0.000000
1184.602703,6143.709319,-5181.441594,-612.876398
1184.603032,6365.771101,-6587.832884,-1685.410096
1184.603362,5625.565159,-6587.832884,-1072.533697
1184.603691,5847.626942,-6587.832884,-995.924147
1184.604020,6587.832884,-7328.038826,-306.438199
1184.604349,7105.977043,-7994.224174,689.485948
1184.604678,7105.977043,-8586.388927,1378.971896
1184.605007,7624.121203,-7476.080014,1608.800546
1184.605336,7698.141797,-6957.935855,1915.238745
1184.605665,8068.244768,-6809.894666,2528.115143
1184.605994,7846.182985,-7105.977043,3294.210641
1184.606324,7994.224174,-6587.832884,2451.505594
1184.606653,7772.162391,-5625.565159,2145.067394
1184.606982,7254.018232,-5773.606348,1455.581446
1184.607311,7031.956449,-5255.462188,383.047749
1184.607640,6069.688724,-5699.585753,306.438199
1184.607969,5107.421000,-6661.853478,-689.485948
1184.608298,4959.379811,-7328.038826,-919.314598
1184.608627,4885.359217,-7698.141797,-919.314598
1184.608957,4885.359217,-7254.018232,-612.876398
1184.609286,5995.668130,-7624.121203,0.000000
1184.609615,7105.977043,-7772.162391,842.705048
1184.609944,7328.038826,-7550.100608,1608.800546
1184.610273,7846.182985,-6735.874072,2145.067394
1184.610602,8882.471304,-5995.668130,2451.505594
1184.610931,9178.553681,-5625.565159,3064.381992
1184.611260,8586.388927,-5773.606348,3064.381992
1184.611590,8586.388927,-5255.462188,2528.115143
1184.611919,8290.306550,-4663.297435,3217.601092
1184.612248,8364.327145,-5403.503377,2374.896044
1184.612577,7179.997637,-5181.441594,1072.533697
1184.612906,6513.812290,-5921.647536,153.219100
1184.613235,5181.441594,-6217.729913,-306.438199
1184.613564,5847.626942,-6809.894666,-306.438199
1184.613893,5699.585753,-7105.977043,-1225.752797
1184.614222,5403.503377,-6809.894666,-459.657299
1184.614552,5995.668130,-7105.977043,-306.438199
1184.614881,6809.894666,-7846.182985,766.095498
1184.615210,6809.894666,-8364.327145,1149.143247
1184.615539,6809.894666,-7624.121203,1762.019645
1184.615868,7254.018232,-6661.853478,2451.505594
1184.616197,8216.285956,-6143.709319,2528.115143
1184.616526,8586.388927,-6587.832884,3600.648841
1184.616855,8882.471304,-5699.585753,3447.429741
1184.617185,8882.471304,-5033.400406,2528.115143
1184.617514,7920.203579,-5107.421000,2068.457845
1184.617843,7402.059420,-4737.318029,1225.752797
1184.618172,5921.647536,-5699.585753,-76.609550
1184.618501,4959.379811,-6291.750507,-995.924147
1184.618830,4663.297435,-6957.935855,-1608.800546
1184.619159,4811.338623,-7624.121203,-1072.533697
1184.619488,5329.482782,-7402.059420,-842.705048
1184.619818,5773.606348,-7772.162391,0.000000
1184.620147,6143.709319,-8364.327145,536.266849
1184.620476,6587.832884,-8364.327145,1149.143247
1184.620805,7254.018232,-7920.203579,1762.019645
1184.621134,8142.265362,-6439.791695,2604.724693
1184.621463,9030.512492,-6735.874072,2911.162892
1184.621792,9104.533087,-5995.668130,3600.648841
1184.622121,9844.739029,-4885.359217,2834.553343
1184.622450,9178.553681,-5329.482782,2145.067394
1184.622780,8956.491898,-4737.318029,1608.800546
1184.623109,7105.977043,-5255.462188,842.705048
1184.623438,5773.606348,-5551.544565,-459.657299
1184.623767,4959.379811,-5847.626942,-1072.533697
1184.624096,5181.441594,-6661.853478,-1149.143247
1184.624425,5403.503377,-6661.853478,-919.314598
1184.624754,5773.606348,-6513.812290,-612.876398
1184.625083,6291.750507,-7105.977043,-153.219100
1184.625413,7105.977043,-7624.121203,842.705048
1184.625742,7550.100608,-7550.100608,1378.971896
1184.626071,8068.244768,-7031.956449,2145.067394
1184.626400,8068.244768,-6587.832884,2221.676944
1184.626729,8290.306550,-6587.832884,2451.505594
1184.627058,8438.347739,-6439.791695,2834.553343
1184.627387,8734.430116,-6291.750507,2911.162892
1184.627716,8364.327145,-6069.688724,2374.896044
1184.628046,7624.121203,-6587.832884,1532.190996
1184.628375,5995.668130,-6439.791695,459.657299
1184.628704,4663.297435,-6587.832884,-536.266849
1184.629033,4145.153275,-7476.080014,-1072.533697
1184.629362,4441.235652,-7846.182985,-995.924147
1184.629691,4811.338623,-7179.997637,-919.314598
1184.630020,5403.503377,-6587.832884,-612.876398
1184.630349,7031.956449,-6587.832884,229.828649
1184.630678,7105.977043,-7105.977043,1072.533697
1184.631008,7994.224174,-7105.977043,1991.848295
1184.631337,8438.347739,-5847.626942,2298.286494
1184.631666,8808.450710,-5477.523971,2528.115143
1184.631995,9178.553681,-5551.544565,3064.381992
1184.632324,9326.594869,-5847.626942,3064.381992
1184.632653,9178.553681,-5107.421000,3140.991542
1184.632982,8438.347739,-5181.441594,2298.286494
1184.633311,7254.018232,-5255.462188,1378.971896
1184.633641,6291.750507,-5699.585753,459.657299
1184.633970,5699.585753,-6217.729913,-536.266849
1184.634299,5107.421000,-6661.853478,-842.705048
1184.634628,4959.379811,-6587.832884,-919.314598
1184.634957,5107.421000,-7105.977043,-1149.143247
1184.635286,5995.668130,-6735.874072,-612.876398
1184.635615,6513.812290,-7476.080014,0.000000
1184.635944,6957.935855,-7402.059420,766.095498
1184.636274,7105.977043,-7031.956449,1149.143247
1184.636603,7550.100608,-7179.997637,1685.410096
1184.636932,7846.182985,-6365.771101,2374.896044
1184.637261,8438.347739,-6587.832884,3064.381992
1184.637590,9030.512492,-6661.853478,2987.772442
1184.637919,8734.430116,-5551.544565,3294.210641
1184.638248,7994.224174,-5625.565159,2834.553343
1184.638577,7624.121203,-5995.668130,1991.848295
1184.638906,6365.771101,-5625.565159,536.266849
1184.639236,4737.318029,-5921.647536,-153.219100
1184.639565,4441.235652,-6439.791695,-919.314598
1184.639894,4145.153275,-7105.977043,-1149.143247
1184.640223,4589.276840,-7254.018232,-766.095498
1184.640552,5329.482782,-7476.080014,-612.876398
1184.640881,6217.729913,-7698.141797,459.657299
1184.641210,7031.956449,-7994.224174,1149.143247
1184.641539,7772.162391,-8290.306550,1838.629195
1184.641869,8068.244768,-7402.059420,1685.410096
1184.642198,8068.244768,-6957.935855,1915.238745
1184.642527,8512.368333,-6513.812290,2451.505594
1184.642856,8882.471304,-6365.771101,2987.772442
1184.643185,8882.471304,-5921.647536,2987.772442
1184.643514,8734.430116,-5329.482782,2451.505594
1184.643843,7994.224174,-4959.379811,2298.286494
1184.644172,6513.812290,-4663.297435,612.876398
1184.644502,5625.565159,-5329.482782,-306.438199
1184.644831,4959.379811,-5921.647536,-1149.143247
1184.645160,5551.544565,-6143.709319,-1225.752797
1184.645489,5477.523971,-6439.791695,-1149.143247
1184.645818,5921.647536,-7031.956449,-383.047749
1184.646147,6809.894666,-7254.018232,383.047749
1184.646476,7476.080014,-7624.121203,1302.362347
1184.646805,7920.203579,-7772.162391,2298.286494
1184.647134,7994.224174,-7031.956449,1915.238745
1184.647464,7402.059420,-6735.874072,1915.238745
1184.647793,7254.018232,-7476.080014,1915.238745
1184.648122,7402.059420,-7105.977043,2374.896044
1184.648451,7846.182985,-5921.647536,2451.505594
1184.648780,7772.162391,-5921.647536,2451.505594
1184.649109,7476.080014,-6069.688724,1838.629195
1184.649438,6143.709319,-5921.647536,766.095498
1184.649767,4959.379811,-6439.791695,-306.438199
1184.650097,5181.441594,-6513.812290,-842.705048
1184.650426,5181.441594,-7031.956449,-995.924147
1184.650755,5403.503377,-7179.997637,-1225.752797
1184.651084,5551.544565,-6661.853478,-536.266849
1184.651413,6439.791695,-7179.997637,459.657299
1184.651742,7254.018232,-7698.141797,612.876398
1184.652071,7476.080014,-7179.997637,1838.629195
1184.652400,8364.327145,-6661.853478,1991.848295
1184.652730,8808.450710,-5847.626942,2145.067394
1184.653059,8734.430116,-5921.647536,2911.162892
1184.653388,8882.471304,-6143.709319,2987.772442
1184.653717,8734.430116,-5477.523971,2374.896044
1184.654046,8142.265362,-5477.523971,2068.457845
1184.654375,7402.059420,-5625.565159,1455.581446
1184.654704,6365.771101,-5625.565159,766.095498
1184.655033,5699.585753,-6069.688724,0.000000
1184.655362,5773.606348,-6735.874072,-383.047749
1184.655692,5625.565159,-6661.853478,-919.314598
1184.656021,5699.585753,-6439.791695,-536.266849
1184.656350,5847.626942,-7105.977043,-306.438199
1184.656679,6291.750507,-7550.100608,153.219100
1184.657008,6957.935855,-7920.203579,842.705048
1184.657337,7031.956449,-7920.203579,1685.410096
1184.657666,7254.018232,-7105.977043,1838.629195
1184.657995,7920.203579,-6957.935855,2451.505594
1184.658325,8364.327145,-6661.853478,3064.381992
1184.658654,8290.306550,-6439.791695,3370.820191
1184.658983,8290.306550,-5477.523971,2987.772442
1184.659312,8290.306550,-5107.421000,2451.505594
1184.659641,7994.224174,-5551.544565,2374.896044
1184.659970,6883.915261,-5255.462188,1225.752797
1184.660299,5551.544565,-5699.585753,0.000000
1184.660628,5033.400406,-6217.729913,-842.705048
1184.660958,4737.318029,-7031.956449,-536.266849
1184.661287,5329.482782,-7846.182985,-995.924147
1184.661616,5255.462188,-7772.162391,-612.876398
1184.661945,5995.668130,-8290.306550,0.000000
1184.662274,6513.812290,-9104.533087,612.876398
1184.662603,7105.977043,-8364.327145,1455.581446
1184.662932,7254.018232,-7698.141797,1762.019645
1184.663262,7772.162391,-7031.956449,2221.676944
1184.663591,8216.285956,-6217.729913,2681.334243
1184.663920,9252.574275,-5847.626942,2681.334243
1184.664249,9326.594869,-4737.318029,2987.772442
1184.664578,9104.533087,-4737.318029,2451.505594
1184.664907,8290.306550,-4515.256246,1762.019645
1184.665237,7031.956449,-4663.297435,612.876398
1184.665566,6365.771101,-5625.565159,0.000000
1184.665895,5773.606348,-5107.421000,-766.095498
1184.666224,5181.441594,-6587.832884,-766.095498
1184.666553,5995.668130,-6883.915261,-919.314598
1184.666882,6217.729913,-6291.750507,-766.095498
1184.667212,6365.771101,-7328.038826,0.000000
1184.667541,7105.977043,-7476.080014,1225.752797
1184.667870,7698.141797,-8068.244768,1762.019645
1184.668199,8068.244768,-7550.100608,2068.457845
1184.668528,7476.080014,-6735.874072,2068.457845
1184.668857,7402.059420,-7402.059420,2145.067394
1184.669187,7846.182985,-6809.894666,2451.505594
1184.669516,7476.080014,-6069.688724,2374.896044
1184.669845,8068.244768,-5625.565159,2528.115143
1184.670174,7550.100608,-5699.585753,1685.410096
1184.670503,6883.915261,-6217.729913,689.485948
1184.670833,5255.462188,-6439.791695,0.000000
1184.671162,5181.441594,-6809.894666,-612.876398
1184.671491,4737.318029,-7179.997637,-1302.362347
1184.671820,4737.318029,-7328.038826,-689.485948
1184.672149,5625.565159,-7624.121203,-612.876398
1184.672478,7031.956449,-7624.121203,306.438199
1184.672808,7550.100608,-7476.080014,766.095498
1184.673137,7846.182985,-7179.997637,1532.190996
1184.673466,7624.121203,-6735.874072,1991.848295
1184.673795,8142.265362,-6439.791695,2451.505594
1184.674124,8290.306550,-6291.750507,3064.381992
1184.674453,8956.491898,-6217.729913,3140.991542
1184.674783,8512.368333,-6291.750507,2987.772442
1184.675112,7698.141797,-5403.503377,2528.115143
1184.675441,7550.100608,-5551.544565,1915.238745
1184.675770,6439.791695,-4811.338623,842.705048
1184.676099,5921.647536,-5255.462188,76.609550
1184.676429,5551.544565,-6217.729913,-536.266849
1184.676758,5773.606348,-5995.668130,-919.314598
1184.677087,6069.688724,-6883.915261,-612.876398
1184.677416,6365.771101,-6661.853478,0.000000
1184.677745,6291.750507,-6661.853478,76.609550
1184.678074,6513.812290,-7920.203579,536.266849
1184.678404,6957.935855,-7698.141797,1608.800546
1184.678733,7328.038826,-7846.182985,1302.362347
1184.679062,7328.038826,-7179.997637,2298.286494
1184.679391,7550.100608,-6883.915261,2604.724693
1184.679720,8142.265362,-6809.894666,2681.334243
1184.680049,8290.306550,-5477.523971,3447.429741
1184.680379,8438.347739,-5255.462188,2604.724693
1184.680708,7698.141797,-4959.379811,2145.067394
1184.681037,6587.832884,-4959.379811,612.876398
1184.681366,5699.585753,-5625.565159,-536.266849
1184.681695,5181.441594,-5995.668130,306.438199
1184.682025,5107.421000,-7179.997637,-766.095498
1184.682354,5033.400406,-7179.997637,-1072.533697
1184.682683,5255.462188,-7105.977043,-766.095498
1184.683012,5995.668130,-7698.141797,-229.828649
1184.683341,7105.977043,-7920.203579,842.705048
1184.683670,7179.997637,-8142.265362,1378.971896
1184.684000,7476.080014,-7624.121203,1532.190996
1184.684329,7624.121203,-6735.874072,1991.848295
1184.684658,8438.347739,-6735.874072,3140.991542
1184.684987,8956.491898,-6513.812290,2987.772442
1184.685316,9030.512492,-5921.647536,2911.162892
1184.685645,8734.430116,-5107.421000,2298.286494
1184.685975,8142.265362,-4885.359217,1225.752797
1184.686304,7550.100608,-5181.441594,1455.581446
1184.686633,6143.709319,-5329.482782,0.000000
1184.686962,5773.606348,-5033.400406,-612.876398
1184.687291,5625.565159,-5403.503377,-995.924147
1184.687620,5551.544565,-5921.647536,-306.438199
1184.687950,5847.626942,-6883.915261,-766.095498
1184.688279,6143.709319,-7476.080014,0.000000
1184.688608,7179.997637,-7550.100608,383.047749
1184.688937,7105.977043,-8216.285956,1685.410096
1184.689266,7402.059420,-7624.121203,2145.067394
1184.689596,7624.121203,-7476.080014,2298.286494
1184.689925,7402.059420,-7105.977043,2604.724693
1184.690254,7772.162391,-6735.874072,2604.724693
1184.690583,7994.224174,-6661.853478,3294.210641
1184.690912,8808.450710,-5625.565159,2451.505594
1184.691241,7698.141797,-5921.647536,1455.581446
1184.691571,6143.709319,-5995.668130,459.657299
1184.691900,4663.297435,-6661.853478,-229.828649
1184.692229,5033.400406,-6291.750507,-1072.533697
1184.692558,4811.338623,-6883.915261,-919.314598
1184.692887,4663.297435,-7476.080014,-766.095498
1184.693216,5181.441594,-7402.059420,-536.266849
1184.693546,6291.750507,-7179.997637,0.000000
1184.693875,7624.121203,-7994.224174,1225.752797
1184.694204,7920.203579,-7476.080014,1455.581446
1184.694533,8512.368333,-6883.915261,1915.238745
1184.694862,8660.409521,-6291.750507,2451.505594
1184.695192,8068.244768,-5921.647536,2757.943793
1184.695521,8586.388927,-5921.647536,2987.772442
1184.695850,8586.388927,-5107.421000,2451.505594
1184.696179,7994.224174,-5033.400406,2528.115143
1184.696508,7254.018232,-5107.421000,1762.019645
1184.696837,6291.750507,-5181.441594,842.705048
1184.697167,5625.565159,-5181.441594,-306.438199
1184.697496,5403.503377,-5995.668130,-995.924147
1184.697825,5921.647536,-6513.812290,-689.485948
1184.698154,5773.606348,-7031.956449,-459.657299
1184.698483,6143.709319,-7179.997637,-383.047749
1184.698812,6291.750507,-7105.977043,0.000000
1184.699142,7031.956449,-7846.182985,612.876398
1184.699471,7476.080014,-8364.327145,2145.067394
1184.699800,7402.059420,-7105.977043,2374.896044
1184.700129,7550.100608,-6217.729913,2298.286494
1184.700458,7550.100608,-6291.750507,2451.505594
1184.700788,8142.265362,-6291.750507,3064.381992
1184.701117,9178.553681,-6217.729913,2911.162892
1184.701446,8956.491898,-5033.400406,3064.381992
1184.701775,7772.162391,-5255.462188,1838.629195
1184.702104,6365.771101,-5107.421000,612.876398
1184.702433,5329.482782,-5699.585753,-383.047749
1184.702763,4959.379811,-6883.915261,-766.095498
1184.703092,5107.421000,-7402.059420,-1225.752797
1184.703421,4959.379811,-7772.162391,-919.314598
1184.703750,4737.318029,-7476.080014,-995.924147
1184.704079,5403.503377,-8512.368333,-306.438199
1184.704408,6735.874072,-8808.450710,842.705048
1184.704738,7476.080014,-9030.512492,1762.019645
