#time,accel_x,accel_y,accel_z
1329.633662,6587.832884,-6957.935855,766.095498
1329.633992,7105.977043,-6439.791695,1455.581446
1329.634323,7105.977043,-6587.832884,1072.533697
1329.634653,7105.977043,-6883.915261,1225.752797
1329.634983,7254.018232,-6513.812290,1225.752797
1329.635313,7031.956449,-6439.791695,1072.533697
1329.635644,7031.956449,-6217.729913,919.314598
1329.635974,6809.894666,-6365.771101,842.705048
1329.636304,6883.915261,-6513.812290,919.314598
1329.636634,7031.956449,-6587.832884,1225.752797
1329.636964,7179.997637,-6809.894666,919.314598
1329.637295,7105.977043,-6217.729913,919.314598
1329.637625,7105.977043,-6365.771101,1149.143247
1329.637955,7105.977043,-5995.668130,1072.533697
1329.638285,6883.915261,-6661.853478,766.095498
1329.638615,7031.956449,-6735.874072,842.705048
1329.638946,6809.894666,-6809.894666,995.924147
1329.639276,6957.935855,-6513.812290,1072.533697
1329.639606,6957.935855,-6513.812290,919.314598
1329.639936,6661.853478,-6587.832884,1455.581446
1329.640266,6587.832884,-6439.791695,842.705048
1329.640597,6291.750507,-6809.894666,842.705048
1329.640927,6661.853478,-6661.853478,842.705048
1329.641257,7179.997637,-7105.977043,1225.752797
1329.641587,7550.100608,-6069.688724,1378.971896
1329.641918,7476.080014,-6439.791695,995.924147
1329.642248,7402.059420,-6217.729913,1225.752797
1329.642578,7550.100608,-6291.750507,842.705048
1329.642908,7105.977043,-5995.668130,919.314598
1329.643238,7105.977043,-6217.729913,995.924147
1329.643569,7179.997637,-6291.750507,995.924147
1329.643899,7328.038826,-6439.791695,1072.533697
1329.644229,6957.935855,-6365.771101,1225.752797
1329.644559,7254.018232,-6143.709319,1302.362347
1329.644889,7031.956449,-6587.832884,1149.143247
1329.645220,6957.935855,-6439.791695,1149.143247
1329.645550,6587.832884,-6735.874072,1072.533697
1329.645880,6957.935855,-6513.812290,1455.581446
1329.646210,6883.915261,-6587.832884,1225.752797
1329.646541,6957.935855,-6735.874072,1149.143247
1329.646871,6809.894666,-6809.894666,1225.752797
1329.647201,6883.915261,-6957.935855,1072.533697
1329.647531,6809.894666,-7105.977043,842.705048
1329.647861,6883.915261,-7179.997637,1072.533697
1329.648192,6883.915261,-6735.874072,919.314598
1329.648522,6957.935855,-6661.853478,919.314598
1329.648852,6735.874072,-6439.791695,1302.362347
1329.649182,6809.894666,-6513.812290,459.657299
1329.649512,7105.977043,-6735.874072,1302.362347
1329.649843,7031.956449,-6439.791695,995.924147
1329.650173,7031.956449,-6365.771101,1149.143247
1329.650503,6661.853478,-6587.832884,1225.752797
1329.650833,7254.018232,-6291.750507,1072.533697
1329.651163,7105.977043,-6513.812290,1149.143247
1329.651494,7105.977043,-6661.853478,536.266849
1329.651824,6957.935855,-6217.729913,1072.533697
1329.652154,7476.080014,-6587.832884,1378.971896
1329.652484,6735.874072,-6587.832884,1149.143247
1329.652815,6439.791695,-6661.853478,842.705048
1329.653145,6513.812290,-6587.832884,919.314598
1329.653475,6513.812290,-6809.894666,1378.971896
1329.653805,6809.894666,-6587.832884,1149.143247
1329.654135,6513.812290,-6217.729913,1149.143247
1329.654466,6809.894666,-6587.832884,1149.143247
1329.654796,6957.935855,-6883.915261,1378.971896
1329.655126,7105.977043,-7105.977043,689.485948
1329.655456,7031.956449,-6809.894666,1149.143247
1329.655786,7105.977043,-6809.894666,842.705048
1329.656117,7254.018232,-6587.832884,995.924147
1329.656447,7179.997637,-6735.874072,842.705048
1329.656777,7328.038826,-6217.729913,1608.800546
1329.657107,7328.038826,-6439.791695,842.705048
1329.657437,7031.956449,-6513.812290,842.705048
1329.657768,6883.915261,-6069.688724,1225.752797
1329.658098,6809.894666,-5995.668130,1302.362347
1329.658428,7105.977043,-6069.688724,1225.752797
1329.658758,7105.977043,-5995.668130,1149.143247
1329.659089,7402.059420,-6143.709319,995.924147
1329.659419,7328.038826,-6513.812290,1149.143247
1329.659749,7698.141797,-6365.771101,1302.362347
1329.660079,7031.956449,-6587.832884,842.705048
1329.660409,6661.853478,-6883.915261,919.314598
1329.660740,6809.894666,-7031.956449,919.314598
1329.661070,6587.832884,-6513.812290,1455.581446
1329.661400,6809.894666,-6439.791695,1378.971896
1329.661730,6735.874072,-6735.874072,1378.971896
1329.662060,7031.956449,-7031.956449,919.314598
1329.662391,6735.874072,-7105.977043,919.314598
1329.662721,6883.915261,-6513.812290,1149.143247
1329.663051,7031.956449,-6661.853478,766.095498
1329.663381,7105.977043,-6513.812290,1149.143247
1329.663711,7105.977043,-6809.894666,842.705048
1329.664042,7550.100608,-6365.771101,1225.752797
1329.664372,7031.956449,-6661.853478,919.314598
1329.664702,6957.935855,-6735.874072,766.095498
1329.665032,6661.853478,-6587.832884,1378.971896
1329.665363,7105.977043,-6291.750507,842.705048
1329.665693,7105.977043,-6587.832884,1378.971896
1329.666023,7105.977043,-6439.791695,1225.752797
1329.666353,6883.915261,-6143.709319,1378.971896
1329.666683,7105.977043,-6217.729913,1072.533697
1329.667014,6883.915261,-6217.729913,1302.362347
1329.667344,6587.832884,-6069.688724,842.705048
1329.667674,6587.832884,-6439.791695,919.314598
1329.668004,6809.894666,-6883.915261,1072.533697
1329.668334,7031.956449,-6735.874072,766.095498
1329.668665,6735.874072,-6809.894666,766.095498
1329.668995,6883.915261,-6735.874072,1149.143247
1329.669325,6735.874072,-6957.935855,919.314598
1329.669655,7031.956449,-7031.956449,919.314598
1329.669985,6735.874072,-7105.977043,766.095498
1329.670316,7031.956449,-6661.853478,536.266849
1329.670646,7031.956449,-6291.750507,1302.362347
1329.670976,7105.977043,-6365.771101,1378.971896
1329.671306,7550.100608,-5995.668130,1302.362347
1329.671637,7402.059420,-6069.688724,1455.581446
1329.671967,7105.977043,-6291.750507,536.266849
1329.672297,7105.977043,-6217.729913,919.314598
1329.672627,7105.977043,-6217.729913,536.266849
1329.672957,7254.018232,-7031.956449,842.705048
1329.673288,7179.997637,-6143.709319,1762.019645
1329.673618,7624.121203,-6735.874072,1378.971896
1329.673948,7179.997637,-6513.812290,1378.971896
1329.674278,7105.977043,-6365.771101,1302.362347
1329.674608,6735.874072,-6439.791695,919.314598
1329.674939,6735.874072,-6143.709319,1378.971896
1329.675269,6439.791695,-6439.791695,1149.143247
1329.675599,6735.874072,-6291.750507,919.314598
1329.675929,6809.894666,-6365.771101,1149.143247
1329.676260,6883.915261,-6661.853478,995.924147
1329.676590,6883.915261,-6735.874072,842.705048
1329.676920,6735.874072,-6883.915261,1072.533697
1329.677250,6513.812290,-6957.935855,919.314598
1329.677580,6735.874072,-7105.977043,1149.143247
1329.677911,7105.977043,-7105.977043,1455.581446
1329.678241,7476.080014,-6661.853478,919.314598
1329.678571,7031.956449,-6735.874072,1225.752797
1329.678901,7105.977043,-6365.771101,1378.971896
1329.679231,7105.977043,-6217.729913,919.314598
1329.679562,6957.935855,-6365.771101,995.924147
1329.679892,6957.935855,-6069.688724,1072.533697
1329.680222,7031.956449,-6365.771101,689.485948
1329.680552,7402.059420,-6069.688724,1225.752797
1329.680882,6957.935855,-6587.832884,1225.752797
1329.681213,6957.935855,-6513.812290,1149.143247
1329.681543,6883.915261,-6661.853478,1378.971896
1329.681873,6513.812290,-6365.771101,995.924147
1329.682203,6661.853478,-6735.874072,766.095498
1329.682534,6587.832884,-6883.915261,1149.143247
1329.682864,7105.977043,-7105.977043,1302.362347
1329.683194,7105.977043,-6661.853478,842.705048
1329.683524,6809.894666,-6513.812290,1072.533697
1329.683854,6587.832884,-6587.832884,995.924147
1329.684185,6809.894666,-6809.894666,1072.533697
1329.684515,6513.812290,-7105.977043,1072.533697
1329.684845,7031.956449,-6883.915261,919.314598
1329.685175,6883.915261,-6513.812290,1072.533697
1329.685505,7698.141797,-6661.853478,766.095498
1329.685836,7328.038826,-6883.915261,1072.533697
1329.686166,7476.080014,-6513.812290,1149.143247
1329.686496,7254.018232,-6439.791695,766.095498
1329.686826,7105.977043,-6069.688724,995.924147
1329.687156,7105.977043,-5921.647536,229.828649
1329.687487,7476.080014,-6365.771101,842.705048
1329.687817,7328.038826,-5995.668130,1149.143247
1329.688147,6883.915261,-6291.750507,766.095498
1329.688477,6735.874072,-6069.688724,1685.410096
1329.688808,7105.977043,-6069.688724,1149.143247
1329.689138,6735.874072,-6513.812290,1149.143247
1329.689468,6661.853478,-6661.853478,995.924147
1329.689798,6883.915261,-6661.853478,1149.143247
1329.690128,6957.935855,-6513.812290,1608.800546
1329.690459,7105.977043,-6883.915261,1149.143247
1329.690789,6957.935855,-6587.832884,1149.143247
1329.691119,6883.915261,-6661.853478,919.314598
1329.691449,7179.997637,-7179.997637,766.095498
1329.691779,6735.874072,-6735.874072,1302.362347
1329.692110,6809.894666,-6883.915261,842.705048
1329.692440,7031.956449,-6661.853478,919.314598
1329.692770,7105.977043,-6217.729913,1072.533697
1329.693100,7550.100608,-6883.915261,1072.533697
1329.693430,7254.018232,-6439.791695,919.314598
1329.693761,6957.935855,-6809.894666,766.095498
1329.694091,6735.874072,-6587.832884,842.705048
1329.694421,7031.956449,-6291.750507,1149.143247
1329.694751,7179.997637,-6587.832884,842.705048
1329.695082,7105.977043,-6587.832884,1149.143247
1329.695412,7031.956449,-6587.832884,1149.143247
1329.695742,7105.977043,-6217.729913,842.705048
1329.696072,6735.874072,-6143.709319,1991.848295
1329.696402,6957.935855,-6365.771101,842.705048
1329.696733,6365.771101,-6291.750507,612.876398
1329.697063,6439.791695,-6735.874072,919.314598
1329.697393,6513.812290,-6809.894666,1225.752797
1329.697723,7105.977043,-6513.812290,919.314598
1329.698053,6809.894666,-6809.894666,919.314598
1329.698384,6809.894666,-6661.853478,1149.143247
1329.698714,6809.894666,-7105.977043,919.314598
1329.699043,6587.832884,-7105.977043,1532.190996
1329.699373,6809.894666,-6661.853478,766.095498
1329.699703,7179.997637,-6735.874072,1685.410096
1329.700033,7328.038826,-6143.709319,919.314598
1329.700363,7402.059420,-6513.812290,766.095498
1329.700693,7550.100608,-6365.771101,1149.143247
1329.701023,7402.059420,-6587.832884,1149.143247
1329.701352,7105.977043,-6587.832884,919.314598
1329.701682,7031.956449,-6217.729913,1225.752797
1329.702012,7179.997637,-6069.688724,1302.362347
1329.702342,7105.977043,-6513.812290,995.924147
1329.702672,7105.977043,-6661.853478,1225.752797
1329.703002,7105.977043,-6365.771101,1072.533697
1329.703332,7179.997637,-6217.729913,1302.362347
1329.703661,7105.977043,-6143.709319,1455.581446
1329.703991,7031.956449,-6439.791695,842.705048
1329.704321,7105.977043,-6365.771101,1149.143247
1329.704651,6957.935855,-7031.956449,919.314598
1329.704981,7105.977043,-6809.894666,919.314598
1329.705311,6735.874072,-6365.771101,842.705048
1329.705641,6735.874072,-7031.956449,1149.143247
1329.705970,6661.853478,-7179.997637,766.095498
1329.706300,6587.832884,-6957.935855,919.314598
1329.706630,6513.812290,-7031.956449,1072.533697
1329.706960,6735.874072,-6883.915261,1072.533697
1329.707290,7105.977043,-6069.688724,1225.752797
1329.707620,7550.100608,-6439.791695,1225.752797
1329.707950,7624.121203,-6291.750507,1225.752797
1329.708279,7846.182985,-6291.750507,1072.533697
1329.708609,7179.997637,-6291.750507,612.876398
1329.708939,6735.874072,-6439.791695,1149.143247
1329.709269,6883.915261,-6439.791695,689.485948
1329.709599,6735.874072,-6513.812290,383.047749
1329.709929,6957.935855,-6439.791695,536.266849
1329.710259,6587.832884,-6587.832884,995.924147
1329.710588,7105.977043,-6661.853478,1302.362347
1329.710918,6957.935855,-6587.832884,1149.143247
1329.711248,6809.894666,-5995.668130,1072.533697
1329.711578,6661.853478,-6587.832884,995.924147
1329.711908,6735.874072,-6587.832884,1302.362347
1329.712238,6883.915261,-6735.874072,1072.533697
1329.712568,7031.956449,-6661.853478,612.876398
1329.712897,6513.812290,-6143.709319,1225.752797
1329.713227,6809.894666,-7254.018232,842.705048
1329.713557,6365.771101,-7105.977043,919.314598
1329.713887,6587.832884,-7105.977043,919.314598
1329.714217,6735.874072,-7105.977043,766.095498
1329.714547,7179.997637,-6587.832884,1225.752797
1329.714877,7402.059420,-6735.874072,919.314598
1329.715206,7105.977043,-6661.853478,1072.533697
1329.715536,7179.997637,-6143.709319,1072.533697
1329.715866,7254.018232,-6143.709319,1225.752797
1329.716196,7105.977043,-5995.668130,1149.143247
1329.716526,7105.977043,-5921.647536,919.314598
1329.716856,7105.977043,-6735.874072,995.924147
1329.717186,7105.977043,-6069.688724,1149.143247
1329.717515,7105.977043,-6217.729913,766.095498
1329.717845,7105.977043,-5995.668130,995.924147
1329.718175,6957.935855,-6587.832884,1225.752797
1329.718505,6883.915261,-6365.771101,766.095498
1329.718835,6365.771101,-6291.750507,1608.800546
1329.719165,6735.874072,-6809.894666,919.314598
1329.719495,6809.894666,-6809.894666,1149.143247
1329.719824,6883.915261,-6365.771101,1149.143247
1329.720154,6809.894666,-6661.853478,1149.143247
1329.720484,6735.874072,-6217.729913,842.705048
1329.720814,7031.956449,-6661.853478,1072.533697
1329.721144,6809.894666,-6957.935855,766.095498
1329.721474,6735.874072,-6809.894666,995.924147
1329.721804,6883.915261,-6513.812290,1685.410096
1329.722133,7031.956449,-6809.894666,842.705048
1329.722463,7105.977043,-6735.874072,1072.533697
1329.722793,7105.977043,-6513.812290,1149.143247
1329.723123,7105.977043,-6587.832884,842.705048
1329.723453,7402.059420,-5699.585753,1455.581446
1329.723783,7105.977043,-6365.771101,842.705048
1329.724113,6957.935855,-6587.832884,842.705048
1329.724442,6957.935855,-6217.729913,1532.190996
1329.724772,6883.915261,-6513.812290,1225.752797
1329.725102,7105.977043,-6217.729913,1149.143247
1329.725432,7031.956449,-6291.750507,1225.752797
1329.725762,6735.874072,-6365.771101,995.924147
1329.726092,6883.915261,-6587.832884,842.705048
1329.726422,6587.832884,-6587.832884,1302.362347
1329.726751,6439.791695,-6883.915261,842.705048
1329.727081,6587.832884,-6957.935855,995.924147
1329.727411,7105.977043,-6661.853478,1302.362347
1329.727741,7105.977043,-7031.956449,1302.362347
1329.728071,7105.977043,-6661.853478,919.314598
1329.728401,6735.874072,-7031.956449,995.924147
1329.728731,6809.894666,-7031.956449,919.314598
1329.729060,6809.894666,-6735.874072,995.924147
1329.729390,6883.915261,-6143.709319,766.095498
1329.729720,6883.915261,-6513.812290,919.314598
1329.730050,7402.059420,-6365.771101,1302.362347
1329.730380,7179.997637,-6217.729913,536.266849
1329.730710,6957.935855,-5921.647536,1302.362347
1329.731040,7328.038826,-5699.585753,766.095498
1329.731369,7328.038826,-6365.771101,536.266849
1329.731699,7105.977043,-6439.791695,1378.971896
1329.732029,7179.997637,-6587.832884,1378.971896
1329.732359,7328.038826,-6069.688724,919.314598
1329.732689,7179.997637,-6439.791695,1149.143247
1329.733019,7105.977043,-6291.750507,1225.752797
1329.733349,6809.894666,-6365.771101,689.485948
1329.733678,6513.812290,-7031.956449,1225.752797
1329.734008,6883.915261,-6587.832884,1608.800546
1329.734338,6735.874072,-6587.832884,919.314598
1329.734668,6809.894666,-6661.853478,1149.143247
1329.734998,6735.874072,-6513.812290,689.485948
1329.735328,7105.977043,-7105.977043,766.095498
1329.735658,6809.894666,-6809.894666,1149.143247
1329.735987,6809.894666,-6587.832884,919.314598
1329.736317,7031.956449,-7031.956449,1225.752797
1329.736647,7402.059420,-6587.832884,919.314598
1329.736977,6809.894666,-6661.853478,1762.019645
1329.737307,7179.997637,-6513.812290,1455.581446
1329.737637,7105.977043,-6735.874072,995.924147
1329.737967,6809.894666,-6365.771101,995.924147
1329.738296,6883.915261,-6291.750507,995.924147
1329.738626,6883.915261,-5995.668130,842.705048
1329.738956,7031.956449,-6069.688724,1072.533697
1329.739286,6883.915261,-6439.791695,919.314598
1329.739616,7031.956449,-6291.750507,842.705048
1329.739946,7105.977043,-6439.791695,1302.362347
1329.740276,6809.894666,-6513.812290,1149.143247
1329.740605,6809.894666,-6513.812290,919.314598
1329.740935,6957.935855,-6735.874072,766.095498
1329.741265,6883.915261,-6809.894666,1149.143247
1329.741595,7105.977043,-7031.956449,612.876398
1329.741925,6809.894666,-7031.956449,1149.143247
1329.742255,6661.853478,-6883.915261,995.924147
1329.742585,6883.915261,-6883.915261,766.095498
1329.742914,6513.812290,-6661.853478,1378.971896
1329.743244,6735.874072,-6735.874072,842.705048
1329.743574,6809.894666,-6735.874072,842.705048
1329.743904,7105.977043,-6365.771101,842.705048
1329.744234,6957.935855,-6957.935855,612.876398
1329.744564,7179.997637,-6217.729913,1302.362347
1329.744894,7476.080014,-6661.853478,1072.533697
1329.745223,7402.059420,-6661.853478,1072.533697
1329.745553,7105.977043,-6217.729913,1455.581446
1329.745883,7254.018232,-6513.812290,1072.533697
1329.746213,6957.935855,-6809.894666,1149.143247
1329.746543,6809.894666,-6291.750507,1149.143247
1329.746873,7105.977043,-6069.688724,995.924147
1329.747203,7105.977043,-6217.729913,1149.143247
1329.747532,6957.935855,-5847.626942,1149.143247
1329.747862,7105.977043,-5625.565159,766.095498
1329.748192,7328.038826,-5699.585753,919.314598
1329.748522,7772.162391,-5625.565159,1225.752797
1329.748852,8142.265362,-5773.606348,1378.971896
1329.749182,8142.265362,-6365.771101,1762.019645
1329.749512,7698.141797,-6513.812290,842.705048
1329.749841,5995.668130,-7328.038826,612.876398
1329.750171,5551.544565,-7772.162391,459.657299
1329.750501,6661.853478,-7254.018232,153.219100
1329.750831,7550.100608,-6661.853478,766.095498
1329.751161,8068.244768,-5995.668130,1455.581446
1329.751491,8438.347739,-5699.585753,1838.629195
1329.751821,8660.409521,-4293.194464,1302.362347
1329.752150,8438.347739,-4441.235652,1225.752797
1329.752480,8142.265362,-4737.318029,1225.752797
1329.752810,8586.388927,-4145.153275,1225.752797
1329.753140,8882.471304,-5033.400406,842.705048
1329.753470,8586.388927,-4589.276840,842.705048
1329.753800,7328.038826,-5329.482782,0.000000
1329.754130,8216.285956,-5107.421000,536.266849
1329.754459,8512.368333,-5699.585753,689.485948
1329.754789,8438.347739,-6291.750507,1455.581446
1329.755119,7550.100608,-5107.421000,1685.410096
1329.755449,7550.100608,-5699.585753,153.219100
1329.755779,7328.038826,-6069.688724,995.924147
1329.756109,7772.162391,-5403.503377,1072.533697
1329.756439,8512.368333,-4589.276840,1072.533697
1329.756768,8512.368333,-4071.132681,1302.362347
1329.757098,8734.430116,-4515.256246,1072.533697
1329.757428,9178.553681,-3552.988522,1762.019645
1329.757758,9474.636058,-3997.112087,842.705048
1329.758088,9474.636058,-3034.844362,2145.067394
1329.758418,9622.677246,-2590.720797,1455.581446
1329.758748,9918.759623,-3849.070898,1685.410096
1329.759077,10214.842000,-3552.988522,1455.581446
1329.759407,9770.718434,-4293.194464,1455.581446
1329.759737,9400.615463,-4515.256246,1608.800546
1329.760067,9030.512492,-4737.318029,1302.362347
1329.760397,8142.265362,-5403.503377,995.924147
1329.760727,8438.347739,-4811.338623,919.314598
1329.761057,8068.244768,-5847.626942,1225.752797
1329.761386,8438.347739,-5107.421000,1149.143247
1329.761716,8290.306550,-4959.379811,919.314598
1329.762046,8512.368333,-4441.235652,1149.143247
1329.762376,8808.450710,-4071.132681,536.266849
1329.762706,9030.512492,-5181.441594,1302.362347
1329.763036,9252.574275,-3330.926739,919.314598
1329.763366,9326.594869,-4589.276840,612.876398
1329.763695,8956.491898,-4663.297435,383.047749
1329.764025,9400.615463,-4589.276840,919.314598
1329.764355,9400.615463,-5551.544565,1225.752797
1329.764685,9104.533087,-4811.338623,612.876398
1329.765015,8216.285956,-5329.482782,0.000000
1329.765345,8438.347739,-5625.565159,76.609550
1329.765675,8734.430116,-5699.585753,766.095498
1329.766004,8956.491898,-5403.503377,1149.143247
1329.766334,9104.533087,-4737.318029,1455.581446
1329.766664,9400.615463,-3997.112087,1378.971896
1329.766994,9400.615463,-3478.967927,1455.581446
1329.767324,9770.718434,-3627.009116,2528.115143
1329.767654,9696.697840,-2664.741391,1915.238745
1329.767984,9400.615463,-2368.659014,1149.143247
1329.768313,9326.594869,-3330.926739,1072.533697
1329.768643,9474.636058,-2960.823768,842.705048
1329.768973,9696.697840,-3997.112087,229.828649
1329.769303,8956.491898,-4515.256246,229.828649
1329.769633,8512.368333,-4663.297435,-459.657299
1329.769963,8364.327145,-5773.606348,0.000000
1329.770293,8734.430116,-6291.750507,1072.533697
1329.770622,8808.450710,-6883.915261,1302.362347
1329.770952,8808.450710,-6513.812290,1149.143247
1329.771282,8290.306550,-5699.585753,1608.800546
1329.771612,8290.306550,-5403.503377,2068.457845
1329.771942,9252.574275,-5033.400406,2221.676944
1329.772272,9030.512492,-3627.009116,2068.457845
1329.772602,9104.533087,-2886.803174,1532.190996
1329.772931,9474.636058,-1702.473667,995.924147
1329.773261,10362.883188,-1258.350101,612.876398
1329.773591,10584.944971,-1850.514855,306.438199
1329.773921,10881.027347,-2072.576638,0.000000
1329.774251,10584.944971,-3627.009116,0.000000
1329.774581,9696.697840,-4737.318029,0.000000
1329.774911,9252.574275,-6291.750507,76.609550
1329.775240,8734.430116,-7402.059420,229.828649
1329.775570,7994.224174,-8364.327145,1149.143247
1329.775900,7402.059420,-8734.430116,1532.190996
1329.776230,6735.874072,-7179.997637,1378.971896
1329.776560,7031.956449,-7105.977043,842.705048
1329.776890,6587.832884,-5477.523971,689.485948
1329.777220,7476.080014,-3997.112087,1149.143247
1329.777549,8660.409521,-3330.926739,1608.800546
1329.777879,10214.842000,-1924.535449,1915.238745
1329.778209,9770.718434,-962.267725,1838.629195
1329.778539,10140.821405,-296.082377,1455.581446
1329.778869,11251.130318,-740.205942,1072.533697
1329.779199,11843.295072,-1850.514855,1378.971896
1329.779529,12213.398043,-1702.473667,1532.190996
1329.779858,11843.295072,-3552.988522,1455.581446
1329.780188,10881.027347,-4293.194464,1225.752797
1329.780518,9030.512492,-6069.688724,1149.143247
1329.780848,7772.162391,-8068.244768,1378.971896
1329.781178,6143.709319,-9474.636058,1378.971896
1329.781508,4071.132681,-9622.677246,306.438199
1329.781838,2812.782580,-8956.491898,-995.924147
1329.782168,2516.700203,-9030.512492,-1072.533697
1329.782497,4145.153275,-7920.203579,-459.657299
1329.782827,6809.894666,-7105.977043,536.266849
1329.783157,9030.512492,-4737.318029,1225.752797
1329.783487,10362.883188,-3997.112087,1915.238745
1329.783817,10214.842000,-2220.617826,1532.190996
1329.784147,10436.903782,-1406.391290,1225.752797
1329.784477,10658.965565,-2072.576638,1072.533697
1329.784806,11399.171507,-2220.617826,995.924147
1329.785136,11473.192101,-3849.070898,2298.286494
1329.785466,10658.965565,-4885.359217,2604.724693
1329.785796,9474.636058,-5403.503377,2451.505594
1329.786126,7328.038826,-6661.853478,1685.410096
1329.786456,5033.400406,-7550.100608,612.876398
1329.786786,2960.823768,-9474.636058,0.000000
1329.787115,2886.803174,-7994.224174,-919.314598
1329.787445,3256.906145,-9622.677246,-306.438199
1329.787775,4663.297435,-8142.265362,0.000000
1329.788105,6513.812290,-6217.729913,459.657299
1329.788435,8438.347739,-5699.585753,536.266849
1329.788765,9252.574275,-3330.926739,995.924147
1329.789095,9104.533087,-3627.009116,459.657299
1329.789424,9918.759623,-3552.988522,1532.190996
1329.789754,10658.965565,-3034.844362,1532.190996
1329.790084,10881.027347,-5477.523971,3294.210641
1329.790414,10436.903782,-5107.421000,3140.991542
1329.790744,8808.450710,-6069.688724,1608.800546
1329.791074,6735.874072,-7698.141797,1685.410096
1329.791404,5033.400406,-9252.574275,1532.190996
1329.791733,4293.194464,-10214.842000,919.314598
1329.792063,3775.050304,-8512.368333,76.609550
1329.792393,3627.009116,-8142.265362,0.000000
1329.792723,4663.297435,-7179.997637,76.609550
1329.793053,6143.709319,-4589.276840,689.485948
1329.793383,7550.100608,-4219.173869,536.266849
1329.793713,9474.636058,-2738.761985,536.266849
1329.794042,9474.636058,-3997.112087,1915.238745
1329.794372,9104.533087,-4737.318029,1915.238745
1329.794702,8660.409521,-6439.791695,1532.190996
1329.795032,8068.244768,-6809.894666,1072.533697
1329.795362,7550.100608,-7994.224174,995.924147
1329.795692,6883.915261,-9770.718434,1762.019645
1329.796022,6439.791695,-10066.800811,1915.238745
1329.796351,5181.441594,-9474.636058,2145.067394
1329.796681,4441.235652,-7402.059420,919.314598
1329.797011,4367.215058,-5847.626942,766.095498
1329.797341,5107.421000,-5181.441594,383.047749
1329.797671,6809.894666,-4293.194464,842.705048
1329.798001,7179.997637,-3256.906145,1302.362347
1329.798331,8364.327145,-2960.823768,1532.190996
1329.798660,9178.553681,-3478.967927,1455.581446
1329.798990,8734.430116,-5403.503377,1685.410096
1329.799320,7550.100608,-7846.182985,1225.752797
1329.799650,5847.626942,-9326.594869,919.314598
1329.799980,5255.462188,-10140.821405,0.000000
1329.800310,4885.359217,-10658.965565,689.485948
1329.800640,4737.318029,-10881.027347,2068.457845
1329.800969,5477.523971,-9178.553681,1532.190996
1329.801298,5847.626942,-7476.080014,919.314598
1329.801628,5625.565159,-6217.729913,689.485948
1329.801957,6069.688724,-5773.606348,995.924147
1329.802287,6735.874072,-4515.256246,1149.143247
1329.802616,7402.059420,-3849.070898,919.314598
1329.802946,8216.285956,-3849.070898,919.314598
1329.803275,8290.306550,-4737.318029,153.219100
1329.803604,8512.368333,-5625.565159,1149.143247
1329.803934,8512.368333,-6513.812290,995.924147
1329.804263,7920.203579,-7624.121203,536.266849
1329.804593,7698.141797,-8660.409521,1455.581446
1329.804922,7698.141797,-8512.368333,1762.019645
1329.805252,7328.038826,-7476.080014,1532.190996
1329.805581,6883.915261,-6291.750507,842.705048
1329.805910,7105.977043,-5329.482782,689.485948
1329.806240,7031.956449,-4885.359217,689.485948
1329.806569,7179.997637,-5033.400406,1072.533697
1329.806899,6587.832884,-5181.441594,1532.190996
1329.807228,6957.935855,-5033.400406,1378.971896
1329.807558,7328.038826,-5033.400406,919.314598
1329.807887,7179.997637,-5329.482782,1225.752797
1329.808216,7105.977043,-6217.729913,1378.971896
1329.808546,6957.935855,-7698.141797,766.095498
1329.808875,6735.874072,-8068.244768,842.705048
1329.809205,6957.935855,-7698.141797,536.266849
1329.809534,6883.915261,-7624.121203,919.314598
1329.809863,7031.956449,-7179.997637,919.314598
1329.810193,7179.997637,-7920.203579,995.924147
1329.810522,7328.038826,-6587.832884,1149.143247
1329.810852,7105.977043,-5921.647536,1455.581446
1329.811181,6957.935855,-5107.421000,1302.362347
1329.811511,6809.894666,-4515.256246,459.657299
1329.811840,6143.709319,-5625.565159,0.000000
1329.812169,6143.709319,-6735.874072,459.657299
1329.812499,6513.812290,-7476.080014,766.095498
1329.812828,7105.977043,-6587.832884,842.705048
1329.813158,7550.100608,-7105.977043,1225.752797
1329.813487,7550.100608,-6439.791695,1225.752797
1329.813817,7402.059420,-6661.853478,612.876398
1329.814146,7772.162391,-7031.956449,766.095498
1329.814475,7550.100608,-6661.853478,1225.752797
1329.814805,7698.141797,-6661.853478,1225.752797
1329.815134,7328.038826,-6217.729913,1532.190996
1329.815464,7179.997637,-7031.956449,1378.971896
1329.815793,7179.997637,-7031.956449,1378.971896
1329.816123,5995.668130,-7402.059420,1072.533697
1329.816452,5403.503377,-7328.038826,766.095498
1329.816781,5477.523971,-7328.038826,459.657299
1329.817111,5477.523971,-7179.997637,459.657299
1329.817440,5921.647536,-7031.956449,919.314598
1329.817770,6883.915261,-5847.626942,919.314598
1329.818099,7550.100608,-5329.482782,1072.533697
1329.818429,8512.368333,-3997.112087,1149.143247
1329.818758,8882.471304,-4885.359217,1991.848295
1329.819087,8216.285956,-5699.585753,1225.752797
1329.819417,7105.977043,-6957.935855,1302.362347
1329.819746,6661.853478,-8068.244768,1532.190996
1329.820076,6809.894666,-7402.059420,1455.581446
1329.820405,6513.812290,-7846.182985,1149.143247
1329.820735,5699.585753,-7402.059420,766.095498
1329.821064,5181.441594,-7846.182985,842.705048
1329.821393,5477.523971,-8142.265362,1149.143247
1329.821723,6143.709319,-6883.915261,995.924147
1329.822052,6143.709319,-5921.647536,383.047749
1329.822382,6809.894666,-5255.462188,919.314598
1329.822711,7402.059420,-5181.441594,842.705048
1329.823041,7846.182985,-5255.462188,1072.533697
1329.823370,8216.285956,-4441.235652,842.705048
1329.823699,8364.327145,-5921.647536,1378.971896
1329.824029,8364.327145,-6513.812290,1762.019645
1329.824358,7402.059420,-7402.059420,1455.581446
1329.824688,6439.791695,-7994.224174,1072.533697
1329.825017,6217.729913,-8290.306550,919.314598
1329.825347,5773.606348,-8734.430116,1149.143247
1329.825676,6069.688724,-8512.368333,689.485948
1329.826005,6217.729913,-6513.812290,1149.143247
1329.826335,6883.915261,-5033.400406,306.438199
1329.826664,7550.100608,-5107.421000,306.438199
1329.826994,7994.224174,-5033.400406,1225.752797
1329.827323,8364.327145,-4589.276840,1225.752797
1329.827653,8216.285956,-3627.009116,1072.533697
1329.827982,8142.265362,-4145.153275,1072.533697
1329.828311,7402.059420,-5921.647536,1072.533697
1329.828641,7402.059420,-6735.874072,1302.362347
1329.828970,7031.956449,-7254.018232,1455.581446
1329.829300,6365.771101,-8216.285956,1149.143247
1329.829629,5773.606348,-8808.450710,689.485948
1329.829959,5847.626942,-8882.471304,919.314598
1329.830288,5921.647536,-7698.141797,612.876398
1329.830617,6439.791695,-7179.997637,383.047749
1329.830947,6957.935855,-5699.585753,536.266849
1329.831276,7105.977043,-5847.626942,306.438199
1329.831606,7846.182985,-4737.318029,1302.362347
1329.831935,7994.224174,-4219.173869,689.485948
1329.832265,7772.162391,-4663.297435,612.876398
1329.832594,7328.038826,-6291.750507,1455.581446
1329.832923,6957.935855,-7105.977043,536.266849
1329.833253,6439.791695,-7772.162391,919.314598
1329.833582,6365.771101,-8068.244768,383.047749
1329.833912,6069.688724,-8734.430116,1225.752797
1329.834241,6217.729913,-8290.306550,1072.533697
1329.834571,6883.915261,-7105.977043,1149.143247
1329.834900,7402.059420,-6587.832884,766.095498
1329.835229,7402.059420,-5921.647536,1455.581446
1329.835559,7550.100608,-5403.503377,2068.457845
1329.835888,7031.956449,-5181.441594,919.314598
1329.836218,6957.935855,-4737.318029,1608.800546
1329.836547,6661.853478,-5403.503377,1149.143247
1329.836877,6957.935855,-5477.523971,1225.752797
1329.837206,6587.832884,-6291.750507,995.924147
1329.837535,6661.853478,-7254.018232,1225.752797
1329.837865,7105.977043,-7846.182985,1532.190996
1329.838194,6735.874072,-8734.430116,1302.362347
1329.838524,6365.771101,-7994.224174,995.924147
1329.838853,6513.812290,-7105.977043,459.657299
1329.839183,7105.977043,-6439.791695,919.314598
1329.839512,7698.141797,-7105.977043,1072.533697
1329.839841,7698.141797,-5995.668130,2374.896044
1329.840171,8068.244768,-5847.626942,1685.410096
1329.840500,7772.162391,-5551.544565,1915.238745
1329.840830,7105.977043,-4959.379811,1455.581446
1329.841159,5995.668130,-6439.791695,842.705048
1329.841489,5107.421000,-6957.935855,536.266849
1329.841818,5107.421000,-7550.100608,459.657299
1329.842147,6069.688724,-7328.038826,842.705048
1329.842477,6735.874072,-6439.791695,995.924147
1329.842806,6809.894666,-7328.038826,1225.752797
1329.843136,7624.121203,-6513.812290,1225.752797
1329.843465,7920.203579,-5773.606348,995.924147
1329.843795,7476.080014,-5847.626942,1302.362347
1329.844124,7179.997637,-5699.585753,1762.019645
1329.844453,7254.018232,-5255.462188,1378.971896
1329.844783,7031.956449,-5477.523971,1072.533697
1329.845112,6069.688724,-6809.894666,766.095498
1329.845442,6291.750507,-7254.018232,1455.581446
1329.845771,6735.874072,-7179.997637,1149.143247
1329.846101,6883.915261,-7846.182985,842.705048
1329.846430,6365.771101,-6957.935855,612.876398
1329.846759,6217.729913,-7105.977043,306.438199
1329.847089,6513.812290,-7031.956449,229.828649
1329.847418,6661.853478,-6217.729913,766.095498
1329.847748,7698.141797,-5847.626942,612.876398
1329.848077,8734.430116,-5403.503377,1302.362347
1329.848406,9104.533087,-5551.544565,1685.410096
1329.848736,8808.450710,-5551.544565,2298.286494
1329.849065,8142.265362,-6143.709319,1608.800546
1329.849395,6735.874072,-6809.894666,1072.533697
1329.849724,4737.318029,-7254.018232,306.438199
1329.850054,3997.112087,-8142.265362,0.000000
1329.850383,4885.359217,-8660.409521,459.657299
1329.850712,6513.812290,-8068.244768,1149.143247
1329.851042,7031.956449,-6957.935855,1378.971896
1329.851371,7846.182985,-5699.585753,1378.971896
1329.851701,8512.368333,-5255.462188,1532.190996
1329.852030,8586.388927,-5107.421000,1225.752797
1329.852360,7476.080014,-5329.482782,766.095498
1329.852689,6809.894666,-5403.503377,536.266849
1329.853018,7179.997637,-5699.585753,919.314598
1329.853348,7772.162391,-6143.709319,1149.143247
1329.853677,7920.203579,-5551.544565,1762.019645
1329.854007,7772.162391,-7550.100608,1685.410096
1329.854336,6957.935855,-7328.038826,1378.971896
1329.854666,5551.544565,-7846.182985,306.438199
1329.854995,5255.462188,-7550.100608,536.266849
1329.855324,5477.523971,-7254.018232,0.000000
1329.855654,6365.771101,-6735.874072,383.047749
1329.855983,7031.956449,-6069.688724,842.705048
1329.856313,8290.306550,-5551.544565,1378.971896
1329.856642,8512.368333,-4959.379811,2298.286494
1329.856972,8364.327145,-4515.256246,1915.238745
1329.857301,7846.182985,-5181.441594,1378.971896
1329.857630,7179.997637,-5995.668130,1225.752797
1329.857960,6661.853478,-7846.182985,1378.971896
1329.858289,6069.688724,-8216.285956,842.705048
1329.858619,5773.606348,-7698.141797,1149.143247
1329.858948,5921.647536,-7994.224174,766.095498
1329.859278,5995.668130,-7698.141797,919.314598
1329.859607,5847.626942,-7179.997637,995.924147
1329.859936,6143.709319,-6883.915261,229.828649
1329.860266,7031.956449,-6661.853478,459.657299
1329.860595,7031.956449,-6291.750507,689.485948
1329.860925,6957.935855,-5995.668130,1072.533697
1329.861254,7550.100608,-6809.894666,1225.752797
1329.861584,7105.977043,-5699.585753,1378.971896
1329.861913,6957.935855,-7328.038826,1532.190996
1329.862242,6883.915261,-7254.018232,995.924147
1329.862572,6957.935855,-6957.935855,919.314598
1329.862901,6957.935855,-7476.080014,766.095498
1329.863231,6735.874072,-7476.080014,1149.143247
1329.863560,6587.832884,-6957.935855,995.924147
1329.863890,7179.997637,-5699.585753,689.485948
1329.864219,8142.265362,-5107.421000,1685.410096
1329.864548,8364.327145,-4515.256246,1455.581446
1329.864878,8438.347739,-4441.235652,1915.238745
1329.865207,8364.327145,-5033.400406,2068.457845
1329.865537,7624.121203,-5403.503377,919.314598
1329.865866,6513.812290,-6217.729913,766.095498
1329.866196,5699.585753,-7402.059420,995.924147
1329.866525,5033.400406,-7846.182985,459.657299
1329.866854,4885.359217,-9474.636058,229.828649
1329.867184,5625.565159,-8438.347739,919.314598
1329.867513,6291.750507,-7624.121203,842.705048
1329.867843,6883.915261,-6365.771101,689.485948
1329.868172,7476.080014,-5847.626942,842.705048
1329.868502,8216.285956,-5921.647536,766.095498
1329.868831,8142.265362,-5921.647536,1608.800546
1329.869160,7846.182985,-5773.606348,1149.143247
1329.869490,7550.100608,-5995.668130,1225.752797
1329.869819,6883.915261,-6143.709319,1225.752797
1329.870149,6957.935855,-6957.935855,229.828649
1329.870478,6735.874072,-6883.915261,1378.971896
1329.870808,6809.894666,-6957.935855,1225.752797
1329.871137,6735.874072,-7179.997637,1072.533697
1329.871466,6291.750507,-7031.956449,766.095498
1329.871796,6069.688724,-6735.874072,306.438199
1329.872125,6439.791695,-6661.853478,0.000000
1329.872455,6809.894666,-7254.018232,689.485948
1329.872784,7624.121203,-6439.791695,1302.362347
1329.873114,7994.224174,-5773.606348,1608.800546
1329.873443,8068.244768,-5551.544565,1685.410096
1329.873772,7846.182985,-5329.482782,1455.581446
1329.874102,7179.997637,-6957.935855,1378.971896
1329.874431,6439.791695,-7105.977043,919.314598
1329.874761,5699.585753,-8068.244768,766.095498
1329.875090,5403.503377,-8068.244768,612.876398
1329.875420,5847.626942,-7476.080014,536.266849
1329.875749,6513.812290,-8142.265362,1072.533697
1329.876078,6883.915261,-7105.977043,1149.143247
1329.876408,7254.018232,-5847.626942,766.095498
1329.876737,7624.121203,-5477.523971,612.876398
1329.877067,7994.224174,-5773.606348,1072.533697
1329.877396,8216.285956,-5181.441594,1378.971896
1329.877726,7994.224174,-5699.585753,1072.533697
1329.878055,7254.018232,-6217.729913,1225.752797
1329.878384,7105.977043,-5773.606348,1455.581446
1329.878714,6883.915261,-6809.894666,1225.752797
1329.879043,6143.709319,-7031.956449,919.314598
1329.879373,5995.668130,-7031.956449,2145.067394
1329.879702,6587.832884,-7698.141797,1225.752797
1329.880032,6513.812290,-6957.935855,766.095498
1329.880361,6439.791695,-6513.812290,689.485948
1329.880690,6735.874072,-5995.668130,612.876398
1329.881020,7698.141797,-5033.400406,1149.143247
1329.881349,8290.306550,-5699.585753,1302.362347
1329.881679,7846.182985,-5551.544565,1915.238745
1329.882008,7550.100608,-5699.585753,1455.581446
1329.882338,7031.956449,-6439.791695,536.266849
1329.882667,6365.771101,-7031.956449,1149.143247
1329.882996,5551.544565,-8290.306550,536.266849
1329.883326,5625.565159,-8438.347739,766.095498
1329.883655,5107.421000,-8512.368333,842.705048
1329.883985,5255.462188,-8438.347739,689.485948
1329.884314,5847.626942,-7179.997637,536.266849
1329.884644,7031.956449,-6291.750507,612.876398
1329.884973,7550.100608,-5921.647536,995.924147
1329.885302,9104.533087,-5477.523971,1991.848295
1329.885632,8290.306550,-5033.400406,995.924147
1329.885961,8142.265362,-4959.379811,1455.581446
1329.886291,7624.121203,-5181.441594,1455.581446
1329.886620,7254.018232,-5921.647536,1072.533697
1329.886950,7179.997637,-7031.956449,919.314598
1329.887279,6587.832884,-7476.080014,1455.581446
1329.887608,6661.853478,-7550.100608,1455.581446
1329.887938,6439.791695,-7328.038826,1225.752797
1329.888267,5921.647536,-7624.121203,1302.362347
1329.888597,5995.668130,-6957.935855,383.047749
1329.888926,6217.729913,-6587.832884,306.438199
1329.889255,7105.977043,-6513.812290,766.095498
1329.889585,7698.141797,-5699.585753,1378.971896
1329.889914,7698.141797,-4515.256246,1378.971896
1329.890244,7994.224174,-4737.318029,1149.143247
1329.890573,7772.162391,-5329.482782,1149.143247
1329.890903,7328.038826,-6143.709319,1225.752797
1329.891232,6661.853478,-7105.977043,689.485948
1329.891561,6587.832884,-7179.997637,766.095498
1329.891891,6587.832884,-7550.100608,766.095498
1329.892220,6291.750507,-7994.224174,995.924147
1329.892550,5995.668130,-8142.265362,1225.752797
1329.892879,6587.832884,-6735.874072,766.095498
1329.893209,7105.977043,-6069.688724,689.485948
1329.893538,7476.080014,-5181.441594,1072.533697
1329.893867,7698.141797,-4663.297435,995.924147
1329.894197,7920.203579,-5181.441594,1378.971896
1329.894526,8364.327145,-5403.503377,1685.410096
1329.894856,7254.018232,-5995.668130,1149.143247
1329.895185,7031.956449,-6587.832884,995.924147
1329.895515,6957.935855,-6735.874072,1149.143247
1329.895844,7105.977043,-8068.244768,689.485948
1329.896173,6143.709319,-7994.224174,919.314598
1329.896503,5477.523971,-7994.224174,842.705048
1329.896832,5921.647536,-7846.182985,536.266849
1329.897162,6957.935855,-7105.977043,612.876398
1329.897491,7698.141797,-6439.791695,536.266849
1329.897821,7550.100608,-6291.750507,1149.143247
1329.898150,7698.141797,-6069.688724,1378.971896
1329.898479,7624.121203,-5625.565159,1455.581446
1329.898809,7328.038826,-6217.729913,1378.971896
1329.899138,7105.977043,-6217.729913,919.314598
1329.899468,6883.915261,-7254.018232,612.876398
1329.899797,5847.626942,-7846.182985,995.924147
1329.900126,5403.503377,-8216.285956,153.219100
1329.900456,5625.565159,-7550.100608,1378.971896
1329.900785,6365.771101,-7105.977043,842.705048
1329.901114,6513.812290,-7105.977043,919.314598
1329.901444,6957.935855,-6587.832884,1072.533697
1329.901773,7550.100608,-5847.626942,995.924147
1329.902102,7624.121203,-4885.359217,1532.190996
1329.902432,7772.162391,-4811.338623,1302.362347
1329.902761,7994.224174,-5181.441594,2068.457845
1329.903090,7772.162391,-5255.462188,1455.581446
1329.903420,7031.956449,-6439.791695,1072.533697
1329.903749,6069.688724,-6957.935855,1608.800546
1329.904078,6143.709319,-7179.997637,1302.362347
1329.904408,6587.832884,-7994.224174,842.705048
1329.904737,6143.709319,-7550.100608,1072.533697
1329.905066,6069.688724,-6291.750507,919.314598
1329.905395,6957.935855,-7254.018232,766.095498
1329.905725,7698.141797,-5921.647536,689.485948
1329.906054,7772.162391,-5255.462188,536.266849
1329.906383,7994.224174,-5181.441594,1149.143247
1329.906713,8216.285956,-5329.482782,1149.143247
1329.907042,7772.162391,-6365.771101,1608.800546
1329.907371,7105.977043,-6439.791695,1302.362347
1329.907701,6735.874072,-6809.894666,612.876398
1329.908030,5403.503377,-7476.080014,689.485948
1329.908359,5033.400406,-7846.182985,536.266849
1329.908689,5181.441594,-8956.491898,459.657299
1329.909018,6143.709319,-8142.265362,1302.362347
1329.909347,7031.956449,-6883.915261,1685.410096
1329.909677,7772.162391,-5181.441594,1608.800546
1329.910006,8068.244768,-5107.421000,689.485948
1329.910335,7772.162391,-5181.441594,1072.533697
1329.910665,7624.121203,-5107.421000,612.876398
1329.910994,7402.059420,-4515.256246,689.485948
1329.911323,7328.038826,-5329.482782,1455.581446
1329.911653,7772.162391,-6291.750507,1302.362347
1329.911982,7698.141797,-5921.647536,1762.019645
1329.912311,7031.956449,-7624.121203,1225.752797
1329.912640,6735.874072,-7994.224174,689.485948
1329.912970,5921.647536,-7698.141797,612.876398
1329.913299,5403.503377,-8216.285956,689.485948
1329.913628,5921.647536,-7179.997637,842.705048
1329.913958,7328.038826,-6809.894666,1072.533697
1329.914287,7476.080014,-6217.729913,766.095498
1329.914616,7772.162391,-5699.585753,995.924147
1329.914946,7624.121203,-5477.523971,1455.581446
1329.915275,7846.182985,-5403.503377,1532.190996
1329.915604,6587.832884,-5995.668130,1838.629195
1329.915934,6143.709319,-6291.750507,766.095498
1329.916263,5551.544565,-7624.121203,612.876398
1329.916592,5477.523971,-8956.491898,1302.362347
1329.916922,5625.565159,-8142.265362,1072.533697
1329.917251,5995.668130,-8290.306550,1608.800546
1329.917580,5847.626942,-7994.224174,1455.581446
1329.917910,6513.812290,-7105.977043,842.705048
1329.918239,6809.894666,-6069.688724,842.705048
1329.918568,7624.121203,-5625.565159,689.485948
1329.918898,8216.285956,-5255.462188,1302.362347
1329.919227,8364.327145,-4737.318029,1532.190996
1329.919556,7920.203579,-4811.338623,1455.581446
1329.919886,7550.100608,-4959.379811,1149.143247
1329.920215,7920.203579,-6217.729913,1302.362347
1329.920544,7105.977043,-7031.956449,1072.533697
1329.920873,7105.977043,-7402.059420,1532.190996
1329.921203,7254.018232,-7254.018232,1225.752797
1329.921532,6365.771101,-7031.956449,919.314598
1329.921861,6217.729913,-7105.977043,1378.971896
1329.922191,7105.977043,-6513.812290,919.314598
1329.922520,7624.121203,-6069.688724,842.705048
1329.922849,7402.059420,-5033.400406,1149.143247
1329.923179,7476.080014,-5329.482782,766.095498
1329.923508,7698.141797,-5699.585753,1149.143247
1329.923837,7772.162391,-6217.729913,1455.581446
1329.924167,7105.977043,-6365.771101,1225.752797
1329.924496,6291.750507,-7031.956449,1072.533697
1329.924825,5625.565159,-8586.388927,1455.581446
1329.925155,5107.421000,-9400.615463,383.047749
1329.925484,4959.379811,-8808.450710,689.485948
1329.925813,5477.523971,-8142.265362,766.095498
1329.926143,6661.853478,-7476.080014,229.828649
1329.926472,6809.894666,-6069.688724,842.705048
1329.926801,7476.080014,-5625.565159,842.705048
1329.927131,8290.306550,-5181.441594,1149.143247
1329.927460,7994.224174,-5181.441594,1225.752797
1329.927789,7105.977043,-5847.626942,1072.533697
1329.928118,6439.791695,-6143.709319,1225.752797
1329.928448,6735.874072,-6365.771101,1072.533697
1329.928777,6513.812290,-7031.956449,919.314598
1329.929106,6735.874072,-7328.038826,2145.067394
1329.929436,7550.100608,-7772.162391,1685.410096
1329.929765,7105.977043,-7254.018232,1455.581446
1329.930094,6661.853478,-6513.812290,1149.143247
1329.930424,6513.812290,-6291.750507,689.485948
1329.930753,6735.874072,-5773.606348,536.266849
1329.931082,7550.100608,-5107.421000,1072.533697
1329.931412,8808.450710,-5033.400406,1762.019645
1329.931741,9844.739029,-5403.503377,2604.724693
1329.932070,8808.450710,-5329.482782,2681.334243
1329.932400,7328.038826,-5773.606348,1762.019645
1329.932729,5699.585753,-6513.812290,383.047749
1329.933058,4589.276840,-7994.224174,306.438199
1329.933388,4737.318029,-9252.574275,306.438199
1329.933717,5329.482782,-9104.533087,536.266849
1329.934046,5551.544565,-8734.430116,919.314598
1329.934376,6439.791695,-8142.265362,536.266849
1329.934705,7105.977043,-6513.812290,1072.533697
1329.935034,7105.977043,-6661.853478,459.657299
1329.935364,7328.038826,-5403.503377,919.314598
1329.935693,7920.203579,-4145.153275,612.876398
1329.936022,7994.224174,-4219.173869,995.924147
1329.936351,8512.368333,-4441.235652,1838.629195
1329.936681,8512.368333,-6069.688724,2145.067394
1329.937010,8586.388927,-5255.462188,1532.190996
1329.937339,7031.956449,-6069.688724,1225.752797
1329.937669,6587.832884,-6957.935855,1072.533697
1329.937998,6217.729913,-7846.182985,306.438199
1329.938327,5995.668130,-8364.327145,536.266849
1329.938657,5551.544565,-7920.203579,229.828649
1329.938986,5921.647536,-7254.018232,229.828649
1329.939315,6661.853478,-7031.956449,689.485948
1329.939645,7179.997637,-6291.750507,919.314598
1329.939974,7550.100608,-5625.565159,1378.971896
1329.940303,7772.162391,-5477.523971,1455.581446
1329.940633,7846.182985,-6143.709319,1302.362347
1329.940962,7402.059420,-5699.585753,1532.190996
1329.941291,6661.853478,-6217.729913,1302.362347
1329.941621,6513.812290,-7476.080014,306.438199
1329.941950,6365.771101,-8290.306550,842.705048
1329.942279,6217.729913,-9178.553681,1149.143247
1329.942609,6217.729913,-8068.244768,689.485948
1329.942938,6587.832884,-6291.750507,153.219100
1329.943267,6661.853478,-7031.956449,459.657299
1329.943596,7328.038826,-5847.626942,612.876398
1329.943926,7846.182985,-6365.771101,612.876398
1329.944255,7846.182985,-5625.565159,1149.143247
1329.944584,7328.038826,-5477.523971,1762.019645
1329.944914,7179.997637,-4811.338623,1072.533697
1329.945243,7550.100608,-5255.462188,1455.581446
1329.945572,7179.997637,-7179.997637,1915.238745
1329.945902,7698.141797,-7031.956449,1608.800546
1329.946231,6291.750507,-6883.915261,919.314598
1329.946560,6143.709319,-6809.894666,1149.143247
1329.946890,6809.894666,-6809.894666,689.485948
1329.947219,7105.977043,-6291.750507,153.219100
1329.947548,6957.935855,-5847.626942,1378.971896
1329.947878,7031.956449,-6661.853478,1149.143247
1329.948207,7698.141797,-6217.729913,1532.190996
1329.948536,7402.059420,-5773.606348,1762.019645
1329.948866,7328.038826,-6143.709319,995.924147
1329.949195,6809.894666,-6217.729913,689.485948
1329.949524,6143.709319,-7031.956449,842.705048
1329.949854,6143.709319,-7179.997637,612.876398
1329.950183,6069.688724,-7772.162391,1149.143247
1329.950512,6661.853478,-6957.935855,1302.362347
1329.950841,6365.771101,-7179.997637,919.314598
1329.951171,6439.791695,-6217.729913,1072.533697
1329.951500,7698.141797,-5329.482782,689.485948
1329.951829,8290.306550,-5773.606348,1685.410096
1329.952159,8660.409521,-4737.318029,1302.362347
1329.952488,7624.121203,-5033.400406,842.705048
1329.952817,7105.977043,-6069.688724,1302.362347
1329.953147,7179.997637,-6291.750507,1149.143247
1329.953476,6883.915261,-6587.832884,1302.362347
1329.953805,7031.956449,-6291.750507,1838.629195
1329.954135,6661.853478,-6883.915261,1225.752797
1329.954464,6587.832884,-6513.812290,766.095498
1329.954793,6217.729913,-7105.977043,842.705048
1329.955123,6365.771101,-7179.997637,1302.362347
1329.955452,7328.038826,-6069.688724,689.485948
1329.955781,7179.997637,-5403.503377,459.657299
1329.956111,7550.100608,-5995.668130,459.657299
1329.956440,8586.388927,-5921.647536,1302.362347
1329.956769,8586.388927,-6365.771101,1685.410096
1329.957099,7846.182985,-6809.894666,1608.800546
1329.957428,7105.977043,-6291.750507,1225.752797
1329.957757,6291.750507,-7179.997637,383.047749
1329.958087,5255.462188,-7994.224174,76.609550
1329.958416,4589.276840,-8882.471304,459.657299
1329.958745,4959.379811,-9252.574275,536.266849
1329.959074,5033.400406,-8660.409521,842.705048
1329.959404,5477.523971,-7550.100608,842.705048
1329.959733,6439.791695,-6513.812290,1072.533697
1329.960062,7476.080014,-6217.729913,1225.752797
1329.960392,7846.182985,-5255.462188,842.705048
1329.960721,7254.018232,-4515.256246,766.095498
1329.961050,8290.306550,-4219.173869,1225.752797
1329.961380,8586.388927,-5255.462188,1685.410096
1329.961709,7846.182985,-6439.791695,1302.362347
1329.962038,6809.894666,-6365.771101,1378.971896
1329.962368,6957.935855,-7476.080014,612.876398
1329.962697,6957.935855,-8142.265362,1532.190996
1329.963026,6587.832884,-7179.997637,1455.581446
1329.963356,6291.750507,-7550.100608,1072.533697
1329.963685,6809.894666,-5921.647536,842.705048
1329.964014,7031.956449,-5477.523971,842.705048
1329.964344,6883.915261,-5625.565159,1072.533697
1329.964673,7476.080014,-4737.318029,1302.362347
1329.965002,8216.285956,-5033.400406,1378.971896
1329.965332,8216.285956,-5329.482782,1915.238745
1329.965661,8660.409521,-5477.523971,1762.019645
1329.965990,8216.285956,-5995.668130,1532.190996
1329.966319,6809.894666,-7550.100608,842.705048
1329.966649,5477.523971,-7476.080014,229.828649
1329.966978,5255.462188,-8290.306550,76.609550
1329.967307,5551.544565,-9918.759623,1072.533697
1329.967637,5699.585753,-8734.430116,1072.533697
1329.967966,5921.647536,-7328.038826,536.266849
1329.968295,6439.791695,-6439.791695,995.924147
1329.968625,7105.977043,-5477.523971,459.657299
1329.968954,6957.935855,-5921.647536,612.876398
1329.969283,6957.935855,-5107.421000,1072.533697
1329.969613,7105.977043,-5625.565159,1225.752797
1329.969942,7254.018232,-5403.503377,1455.581446
1329.970271,7402.059420,-5699.585753,1302.362347
1329.970601,7846.182985,-5995.668130,2068.457845
1329.970930,8290.306550,-6291.750507,1302.362347
1329.971259,8068.244768,-6365.771101,1762.019645
1329.971589,7402.059420,-6513.812290,1378.971896
1329.971918,7105.977043,-6661.853478,536.266849
1329.972247,6957.935855,-6143.709319,536.266849
1329.972577,7179.997637,-6291.750507,459.657299
1329.972906,7772.162391,-5625.565159,919.314598
1329.973235,7994.224174,-5477.523971,2068.457845
1329.973564,7994.224174,-6069.688724,1685.410096
1329.973894,7105.977043,-5921.647536,1685.410096
1329.974223,6439.791695,-6291.750507,1149.143247
1329.974552,4885.359217,-7476.080014,1149.143247
1329.974882,5107.421000,-8216.285956,766.095498
1329.975211,5699.585753,-8216.285956,1149.143247
1329.975540,6143.709319,-8068.244768,766.095498
1329.975870,6661.853478,-7254.018232,1838.629195
1329.976199,7254.018232,-7105.977043,1225.752797
1329.976528,7550.100608,-6069.688724,536.266849
1329.976858,7105.977043,-5625.565159,689.485948
1329.977187,7254.018232,-6735.874072,383.047749
1329.977516,7772.162391,-5847.626942,1762.019645
1329.977846,7105.977043,-6735.874072,459.657299
1329.978175,6957.935855,-6661.853478,919.314598
1329.978504,6957.935855,-5773.606348,1072.533697
1329.978834,7105.977043,-6587.832884,766.095498
1329.979163,6957.935855,-6365.771101,1685.410096
1329.979492,7105.977043,-6661.853478,1225.752797
1329.979822,7105.977043,-6217.729913,842.705048
1329.980151,6661.853478,-5847.626942,842.705048
1329.980480,6809.894666,-6217.729913,919.314598
1329.980810,7772.162391,-5107.421000,842.705048
1329.981139,8290.306550,-5699.585753,1378.971896
1329.981468,8142.265362,-5551.544565,1608.800546
1329.981797,8438.347739,-5551.544565,1608.800546
1329.982127,8142.265362,-6365.771101,1762.019645
1329.982456,7105.977043,-7031.956449,1455.581446
1329.982785,6069.688724,-7254.018232,842.705048
1329.983115,5181.441594,-7328.038826,459.657299
1329.983444,4811.338623,-8438.347739,0.000000
1329.983773,5181.441594,-9326.594869,1072.533697
1329.984103,4959.379811,-8956.491898,842.705048
1329.984432,5921.647536,-7624.121203,536.266849
1329.984761,6661.853478,-6291.750507,536.266849
1329.985091,7550.100608,-6291.750507,1149.143247
1329.985420,8142.265362,-5625.565159,919.314598
1329.985749,8216.285956,-5033.400406,919.314598
1329.986079,7846.182985,-5181.441594,536.266849
1329.986408,7698.141797,-5921.647536,1302.362347
1329.986737,7698.141797,-6809.894666,1532.190996
1329.987067,7328.038826,-6587.832884,766.095498
1329.987396,6809.894666,-6883.915261,766.095498
1329.987725,6883.915261,-7328.038826,1149.143247
1329.988055,6809.894666,-7624.121203,1072.533697
1329.988384,6587.832884,-7105.977043,1532.190996
1329.988713,6439.791695,-5699.585753,612.876398
1329.989042,6439.791695,-5329.482782,383.047749
1329.989372,7105.977043,-5181.441594,1378.971896
1329.989701,8290.306550,-5255.462188,1149.143247
1329.990030,8660.409521,-4219.173869,2068.457845
1329.990360,8734.430116,-4367.215058,2221.676944
1329.990689,8068.244768,-5995.668130,1455.581446
1329.991018,6883.915261,-7105.977043,612.876398
1329.991348,5921.647536,-7624.121203,76.609550
1329.991677,5329.482782,-8882.471304,153.219100
1329.992006,6069.688724,-9252.574275,1225.752797
1329.992336,6365.771101,-8660.409521,1532.190996
1329.992665,6513.812290,-6957.935855,1378.971896
1329.992994,6735.874072,-6365.771101,536.266849
1329.993324,7105.977043,-5847.626942,995.924147
1329.993653,7179.997637,-5773.606348,766.095498
1329.993982,7402.059420,-5403.503377,1378.971896
1329.994312,7846.182985,-5107.421000,1149.143247
1329.994641,7402.059420,-5847.626942,1225.752797
1329.994970,7105.977043,-5995.668130,1762.019645
1329.995300,7402.059420,-6217.729913,1685.410096
1329.995629,7105.977043,-6809.894666,1149.143247
1329.995958,6439.791695,-6809.894666,612.876398
1329.996288,6143.709319,-7328.038826,536.266849
1329.996617,6365.771101,-7846.182985,766.095498
1329.996946,6143.709319,-7624.121203,1149.143247
1329.997275,7254.018232,-7105.977043,76.609550
1329.997605,7698.141797,-5773.606348,1225.752797
1329.997934,7994.224174,-5181.441594,1225.752797
1329.998263,8142.265362,-4959.379811,1149.143247
1329.998593,7994.224174,-4737.318029,1532.190996
1329.998922,7772.162391,-5699.585753,995.924147
1329.999251,7476.080014,-5995.668130,1225.752797
1329.999581,6735.874072,-6291.750507,1225.752797
1329.999910,6365.771101,-8068.244768,689.485948
1330.000239,5477.523971,-8660.409521,689.485948
1330.000569,4885.359217,-8660.409521,383.047749
1330.000898,4663.297435,-8808.450710,306.438199
1330.001227,5847.626942,-7031.956449,229.828649
1330.001557,6883.915261,-6809.894666,0.000000
1330.001886,7846.182985,-6143.709319,1302.362347
1330.002215,7920.203579,-5625.565159,1378.971896
1330.002544,8660.409521,-5107.421000,1762.019645
1330.002873,8512.368333,-5033.400406,1762.019645
1330.003202,8068.244768,-6143.709319,1455.581446
1330.003531,6809.894666,-6143.709319,1838.629195
1330.003861,6809.894666,-6883.915261,1072.533697
1330.004190,6735.874072,-7179.997637,1225.752797
1330.004519,6513.812290,-7179.997637,1149.143247
1330.004848,6661.853478,-8290.306550,1838.629195
1330.005177,6291.750507,-7476.080014,1149.143247
1330.005506,6291.750507,-6883.915261,919.314598
1330.005835,6439.791695,-5773.606348,612.876398
1330.006164,7105.977043,-6735.874072,766.095498
1330.006494,7698.141797,-5477.523971,1762.019645
1330.006823,8438.347739,-4737.318029,1915.238745
1330.007152,8290.306550,-5699.585753,1685.410096
1330.007481,8068.244768,-5847.626942,1532.190996
1330.007810,6883.915261,-7328.038826,766.095498
1330.008139,5995.668130,-7550.100608,383.047749
1330.008468,5773.606348,-8290.306550,306.438199
1330.008797,5625.565159,-8438.347739,1072.533697
1330.009127,5847.626942,-8660.409521,1149.143247
1330.009456,5773.606348,-7402.059420,1455.581446
1330.009785,6439.791695,-5995.668130,76.609550
1330.010114,6661.853478,-7328.038826,612.876398
1330.010443,7179.997637,-4367.215058,153.219100
1330.010772,6883.915261,-5921.647536,1149.143247
1330.011101,7179.997637,-5995.668130,1455.581446
1330.011431,7402.059420,-4589.276840,1302.362347
1330.011760,7476.080014,-6291.750507,1991.848295
1330.012089,7402.059420,-6069.688724,1762.019645
1330.012418,7550.100608,-6957.935855,1762.019645
1330.012747,7179.997637,-7105.977043,1378.971896
1330.013076,6069.688724,-7254.018232,689.485948
1330.013405,6809.894666,-7105.977043,1072.533697
1330.013734,7105.977043,-7031.956449,1072.533697
1330.014064,7624.121203,-4885.359217,995.924147
1330.014393,7698.141797,-5551.544565,995.924147
1330.014722,7920.203579,-5477.523971,842.705048
1330.015051,8290.306550,-4219.173869,1302.362347
1330.015380,7698.141797,-5551.544565,2145.067394
1330.015709,7698.141797,-6069.688724,1149.143247
1330.016038,7179.997637,-6217.729913,306.438199
1330.016367,5995.668130,-6809.894666,459.657299
1330.016697,5921.647536,-7698.141797,689.485948
1330.017026,6439.791695,-8438.347739,919.314598
1330.017355,6735.874072,-8438.347739,1378.971896
1330.017684,6587.832884,-7772.162391,919.314598
1330.018013,6587.832884,-6439.791695,766.095498
1330.018342,6957.935855,-7105.977043,995.924147
1330.018671,7179.997637,-6439.791695,1072.533697
1330.019001,7105.977043,-5699.585753,612.876398
1330.019330,6661.853478,-5995.668130,536.266849
1330.019659,6587.832884,-7105.977043,1149.143247
1330.019988,5847.626942,-6883.915261,1762.019645
1330.020317,6069.688724,-6957.935855,995.924147
1330.020646,5921.647536,-7254.018232,459.657299
1330.020975,6587.832884,-6883.915261,612.876398
1330.021304,7402.059420,-7105.977043,1685.410096
1330.021634,7920.203579,-6587.832884,1838.629195
1330.021963,7254.018232,-6587.832884,766.095498
1330.022292,6957.935855,-6439.791695,229.828649
1330.022621,7031.956449,-6069.688724,612.876398
1330.022950,8216.285956,-6069.688724,995.924147
1330.023279,8882.471304,-4811.338623,1838.629195
1330.023608,8734.430116,-5107.421000,1991.848295
1330.023937,8586.388927,-5551.544565,2145.067394
1330.024267,8364.327145,-5181.441594,1991.848295
1330.024596,6957.935855,-6587.832884,1685.410096
1330.024925,5329.482782,-7254.018232,612.876398
1330.025254,4589.276840,-7994.224174,383.047749
1330.025583,4737.318029,-8956.491898,536.266849
1330.025912,5699.585753,-7698.141797,1302.362347
1330.026241,6365.771101,-7105.977043,1225.752797
1330.026571,7698.141797,-6365.771101,1149.143247
1330.026900,8068.244768,-5773.606348,1532.190996
1330.027229,7550.100608,-5625.565159,1072.533697
1330.027558,7550.100608,-5773.606348,1302.362347
1330.027887,6809.894666,-6217.729913,1225.752797
1330.028216,6735.874072,-7254.018232,1225.752797
1330.028545,6957.935855,-7328.038826,1532.190996
1330.028874,7254.018232,-6513.812290,1685.410096
1330.029204,7179.997637,-6291.750507,1532.190996
1330.029533,6217.729913,-7254.018232,1072.533697
1330.029862,5773.606348,-7105.977043,766.095498
1330.030191,6069.688724,-7031.956449,536.266849
1330.030520,6291.750507,-6217.729913,689.485948
1330.030849,7031.956449,-5995.668130,612.876398
1330.031178,7698.141797,-6217.729913,1455.581446
1330.031507,8512.368333,-6143.709319,2298.286494
1330.031837,9030.512492,-5699.585753,1991.848295
1330.032166,8364.327145,-5181.441594,1838.629195
1330.032495,7031.956449,-6957.935855,1225.752797
1330.032824,5995.668130,-7105.977043,612.876398
1330.033153,5403.503377,-7698.141797,459.657299
1330.033482,5699.585753,-7994.224174,1149.143247
1330.033811,5847.626942,-7772.162391,1532.190996
1330.034141,6513.812290,-7328.038826,1915.238745
1330.034470,6957.935855,-6291.750507,1378.971896
1330.034799,6883.915261,-5329.482782,842.705048
1330.035128,6883.915261,-4737.318029,229.828649
1330.035457,7105.977043,-5477.523971,229.828649
1330.035786,7550.100608,-5625.565159,842.705048
1330.036115,7846.182985,-5921.647536,1302.362347
1330.036444,7920.203579,-6291.750507,1455.581446
1330.036774,7550.100608,-6587.832884,1915.238745
1330.037103,6957.935855,-7476.080014,842.705048
1330.037432,6513.812290,-7254.018232,612.876398
1330.037761,6735.874072,-7402.059420,1225.752797
1330.038090,7105.977043,-7254.018232,689.485948
1330.038419,6217.729913,-7772.162391,919.314598
1330.038748,5699.585753,-6883.915261,536.266849
1330.039077,6291.750507,-5625.565159,306.438199
1330.039407,7105.977043,-5625.565159,766.095498
1330.039736,8142.265362,-5625.565159,1608.800546
1330.040065,7994.224174,-5477.523971,2068.457845
1330.040394,8290.306550,-5033.400406,1608.800546
1330.040723,7624.121203,-5403.503377,1532.190996
1330.041052,7031.956449,-5773.606348,383.047749
1330.041381,6957.935855,-7179.997637,1455.581446
1330.041711,6883.915261,-7698.141797,1378.971896
1330.042040,6365.771101,-8808.450710,1225.752797
1330.042369,6217.729913,-7698.141797,1302.362347
1330.042698,6439.791695,-7698.141797,1225.752797
1330.043027,6809.894666,-6587.832884,459.657299
1330.043356,7179.997637,-5329.482782,689.485948
1330.043685,7550.100608,-5033.400406,612.876398
1330.044014,7550.100608,-5255.462188,766.095498
1330.044344,7031.956449,-5255.462188,1072.533697
1330.044673,6809.894666,-6661.853478,612.876398
1330.045002,6883.915261,-6365.771101,919.314598
1330.045331,6735.874072,-6883.915261,842.705048
1330.045660,6291.750507,-7254.018232,612.876398
1330.045989,5921.647536,-7550.100608,842.705048
1330.046318,6809.894666,-8290.306550,1532.190996
1330.046648,6809.894666,-8216.285956,1532.190996
1330.046977,5995.668130,-7328.038826,536.266849
1330.047306,6661.853478,-6143.709319,0.000000
1330.047635,7031.956449,-5921.647536,842.705048
1330.047964,7402.059420,-5625.565159,1302.362347
1330.048293,8216.285956,-5107.421000,1685.410096
1330.048622,8512.368333,-4885.359217,1991.848295
1330.048951,7476.080014,-5403.503377,1915.238745
1330.049281,6513.812290,-5921.647536,919.314598
1330.049610,5181.441594,-6439.791695,0.000000
1330.049939,4811.338623,-7772.162391,0.000000
1330.050268,5847.626942,-8956.491898,1455.581446
1330.050597,6513.812290,-8512.368333,1532.190996
1330.050926,7105.977043,-7550.100608,1149.143247
1330.051255,7328.038826,-6957.935855,919.314598
1330.051584,7772.162391,-5921.647536,536.266849
1330.051914,7624.121203,-5995.668130,919.314598
1330.052243,7920.203579,-5255.462188,995.924147
1330.052572,8068.244768,-4589.276840,919.314598
1330.052901,7994.224174,-5477.523971,1455.581446
1330.053230,7105.977043,-6587.832884,1762.019645
1330.053559,6735.874072,-5847.626942,1225.752797
1330.053888,6513.812290,-6439.791695,766.095498
1330.054218,6217.729913,-6809.894666,612.876398
1330.054547,6217.729913,-7105.977043,612.876398
1330.054876,6069.688724,-7254.018232,1225.752797
1330.055205,6143.709319,-7846.182985,919.314598
1330.055534,6365.771101,-6291.750507,229.828649
1330.055863,7105.977043,-6365.771101,919.314598
1330.056192,8216.285956,-6217.729913,1532.190996
1330.056521,8364.327145,-6365.771101,1608.800546
1330.056851,8216.285956,-5329.482782,1991.848295
1330.057180,7476.080014,-5699.585753,1225.752797
1330.057509,6957.935855,-6143.709319,995.924147
1330.057838,6439.791695,-6291.750507,1455.581446
1330.058167,5477.523971,-7328.038826,536.266849
1330.058496,5625.565159,-7698.141797,689.485948
1330.058825,5995.668130,-7994.224174,1225.752797
1330.059154,6513.812290,-7105.977043,689.485948
1330.059484,7476.080014,-5995.668130,1838.629195
1330.059813,8290.306550,-5551.544565,1225.752797
1330.060142,8142.265362,-5403.503377,919.314598
1330.060471,8364.327145,-4959.379811,1072.533697
1330.060800,8586.388927,-6143.709319,1762.019645
1330.061129,8216.285956,-6661.853478,1685.410096
1330.061458,7254.018232,-6291.750507,1378.971896
1330.061788,6587.832884,-6513.812290,842.705048
1330.062117,6069.688724,-7105.977043,689.485948
1330.062446,6217.729913,-7179.997637,1072.533697
1330.062775,6291.750507,-7402.059420,842.705048
1330.063104,5847.626942,-7105.977043,689.485948
1330.063433,5625.565159,-7179.997637,689.485948
1330.063762,5551.544565,-7328.038826,383.047749
1330.064091,6513.812290,-6439.791695,153.219100
1330.064421,7402.059420,-6587.832884,842.705048
1330.064750,8882.471304,-5995.668130,1302.362347
1330.065079,9178.553681,-5107.421000,2221.676944
1330.065408,9104.533087,-5625.565159,2068.457845
1330.065737,8512.368333,-5847.626942,1608.800546
1330.066066,6883.915261,-5921.647536,842.705048
1330.066395,5921.647536,-6883.915261,76.609550
1330.066724,5551.544565,-7772.162391,383.047749
1330.067054,6069.688724,-8660.409521,689.485948
1330.067383,6143.709319,-7994.224174,1302.362347
1330.067712,6439.791695,-7105.977043,1302.362347
1330.068041,7031.956449,-5625.565159,919.314598
1330.068370,7402.059420,-4885.359217,766.095498
1330.068699,7402.059420,-5403.503377,1302.362347
1330.069028,7550.100608,-5033.400406,995.924147
1330.069358,7698.141797,-5477.523971,1378.971896
1330.069687,7402.059420,-6883.915261,1838.629195
1330.070016,7550.100608,-6587.832884,1762.019645
1330.070345,7476.080014,-6513.812290,1608.800546
1330.070674,7105.977043,-6957.935855,1455.581446
1330.071003,6809.894666,-7105.977043,919.314598
1330.071332,6365.771101,-7624.121203,842.705048
1330.071661,4959.379811,-7920.203579,536.266849
1330.071991,5255.462188,-7402.059420,0.000000
1330.072320,5255.462188,-6957.935855,306.438199
1330.072649,6513.812290,-6661.853478,995.924147
1330.072978,8512.368333,-5773.606348,1762.019645
1330.073307,8882.471304,-5477.523971,2298.286494
1330.073636,9104.533087,-5255.462188,2221.676944
1330.073965,8290.306550,-6143.709319,1302.362347
1330.074294,7328.038826,-5181.441594,689.485948
1330.074624,6069.688724,-6883.915261,0.000000
1330.074953,5995.668130,-8068.244768,459.657299
1330.075282,6217.729913,-8660.409521,1149.143247
1330.075611,6661.853478,-9326.594869,1838.629195
1330.075940,7031.956449,-7179.997637,1532.190996
1330.076269,6439.791695,-5995.668130,536.266849
1330.076598,6143.709319,-5181.441594,306.438199
1330.076928,6883.915261,-4811.338623,459.657299
1330.077257,7254.018232,-4589.276840,1072.533697
1330.077586,7402.059420,-4959.379811,1685.410096
1330.077915,7550.100608,-5329.482782,1685.410096
1330.078244,7846.182985,-5551.544565,1072.533697
1330.078573,6735.874072,-8734.430116,1608.800546
1330.078902,7105.977043,-5181.441594,612.876398
1330.079231,6513.812290,-8660.409521,919.314598
1330.079561,6439.791695,-8068.244768,842.705048
1330.079890,6735.874072,-5625.565159,153.219100
1330.080219,7328.038826,-8068.244768,1302.362347
1330.080548,6809.894666,-6439.791695,689.485948
1330.080877,6143.709319,-6957.935855,0.000000
1330.081206,6661.853478,-6513.812290,1072.533697
1330.081535,7328.038826,-5921.647536,536.266849
1330.081864,8364.327145,-6957.935855,2068.457845
1330.082194,8660.409521,-6069.688724,1455.581446
1330.082523,7328.038826,-6069.688724,306.438199
1330.082852,6439.791695,-6069.688724,612.876398
1330.083181,5625.565159,-6957.935855,536.266849
1330.083510,6143.709319,-7550.100608,919.314598
1330.083839,6069.688724,-8290.306550,1302.362347
1330.084168,6513.812290,-9178.553681,1455.581446
1330.084498,7402.059420,-6143.709319,1149.143247
1330.084827,7328.038826,-5921.647536,1072.533697
1330.085156,7846.182985,-5403.503377,766.095498
1330.085485,7772.162391,-4959.379811,766.095498
1330.085814,7328.038826,-5625.565159,1378.971896
1330.086143,6883.915261,-5551.544565,995.924147
1330.086472,6661.853478,-7031.956449,459.657299
1330.086801,6217.729913,-7031.956449,1072.533697
1330.087131,6587.832884,-6883.915261,1149.143247
1330.087460,7031.956449,-7105.977043,842.705048
1330.087789,6735.874072,-7105.977043,995.924147
1330.088118,5921.647536,-7476.080014,1072.533697
1330.088447,6735.874072,-7031.956449,842.705048
1330.088776,6735.874072,-6883.915261,689.485948
1330.089105,6735.874072,-5773.606348,842.705048
1330.089434,7846.182985,-5181.441594,1302.362347
1330.089764,8734.430116,-5847.626942,1378.971896
1330.090093,8956.491898,-5255.462188,2068.457845
1330.090422,8290.306550,-5995.668130,1685.410096
1330.090751,7254.018232,-5921.647536,1532.190996
1330.091080,5921.647536,-6587.832884,383.047749
1330.091409,4959.379811,-7624.121203,76.609550
1330.091738,4737.318029,-8216.285956,383.047749
1330.092068,5625.565159,-8660.409521,689.485948
1330.092397,6439.791695,-8660.409521,1838.629195
1330.092726,6883.915261,-7105.977043,1378.971896
1330.093055,7179.997637,-5773.606348,689.485948
1330.093384,7105.977043,-5181.441594,229.828649
1330.093713,7550.100608,-5699.585753,612.876398
1330.094042,8142.265362,-5033.400406,919.314598
1330.094371,8438.347739,-5255.462188,2068.457845
1330.094701,8586.388927,-5847.626942,1378.971896
1330.095030,8068.244768,-5625.565159,1991.848295
1330.095359,7179.997637,-6217.729913,919.314598
1330.095688,6143.709319,-6809.894666,1762.019645
1330.096017,6439.791695,-7105.977043,689.485948
1330.096346,6069.688724,-7328.038826,766.095498
1330.096675,5773.606348,-7698.141797,842.705048
1330.097004,5921.647536,-7328.038826,919.314598
1330.097334,6735.874072,-6365.771101,76.609550
1330.097663,7105.977043,-5995.668130,612.876398
1330.097992,7698.141797,-5847.626942,1455.581446
1330.098321,8364.327145,-5033.400406,1685.410096
1330.098650,8586.388927,-5255.462188,1762.019645
1330.098979,7920.203579,-6069.688724,1915.238745
1330.099308,6809.894666,-6587.832884,1455.581446
1330.099638,5995.668130,-7105.977043,612.876398
1330.099967,5995.668130,-7846.182985,842.705048
1330.100296,5551.544565,-8512.368333,536.266849
1330.100625,5329.482782,-8438.347739,995.924147
1330.100954,5403.503377,-8660.409521,612.876398
1330.101283,6291.750507,-6291.750507,383.047749
1330.101612,7624.121203,-4885.359217,689.485948
1330.101941,8216.285956,-4959.379811,153.219100
1330.102271,7772.162391,-5329.482782,1532.190996
1330.102600,7624.121203,-5329.482782,1302.362347
1330.102929,7920.203579,-5921.647536,1532.190996
1330.103258,7772.162391,-5403.503377,2528.115143
1330.103587,8216.285956,-5625.565159,1532.190996
1330.103916,7624.121203,-5921.647536,1072.533697
1330.104245,7550.100608,-6957.935855,1072.533697
1330.104574,7254.018232,-7328.038826,1455.581446
1330.104903,6883.915261,-8142.265362,995.924147
1330.105232,5995.668130,-7402.059420,1225.752797
1330.105561,5477.523971,-6735.874072,229.828649
1330.105891,6143.709319,-6735.874072,229.828649
1330.106220,7402.059420,-6143.709319,612.876398
1330.106549,7402.059420,-5921.647536,1225.752797
1330.106878,8142.265362,-5847.626942,1991.848295
1330.107207,8068.244768,-5847.626942,1608.800546
1330.107536,6809.894666,-6143.709319,1072.533697
1330.107865,5847.626942,-7254.018232,689.485948
1330.108194,5477.523971,-8216.285956,383.047749
1330.108523,5847.626942,-8068.244768,383.047749
1330.108852,7031.956449,-7624.121203,1685.410096
1330.109181,7105.977043,-7402.059420,1685.410096
1330.109510,7105.977043,-6439.791695,995.924147
1330.109839,7179.997637,-5995.668130,459.657299
1330.110168,7624.121203,-5255.462188,536.266849
1330.110497,7402.059420,-5551.544565,995.924147
1330.110826,7994.224174,-5551.544565,1072.533697
1330.111155,6957.935855,-5921.647536,995.924147
1330.111484,6735.874072,-6587.832884,1302.362347
1330.111814,6957.935855,-6513.812290,1455.581446
1330.112143,6809.894666,-6809.894666,1225.752797
1330.112472,6809.894666,-6809.894666,995.924147
1330.112801,6217.729913,-7031.956449,842.705048
1330.113130,5847.626942,-7698.141797,612.876398
1330.113459,5995.668130,-7328.038826,1532.190996
1330.113788,7031.956449,-6439.791695,1532.190996
1330.114117,7550.100608,-5995.668130,995.924147
1330.114446,7772.162391,-6143.709319,1532.190996
1330.114775,7550.100608,-6661.853478,1302.362347
1330.115104,7402.059420,-6661.853478,1762.019645
1330.115433,6143.709319,-6291.750507,919.314598
1330.115762,5847.626942,-7179.997637,689.485948
1330.116091,5921.647536,-7105.977043,536.266849
1330.116420,5847.626942,-7624.121203,612.876398
1330.116749,6513.812290,-7624.121203,995.924147
1330.117078,7031.956449,-7698.141797,1302.362347
1330.117408,7031.956449,-7254.018232,1072.533697
1330.117737,6957.935855,-6513.812290,1072.533697
1330.118066,7105.977043,-5181.441594,612.876398
1330.118395,8956.491898,-4959.379811,1225.752797
1330.118724,8512.368333,-4959.379811,1378.971896
1330.119053,8512.368333,-4737.318029,2145.067394
1330.119382,8216.285956,-5625.565159,1915.238745
1330.119711,7550.100608,-5477.523971,1838.629195
1330.120040,6587.832884,-6587.832884,689.485948
1330.120369,6069.688724,-6587.832884,919.314598
1330.120698,6735.874072,-6809.894666,1225.752797
1330.121027,7105.977043,-7402.059420,1532.190996
1330.121356,6439.791695,-6883.915261,1685.410096
1330.121685,6217.729913,-7254.018232,1302.362347
1330.122014,6809.894666,-6513.812290,153.219100
1330.122343,7105.977043,-6217.729913,383.047749
1330.122672,7179.997637,-6365.771101,842.705048
1330.123001,8068.244768,-6069.688724,1149.143247
1330.123331,7772.162391,-6291.750507,1455.581446
1330.123660,7402.059420,-6587.832884,1455.581446
1330.123989,7105.977043,-6735.874072,1225.752797
1330.124318,6217.729913,-7179.997637,766.095498
1330.124647,5255.462188,-8364.327145,153.219100
1330.124976,4811.338623,-9178.553681,76.609550
1330.125305,5255.462188,-8290.306550,383.047749
1330.125634,6143.709319,-8364.327145,689.485948
1330.125963,7328.038826,-7179.997637,1608.800546
1330.126292,7105.977043,-6143.709319,612.876398
1330.126621,7550.100608,-5033.400406,153.219100
1330.126950,7846.182985,-4515.256246,842.705048
1330.127279,8142.265362,-4737.318029,1378.971896
1330.127608,8290.306550,-5033.400406,1838.629195
1330.127937,7994.224174,-6069.688724,1838.629195
1330.128266,7402.059420,-6217.729913,1838.629195
1330.128595,7402.059420,-6291.750507,1225.752797
1330.128925,7105.977043,-5921.647536,1455.581446
1330.129254,6957.935855,-7105.977043,1072.533697
1330.129583,6661.853478,-7402.059420,612.876398
1330.129912,6217.729913,-7254.018232,1149.143247
1330.130241,6143.709319,-7105.977043,612.876398
1330.130570,5995.668130,-6143.709319,459.657299
1330.130899,6883.915261,-5403.503377,153.219100
1330.131228,7772.162391,-5995.668130,689.485948
1330.131557,8438.347739,-6365.771101,1455.581446
1330.131886,8216.285956,-6143.709319,2681.334243
1330.132215,7624.121203,-6439.791695,1532.190996
1330.132544,6957.935855,-5847.626942,536.266849
1330.132873,6291.750507,-6809.894666,689.485948
1330.133202,5921.647536,-8216.285956,536.266849
1330.133531,6143.709319,-8512.368333,919.314598
1330.133860,5847.626942,-8956.491898,919.314598
1330.134189,5921.647536,-8512.368333,995.924147
1330.134518,6143.709319,-6143.709319,612.876398
1330.134848,6809.894666,-5255.462188,536.266849
1330.135177,7179.997637,-5329.482782,689.485948
1330.135506,7772.162391,-4737.318029,842.705048
1330.135835,8438.347739,-4811.338623,919.314598
1330.136164,7920.203579,-5477.523971,1915.238745
1330.136493,7698.141797,-6143.709319,1762.019645
1330.136822,7179.997637,-6069.688724,919.314598
1330.137151,6587.832884,-6957.935855,995.924147
1330.137480,6661.853478,-7624.121203,1072.533697
1330.137809,7105.977043,-7920.203579,1532.190996
1330.138138,6439.791695,-7550.100608,1455.581446
1330.138467,6513.812290,-7402.059420,689.485948
1330.138796,6291.750507,-6291.750507,153.219100
1330.139125,6143.709319,-5921.647536,536.266849
1330.139454,7254.018232,-6143.709319,1378.971896
1330.139783,7772.162391,-4737.318029,1072.533697
1330.140112,8364.327145,-4885.359217,1455.581446
1330.140442,8512.368333,-5995.668130,1991.848295
1330.140771,7846.182985,-5921.647536,1915.238745
1330.141100,7031.956449,-6291.750507,1378.971896
1330.141429,5699.585753,-7105.977043,459.657299
1330.141758,5403.503377,-8142.265362,0.000000
1330.142087,5403.503377,-9400.615463,766.095498
1330.142416,5699.585753,-8808.450710,1838.629195
1330.142745,6513.812290,-8142.265362,919.314598
1330.143074,6365.771101,-6217.729913,229.828649
1330.143403,6735.874072,-5551.544565,536.266849
1330.143732,7254.018232,-5477.523971,1072.533697
1330.144061,7254.018232,-4885.359217,1302.362347
1330.144390,6957.935855,-5477.523971,1072.533697
1330.144719,7254.018232,-5995.668130,1225.752797
1330.145048,7550.100608,-6143.709319,1149.143247
1330.145377,7772.162391,-5773.606348,1532.190996
1330.145706,8068.244768,-6365.771101,1149.143247
1330.146035,7402.059420,-6883.915261,1532.190996
1330.146365,7031.956449,-7624.121203,1149.143247
1330.146694,6217.729913,-7698.141797,919.314598
1330.147023,5995.668130,-6143.709319,1302.362347
1330.147352,6809.894666,-5477.523971,383.047749
1330.147681,7031.956449,-6069.688724,766.095498
1330.148010,7550.100608,-6069.688724,1608.800546
1330.148339,8660.409521,-5921.647536,2374.896044
1330.148668,8808.450710,-5477.523971,2374.896044
1330.148997,7402.059420,-4959.379811,1225.752797
1330.149326,5625.565159,-6513.812290,306.438199
1330.149655,4885.359217,-7994.224174,306.438199
1330.149984,4959.379811,-8068.244768,919.314598
1330.150313,5625.565159,-9474.636058,995.924147
1330.150642,6439.791695,-9252.574275,1915.238745
1330.150971,6143.709319,-8290.306550,1302.362347
1330.151300,6513.812290,-6439.791695,306.438199
1330.151629,6661.853478,-5329.482782,612.876398
1330.151959,6513.812290,-5403.503377,153.219100
1330.152288,7920.203579,-5403.503377,1149.143247
1330.152617,8216.285956,-5329.482782,2145.067394
1330.152946,8438.347739,-5477.523971,1991.848295
1330.153275,8142.265362,-4811.338623,1378.971896
1330.153604,6809.894666,-6439.791695,1072.533697
1330.153933,6365.771101,-6957.935855,842.705048
1330.154262,7105.977043,-6661.853478,995.924147
1330.154591,6587.832884,-7179.997637,1072.533697
1330.154920,6365.771101,-7624.121203,1072.533697
1330.155249,6365.771101,-6735.874072,766.095498
1330.155578,7105.977043,-6143.709319,689.485948
1330.155907,7772.162391,-5921.647536,0.000000
1330.156236,8068.244768,-4515.256246,1532.190996
1330.156565,8512.368333,-5477.523971,1455.581446
1330.156894,8290.306550,-6143.709319,1991.848295
1330.157223,7179.997637,-6587.832884,1762.019645
1330.157553,5921.647536,-6513.812290,153.219100
1330.157882,5551.544565,-7031.956449,995.924147
1330.158211,4663.297435,-8734.430116,842.705048
1330.158540,4885.359217,-8956.491898,536.266849
1330.158869,5847.626942,-8808.450710,1225.752797
1330.159198,6587.832884,-8586.388927,1685.410096
1330.159527,6883.915261,-7105.977043,919.314598
1330.159856,7031.956449,-5699.585753,995.924147
1330.160185,7402.059420,-4737.318029,306.438199
1330.160514,8438.347739,-4737.318029,919.314598
1330.160843,8290.306550,-4515.256246,1072.533697
1330.161172,8512.368333,-5551.544565,1302.362347
1330.161501,8660.409521,-5847.626942,1838.629195
1330.161830,7920.203579,-5699.585753,995.924147
1330.162159,6587.832884,-5995.668130,1762.019645
1330.162488,6365.771101,-6883.915261,1149.143247
1330.162817,6513.812290,-7846.182985,1149.143247
1330.163146,6143.709319,-8068.244768,1149.143247
1330.163476,5921.647536,-7328.038826,1072.533697
1330.163805,6143.709319,-5699.585753,995.924147
1330.164134,7550.100608,-5921.647536,1072.533697
1330.164463,8290.306550,-5921.647536,1532.190996
1330.164792,8364.327145,-5551.544565,1685.410096
1330.165121,8512.368333,-5329.482782,1762.019645
1330.165450,7994.224174,-4885.359217,1838.629195
1330.165779,7328.038826,-6365.771101,1072.533697
1330.166108,5847.626942,-7328.038826,1149.143247
1330.166437,4737.318029,-8068.244768,76.609550
1330.166766,4811.338623,-8512.368333,229.828649
1330.167095,5033.400406,-9104.533087,919.314598
1330.167424,5625.565159,-9030.512492,1149.143247
1330.167753,6661.853478,-8068.244768,919.314598
1330.168082,6661.853478,-6439.791695,536.266849
1330.168411,7179.997637,-5477.523971,459.657299
1330.168740,7698.141797,-5477.523971,612.876398
1330.169070,8364.327145,-4737.318029,1378.971896
1330.169399,8586.388927,-5329.482782,1608.800546
1330.169728,9474.636058,-5181.441594,2068.457845
1330.170057,8364.327145,-5847.626942,1915.238745
1330.170386,7698.141797,-5625.565159,1762.019645
1330.170715,7105.977043,-5995.668130,1149.143247
1330.171044,6365.771101,-6069.688724,612.876398
1330.171373,5477.523971,-7402.059420,842.705048
1330.171702,5181.441594,-7402.059420,306.438199
1330.172031,6069.688724,-7105.977043,229.828649
1330.172360,6513.812290,-7031.956449,229.828649
1330.172689,7105.977043,-7031.956449,1608.800546
1330.173018,7624.121203,-5995.668130,1072.533697
1330.173347,7179.997637,-6513.812290,1302.362347
1330.173676,7105.977043,-6291.750507,1149.143247
1330.174005,6883.915261,-6809.894666,919.314598
1330.174334,7328.038826,-5995.668130,1072.533697
1330.174663,6957.935855,-7031.956449,1149.143247
1330.174993,6513.812290,-8956.491898,842.705048
1330.175322,5847.626942,-7846.182985,612.876398
1330.175651,5551.544565,-8734.430116,919.314598
1330.175980,5921.647536,-8068.244768,1072.533697
1330.176309,6513.812290,-5329.482782,229.828649
1330.176638,7179.997637,-5699.585753,229.828649
1330.176967,7772.162391,-4885.359217,766.095498
1330.177296,8142.265362,-5255.462188,1149.143247
1330.177625,8142.265362,-5477.523971,1378.971896
1330.177954,7624.121203,-5699.585753,919.314598
1330.178283,7105.977043,-5551.544565,1149.143247
1330.178612,7105.977043,-6217.729913,766.095498
1330.178941,7105.977043,-7031.956449,1378.971896
1330.179270,7846.182985,-6439.791695,1838.629195
1330.179599,7550.100608,-6735.874072,1838.629195
1330.179928,7328.038826,-6439.791695,1378.971896
1330.180257,7402.059420,-6069.688724,1149.143247
1330.180587,6735.874072,-6069.688724,229.828649
1330.180916,6957.935855,-6069.688724,842.705048
1330.181245,7476.080014,-6291.750507,1072.533697
1330.181574,7920.203579,-6291.750507,1302.362347
1330.181903,7920.203579,-5921.647536,1532.190996
1330.182232,7254.018232,-6661.853478,842.705048
1330.182561,6291.750507,-6735.874072,689.485948
1330.182890,5847.626942,-7402.059420,536.266849
1330.183219,5847.626942,-7920.203579,306.438199
1330.183548,5847.626942,-7846.182985,536.266849
1330.183877,6143.709319,-8364.327145,766.095498
1330.184206,5921.647536,-8586.388927,1302.362347
1330.184535,6513.812290,-7402.059420,1302.362347
1330.184864,7624.121203,-6217.729913,842.705048
1330.185193,8290.306550,-5033.400406,995.924147
1330.185522,7920.203579,-4737.318029,1302.362347
1330.185851,7550.100608,-5329.482782,1455.581446
1330.186180,7254.018232,-5995.668130,1225.752797
1330.186510,6735.874072,-5995.668130,1378.971896
1330.186839,6735.874072,-6587.832884,1149.143247
1330.187168,6291.750507,-6883.915261,919.314598
1330.187497,6439.791695,-7105.977043,842.705048
1330.187826,6365.771101,-7624.121203,766.095498
1330.188155,6217.729913,-7254.018232,995.924147
1330.188484,6217.729913,-7254.018232,612.876398
1330.188813,6957.935855,-6143.709319,842.705048
1330.189142,7105.977043,-5699.585753,536.266849
1330.189471,7698.141797,-6365.771101,1072.533697
1330.189800,8216.285956,-5847.626942,1762.019645
1330.190129,8734.430116,-5551.544565,1685.410096
1330.190458,8438.347739,-5773.606348,1532.190996
1330.190787,7550.100608,-5329.482782,2068.457845
1330.191116,7179.997637,-5995.668130,0.000000
1330.191445,5847.626942,-7105.977043,383.047749
1330.191774,5255.462188,-8142.265362,766.095498
1330.192104,6143.709319,-8734.430116,689.485948
1330.192433,6661.853478,-7846.182985,1225.752797
1330.192762,5625.565159,-7698.141797,689.485948
1330.193091,5551.544565,-7105.977043,-229.828649
1330.193420,6365.771101,-6661.853478,76.609550
1330.193749,7105.977043,-6661.853478,1149.143247
1330.194078,7994.224174,-5921.647536,1455.581446
1330.194407,8216.285956,-6217.729913,1532.190996
1330.194736,7698.141797,-5995.668130,1149.143247
1330.195065,7031.956449,-6291.750507,1225.752797
1330.195394,6661.853478,-5995.668130,1302.362347
1330.195723,7031.956449,-6291.750507,1072.533697
1330.196052,6809.894666,-7402.059420,1225.752797
1330.196381,7031.956449,-6809.894666,1532.190996
1330.196710,6809.894666,-6957.935855,1149.143247
1330.197039,7254.018232,-6365.771101,1072.533697
1330.197368,7031.956449,-5107.421000,612.876398
1330.197697,7550.100608,-5181.441594,766.095498
1330.198027,7994.224174,-5107.421000,995.924147
1330.198356,8216.285956,-5477.523971,995.924147
1330.198685,7846.182985,-6365.771101,1915.238745
1330.199014,7698.141797,-6587.832884,1685.410096
1330.199343,7105.977043,-6439.791695,1072.533697
1330.199672,5847.626942,-7254.018232,919.314598
1330.200001,5255.462188,-7920.203579,689.485948
1330.200330,5329.482782,-8660.409521,536.266849
1330.200659,5551.544565,-9104.533087,1225.752797
1330.200988,6069.688724,-7550.100608,1608.800546
1330.201317,6217.729913,-5773.606348,612.876398
1330.201646,7105.977043,-5329.482782,459.657299
1330.201975,7402.059420,-5699.585753,1225.752797
1330.202304,7624.121203,-5699.585753,1225.752797
1330.202629,7624.121203,-5329.482782,1072.533697
1330.202958,7179.997637,-6291.750507,1608.800546
1330.203287,6809.894666,-7105.977043,995.924147
1330.203616,6735.874072,-6661.853478,536.266849
1330.203945,6735.874072,-7105.977043,1149.143247
1330.204275,6957.935855,-6883.915261,842.705048
1330.204604,7550.100608,-7624.121203,1532.190996
1330.204933,6809.894666,-7772.162391,1149.143247
1330.205262,6513.812290,-6957.935855,842.705048
1330.205591,6883.915261,-5773.606348,612.876398
1330.205920,8068.244768,-5551.544565,1685.410096
1330.206250,8364.327145,-5181.441594,1762.019645
1330.206579,9178.553681,-4293.194464,2145.067394
1330.206908,9104.533087,-4885.359217,2145.067394
1330.207237,7994.224174,-5625.565159,1532.190996
1330.207566,6217.729913,-5699.585753,1072.533697
1330.207896,5033.400406,-7179.997637,229.828649
1330.208225,5107.421000,-7772.162391,229.828649
1330.208554,5551.544565,-8364.327145,459.657299
1330.208883,5625.565159,-9030.512492,919.314598
1330.209212,5847.626942,-8438.347739,1608.800546
1330.209541,6587.832884,-7031.956449,842.705048
1330.209871,6439.791695,-6291.750507,766.095498
1330.210200,6661.853478,-5995.668130,766.095498
1330.210529,7105.977043,-5403.503377,766.095498
1330.210858,7624.121203,-5255.462188,842.705048
1330.211187,7698.141797,-6217.729913,1302.362347
1330.211517,8068.244768,-6439.791695,1915.238745
1330.211846,7624.121203,-6217.729913,1455.581446
1330.212175,6957.935855,-6661.853478,459.657299
1330.212504,6365.771101,-6809.894666,689.485948
1330.212833,6439.791695,-7846.182985,612.876398
1330.213162,6513.812290,-7550.100608,1149.143247
1330.213492,6143.709319,-5995.668130,842.705048
1330.213821,5995.668130,-7105.977043,0.000000
1330.214150,7105.977043,-5921.647536,459.657299
1330.214479,8068.244768,-6069.688724,1455.581446
1330.214808,8290.306550,-6069.688724,2068.457845
1330.215138,8438.347739,-5773.606348,2068.457845
1330.215467,7402.059420,-5847.626942,1225.752797
1330.215796,6587.832884,-5847.626942,919.314598
1330.216125,5921.647536,-7031.956449,612.876398
1330.216454,6143.709319,-7254.018232,1149.143247
1330.216783,6587.832884,-7624.121203,1072.533697
1330.217113,6439.791695,-7550.100608,995.924147
1330.217442,6513.812290,-7624.121203,1455.581446
1330.217771,7254.018232,-7105.977043,919.314598
1330.218100,7476.080014,-6069.688724,766.095498
1330.218429,7105.977043,-5625.565159,459.657299
1330.218759,7105.977043,-5773.606348,612.876398
1330.219088,7328.038826,-5995.668130,536.266849
1330.219417,6957.935855,-7179.997637,1225.752797
1330.219746,7031.956449,-7031.956449,1149.143247
1330.220075,7624.121203,-6661.853478,1302.362347
1330.220405,6883.915261,-7105.977043,1455.581446
1330.220734,6735.874072,-7328.038826,1072.533697
1330.221063,7179.997637,-6365.771101,1762.019645
1330.221392,6957.935855,-7328.038826,919.314598
1330.221721,6069.688724,-7254.018232,1685.410096
1330.222050,6587.832884,-5699.585753,842.705048
1330.222380,6809.894666,-5699.585753,153.219100
1330.222709,7402.059420,-5403.503377,612.876398
1330.223038,7698.141797,-5477.523971,1608.800546
1330.223367,8882.471304,-5181.441594,1915.238745
1330.223696,8586.388927,-5107.421000,1608.800546
1330.224026,7624.121203,-5921.647536,1455.581446
1330.224355,6883.915261,-6661.853478,536.266849
1330.224684,5699.585753,-7772.162391,689.485948
1330.225013,5255.462188,-8882.471304,229.828649
1330.225342,5551.544565,-8808.450710,766.095498
1330.225671,5329.482782,-8290.306550,1532.190996
1330.226001,6069.688724,-7105.977043,919.314598
1330.226330,6661.853478,-5773.606348,689.485948
1330.226659,7550.100608,-5107.421000,306.438199
1330.226988,7698.141797,-4959.379811,536.266849
1330.227317,7772.162391,-4515.256246,1302.362347
1330.227647,7920.203579,-5255.462188,1072.533697
1330.227976,7846.182985,-6143.709319,1072.533697
1330.228305,7179.997637,-6957.935855,1838.629195
1330.228634,7476.080014,-6957.935855,1072.533697
1330.228963,6883.915261,-7031.956449,1072.533697
1330.229292,6513.812290,-6883.915261,995.924147
1330.229622,6365.771101,-7476.080014,919.314598
1330.229951,6217.729913,-7402.059420,1378.971896
1330.230280,6809.894666,-6661.853478,1608.800546
1330.230609,7105.977043,-6439.791695,536.266849
1330.230938,7105.977043,-5107.421000,1302.362347
1330.231268,7698.141797,-5181.441594,1072.533697
1330.231597,8290.306550,-5181.441594,1532.190996
1330.231926,9030.512492,-5107.421000,1608.800546
1330.232255,7994.224174,-6069.688724,1455.581446
1330.232584,7624.121203,-6069.688724,1149.143247
1330.232913,6587.832884,-6587.832884,689.485948
1330.233243,5921.647536,-7920.203579,766.095498
1330.233572,5921.647536,-8364.327145,995.924147
1330.233901,5847.626942,-8364.327145,1225.752797
1330.234230,6365.771101,-7994.224174,995.924147
1330.234559,6365.771101,-6439.791695,536.266849
1330.234889,7031.956449,-5699.585753,919.314598
1330.235218,7031.956449,-5255.462188,459.657299
1330.235547,7031.956449,-6069.688724,919.314598
1330.235876,7328.038826,-6069.688724,1762.019645
1330.236205,7328.038826,-6883.915261,1915.238745
1330.236534,6809.894666,-7031.956449,1149.143247
1330.236864,6069.688724,-7698.141797,919.314598
1330.237193,5773.606348,-8068.244768,1225.752797
1330.237522,6217.729913,-7328.038826,689.485948
1330.237851,6883.915261,-7476.080014,919.314598
1330.238180,6957.935855,-7402.059420,1762.019645
1330.238510,7105.977043,-6809.894666,1072.533697
1330.238839,6883.915261,-5773.606348,383.047749
1330.239168,7179.997637,-4515.256246,1225.752797
1330.239497,7994.224174,-4959.379811,766.095498
1330.239826,8438.347739,-4737.318029,1608.800546
1330.240155,8216.285956,-5329.482782,2221.676944
1330.240485,7624.121203,-5921.647536,1378.971896
1330.240814,7105.977043,-5107.421000,1378.971896
1330.241143,6143.709319,-6957.935855,995.924147
1330.241472,5995.668130,-7994.224174,383.047749
1330.241801,5625.565159,-8586.388927,766.095498
1330.242131,5625.565159,-9474.636058,1302.362347
1330.242460,6439.791695,-8068.244768,842.705048
1330.242789,6883.915261,-6883.915261,1455.581446
1330.243118,7772.162391,-5107.421000,766.095498
1330.243447,7698.141797,-4737.318029,459.657299
1330.243776,7624.121203,-4441.235652,1225.752797
1330.244106,7698.141797,-4959.379811,1149.143247
1330.244435,7920.203579,-5625.565159,1915.238745
1330.244764,7624.121203,-5995.668130,1685.410096
1330.245093,7105.977043,-6365.771101,1149.143247
1330.245422,6957.935855,-6957.935855,1302.362347
1330.245752,6513.812290,-7328.038826,995.924147
1330.246081,6069.688724,-8216.285956,459.657299
1330.246410,5551.544565,-8216.285956,766.095498
1330.246739,5255.462188,-7846.182985,766.095498
1330.247068,6069.688724,-7105.977043,536.266849
1330.247397,6661.853478,-6439.791695,612.876398
1330.247727,7624.121203,-5995.668130,1225.752797
1330.248056,8882.471304,-5181.441594,1762.019645
1330.248385,9548.656652,-4293.194464,2681.334243
1330.248714,8882.471304,-5107.421000,1762.019645
1330.249043,8142.265362,-5107.421000,1302.362347
1330.249373,6957.935855,-5847.626942,842.705048
1330.249702,6439.791695,-7402.059420,536.266849
1330.250031,6143.709319,-7846.182985,1225.752797
1330.250360,5995.668130,-8438.347739,766.095498
1330.250689,6069.688724,-8808.450710,1378.971896
1330.251018,5921.647536,-7179.997637,1225.752797
1330.251348,6513.812290,-6439.791695,383.047749
1330.251677,6883.915261,-5477.523971,153.219100
1330.252006,7105.977043,-4885.359217,1149.143247
1330.252335,7698.141797,-5329.482782,1072.533697
1330.252664,8068.244768,-5921.647536,1915.238745
1330.252994,7920.203579,-5921.647536,2221.676944
1330.253323,7698.141797,-5995.668130,1455.581446
1330.253652,6957.935855,-6439.791695,995.924147
1330.253981,6809.894666,-6957.935855,1378.971896
1330.254310,7105.977043,-6513.812290,612.876398
1330.254639,6439.791695,-7031.956449,995.924147
1330.254969,6069.688724,-7328.038826,612.876398
1330.255298,5995.668130,-7328.038826,536.266849
1330.255627,5847.626942,-6587.832884,-306.438199
1330.255956,6217.729913,-6365.771101,-306.438199
1330.256285,7328.038826,-7105.977043,1532.190996
1330.256615,8290.306550,-5995.668130,1762.019645
1330.256944,7994.224174,-6143.709319,1608.800546
1330.257273,7920.203579,-5699.585753,2221.676944
1330.257602,7402.059420,-5699.585753,1302.362347
1330.257931,6217.729913,-6661.853478,919.314598
1330.258260,6291.750507,-6883.915261,1302.362347
1330.258590,5921.647536,-7550.100608,842.705048
1330.258919,6661.853478,-7994.224174,1149.143247
1330.259248,6513.812290,-7698.141797,1838.629195
1330.259577,6439.791695,-6587.832884,766.095498
1330.259906,6439.791695,-5921.647536,229.828649
1330.260236,6439.791695,-4959.379811,459.657299
1330.260565,6513.812290,-5107.421000,766.095498
1330.260894,7031.956449,-6365.771101,1378.971896
1330.261223,7402.059420,-7179.997637,1608.800546
1330.261552,7402.059420,-7402.059420,1225.752797
1330.261881,7105.977043,-6661.853478,919.314598
1330.262211,6957.935855,-6957.935855,842.705048
1330.262540,7105.977043,-7550.100608,766.095498
1330.262869,6883.915261,-8068.244768,1302.362347
1330.263198,6365.771101,-8068.244768,919.314598
1330.263527,6735.874072,-5995.668130,995.924147
1330.263857,6957.935855,-6513.812290,383.047749
1330.264186,7031.956449,-6069.688724,766.095498
1330.264515,8290.306550,-4885.359217,1608.800546
1330.264844,9400.615463,-4663.297435,2068.457845
1330.265173,8660.409521,-4589.276840,1149.143247
1330.265503,7624.121203,-5255.462188,1532.190996
1330.265832,6587.832884,-6587.832884,919.314598
1330.266161,5699.585753,-7105.977043,76.609550
1330.266490,5181.441594,-8438.347739,1072.533697
1330.266819,5477.523971,-8586.388927,612.876398
1330.267148,6217.729913,-8660.409521,1225.752797
1330.267478,7105.977043,-7476.080014,1455.581446
1330.267807,7254.018232,-5921.647536,995.924147
1330.268136,7254.018232,-5329.482782,766.095498
1330.268465,7476.080014,-4737.318029,459.657299
1330.268794,7772.162391,-5625.565159,842.705048
1330.269124,7994.224174,-4959.379811,1378.971896
1330.269453,8068.244768,-5699.585753,1762.019645
1330.269782,7698.141797,-6143.709319,766.095498
1330.270111,7105.977043,-6069.688724,995.924147
1330.270440,6587.832884,-6883.915261,536.266849
1330.270769,6291.750507,-7698.141797,689.485948
1330.271099,6439.791695,-7476.080014,459.657299
1330.271428,6143.709319,-7920.203579,766.095498
1330.271757,6513.812290,-7476.080014,1072.533697
1330.272086,7105.977043,-6439.791695,1072.533697
1330.272415,7328.038826,-5847.626942,689.485948
1330.272745,7550.100608,-5255.462188,1302.362347
1330.273074,7772.162391,-4811.338623,1149.143247
1330.273403,7624.121203,-5107.421000,1149.143247
1330.273732,7550.100608,-5699.585753,1455.581446
1330.274061,7624.121203,-6069.688724,1608.800546
1330.274390,6587.832884,-7031.956449,459.657299
1330.274720,5921.647536,-7698.141797,1149.143247
1330.275049,6069.688724,-8808.450710,842.705048
1330.275378,5625.565159,-8956.491898,842.705048
1330.275707,4959.379811,-8734.430116,919.314598
1330.276036,6143.709319,-8290.306550,842.705048
1330.276366,7105.977043,-5995.668130,536.266849
1330.276695,7476.080014,-4811.338623,612.876398
1330.277024,8068.244768,-4737.318029,1149.143247
1330.277353,7476.080014,-5033.400406,1455.581446
1330.277682,6883.915261,-5625.565159,995.924147
1330.278011,6587.832884,-6291.750507,689.485948
1330.278341,6513.812290,-6217.729913,1072.533697
1330.278670,6587.832884,-7031.956449,1455.581446
1330.278999,7179.997637,-7105.977043,1762.019645
1330.279328,7254.018232,-7179.997637,1685.410096
1330.279657,7105.977043,-7254.018232,1378.971896
1330.279987,6587.832884,-7105.977043,1149.143247
1330.280316,5699.585753,-6735.874072,919.314598
1330.280645,5847.626942,-6291.750507,536.266849
1330.280974,7254.018232,-5995.668130,1072.533697
1330.281303,8142.265362,-5329.482782,1455.581446
1330.281632,8808.450710,-4885.359217,1838.629195
1330.281962,8586.388927,-5847.626942,2298.286494
1330.282291,7698.141797,-5625.565159,1455.581446
1330.282620,5847.626942,-6513.812290,229.828649
1330.282949,5107.421000,-6809.894666,612.876398
1330.283278,5699.585753,-8586.388927,0.000000
1330.283608,5255.462188,-8956.491898,842.705048
1330.283937,6143.709319,-9474.636058,1378.971896
1330.284266,6661.853478,-8586.388927,995.924147
1330.284595,6957.935855,-6143.709319,919.314598
1330.284924,6957.935855,-5329.482782,383.047749
1330.285253,7994.224174,-4959.379811,919.314598
1330.285583,8438.347739,-4441.235652,1455.581446
1330.285912,8290.306550,-4589.276840,1072.533697
1330.286241,7994.224174,-4071.132681,1762.019645
1330.286570,7624.121203,-5847.626942,1608.800546
1330.286899,7105.977043,-6439.791695,1532.190996
1330.287229,6809.894666,-6661.853478,919.314598
1330.287558,6587.832884,-7031.956449,1149.143247
1330.287887,5921.647536,-7550.100608,1455.581446
1330.288216,5625.565159,-8068.244768,612.876398
1330.288545,5847.626942,-7105.977043,919.314598
1330.288874,6439.791695,-7105.977043,536.266849
1330.289204,7402.059420,-6513.812290,1149.143247
1330.289533,7328.038826,-6069.688724,1149.143247
1330.289862,7846.182985,-6365.771101,1149.143247
1330.290191,7920.203579,-5477.523971,1532.190996
1330.290520,7846.182985,-5773.606348,1072.533697
1330.290850,7476.080014,-5773.606348,842.705048
1330.291179,5995.668130,-6291.750507,459.657299
1330.291508,5551.544565,-7624.121203,229.828649
1330.291837,5921.647536,-8290.306550,689.485948
1330.292166,6661.853478,-8512.368333,1608.800546
1330.292495,7105.977043,-7698.141797,1149.143247
1330.292825,7476.080014,-6513.812290,1149.143247
1330.293154,7476.080014,-5403.503377,459.657299
1330.293483,7994.224174,-5107.421000,689.485948
1330.293812,8438.347739,-5477.523971,1762.019645
1330.294141,8290.306550,-5033.400406,1685.410096
1330.294471,7328.038826,-5699.585753,1149.143247
1330.294800,7105.977043,-5625.565159,1072.533697
1330.295129,7105.977043,-6513.812290,1072.533697
1330.295458,7254.018232,-7105.977043,1455.581446
1330.295787,6957.935855,-6291.750507,1149.143247
1330.296116,6809.894666,-7550.100608,919.314598
1330.296446,6439.791695,-7105.977043,1225.752797
1330.296775,5699.585753,-7550.100608,1378.971896
1330.297104,6143.709319,-7328.038826,536.266849
1330.297433,6439.791695,-6217.729913,229.828649
1330.297762,7031.956449,-6587.832884,229.828649
1330.298092,7994.224174,-6069.688724,1302.362347
1330.298421,7994.224174,-5921.647536,2221.676944
1330.298750,8290.306550,-6661.853478,1608.800546
1330.299079,7179.997637,-6365.771101,1225.752797
1330.299408,6217.729913,-6735.874072,459.657299
1330.299737,5255.462188,-7105.977043,-229.828649
1330.300067,4959.379811,-7994.224174,383.047749
1330.300396,5403.503377,-8438.347739,689.485948
1330.300725,6143.709319,-8068.244768,1532.190996
1330.301054,6957.935855,-7179.997637,1532.190996
1330.301383,7772.162391,-5625.565159,919.314598
1330.301713,7624.121203,-5181.441594,689.485948
1330.302042,7031.956449,-4737.318029,689.485948
1330.302371,7105.977043,-5255.462188,919.314598
1330.302700,7624.121203,-5403.503377,2068.457845
1330.303029,8290.306550,-6069.688724,1762.019645
1330.303358,8290.306550,-6143.709319,1838.629195
1330.303688,7846.182985,-5995.668130,1685.410096
1330.304017,7254.018232,-6587.832884,1532.190996
1330.304346,7105.977043,-6883.915261,766.095498
1330.304675,6217.729913,-7031.956449,1378.971896
1330.305004,5551.544565,-7698.141797,919.314598
1330.305334,5181.441594,-7624.121203,0.000000
1330.305663,5033.400406,-6439.791695,76.609550
1330.305992,5921.647536,-7328.038826,842.705048
1330.306321,7772.162391,-6883.915261,1608.800546
1330.306650,8142.265362,-6069.688724,1838.629195
1330.306980,7920.203579,-5921.647536,1225.752797
1330.307309,7624.121203,-5551.544565,1072.533697
1330.307638,7031.956449,-6217.729913,459.657299
1330.307967,5847.626942,-7328.038826,459.657299
1330.308296,5477.523971,-7698.141797,536.266849
1330.308626,6143.709319,-8216.285956,766.095498
1330.308955,7031.956449,-7772.162391,1685.410096
1330.309284,7105.977043,-7402.059420,1685.410096
1330.309613,7031.956449,-5921.647536,766.095498
1330.309943,6957.935855,-4293.194464,383.047749
1330.310272,6809.894666,-4663.297435,766.095498
1330.310601,7772.162391,-5107.421000,766.095498
1330.310930,7772.162391,-5847.626942,1762.019645
1330.311259,7624.121203,-6217.729913,2068.457845
1330.311589,7402.059420,-6143.709319,1378.971896
1330.311918,7328.038826,-5847.626942,1915.238745
1330.312247,7550.100608,-6513.812290,1455.581446
1330.312576,7698.141797,-6587.832884,1302.362347
1330.312905,6957.935855,-6883.915261,1225.752797
1330.313235,6587.832884,-7402.059420,1149.143247
1330.313564,6143.709319,-7624.121203,229.828649
1330.313893,6439.791695,-6661.853478,612.876398
1330.314222,7031.956449,-6809.894666,229.828649
1330.314551,7550.100608,-6291.750507,1302.362347
1330.314881,7846.182985,-5995.668130,1762.019645
1330.315210,8068.244768,-6217.729913,1608.800546
1330.315539,7698.141797,-6513.812290,1378.971896
1330.315868,6661.853478,-6957.935855,459.657299
1330.316197,5847.626942,-7105.977043,229.828649
1330.316527,5403.503377,-8068.244768,306.438199
1330.316856,5477.523971,-8290.306550,383.047749
1330.317185,6365.771101,-8734.430116,1685.410096
1330.317514,7105.977043,-8068.244768,1915.238745
1330.317843,7105.977043,-5403.503377,689.485948
1330.318173,6809.894666,-5625.565159,459.657299
1330.318502,6957.935855,-4959.379811,536.266849
1330.318831,7402.059420,-5329.482782,536.266849
1330.319160,7402.059420,-5107.421000,842.705048
1330.319489,7550.100608,-5773.606348,1378.971896
1330.319819,7994.224174,-7105.977043,1455.581446
1330.320148,8142.265362,-5921.647536,1685.410096
1330.320477,7402.059420,-6587.832884,1072.533697
1330.320806,7624.121203,-5921.647536,1302.362347
1330.321135,7031.956449,-6883.915261,536.266849
1330.321465,6513.812290,-7254.018232,536.266849
1330.321794,6365.771101,-7254.018232,766.095498
1330.322123,6439.791695,-7179.997637,842.705048
1330.322452,6809.894666,-5995.668130,1072.533697
1330.322781,7105.977043,-5921.647536,1072.533697
1330.323111,8142.265362,-5551.544565,1455.581446
1330.323440,8438.347739,-5551.544565,1532.190996
1330.323769,7846.182985,-5699.585753,1455.581446
1330.324098,6735.874072,-6217.729913,1225.752797
1330.324427,5847.626942,-7031.956449,229.828649
1330.324757,5255.462188,-7476.080014,536.266849
1330.325086,5699.585753,-8956.491898,1072.533697
1330.325415,6291.750507,-9474.636058,2298.286494
1330.325744,6883.915261,-7846.182985,1838.629195
1330.326073,6439.791695,-6661.853478,459.657299
1330.326403,6217.729913,-5477.523971,229.828649
1330.326732,6143.709319,-5921.647536,229.828649
1330.327061,7105.977043,-5255.462188,306.438199
1330.327390,7402.059420,-5033.400406,1149.143247
1330.327720,7994.224174,-5625.565159,1685.410096
1330.328049,8734.430116,-5847.626942,2145.067394
1330.328378,8438.347739,-5847.626942,1915.238745
1330.328707,7476.080014,-5699.585753,1302.362347
1330.329036,6957.935855,-6143.709319,919.314598
1330.329366,6883.915261,-6883.915261,842.705048
1330.329695,6735.874072,-7402.059420,995.924147
1330.330024,6365.771101,-7550.100608,1762.019645
1330.330353,6439.791695,-7031.956449,842.705048
1330.330682,6809.894666,-6069.688724,689.485948
1330.331012,6883.915261,-5995.668130,919.314598
1330.331341,7328.038826,-5699.585753,1225.752797
1330.331670,7624.121203,-5625.565159,1072.533697
1330.331999,6957.935855,-6365.771101,1685.410096
1330.332328,6365.771101,-6291.750507,842.705048
1330.332658,6143.709319,-6957.935855,842.705048
1330.332987,5847.626942,-7772.162391,1378.971896
1330.333316,5403.503377,-8364.327145,766.095498
1330.333645,5847.626942,-9030.512492,1532.190996
1330.333974,6365.771101,-8068.244768,919.314598
1330.334304,6217.729913,-7920.203579,919.314598
1330.334633,6439.791695,-5921.647536,842.705048
1330.334962,7105.977043,-5033.400406,229.828649
1330.335291,7550.100608,-5329.482782,766.095498
1330.335620,7920.203579,-5107.421000,1225.752797
1330.335950,8068.244768,-5773.606348,995.924147
1330.336279,8216.285956,-6957.935855,1838.629195
1330.336608,8216.285956,-5847.626942,1991.848295
1330.336937,7772.162391,-6513.812290,1302.362347
1330.337266,7772.162391,-5995.668130,1149.143247
1330.337596,7254.018232,-6661.853478,2298.286494
1330.337925,7105.977043,-7328.038826,1455.581446
1330.338254,6143.709319,-6957.935855,1225.752797
1330.338583,5625.565159,-7105.977043,536.266849
1330.338912,6365.771101,-5699.585753,536.266849
1330.339242,7105.977043,-5625.565159,689.485948
1330.339571,7920.203579,-6069.688724,1225.752797
1330.339900,7920.203579,-5477.523971,1072.533697
1330.340229,7328.038826,-5773.606348,1378.971896
1330.340558,7254.018232,-5921.647536,1149.143247
1330.340888,6809.894666,-7105.977043,1072.533697
1330.341217,6587.832884,-8216.285956,919.314598
1330.341546,6217.729913,-8882.471304,766.095498
1330.341875,5921.647536,-9104.533087,1225.752797
1330.342204,5773.606348,-8364.327145,919.314598
1330.342534,5625.565159,-7994.224174,612.876398
1330.342863,6439.791695,-7328.038826,766.095498
1330.343192,6069.688724,-6069.688724,76.609550
1330.343521,6217.729913,-4959.379811,-459.657299
1330.343850,7179.997637,-4589.276840,612.876398
1330.344180,7846.182985,-4959.379811,1225.752797
1330.344509,7994.224174,-5921.647536,1685.410096
1330.344838,7846.182985,-6069.688724,1532.190996
1330.345167,7846.182985,-5773.606348,1302.362347
1330.345497,7698.141797,-5921.647536,1149.143247
1330.345826,7402.059420,-6661.853478,1302.362347
1330.346155,7402.059420,-7476.080014,1915.238745
1330.346484,6957.935855,-7402.059420,1991.848295
1330.346813,6513.812290,-7105.977043,1225.752797
1330.347143,6513.812290,-5625.565159,459.657299
1330.347472,6661.853478,-6217.729913,1302.362347
1330.347801,7179.997637,-5773.606348,919.314598
1330.348130,7328.038826,-5403.503377,1838.629195
1330.348459,7105.977043,-5181.441594,612.876398
1330.348789,7031.956449,-6291.750507,995.924147
1330.349118,6957.935855,-6587.832884,842.705048
1330.349447,6217.729913,-7179.997637,766.095498
1330.349776,5477.523971,-7476.080014,229.828649
1330.350105,6365.771101,-8734.430116,919.314598
1330.350435,6143.709319,-9474.636058,1378.971896
1330.350764,5921.647536,-8290.306550,1149.143247
1330.351093,6143.709319,-6365.771101,0.000000
1330.351422,6735.874072,-5921.647536,0.000000
1330.351751,7254.018232,-5551.544565,919.314598
1330.352081,7920.203579,-5847.626942,1532.190996
1330.352410,8660.409521,-4219.173869,1302.362347
1330.352739,8660.409521,-4145.153275,1302.362347
1330.353068,7624.121203,-5033.400406,1378.971896
1330.353397,7105.977043,-5403.503377,1149.143247
1330.353727,6957.935855,-5921.647536,1149.143247
1330.354056,7179.997637,-6217.729913,1149.143247
1330.354385,7031.956449,-7179.997637,1378.971896
1330.354714,6809.894666,-7698.141797,1608.800546
1330.355043,5995.668130,-8216.285956,1225.752797
1330.355373,6143.709319,-6957.935855,383.047749
1330.355702,6439.791695,-5773.606348,306.438199
1330.356031,7254.018232,-5921.647536,842.705048
1330.356360,7994.224174,-5773.606348,995.924147
1330.356689,7476.080014,-5847.626942,1608.800546
1330.357019,7328.038826,-5921.647536,1225.752797
1330.357348,7105.977043,-5921.647536,1072.533697
1330.357677,6439.791695,-6883.915261,612.876398
1330.358006,6291.750507,-7476.080014,612.876398
1330.358335,6365.771101,-7920.203579,919.314598
1330.358665,6513.812290,-8068.244768,1072.533697
1330.358994,6735.874072,-8882.471304,689.485948
1330.359323,5995.668130,-7624.121203,995.924147
1330.359652,6217.729913,-6661.853478,536.266849
1330.359981,6217.729913,-6513.812290,1225.752797
1330.360311,6735.874072,-5329.482782,842.705048
1330.360640,7402.059420,-6439.791695,1685.410096
1330.360969,7994.224174,-5699.585753,1608.800546
1330.361298,8142.265362,-5551.544565,1838.629195
1330.361627,7179.997637,-4885.359217,1225.752797
1330.361957,7105.977043,-5699.585753,1532.190996
1330.362286,7031.956449,-6513.812290,1225.752797
1330.362615,7179.997637,-6587.832884,1225.752797
1330.362944,7105.977043,-6809.894666,1455.581446
1330.363274,6735.874072,-7624.121203,689.485948
1330.363603,6513.812290,-6957.935855,766.095498
1330.363932,6143.709319,-6365.771101,153.219100
1330.364261,7105.977043,-6365.771101,459.657299
1330.364590,7550.100608,-5699.585753,919.314598
1330.364920,7846.182985,-5921.647536,1149.143247
1330.365249,7550.100608,-6587.832884,1225.752797
1330.365578,7550.100608,-6587.832884,1762.019645
1330.365907,6883.915261,-7328.038826,995.924147
1330.366236,6069.688724,-7031.956449,919.314598
1330.366566,5551.544565,-8438.347739,612.876398
1330.366895,5403.503377,-8660.409521,689.485948
1330.367224,5403.503377,-8882.471304,689.485948
1330.367553,5477.523971,-7179.997637,919.314598
1330.367882,5625.565159,-5847.626942,1455.581446
1330.368212,6513.812290,-5773.606348,76.609550
1330.368541,7402.059420,-5181.441594,919.314598
1330.368870,7920.203579,-5255.462188,919.314598
1330.369199,8364.327145,-5699.585753,1991.848295
1330.369528,8438.347739,-5921.647536,2145.067394
1330.369858,8142.265362,-6143.709319,1532.190996
1330.370187,7179.997637,-5107.421000,1072.533697
1330.370516,6957.935855,-6439.791695,1072.533697
1330.370845,7402.059420,-6291.750507,842.705048
1330.371174,7031.956449,-6809.894666,1149.143247
1330.371504,7105.977043,-7402.059420,1302.362347
1330.371833,7254.018232,-6439.791695,1072.533697
1330.372162,7328.038826,-5995.668130,842.705048
1330.372491,7402.059420,-5477.523971,612.876398
1330.372820,7402.059420,-4885.359217,689.485948
1330.373150,7920.203579,-5329.482782,1225.752797
1330.373479,7698.141797,-6069.688724,1302.362347
1330.373808,7105.977043,-6513.812290,995.924147
1330.374137,6439.791695,-7772.162391,459.657299
1330.374466,5329.482782,-8364.327145,306.438199
1330.374796,4737.318029,-9622.677246,459.657299
1330.375125,4145.153275,-10362.883188,459.657299
1330.375454,4441.235652,-10288.862594,766.095498
1330.375783,4367.215058,-10140.821405,689.485948
1330.376112,4737.318029,-8956.491898,153.219100
1330.376442,4737.318029,-7846.182985,229.828649
1330.376771,5033.400406,-6809.894666,153.219100
1330.377100,6365.771101,-7031.956449,306.438199
1330.377429,7031.956449,-6661.853478,1225.752797
1330.377758,7476.080014,-6291.750507,1455.581446
1330.378088,7698.141797,-7402.059420,1378.971896
1330.378417,7105.977043,-6957.935855,1991.848295
1330.378746,6587.832884,-7254.018232,842.705048
1330.379075,6143.709319,-6883.915261,995.924147
1330.379404,5773.606348,-7402.059420,1685.410096
1330.379734,6069.688724,-8290.306550,1762.019645
1330.380063,6587.832884,-6513.812290,3064.381992
1330.380392,6809.894666,-5477.523971,2374.896044
1330.380721,6217.729913,-5329.482782,1532.190996
1330.381051,5477.523971,-4885.359217,842.705048
1330.381380,6587.832884,-6365.771101,1149.143247
1330.381709,6439.791695,-7031.956449,1455.581446
1330.382038,5921.647536,-9104.533087,1685.410096
1330.382367,4885.359217,-10140.821405,1838.629195
1330.382697,3923.091493,-10732.986159,1302.362347
1330.383026,2886.803174,-11029.068536,459.657299
1330.383355,2146.597232,-11473.192101,-459.657299
1330.383684,1924.535449,-11991.336260,0.000000
1330.384013,2294.638420,-12805.562797,459.657299
1330.384343,2590.720797,-12213.398043,1225.752797
1330.384672,3182.885551,-10140.821405,1455.581446
1330.385001,3849.070898,-8438.347739,2451.505594
1330.385330,5255.462188,-6143.709319,2681.334243
1330.385659,6439.791695,-3997.112087,2145.067394
1330.385989,7105.977043,-2960.823768,1838.629195
1330.386318,7476.080014,-3034.844362,1225.752797
1330.386647,7328.038826,-5699.585753,1225.752797
1330.386976,6217.729913,-7772.162391,536.266849
1330.387305,5107.421000,-10732.986159,766.095498
1330.387635,4441.235652,-12509.480420,842.705048
1330.387964,3108.864956,-12731.542202,76.609550
1330.388293,2664.741391,-13545.768739,536.266849
1330.388622,3404.947333,-12435.459826,0.000000
1330.388951,2368.659014,-12509.480420,-459.657299
1330.389281,2368.659014,-11695.253884,-383.047749
1330.389610,2590.720797,-11473.192101,-229.828649
1330.389939,3330.926739,-10881.027347,842.705048
1330.390268,4145.153275,-7846.182985,1378.971896
1330.390597,6365.771101,-5995.668130,3907.087040
1330.390927,9400.615463,-2516.700203,3753.867940
1330.391256,10510.924376,-1036.288319,3983.696590
1330.391585,9474.636058,-1406.391290,2987.772442
1330.391914,7994.224174,-962.267725,1149.143247
1330.392243,6957.935855,-4145.153275,153.219100
1330.392573,5625.565159,-8586.388927,459.657299
1330.392902,4663.297435,-11547.212695,383.047749
1330.393231,4219.173869,-12805.562797,1302.362347
1330.393560,5033.400406,-11473.192101,766.095498
1330.393889,4737.318029,-12805.562797,842.705048
1330.394219,3923.091493,-11029.068536,842.705048
1330.394548,2442.679609,-11769.274478,0.000000
1330.394877,1998.556043,-9622.677246,-1225.752797
1330.395206,1628.453072,-10436.903782,-1455.581446
1330.395535,2368.659014,-11103.089130,383.047749
1330.395865,4885.359217,-8956.491898,919.314598
1330.396194,6291.750507,-8364.327145,1302.362347
1330.396523,6957.935855,-6143.709319,1685.410096
1330.396852,7031.956449,-4441.235652,1762.019645
1330.397181,7550.100608,-4663.297435,1225.752797
1330.397511,7402.059420,-5551.544565,2068.457845
1330.397840,7105.977043,-6735.874072,2528.115143
1330.398169,7328.038826,-8364.327145,2528.115143
1330.398498,6069.688724,-10066.800811,3524.039291
1330.398828,5255.462188,-10140.821405,3370.820191
1330.399157,4737.318029,-9992.780217,1838.629195
1330.399486,3478.967927,-8364.327145,1225.752797
1330.399815,2442.679609,-9548.656652,995.924147
1330.400144,2886.803174,-8882.471304,536.266849
1330.400474,2886.803174,-7624.121203,0.000000
1330.400803,2886.803174,-7476.080014,-1378.971896
1330.401132,3775.050304,-6513.812290,-536.266849
1330.401461,4737.318029,-8068.244768,153.219100
1330.401790,6217.729913,-10140.821405,1149.143247
1330.402120,6513.812290,-10288.862594,1455.581446
1330.402449,5625.565159,-10807.006753,842.705048
1330.402778,4441.235652,-11399.171507,1149.143247
1330.403107,4515.256246,-11251.130318,2068.457845
1330.403436,4589.276840,-11399.171507,2298.286494
1330.403766,4441.235652,-9178.553681,2451.505594
1330.404095,4959.379811,-8364.327145,2987.772442
1330.404424,5699.585753,-7105.977043,3370.820191
1330.404753,6439.791695,-6291.750507,3600.648841
1330.405082,6291.750507,-5625.565159,3064.381992
1330.405412,5625.565159,-5181.441594,1608.800546
1330.405741,4663.297435,-4811.338623,1762.019645
1330.406070,4737.318029,-7031.956449,1378.971896
1330.406399,4959.379811,-8438.347739,1225.752797
1330.406728,3849.070898,-9696.697840,1225.752797
1330.407058,3256.906145,-12953.603985,1685.410096
1330.407387,3478.967927,-13619.789333,1532.190996
1330.407716,3997.112087,-12435.459826,2221.676944
1330.408045,5181.441594,-10436.903782,2451.505594
1330.408374,6735.874072,-8216.285956,3677.258390
1330.408704,7476.080014,-6587.832884,4366.744339
1330.409033,7550.100608,-4959.379811,3983.696590
1330.409362,7328.038826,-3701.029710,3447.429741
1330.409691,7994.224174,-2960.823768,2987.772442
1330.410020,7920.203579,-3775.050304,2451.505594
1330.410349,7179.997637,-5181.441594,2987.772442
1330.410679,7254.018232,-6143.709319,2987.772442
1330.411008,7105.977043,-7476.080014,3753.867940
1330.411337,6217.729913,-7105.977043,3677.258390
1330.411666,5551.544565,-8068.244768,3447.429741
1330.411995,5551.544565,-8808.450710,3370.820191
1330.412325,5625.565159,-7920.203579,3447.429741
1330.412654,5921.647536,-8068.244768,3907.087040
1330.412983,7846.182985,-5773.606348,4979.620737
1330.413312,9400.615463,-4737.318029,4903.011187
1330.413641,8882.471304,-4071.132681,5132.839837
1330.413971,8216.285956,-3552.988522,4443.353888
1330.414300,7920.203579,-4589.276840,4060.306139
1330.414629,7550.100608,-4663.297435,3600.648841
1330.414958,7624.121203,-5995.668130,3677.258390
1330.415287,7772.162391,-6587.832884,3907.087040
1330.415617,7402.059420,-8142.265362,4366.744339
1330.415946,5921.647536,-9474.636058,5209.449386
1330.416275,4367.215058,-10066.800811,3370.820191
1330.416604,3552.988522,-11177.109724,2987.772442
1330.416933,3182.885551,-10955.047942,2987.772442
1330.417262,3701.029710,-10658.965565,3370.820191
1330.417592,4367.215058,-9326.594869,4290.134789
1330.417921,7031.956449,-7105.977043,5209.449386
1330.418250,7624.121203,-6291.750507,5745.716235
1330.418579,8586.388927,-3775.050304,6052.154434
1330.418908,8808.450710,-3330.926739,5592.497135
1330.419238,9178.553681,-2886.803174,5822.325785
1330.419567,8882.471304,-2442.679609,5286.058936
1330.419896,9252.574275,-3330.926739,5362.668486
1330.420225,9474.636058,-3997.112087,5515.887586
1330.420554,8734.430116,-4663.297435,5592.497135
1330.420884,7920.203579,-5995.668130,5209.449386
1330.421213,6809.894666,-7105.977043,4060.306139
1330.421542,5403.503377,-9474.636058,4136.915689
1330.421871,4811.338623,-9844.739029,3907.087040
1330.422200,4219.173869,-9622.677246,4213.525239
1330.422530,3627.009116,-10214.842000,3217.601092
1330.422859,3182.885551,-9918.759623,3830.477490
1330.423188,3552.988522,-9030.512492,3753.867940
1330.423517,4811.338623,-7254.018232,3830.477490
1330.423846,6513.812290,-5477.523971,4290.134789
1330.424175,7994.224174,-4663.297435,4903.011187
1330.424505,9252.574275,-3478.967927,5515.887586
1330.424834,9770.718434,-2368.659014,5439.278036
1330.425163,9696.697840,-1776.494261,5592.497135
1330.425492,9918.759623,-3256.906145,4903.011187
1330.425821,8586.388927,-4515.256246,4443.353888
1330.426151,7105.977043,-6883.915261,3830.477490
1330.426480,6217.729913,-8734.430116,3064.381992
1330.426809,5699.585753,-9252.574275,3140.991542
1330.427138,4885.359217,-10807.006753,2834.553343
1330.427467,4811.338623,-9622.677246,3217.601092
1330.427797,4959.379811,-9252.574275,3677.258390
1330.428126,5921.647536,-7550.100608,3983.696590
1330.428455,7254.018232,-5033.400406,4366.744339
1330.428784,8364.327145,-4589.276840,4903.011187
1330.429113,9696.697840,-3701.029710,4060.306139
1330.429443,9104.533087,-4219.173869,3983.696590
1330.429772,8586.388927,-4885.359217,3294.210641
1330.430101,7846.182985,-6291.750507,2681.334243
1330.430430,6513.812290,-7105.977043,2681.334243
1330.430759,5403.503377,-8216.285956,2451.505594
1330.431088,5773.606348,-8216.285956,2911.162892
1330.431418,6957.935855,-7328.038826,3064.381992
1330.431747,7179.997637,-7179.997637,4596.572988
1330.432076,8216.285956,-7105.977043,5056.230287
1330.432405,8734.430116,-6513.812290,4749.792088
1330.432734,8068.244768,-5847.626942,4979.620737
1330.433064,7105.977043,-5033.400406,3983.696590
1330.433393,7105.977043,-4441.235652,2911.162892
1330.433722,7550.100608,-4071.132681,2451.505594
1330.434051,7698.141797,-3627.009116,2757.943793
1330.434380,7550.100608,-4811.338623,2681.334243
1330.434710,7254.018232,-6365.771101,2604.724693
1330.435039,5699.585753,-6883.915261,1915.238745
1330.435368,4737.318029,-9548.656652,1302.362347
1330.435697,4441.235652,-11103.089130,2451.505594
1330.436026,4811.338623,-10510.924376,2911.162892
1330.436356,5181.441594,-9696.697840,2451.505594
1330.436685,5773.606348,-6587.832884,2911.162892
1330.437014,7031.956449,-5033.400406,2451.505594
1330.437343,7994.224174,-4293.194464,2145.067394
1330.437672,7105.977043,-4367.215058,3447.429741
1330.438001,7550.100608,-4293.194464,3064.381992
1330.438331,8586.388927,-3923.091493,2911.162892
1330.438660,8586.388927,-4145.153275,3294.210641
1330.438989,9770.718434,-4663.297435,3600.648841
1330.439318,9326.594869,-5477.523971,3140.991542
1330.439647,8216.285956,-6587.832884,2068.457845
1330.439977,5995.668130,-8364.327145,995.924147
1330.440306,4737.318029,-9030.512492,995.924147
1330.440635,4367.215058,-10436.903782,229.828649
1330.440964,3849.070898,-11177.109724,919.314598
1330.441293,4663.297435,-10140.821405,2451.505594
1330.441623,6735.874072,-7994.224174,2451.505594
1330.441952,7772.162391,-6069.688724,3447.429741
1330.442281,8068.244768,-4589.276840,3600.648841
1330.442610,8660.409521,-3849.070898,2451.505594
1330.442939,7994.224174,-2886.803174,2068.457845
1330.443269,8216.285956,-2368.659014,2374.896044
1330.443598,9844.739029,-2590.720797,2221.676944
1330.443927,9770.718434,-4293.194464,2681.334243
1330.444256,8882.471304,-6513.812290,2374.896044
1330.444585,6735.874072,-8660.409521,1149.143247
1330.444914,5847.626942,-10658.965565,689.485948
1330.445244,4589.276840,-12139.377449,0.000000
1330.445573,4219.173869,-11325.150913,689.485948
1330.445902,4663.297435,-9474.636058,459.657299
1330.446231,5625.565159,-7624.121203,153.219100
1330.446560,5551.544565,-4959.379811,1455.581446
1330.446890,7031.956449,-4515.256246,1685.410096
1330.447219,8364.327145,-3330.926739,2068.457845
