#time,accel_x,accel_y,accel_z
1410.314487,6957.935855,-7031.956449,1072.533697
1410.314817,6365.771101,-6587.832884,612.876398
1410.315147,6809.894666,-7105.977043,919.314598
1410.315478,6809.894666,-7031.956449,995.924147
1410.315808,6661.853478,-6217.729913,612.876398
1410.316138,6661.853478,-7031.956449,766.095498
1410.316468,6957.935855,-6957.935855,995.924147
1410.316798,6883.915261,-7031.956449,1455.581446
1410.317128,7105.977043,-6661.853478,919.314598
1410.317458,6883.915261,-6291.750507,1608.800546
1410.317788,7105.977043,-6439.791695,1225.752797
1410.318119,6809.894666,-6291.750507,995.924147
1410.318449,7550.100608,-5995.668130,995.924147
1410.318779,7402.059420,-6069.688724,383.047749
1410.319109,7328.038826,-6217.729913,1225.752797
1410.319439,6883.915261,-6661.853478,1225.752797
1410.319769,6809.894666,-6513.812290,919.314598
1410.320099,6735.874072,-6587.832884,919.314598
1410.320429,6587.832884,-6439.791695,842.705048
1410.320760,6513.812290,-6587.832884,1302.362347
1410.321090,6957.935855,-6809.894666,1225.752797
1410.321420,6957.935855,-6661.853478,1072.533697
1410.321750,6661.853478,-6809.894666,995.924147
1410.322080,7254.018232,-7105.977043,842.705048
1410.322410,6809.894666,-6809.894666,1225.752797
1410.322740,7105.977043,-7031.956449,766.095498
1410.323070,6809.894666,-7105.977043,1072.533697
1410.323401,7031.956449,-6809.894666,1378.971896
1410.323731,7105.977043,-6809.894666,689.485948
1410.324061,7105.977043,-6513.812290,1225.752797
1410.324391,7105.977043,-7105.977043,1072.533697
1410.324721,7476.080014,-6661.853478,842.705048
1410.325051,7402.059420,-6587.832884,1302.362347
1410.325381,7179.997637,-6513.812290,995.924147
1410.325711,7105.977043,-6217.729913,995.924147
1410.326041,7328.038826,-6069.688724,1225.752797
1410.326372,7105.977043,-5995.668130,1149.143247
1410.326702,6587.832884,-5921.647536,995.924147
1410.327032,7105.977043,-6365.771101,1455.581446
1410.327362,7105.977043,-6513.812290,995.924147
1410.327692,7105.977043,-6513.812290,842.705048
1410.328022,6587.832884,-6069.688724,919.314598
1410.328352,6661.853478,-6883.915261,995.924147
1410.328682,6883.915261,-6661.853478,1149.143247
1410.329013,6735.874072,-6513.812290,1149.143247
1410.329343,6735.874072,-6587.832884,842.705048
1410.329673,7402.059420,-6217.729913,1225.752797
1410.330003,6809.894666,-7031.956449,1072.533697
1410.330333,6957.935855,-6735.874072,689.485948
1410.330663,6883.915261,-6513.812290,1072.533697
1410.330993,7105.977043,-6587.832884,842.705048
1410.331323,7105.977043,-6883.915261,612.876398
1410.331654,7105.977043,-6587.832884,995.924147
1410.331984,7179.997637,-6735.874072,612.876398
1410.332314,7031.956449,-6809.894666,1532.190996
1410.332644,6809.894666,-6439.791695,1455.581446
1410.332974,6883.915261,-6883.915261,919.314598
1410.333304,6957.935855,-6291.750507,1149.143247
1410.333634,6883.915261,-6513.812290,995.924147
1410.333964,6957.935855,-6217.729913,1225.752797
1410.334294,6809.894666,-5921.647536,1455.581446
1410.334625,7105.977043,-6069.688724,1378.971896
1410.334955,6957.935855,-6143.709319,1455.581446
1410.335285,7105.977043,-6217.729913,1225.752797
1410.335615,7105.977043,-6661.853478,612.876398
1410.335945,6735.874072,-6809.894666,1072.533697
1410.336275,6735.874072,-6809.894666,842.705048
1410.336605,6587.832884,-7179.997637,766.095498
1410.336935,6883.915261,-7031.956449,1378.971896
1410.337266,6957.935855,-6883.915261,919.314598
1410.337596,6587.832884,-7105.977043,842.705048
1410.337926,6661.853478,-6587.832884,842.705048
1410.338256,6809.894666,-6809.894666,842.705048
1410.338586,7328.038826,-6439.791695,1608.800546
1410.338916,6883.915261,-5773.606348,1455.581446
1410.339246,7179.997637,-6439.791695,842.705048
1410.339576,7254.018232,-6291.750507,1225.752797
1410.339907,7402.059420,-6809.894666,1225.752797
1410.340237,7179.997637,-6513.812290,919.314598
1410.340567,7105.977043,-6735.874072,1072.533697
1410.340897,7476.080014,-6513.812290,842.705048
1410.341227,7105.977043,-6513.812290,612.876398
1410.341557,6809.894666,-6883.915261,1991.848295
1410.341887,6735.874072,-5995.668130,919.314598
1410.342217,7105.977043,-5995.668130,995.924147
1410.342547,6883.915261,-6069.688724,842.705048
1410.342878,6735.874072,-5699.585753,766.095498
1410.343208,7031.956449,-6587.832884,766.095498
1410.343538,6883.915261,-6809.894666,1455.581446
1410.343868,7031.956449,-6513.812290,919.314598
1410.344198,6809.894666,-6957.935855,1149.143247
1410.344528,6513.812290,-7031.956449,1455.581446
1410.344858,7328.038826,-7105.977043,1149.143247
1410.345188,6661.853478,-6883.915261,842.705048
1410.345519,6661.853478,-6957.935855,689.485948
1410.345849,6735.874072,-6883.915261,459.657299
1410.346179,7328.038826,-5699.585753,1149.143247
1410.346509,6957.935855,-6291.750507,842.705048
1410.346839,7254.018232,-6365.771101,1149.143247
1410.347169,7105.977043,-6365.771101,842.705048
1410.347499,7031.956449,-6587.832884,689.485948
1410.347829,6883.915261,-6069.688724,1225.752797
1410.348160,7328.038826,-6143.709319,1149.143247
1410.348490,7031.956449,-6365.771101,842.705048
1410.348820,6957.935855,-6661.853478,1072.533697
1410.349150,7105.977043,-6883.915261,766.095498
1410.349480,6809.894666,-6587.832884,1149.143247
1410.349810,6735.874072,-6587.832884,842.705048
1410.350140,6365.771101,-6513.812290,842.705048
1410.350470,6957.935855,-6883.915261,1225.752797
1410.350800,6957.935855,-6217.729913,1532.190996
1410.351131,6735.874072,-6217.729913,842.705048
1410.351461,6735.874072,-6439.791695,612.876398
1410.351791,7105.977043,-6661.853478,1149.143247
1410.352121,6809.894666,-7105.977043,1072.533697
1410.352451,6883.915261,-6587.832884,612.876398
1410.352781,6661.853478,-6957.935855,919.314598
1410.353111,6957.935855,-7328.038826,766.095498
1410.353441,7105.977043,-6957.935855,1149.143247
1410.353772,7254.018232,-7031.956449,1455.581446
1410.354102,7105.977043,-7031.956449,1072.533697
1410.354432,7402.059420,-6587.832884,1378.971896
1410.354762,7105.977043,-6661.853478,1225.752797
1410.355092,7179.997637,-6143.709319,1072.533697
1410.355422,7772.162391,-5477.523971,1225.752797
1410.355752,7105.977043,-5995.668130,995.924147
1410.356082,6883.915261,-6217.729913,919.314598
1410.356413,6809.894666,-6365.771101,1378.971896
1410.356743,7328.038826,-6069.688724,689.485948
1410.357073,7105.977043,-6291.750507,536.266849
1410.357403,6587.832884,-6365.771101,689.485948
1410.357733,6661.853478,-6735.874072,1149.143247
1410.358063,7105.977043,-6957.935855,1302.362347
1410.358393,6809.894666,-6217.729913,1455.581446
1410.358723,6587.832884,-6661.853478,919.314598
1410.359054,6587.832884,-6587.832884,1302.362347
1410.359384,6735.874072,-6661.853478,919.314598
1410.359714,6661.853478,-6735.874072,919.314598
1410.360044,6587.832884,-6587.832884,1149.143247
1410.360374,6883.915261,-6809.894666,842.705048
1410.360704,6957.935855,-6809.894666,1072.533697
1410.361034,6513.812290,-6735.874072,1149.143247
1410.361364,7254.018232,-6069.688724,1225.752797
1410.361694,7179.997637,-6513.812290,1378.971896
1410.362025,7105.977043,-6587.832884,919.314598
1410.362355,7105.977043,-6513.812290,995.924147
1410.362685,7328.038826,-6217.729913,919.314598
1410.363015,7402.059420,-6735.874072,842.705048
1410.363345,6883.915261,-6217.729913,995.924147
1410.363675,6735.874072,-6513.812290,1225.752797
1410.364005,7105.977043,-6587.832884,995.924147
1410.364335,6809.894666,-6365.771101,995.924147
1410.364666,6735.874072,-6365.771101,766.095498
1410.364996,6587.832884,-6513.812290,842.705048
1410.365326,6809.894666,-6957.935855,842.705048
1410.365656,6809.894666,-6809.894666,1149.143247
1410.365986,6735.874072,-6661.853478,1608.800546
1410.366316,6883.915261,-7031.956449,1302.362347
1410.366646,7105.977043,-6883.915261,1149.143247
1410.366976,6957.935855,-6809.894666,842.705048
1410.367307,6513.812290,-6809.894666,1149.143247
1410.367637,6587.832884,-6809.894666,1455.581446
1410.367967,7179.997637,-7031.956449,1149.143247
1410.368297,7105.977043,-6291.750507,1302.362347
1410.368627,7105.977043,-6809.894666,842.705048
1410.368957,7328.038826,-6217.729913,919.314598
1410.369287,6957.935855,-6513.812290,1072.533697
1410.369617,7105.977043,-6661.853478,919.314598
1410.369947,7254.018232,-6291.750507,1072.533697
1410.370278,7402.059420,-6143.709319,1149.143247
1410.370608,7698.141797,-6439.791695,919.314598
1410.370938,7105.977043,-6291.750507,1225.752797
1410.371268,7402.059420,-6809.894666,1302.362347
1410.371598,7254.018232,-6365.771101,995.924147
1410.371928,6365.771101,-6069.688724,995.924147
1410.372258,6809.894666,-6735.874072,1149.143247
1410.372588,6809.894666,-6809.894666,842.705048
1410.372919,6957.935855,-6587.832884,1149.143247
1410.373249,6661.853478,-6587.832884,766.095498
1410.373579,6587.832884,-7031.956449,1455.581446
1410.373909,6957.935855,-6587.832884,1378.971896
1410.374239,6809.894666,-7105.977043,995.924147
1410.374569,6291.750507,-6439.791695,1072.533697
1410.374899,6587.832884,-6883.915261,1225.752797
1410.375229,7105.977043,-7031.956449,612.876398
1410.375560,7105.977043,-6439.791695,1302.362347
1410.375890,6809.894666,-6587.832884,919.314598
1410.376220,7105.977043,-6661.853478,919.314598
1410.376550,7031.956449,-6143.709319,995.924147
1410.376880,7105.977043,-6735.874072,1149.143247
1410.377210,6957.935855,-6587.832884,919.314598
1410.377540,7031.956449,-5995.668130,995.924147
1410.377870,7031.956449,-6069.688724,766.095498
1410.378200,7105.977043,-6291.750507,1685.410096
1410.378531,7105.977043,-6291.750507,1149.143247
1410.378861,7031.956449,-6069.688724,1072.533697
1410.379190,6809.894666,-6365.771101,1225.752797
1410.379520,6883.915261,-6735.874072,1072.533697
1410.379849,7031.956449,-6661.853478,842.705048
1410.380179,6883.915261,-6883.915261,919.314598
1410.380509,6735.874072,-6661.853478,842.705048
1410.380838,6809.894666,-6883.915261,689.485948
1410.381168,6957.935855,-7476.080014,1991.848295
1410.381497,6957.935855,-6957.935855,842.705048
1410.381827,6809.894666,-6957.935855,689.485948
1410.382157,6661.853478,-6957.935855,1072.533697
1410.382486,7105.977043,-7105.977043,536.266849
1410.382816,7254.018232,-6587.832884,1225.752797
1410.383145,7105.977043,-6365.771101,766.095498
1410.383475,7254.018232,-5995.668130,766.095498
1410.383805,7328.038826,-6291.750507,1149.143247
1410.384134,7254.018232,-7105.977043,689.485948
1410.384464,7179.997637,-6513.812290,919.314598
1410.384793,7698.141797,-5773.606348,1378.971896
1410.385123,7476.080014,-6069.688724,842.705048
1410.385452,6957.935855,-6143.709319,919.314598
1410.385782,7328.038826,-6883.915261,842.705048
1410.386112,6957.935855,-6809.894666,842.705048
1410.386441,7105.977043,-6513.812290,1225.752797
1410.386771,6735.874072,-6587.832884,919.314598
1410.387100,7328.038826,-6365.771101,1149.143247
1410.387430,7254.018232,-6365.771101,1225.752797
1410.387760,6883.915261,-6365.771101,995.924147
1410.388089,6883.915261,-6513.812290,919.314598
1410.388419,6809.894666,-6661.853478,1378.971896
1410.388748,6513.812290,-6661.853478,1685.410096
1410.389078,6513.812290,-7031.956449,1072.533697
1410.389407,6735.874072,-6661.853478,1149.143247
1410.389737,6735.874072,-7179.997637,919.314598
1410.390067,7105.977043,-6883.915261,1149.143247
1410.390396,7179.997637,-6291.750507,1149.143247
1410.390726,7031.956449,-6957.935855,766.095498
1410.391055,7254.018232,-6587.832884,995.924147
1410.391385,7105.977043,-6809.894666,842.705048
1410.391715,6957.935855,-6069.688724,1302.362347
1410.392044,7105.977043,-6143.709319,1072.533697
1410.392374,6957.935855,-6217.729913,995.924147
1410.392703,6809.894666,-6439.791695,919.314598
1410.393033,6661.853478,-6291.750507,459.657299
1410.393363,7031.956449,-6365.771101,1149.143247
1410.393692,6809.894666,-6513.812290,1149.143247
1410.394022,6661.853478,-7031.956449,1072.533697
1410.394351,6439.791695,-7105.977043,1225.752797
1410.394681,6883.915261,-6883.915261,1149.143247
1410.395010,7105.977043,-6513.812290,1149.143247
1410.395340,6809.894666,-6661.853478,919.314598
1410.395670,6735.874072,-6883.915261,1072.533697
1410.395999,6809.894666,-6661.853478,995.924147
1410.396329,7105.977043,-7402.059420,536.266849
1410.396658,6809.894666,-6587.832884,612.876398
1410.396988,6587.832884,-6809.894666,612.876398
1410.397318,7031.956449,-6957.935855,766.095498
1410.397647,7402.059420,-6291.750507,1455.581446
1410.397977,7254.018232,-6291.750507,919.314598
1410.398306,7254.018232,-6661.853478,1149.143247
1410.398636,7254.018232,-6661.853478,995.924147
1410.398965,7254.018232,-6587.832884,612.876398
1410.399295,7624.121203,-6661.853478,766.095498
1410.399625,7328.038826,-6143.709319,1072.533697
1410.399954,7179.997637,-6069.688724,919.314598
1410.400284,7105.977043,-6143.709319,919.314598
1410.400613,6513.812290,-5995.668130,1302.362347
1410.400943,7328.038826,-6291.750507,919.314598
1410.401273,6883.915261,-6291.750507,1072.533697
1410.401602,6809.894666,-6365.771101,995.924147
1410.401932,6957.935855,-6661.853478,1455.581446
1410.402261,7328.038826,-6587.832884,1532.190996
1410.402591,6957.935855,-6809.894666,1072.533697
1410.402921,7105.977043,-7031.956449,766.095498
1410.403250,7031.956449,-6661.853478,1378.971896
1410.403580,6883.915261,-6957.935855,995.924147
1410.403909,6809.894666,-6957.935855,1302.362347
1410.404239,6587.832884,-6957.935855,1072.533697
1410.404568,6809.894666,-6809.894666,842.705048
1410.404898,7031.956449,-6513.812290,1378.971896
1410.405228,7105.977043,-6587.832884,1378.971896
1410.405557,7328.038826,-6291.750507,689.485948
1410.405887,7105.977043,-6513.812290,1225.752797
1410.406216,6883.915261,-6661.853478,1149.143247
1410.406546,7105.977043,-6439.791695,919.314598
1410.406876,6883.915261,-5625.565159,689.485948
1410.407205,7105.977043,-6587.832884,919.314598
1410.407535,7031.956449,-5995.668130,1455.581446
1410.407864,6883.915261,-6439.791695,1378.971896
1410.408194,6661.853478,-6587.832884,1072.533697
1410.408523,7031.956449,-6439.791695,536.266849
1410.408853,6217.729913,-6587.832884,842.705048
1410.409183,6365.771101,-6661.853478,995.924147
1410.409512,6513.812290,-6439.791695,919.314598
1410.409842,6587.832884,-6217.729913,1225.752797
1410.410171,6957.935855,-6365.771101,766.095498
1410.410501,6809.894666,-7031.956449,1302.362347
1410.410831,6957.935855,-7179.997637,1072.533697
1410.411160,6735.874072,-7179.997637,536.266849
1410.411490,6513.812290,-6217.729913,1225.752797
1410.411819,7031.956449,-7105.977043,612.876398
1410.412149,7105.977043,-6883.915261,1149.143247
1410.412479,7179.997637,-6439.791695,842.705048
1410.412808,7254.018232,-6439.791695,995.924147
1410.413138,7402.059420,-6365.771101,1072.533697
1410.413467,7105.977043,-6957.935855,919.314598
1410.413797,7031.956449,-6661.853478,689.485948
1410.414126,7031.956449,-5921.647536,919.314598
1410.414456,6883.915261,-5921.647536,1455.581446
1410.414786,7328.038826,-6439.791695,1149.143247
1410.415115,7105.977043,-6513.812290,1149.143247
1410.415445,7179.997637,-6365.771101,919.314598
1410.415774,7179.997637,-7031.956449,1685.410096
1410.416104,6957.935855,-6513.812290,1149.143247
1410.416434,6809.894666,-6661.853478,919.314598
1410.416763,6883.915261,-6735.874072,1225.752797
1410.417093,7105.977043,-5921.647536,1302.362347
1410.417422,6291.750507,-6217.729913,1915.238745
1410.417752,6513.812290,-6735.874072,1302.362347
1410.418081,6513.812290,-6587.832884,919.314598
1410.418411,6513.812290,-6957.935855,689.485948
1410.418741,6587.832884,-6661.853478,919.314598
1410.419070,6513.812290,-6883.915261,1149.143247
1410.419400,7105.977043,-6809.894666,766.095498
1410.419729,7254.018232,-6439.791695,1225.752797
1410.420059,7105.977043,-6587.832884,766.095498
1410.420389,7031.956449,-6661.853478,1225.752797
1410.420718,7105.977043,-6661.853478,995.924147
1410.421048,7179.997637,-6661.853478,766.095498
1410.421377,7254.018232,-6291.750507,1302.362347
1410.421707,7031.956449,-6217.729913,1302.362347
1410.422037,7624.121203,-6217.729913,766.095498
1410.422366,6809.894666,-6365.771101,1685.410096
1410.422696,6735.874072,-6587.832884,1072.533697
1410.423025,6883.915261,-6587.832884,919.314598
1410.423355,6661.853478,-5995.668130,1302.362347
1410.423684,6883.915261,-6735.874072,536.266849
1410.424014,6883.915261,-7105.977043,612.876398
1410.424344,6809.894666,-6957.935855,1072.533697
1410.424673,6513.812290,-6957.935855,536.266849
1410.425003,6439.791695,-6735.874072,1838.629195
1410.425332,6587.832884,-7105.977043,1149.143247
1410.425662,6661.853478,-7105.977043,919.314598
1410.425992,6809.894666,-6513.812290,1072.533697
1410.426321,6809.894666,-6661.853478,919.314598
1410.426651,7328.038826,-6291.750507,536.266849
1410.426980,7105.977043,-6439.791695,1532.190996
1410.427310,7254.018232,-6809.894666,1225.752797
1410.427639,7328.038826,-6217.729913,1072.533697
1410.427969,7105.977043,-6439.791695,1608.800546
1410.428299,7476.080014,-5921.647536,1072.533697
1410.428628,7772.162391,-5403.503377,1072.533697
1410.428958,8364.327145,-5107.421000,1149.143247
1410.429287,8512.368333,-5477.523971,1072.533697
1410.429617,8808.450710,-5921.647536,766.095498
1410.429947,7698.141797,-6291.750507,919.314598
1410.430276,6513.812290,-6883.915261,229.828649
1410.430606,5551.544565,-7031.956449,76.609550
1410.430935,6587.832884,-6217.729913,153.219100
1410.431265,7624.121203,-6513.812290,1072.533697
1410.431594,8216.285956,-6365.771101,1685.410096
1410.431924,8438.347739,-5551.544565,1915.238745
1410.432254,8586.388927,-4145.153275,1149.143247
1410.432583,8068.244768,-3997.112087,1838.629195
1410.432913,7698.141797,-5181.441594,1378.971896
1410.433242,8586.388927,-4737.318029,842.705048
1410.433572,8660.409521,-5329.482782,1225.752797
1410.433902,7994.224174,-4663.297435,383.047749
1410.434231,7772.162391,-5403.503377,1072.533697
1410.434561,8512.368333,-4885.359217,766.095498
1410.434890,8734.430116,-5255.462188,536.266849
1410.435220,8512.368333,-6291.750507,1302.362347
1410.435550,7994.224174,-5699.585753,1149.143247
1410.435879,7698.141797,-6365.771101,0.000000
1410.436209,7772.162391,-5403.503377,1072.533697
1410.436538,8512.368333,-5477.523971,1072.533697
1410.436868,8808.450710,-4737.318029,1225.752797
1410.437197,9474.636058,-4515.256246,1455.581446
1410.437527,9030.512492,-4663.297435,1302.362347
1410.437857,9178.553681,-3256.906145,1378.971896
1410.438186,9178.553681,-3701.029710,1378.971896
1410.438516,8956.491898,-3182.885551,919.314598
1410.438845,9252.574275,-2960.823768,1532.190996
1410.439175,9622.677246,-3552.988522,1915.238745
1410.439505,10140.821405,-3034.844362,1532.190996
1410.439834,9918.759623,-4219.173869,2068.457845
1410.440164,9474.636058,-4441.235652,1991.848295
1410.440493,8882.471304,-5107.421000,1149.143247
1410.440823,7994.224174,-5329.482782,1072.533697
1410.441152,8068.244768,-5255.462188,612.876398
1410.441482,7624.121203,-6291.750507,919.314598
1410.441812,8438.347739,-4663.297435,1302.362347
1410.442141,8068.244768,-5181.441594,842.705048
1410.442471,8586.388927,-4589.276840,1149.143247
1410.442800,8882.471304,-4367.215058,842.705048
1410.443130,9030.512492,-5329.482782,995.924147
1410.443460,8808.450710,-3923.091493,536.266849
1410.443789,9252.574275,-4811.338623,229.828649
1410.444119,9400.615463,-5033.400406,383.047749
1410.444448,9104.533087,-4737.318029,842.705048
1410.444778,9770.718434,-5255.462188,306.438199
1410.445108,9474.636058,-4885.359217,919.314598
1410.445437,9474.636058,-4367.215058,229.828649
1410.445767,9400.615463,-4885.359217,919.314598
1410.446096,9844.739029,-4959.379811,1378.971896
1410.446426,9252.574275,-4145.153275,1762.019645
1410.446755,8364.327145,-3923.091493,1302.362347
1410.447085,8512.368333,-4589.276840,2068.457845
1410.447415,8438.347739,-4367.215058,1762.019645
1410.447744,9030.512492,-4145.153275,2145.067394
1410.448074,8882.471304,-3552.988522,1378.971896
1410.448403,8882.471304,-3478.967927,1225.752797
1410.448733,9474.636058,-3627.009116,766.095498
1410.449063,9696.697840,-3182.885551,689.485948
1410.449392,9548.656652,-3256.906145,-383.047749
1410.449722,9178.553681,-3997.112087,-383.047749
1410.450051,9104.533087,-4663.297435,-76.609550
1410.450381,8956.491898,-5699.585753,153.219100
1410.450710,9400.615463,-5995.668130,459.657299
1410.451040,9548.656652,-5921.647536,995.924147
1410.451370,9104.533087,-6069.688724,1455.581446
1410.451699,8512.368333,-5773.606348,1762.019645
1410.452029,8438.347739,-5107.421000,2145.067394
1410.452358,9326.594869,-4515.256246,2528.115143
1410.452688,9178.553681,-4071.132681,2221.676944
1410.453018,9326.594869,-2368.659014,1532.190996
1410.453347,9548.656652,-1776.494261,919.314598
1410.453677,9548.656652,-1480.411884,459.657299
1410.454006,9992.780217,-2220.617826,229.828649
1410.454336,9548.656652,-3330.926739,0.000000
1410.454666,9400.615463,-3404.947333,306.438199
1410.454995,9326.594869,-4959.379811,153.219100
1410.455325,9104.533087,-5921.647536,0.000000
1410.455654,8142.265362,-7254.018232,766.095498
1410.455984,7920.203579,-8660.409521,1072.533697
1410.456313,7550.100608,-8216.285956,1225.752797
1410.456643,6957.935855,-7846.182985,995.924147
1410.456973,6587.832884,-6809.894666,536.266849
1410.457302,6957.935855,-5847.626942,1072.533697
1410.457632,7846.182985,-5107.421000,1225.752797
1410.457961,8956.491898,-3478.967927,1838.629195
1410.458291,9548.656652,-1998.556043,1762.019645
1410.458621,9696.697840,-296.082377,1225.752797
1410.458950,9992.780217,-370.102971,612.876398
1410.459280,10807.006753,-740.205942,919.314598
1410.459609,12139.377449,0.000000,689.485948
1410.459939,12731.542202,-1036.288319,1149.143247
1410.460268,12213.398043,-1776.494261,1608.800546
1410.460598,11103.089130,-3997.112087,1685.410096
1410.460928,9992.780217,-6365.771101,1915.238745
1410.461257,8216.285956,-7179.997637,1685.410096
1410.461587,5921.647536,-9548.656652,536.266849
1410.461916,3923.091493,-9326.594869,0.000000
1410.462246,3108.864956,-8882.471304,-1149.143247
1410.462576,3775.050304,-8512.368333,-1302.362347
1410.462905,5551.544565,-7402.059420,536.266849
1410.463235,8586.388927,-6069.688724,1532.190996
1410.463564,10140.821405,-3330.926739,1225.752797
1410.463894,10288.862594,-1110.308913,1455.581446
1410.464224,10584.944971,-296.082377,842.705048
1410.464553,11917.315666,222.061783,1149.143247
1410.464883,12435.459826,0.000000,1225.752797
1410.465212,13027.624579,-518.144159,1838.629195
1410.465542,13693.809927,-1406.391290,2451.505594
1410.465871,13619.789333,-2294.638420,2681.334243
1410.466201,11473.192101,-3997.112087,2681.334243
1410.466531,9178.553681,-5995.668130,1915.238745
1410.466860,7105.977043,-6587.832884,1225.752797
1410.467190,4663.297435,-7179.997637,0.000000
1410.467519,3627.009116,-7772.162391,-1455.581446
1410.467849,3404.947333,-7550.100608,-1225.752797
1410.468179,5847.626942,-5773.606348,-536.266849
1410.468508,9104.533087,-4737.318029,383.047749
1410.468838,11547.212695,-4367.215058,1608.800546
1410.469167,12065.356855,-2072.576638,2145.067394
1410.469497,11991.336260,-1776.494261,1225.752797
1410.469826,10584.944971,-2590.720797,1072.533697
1410.470156,9622.677246,-2664.741391,1225.752797
1410.470486,9400.615463,-4441.235652,919.314598
1410.470815,9326.594869,-5477.523971,1455.581446
1410.471145,9030.512492,-6957.935855,1685.410096
1410.471474,8808.450710,-7772.162391,2374.896044
1410.471804,8364.327145,-6365.771101,1838.629195
1410.472134,7179.997637,-4219.173869,612.876398
1410.472463,7105.977043,-3182.885551,-459.657299
1410.472793,8290.306550,-2812.782580,0.000000
1410.473122,8956.491898,-3034.844362,0.000000
1410.473452,9400.615463,-3034.844362,1532.190996
1410.473782,9622.677246,-2072.576638,536.266849
1410.474111,10584.944971,-1850.514855,0.000000
1410.474441,10362.883188,-3923.091493,1455.581446
1410.474770,10807.006753,-5625.565159,2298.286494
1410.475100,10658.965565,-6069.688724,2451.505594
1410.475429,8956.491898,-5033.400406,1378.971896
1410.475759,7698.141797,-5181.441594,153.219100
1410.476089,7328.038826,-5033.400406,0.000000
1410.476418,7550.100608,-7328.038826,995.924147
1410.476748,7105.977043,-8956.491898,2221.676944
1410.477077,6661.853478,-7179.997637,919.314598
1410.477407,5329.482782,-6587.832884,-459.657299
1410.477737,5255.462188,-4885.359217,-612.876398
1410.478066,6957.935855,-8068.244768,459.657299
1410.478396,8364.327145,-6661.853478,1762.019645
1410.478725,8660.409521,-3330.926739,1149.143247
1410.479055,9104.533087,-2368.659014,612.876398
1410.479384,10288.862594,-592.164754,1072.533697
1410.479714,10584.944971,-3997.112087,919.314598
1410.480044,9696.697840,-4811.338623,1072.533697
1410.480373,9178.553681,-4885.359217,1608.800546
1410.480703,9622.677246,-4515.256246,1225.752797
1410.481032,10214.842000,-3997.112087,2528.115143
1410.481361,9548.656652,-5329.482782,2451.505594
1410.481691,8956.491898,-6143.709319,1685.410096
1410.482020,8068.244768,-4737.318029,536.266849
1410.482349,7105.977043,-3701.029710,459.657299
1410.482678,7920.203579,-4737.318029,1532.190996
1410.483007,8586.388927,-6365.771101,2221.676944
1410.483336,7328.038826,-5995.668130,459.657299
1410.483665,4959.379811,-6365.771101,-229.828649
1410.483994,5625.565159,-7105.977043,1149.143247
1410.484323,7624.121203,-7772.162391,1072.533697
1410.484652,7476.080014,-8364.327145,1149.143247
1410.484982,6365.771101,-5995.668130,-229.828649
1410.485311,6069.688724,-7179.997637,-459.657299
1410.485640,6957.935855,-8956.491898,766.095498
1410.485969,6217.729913,-9992.780217,1532.190996
1410.486298,6587.832884,-7846.182985,459.657299
1410.486627,6587.832884,-5995.668130,0.000000
1410.486956,7328.038826,-7105.977043,1378.971896
1410.487285,8290.306550,-6661.853478,2757.943793
1410.487614,9030.512492,-4145.153275,2374.896044
1410.487943,8734.430116,-2368.659014,842.705048
1410.488272,8734.430116,-888.247130,1072.533697
1410.488602,8882.471304,-4737.318029,1915.238745
1410.488931,7402.059420,-5551.544565,1762.019645
1410.489260,6143.709319,-5329.482782,459.657299
1410.489589,6513.812290,-5107.421000,0.000000
1410.489918,7698.141797,-6587.832884,1302.362347
1410.490247,8512.368333,-9696.697840,3217.601092
1410.490576,7476.080014,-8216.285956,2451.505594
1410.490905,5625.565159,-7031.956449,-383.047749
1410.491234,4589.276840,-8364.327145,766.095498
1410.491563,4145.153275,-8734.430116,2221.676944
1410.491892,4589.276840,-8808.450710,1149.143247
1410.492222,5329.482782,-5551.544565,919.314598
1410.492551,6513.812290,-4885.359217,229.828649
1410.492880,8216.285956,-5551.544565,1532.190996
1410.493209,8438.347739,-5181.441594,1608.800546
1410.493538,8290.306550,-5847.626942,1302.362347
1410.493867,8808.450710,-5477.523971,459.657299
1410.494196,7920.203579,-6587.832884,1838.629195
1410.494525,6735.874072,-9104.533087,1838.629195
1410.494854,5847.626942,-7698.141797,1225.752797
1410.495183,6143.709319,-6661.853478,536.266849
1410.495512,6735.874072,-7328.038826,1072.533697
1410.495842,7105.977043,-5921.647536,1762.019645
1410.496171,6809.894666,-6365.771101,1685.410096
1410.496500,6439.791695,-5921.647536,306.438199
1410.496829,5921.647536,-5477.523971,383.047749
1410.497158,5773.606348,-5699.585753,612.876398
1410.497487,6291.750507,-5847.626942,459.657299
1410.497816,7254.018232,-5699.585753,1378.971896
1410.498145,8586.388927,-5773.606348,1149.143247
1410.498474,9178.553681,-5477.523971,1532.190996
1410.498803,9622.677246,-4515.256246,1915.238745
1410.499132,9770.718434,-6217.729913,1685.410096
1410.499462,9622.677246,-6365.771101,1608.800546
1410.499791,6587.832884,-8660.409521,383.047749
1410.500120,4071.132681,-8660.409521,76.609550
1410.500449,3552.988522,-7920.203579,-459.657299
1410.500778,5033.400406,-8660.409521,-612.876398
1410.501107,5551.544565,-8290.306550,536.266849
1410.501436,6513.812290,-7179.997637,919.314598
1410.501765,6735.874072,-5625.565159,689.485948
1410.502094,6587.832884,-5921.647536,306.438199
1410.502423,6735.874072,-6661.853478,0.000000
1410.502752,5995.668130,-5625.565159,-383.047749
1410.503082,6217.729913,-7105.977043,306.438199
1410.503411,7105.977043,-7031.956449,689.485948
1410.503740,7920.203579,-6513.812290,1838.629195
1410.504069,8734.430116,-6291.750507,842.705048
1410.504398,7920.203579,-5699.585753,1378.971896
1410.504727,8364.327145,-6439.791695,1685.410096
1410.505056,8882.471304,-6587.832884,1838.629195
1410.505385,7328.038826,-7328.038826,1455.581446
1410.505714,4737.318029,-7402.059420,1072.533697
1410.506043,3849.070898,-6069.688724,536.266849
1410.506373,5551.544565,-6513.812290,612.876398
1410.506702,7994.224174,-5773.606348,2221.676944
1410.507031,8438.347739,-4737.318029,2374.896044
1410.507360,8438.347739,-4811.338623,995.924147
1410.507689,7328.038826,-4515.256246,842.705048
1410.508018,6439.791695,-5625.565159,153.219100
1410.508347,6661.853478,-6587.832884,-612.876398
1410.508676,5847.626942,-7476.080014,536.266849
1410.509005,6735.874072,-7105.977043,1225.752797
1410.509334,8216.285956,-7402.059420,1302.362347
1410.509663,8734.430116,-6217.729913,1762.019645
1410.509993,8586.388927,-5403.503377,1532.190996
1410.510322,7698.141797,-6809.894666,1685.410096
1410.510651,6217.729913,-7550.100608,1455.581446
1410.510980,4589.276840,-8290.306550,229.828649
1410.511309,3552.988522,-7179.997637,612.876398
1410.511638,4959.379811,-6809.894666,229.828649
1410.511967,7550.100608,-7402.059420,2145.067394
1410.512296,9474.636058,-6217.729913,3064.381992
1410.512625,9474.636058,-4589.276840,2374.896044
1410.512954,8068.244768,-3997.112087,612.876398
1410.513283,6513.812290,-5847.626942,612.876398
1410.513613,6291.750507,-7179.997637,612.876398
1410.513942,5477.523971,-6957.935855,0.000000
1410.514271,5847.626942,-7698.141797,536.266849
1410.514600,7105.977043,-7105.977043,1072.533697
1410.514929,8068.244768,-7179.997637,2451.505594
1410.515258,8068.244768,-6217.729913,2374.896044
1410.515587,7994.224174,-6291.750507,1532.190996
1410.515916,7624.121203,-6883.915261,766.095498
1410.516245,5995.668130,-7550.100608,536.266849
1410.516574,4589.276840,-7920.203579,0.000000
1410.516903,4589.276840,-7105.977043,-306.438199
1410.517233,5921.647536,-7105.977043,1532.190996
1410.517562,8512.368333,-7105.977043,2068.457845
1410.517891,8438.347739,-5625.565159,1762.019645
1410.518220,8142.265362,-5033.400406,1225.752797
1410.518549,8142.265362,-5403.503377,995.924147
1410.518878,7254.018232,-5181.441594,1225.752797
1410.519207,5847.626942,-5255.462188,153.219100
1410.519536,6143.709319,-5625.565159,153.219100
1410.519865,7624.121203,-5847.626942,1302.362347
1410.520194,7698.141797,-7550.100608,1838.629195
1410.520523,6809.894666,-8216.285956,2451.505594
1410.520853,6143.709319,-6883.915261,1225.752797
1410.521182,6217.729913,-6513.812290,229.828649
1410.521511,5921.647536,-6957.935855,153.219100
1410.521840,5995.668130,-7994.224174,229.828649
1410.522169,5773.606348,-7994.224174,612.876398
1410.522498,6143.709319,-6513.812290,842.705048
1410.522827,7402.059420,-7105.977043,1455.581446
1410.523156,7920.203579,-6069.688724,1149.143247
1410.523485,8290.306550,-5403.503377,1455.581446
1410.523814,7624.121203,-5773.606348,689.485948
1410.524143,8586.388927,-5181.441594,1225.752797
1410.524473,8364.327145,-5477.523971,919.314598
1410.524802,7179.997637,-5477.523971,2068.457845
1410.525131,6439.791695,-5773.606348,842.705048
1410.525460,6661.853478,-7179.997637,536.266849
1410.525789,6439.791695,-7994.224174,1455.581446
1410.526118,6217.729913,-7179.997637,995.924147
1410.526447,6883.915261,-7031.956449,1225.752797
1410.526776,7994.224174,-7402.059420,1455.581446
1410.527105,7328.038826,-7105.977043,919.314598
1410.527434,5995.668130,-6365.771101,0.000000
1410.527763,4737.318029,-7105.977043,383.047749
1410.528093,5847.626942,-7624.121203,995.924147
1410.528422,7402.059420,-7105.977043,842.705048
1410.528751,7254.018232,-6735.874072,1225.752797
1410.529080,7328.038826,-5921.647536,1149.143247
1410.529409,8660.409521,-5329.482782,229.828649
1410.529738,8290.306550,-6809.894666,1455.581446
1410.530067,7105.977043,-6513.812290,842.705048
1410.530396,6291.750507,-6957.935855,536.266849
1410.530725,6291.750507,-7402.059420,536.266849
1410.531054,6143.709319,-7920.203579,0.000000
1410.531384,6365.771101,-7328.038826,229.828649
1410.531713,7031.956449,-6143.709319,766.095498
1410.532042,8512.368333,-5995.668130,1455.581446
1410.532371,8808.450710,-5551.544565,2374.896044
1410.532700,7402.059420,-7031.956449,1072.533697
1410.533029,5181.441594,-6661.853478,306.438199
1410.533358,4663.297435,-7328.038826,-229.828649
1410.533687,6439.791695,-7698.141797,995.924147
1410.534016,7031.956449,-6661.853478,1455.581446
1410.534345,7328.038826,-6217.729913,1302.362347
1410.534674,7476.080014,-4885.359217,995.924147
1410.535004,7994.224174,-5847.626942,1225.752797
1410.535333,7920.203579,-5995.668130,2068.457845
1410.535662,7105.977043,-6439.791695,1608.800546
1410.535991,6217.729913,-6735.874072,689.485948
1410.536320,6291.750507,-5329.482782,919.314598
1410.536649,6661.853478,-7105.977043,1149.143247
1410.536978,8068.244768,-5995.668130,1762.019645
1410.537307,8068.244768,-5033.400406,1532.190996
1410.537636,8660.409521,-5995.668130,1455.581446
1410.537965,8512.368333,-6957.935855,2451.505594
1410.538294,6661.853478,-7254.018232,1378.971896
1410.538624,4663.297435,-6735.874072,-689.485948
1410.538953,3849.070898,-6883.915261,-459.657299
1410.539282,6439.791695,-7476.080014,766.095498
1410.539611,8142.265362,-6883.915261,1838.629195
1410.539940,8216.285956,-5921.647536,1991.848295
1410.540269,7402.059420,-5773.606348,1149.143247
1410.540598,7994.224174,-5477.523971,766.095498
1410.540927,7402.059420,-5847.626942,536.266849
1410.541256,6587.832884,-5847.626942,842.705048
1410.541585,6735.874072,-6217.729913,919.314598
1410.541914,7550.100608,-6217.729913,612.876398
1410.542244,7328.038826,-7179.997637,1762.019645
1410.542573,7179.997637,-6809.894666,2068.457845
1410.542902,8068.244768,-7031.956449,1532.190996
1410.543231,7550.100608,-7698.141797,1149.143247
1410.543560,5995.668130,-7920.203579,919.314598
1410.543889,4441.235652,-7920.203579,76.609550
1410.544218,4219.173869,-7920.203579,-306.438199
1410.544547,5477.523971,-8438.347739,766.095498
1410.544876,6661.853478,-7698.141797,766.095498
1410.545205,6735.874072,-6439.791695,306.438199
1410.545534,6809.894666,-6069.688724,919.314598
1410.545864,7624.121203,-6143.709319,1072.533697
1410.546193,8586.388927,-6587.832884,995.924147
1410.546522,7698.141797,-5995.668130,1378.971896
1410.546851,6661.853478,-5847.626942,995.924147
1410.547180,7105.977043,-6069.688724,995.924147
1410.547509,8068.244768,-5773.606348,2068.457845
1410.547838,7994.224174,-6809.894666,2145.067394
1410.548167,7698.141797,-5921.647536,2068.457845
1410.548496,7846.182985,-5551.544565,1532.190996
1410.548825,7994.224174,-7105.977043,1762.019645
1410.549154,7179.997637,-7105.977043,2374.896044
1410.549484,5181.441594,-5995.668130,612.876398
1410.549813,4663.297435,-6069.688724,383.047749
1410.550142,5403.503377,-5995.668130,842.705048
1410.550471,6217.729913,-7105.977043,995.924147
1410.550800,6217.729913,-5403.503377,612.876398
1410.551129,6661.853478,-5403.503377,612.876398
1410.551458,8438.347739,-6883.915261,1685.410096
1410.551787,9104.533087,-6365.771101,2451.505594
1410.552116,8512.368333,-5551.544565,1838.629195
1410.552445,7179.997637,-5255.462188,842.705048
1410.552775,7254.018232,-5921.647536,919.314598
1410.553104,7920.203579,-8660.409521,1455.581446
1410.553433,7772.162391,-6957.935855,1685.410096
1410.553762,7105.977043,-6513.812290,1302.362347
1410.554091,6957.935855,-7105.977043,536.266849
1410.554420,6069.688724,-8290.306550,919.314598
1410.554749,5033.400406,-9178.553681,383.047749
1410.555078,3849.070898,-8068.244768,0.000000
1410.555407,3404.947333,-7920.203579,0.000000
1410.555736,4663.297435,-7772.162391,-383.047749
1410.556065,6217.729913,-7105.977043,0.000000
1410.556395,7550.100608,-7328.038826,1302.362347
1410.556724,8882.471304,-5329.482782,1532.190996
1410.557053,9030.512492,-5773.606348,2068.457845
1410.557382,8438.347739,-5181.441594,1762.019645
1410.557711,7624.121203,-5255.462188,842.705048
1410.558040,7179.997637,-5699.585753,1149.143247
1410.558369,7920.203579,-6587.832884,1149.143247
1410.558698,7328.038826,-7179.997637,1455.581446
1410.559027,7105.977043,-6069.688724,1532.190996
1410.559356,7105.977043,-5921.647536,766.095498
1410.559685,7550.100608,-5921.647536,1149.143247
1410.560015,6809.894666,-7476.080014,842.705048
1410.560344,5181.441594,-8586.388927,306.438199
1410.560673,4293.194464,-7772.162391,229.828649
1410.561002,5033.400406,-7328.038826,0.000000
1410.561331,6883.915261,-6587.832884,919.314598
1410.561660,7179.997637,-5773.606348,919.314598
1410.561989,7920.203579,-5107.421000,995.924147
1410.562318,8660.409521,-5699.585753,2145.067394
1410.562647,9400.615463,-5625.565159,1915.238745
1410.562976,8586.388927,-5625.565159,1378.971896
1410.563305,6143.709319,-5995.668130,689.485948
1410.563635,5773.606348,-7105.977043,306.438199
1410.563964,6883.915261,-6069.688724,459.657299
1410.564293,7698.141797,-6513.812290,1225.752797
1410.564622,8290.306550,-6143.709319,2987.772442
1410.564951,9178.553681,-5107.421000,2221.676944
1410.565280,7846.182985,-6809.894666,1302.362347
1410.565609,5033.400406,-7328.038826,0.000000
1410.565938,3701.029710,-7994.224174,0.000000
1410.566267,4293.194464,-8586.388927,-383.047749
1410.566596,5847.626942,-7105.977043,842.705048
1410.566925,7550.100608,-6513.812290,1455.581446
1410.567255,9548.656652,-3552.988522,1762.019645
1410.567584,9474.636058,-4589.276840,1225.752797
1410.567913,9030.512492,-5921.647536,2068.457845
1410.568242,8142.265362,-5847.626942,1302.362347
1410.568571,6661.853478,-6291.750507,306.438199
1410.568900,6365.771101,-5477.523971,153.219100
1410.569229,6217.729913,-7624.121203,766.095498
1410.569558,7698.141797,-7550.100608,1685.410096
1410.569887,8142.265362,-7105.977043,2068.457845
1410.570216,7920.203579,-5699.585753,1225.752797
1410.570545,7476.080014,-6291.750507,1225.752797
1410.570875,6291.750507,-8512.368333,1455.581446
1410.571204,4145.153275,-8290.306550,153.219100
1410.571533,2886.803174,-7846.182985,-766.095498
1410.571862,3552.988522,-9104.533087,229.828649
1410.572191,5773.606348,-7624.121203,842.705048
1410.572520,7846.182985,-7179.997637,1608.800546
1410.572849,7402.059420,-6439.791695,919.314598
1410.573178,7105.977043,-5921.647536,919.314598
1410.573507,7920.203579,-7031.956449,1149.143247
1410.573836,7550.100608,-6069.688724,842.705048
1410.574165,6661.853478,-5625.565159,459.657299
1410.574495,6883.915261,-5625.565159,229.828649
1410.574824,7772.162391,-5847.626942,1149.143247
1410.575153,8290.306550,-6587.832884,1685.410096
1410.575482,8364.327145,-5921.647536,2451.505594
1410.575811,8882.471304,-5181.441594,1685.410096
1410.576140,7994.224174,-5625.565159,1685.410096
1410.576469,6809.894666,-6291.750507,766.095498
1410.576798,4145.153275,-6513.812290,0.000000
1410.577127,4219.173869,-6883.915261,-459.657299
1410.577456,5255.462188,-7476.080014,612.876398
1410.577786,7846.182985,-6661.853478,1532.190996
1410.578115,8290.306550,-6513.812290,1532.190996
1410.578444,8068.244768,-4293.194464,1225.752797
1410.578773,8808.450710,-5329.482782,1455.581446
1410.579102,8956.491898,-5477.523971,1762.019645
1410.579431,7254.018232,-3923.091493,1072.533697
1410.579760,6809.894666,-5403.503377,229.828649
1410.580089,7402.059420,-5995.668130,1072.533697
1410.580418,8142.265362,-7105.977043,1991.848295
1410.580747,7920.203579,-7624.121203,2374.896044
1410.581076,7105.977043,-5625.565159,2374.896044
1410.581405,7105.977043,-5699.585753,536.266849
1410.581734,6661.853478,-6587.832884,459.657299
1410.582063,5699.585753,-8438.347739,1149.143247
1410.582392,4959.379811,-8364.327145,-229.828649
1410.582721,4219.173869,-8586.388927,-383.047749
1410.583050,4811.338623,-8734.430116,76.609550
1410.583379,6661.853478,-6809.894666,229.828649
1410.583708,7772.162391,-7254.018232,1608.800546
1410.584037,9030.512492,-6661.853478,1455.581446
1410.584366,8660.409521,-5995.668130,1072.533697
1410.584695,7920.203579,-6217.729913,1225.752797
1410.585024,6513.812290,-5551.544565,153.219100
1410.585353,6143.709319,-7105.977043,153.219100
1410.585682,6143.709319,-8290.306550,1302.362347
1410.586011,6587.832884,-6809.894666,995.924147
1410.586340,7328.038826,-7846.182985,1838.629195
1410.586669,6957.935855,-6809.894666,2221.676944
1410.586998,7402.059420,-4811.338623,1378.971896
1410.587327,8512.368333,-6883.915261,1838.629195
1410.587657,6217.729913,-7031.956449,919.314598
1410.587986,4145.153275,-7920.203579,-612.876398
1410.588315,4737.318029,-7624.121203,1072.533697
1410.588644,6439.791695,-7254.018232,-383.047749
1410.588973,7476.080014,-6587.832884,1149.143247
1410.589302,7772.162391,-5625.565159,2068.457845
1410.589631,9030.512492,-4737.318029,1225.752797
1410.589960,9474.636058,-4885.359217,1608.800546
1410.590289,8068.244768,-5033.400406,1378.971896
1410.590618,7550.100608,-3627.009116,383.047749
1410.590947,7105.977043,-4959.379811,306.438199
1410.591276,7105.977043,-7179.997637,1608.800546
1410.591605,8586.388927,-6217.729913,1532.190996
1410.591934,8142.265362,-5921.647536,1302.362347
1410.592263,7920.203579,-5329.482782,1838.629195
1410.592592,8142.265362,-5773.606348,1532.190996
1410.592921,7698.141797,-6587.832884,1838.629195
1410.593250,5403.503377,-6809.894666,383.047749
1410.593579,4885.359217,-7698.141797,0.000000
1410.593908,5477.523971,-8068.244768,995.924147
1410.594237,6439.791695,-7328.038826,766.095498
1410.594566,6883.915261,-6587.832884,766.095498
1410.594895,6809.894666,-5255.462188,689.485948
1410.595224,7698.141797,-6809.894666,1072.533697
1410.595553,7624.121203,-7624.121203,1455.581446
1410.595882,7031.956449,-5551.544565,536.266849
1410.596211,6513.812290,-5921.647536,-153.219100
1410.596540,7846.182985,-6217.729913,1378.971896
1410.596869,7920.203579,-7105.977043,1455.581446
1410.597198,7402.059420,-7105.977043,1608.800546
1410.597527,7698.141797,-5403.503377,2145.067394
1410.597856,8660.409521,-5995.668130,612.876398
1410.598185,7328.038826,-6957.935855,1302.362347
1410.598514,5107.421000,-8956.491898,689.485948
1410.598843,4515.256246,-8734.430116,-766.095498
1410.599172,4737.318029,-8290.306550,0.000000
1410.599501,4811.338623,-9030.512492,919.314598
1410.599830,6217.729913,-7328.038826,919.314598
1410.600159,6809.894666,-6587.832884,919.314598
1410.600488,7105.977043,-6587.832884,995.924147
1410.600817,7105.977043,-6291.750507,1149.143247
1410.601146,7105.977043,-6883.915261,1991.848295
1410.601475,6217.729913,-5699.585753,1762.019645
1410.601804,6069.688724,-5625.565159,1072.533697
1410.602133,7254.018232,-3552.988522,1149.143247
1410.602462,8364.327145,-5625.565159,1991.848295
1410.602791,9178.553681,-5699.585753,2757.943793
1410.603120,9030.512492,-4071.132681,1608.800546
1410.603449,7994.224174,-5403.503377,612.876398
1410.603778,7105.977043,-6957.935855,919.314598
1410.604107,4959.379811,-8808.450710,612.876398
1410.604436,4515.256246,-9400.615463,0.000000
1410.604765,5033.400406,-9178.553681,689.485948
1410.605094,6661.853478,-7328.038826,536.266849
1410.605424,7179.997637,-5921.647536,536.266849
1410.605753,7550.100608,-4589.276840,1455.581446
1410.606082,7994.224174,-5329.482782,1149.143247
1410.606411,8216.285956,-5921.647536,1455.581446
1410.606740,7105.977043,-4441.235652,995.924147
1410.607069,6661.853478,-4737.318029,536.266849
1410.607398,7105.977043,-5773.606348,919.314598
1410.607727,7328.038826,-6883.915261,1532.190996
1410.608056,7328.038826,-6587.832884,1149.143247
1410.608385,7624.121203,-6217.729913,1762.019645
1410.608714,8586.388927,-5773.606348,1838.629195
1410.609043,8512.368333,-6439.791695,1838.629195
1410.609372,7105.977043,-8142.265362,1302.362347
1410.609701,5329.482782,-7624.121203,229.828649
1410.610030,4219.173869,-7846.182985,-229.828649
1410.610359,5329.482782,-7624.121203,689.485948
1410.610688,6957.935855,-6365.771101,1149.143247
1410.611017,7105.977043,-5921.647536,536.266849
1410.611346,6809.894666,-6143.709319,1302.362347
1410.611675,6291.750507,-6439.791695,536.266849
1410.612004,6365.771101,-7179.997637,689.485948
1410.612333,6217.729913,-6439.791695,153.219100
1410.612662,5995.668130,-5847.626942,-306.438199
1410.612991,7105.977043,-7328.038826,612.876398
1410.613320,8512.368333,-7846.182985,1685.410096
1410.613649,9104.533087,-7698.141797,1838.629195
1410.613978,8586.388927,-5329.482782,1455.581446
1410.614307,8364.327145,-5477.523971,1072.533697
1410.614636,7550.100608,-6809.894666,612.876398
1410.614965,5625.565159,-7994.224174,1225.752797
1410.615294,4663.297435,-8142.265362,306.438199
1410.615623,4737.318029,-7994.224174,306.438199
1410.615952,5329.482782,-7179.997637,1149.143247
1410.616281,5995.668130,-7624.121203,1149.143247
1410.616610,6587.832884,-6217.729913,459.657299
1410.616939,6587.832884,-5477.523971,995.924147
1410.617268,6957.935855,-6291.750507,612.876398
1410.617597,7624.121203,-6143.709319,1149.143247
1410.617926,7254.018232,-5181.441594,919.314598
1410.618255,7476.080014,-6291.750507,459.657299
1410.618584,7698.141797,-6809.894666,1225.752797
1410.618913,8660.409521,-6365.771101,1532.190996
1410.619242,8364.327145,-6661.853478,1455.581446
1410.619571,8660.409521,-4219.173869,1608.800546
1410.619900,8956.491898,-4441.235652,1455.581446
1410.620229,7994.224174,-5477.523971,1225.752797
1410.620558,6513.812290,-6291.750507,1532.190996
1410.620887,5921.647536,-5921.647536,536.266849
1410.621216,5773.606348,-6883.915261,306.438199
1410.621545,6143.709319,-7698.141797,1072.533697
1410.621874,6809.894666,-7402.059420,842.705048
1410.622203,7402.059420,-6439.791695,1149.143247
1410.622532,7772.162391,-5477.523971,1149.143247
1410.622862,7624.121203,-5477.523971,995.924147
1410.623191,6957.935855,-5847.626942,842.705048
1410.623520,6513.812290,-6291.750507,842.705048
1410.623849,6143.709319,-8142.265362,229.828649
1410.624178,5329.482782,-7994.224174,919.314598
1410.624507,5921.647536,-7920.203579,766.095498
1410.624836,7328.038826,-7031.956449,1302.362347
1410.625165,8586.388927,-5773.606348,1838.629195
1410.625494,8882.471304,-6883.915261,1991.848295
1410.625823,7402.059420,-6587.832884,1685.410096
1410.626152,5625.565159,-7031.956449,842.705048
1410.626481,4811.338623,-7328.038826,-689.485948
1410.626810,5181.441594,-7624.121203,-306.438199
1410.627139,5921.647536,-8068.244768,689.485948
1410.627468,6809.894666,-7476.080014,995.924147
1410.627797,7624.121203,-5921.647536,1685.410096
1410.628126,8290.306550,-6217.729913,995.924147
1410.628455,7920.203579,-6513.812290,1608.800546
1410.628784,6809.894666,-6735.874072,766.095498
1410.629113,5551.544565,-6513.812290,536.266849
1410.629442,5625.565159,-7402.059420,689.485948
1410.629771,6735.874072,-6513.812290,1455.581446
1410.630100,7994.224174,-5551.544565,1838.629195
1410.630429,8956.491898,-6439.791695,2298.286494
1410.630758,9696.697840,-5107.421000,2451.505594
1410.631087,8660.409521,-6587.832884,2145.067394
1410.631416,6439.791695,-6809.894666,995.924147
1410.631745,4663.297435,-6439.791695,383.047749
1410.632074,4959.379811,-7698.141797,459.657299
1410.632403,6069.688724,-7179.997637,383.047749
1410.632732,6513.812290,-6735.874072,766.095498
1410.633061,7105.977043,-5255.462188,1532.190996
1410.633390,9326.594869,-4737.318029,1378.971896
1410.633719,8290.306550,-5329.482782,1838.629195
1410.634048,6661.853478,-5625.565159,766.095498
1410.634377,5921.647536,-5477.523971,383.047749
1410.634706,6439.791695,-5847.626942,459.657299
1410.635035,7402.059420,-7698.141797,1838.629195
1410.635364,7624.121203,-6957.935855,3524.039291
1410.635693,8216.285956,-5625.565159,1762.019645
1410.636022,7920.203579,-6365.771101,1225.752797
1410.636351,7994.224174,-5773.606348,1838.629195
1410.636680,7402.059420,-7179.997637,1455.581446
1410.637009,5181.441594,-7254.018232,0.000000
1410.637338,3182.885551,-7476.080014,-306.438199
1410.637667,3923.091493,-8364.327145,-689.485948
1410.637996,5773.606348,-7105.977043,229.828649
1410.638325,6587.832884,-7846.182985,1838.629195
1410.638654,8364.327145,-6217.729913,1838.629195
1410.638983,8660.409521,-6217.729913,1685.410096
1410.639312,7920.203579,-6883.915261,1149.143247
1410.639641,6957.935855,-5033.400406,536.266849
1410.639970,6587.832884,-6217.729913,0.000000
1410.640299,6809.894666,-7105.977043,459.657299
1410.640629,7105.977043,-7550.100608,1532.190996
1410.640958,7550.100608,-7402.059420,2068.457845
1410.641287,7920.203579,-6439.791695,1838.629195
1410.641616,7624.121203,-5551.544565,2068.457845
1410.641945,7476.080014,-6439.791695,1072.533697
1410.642274,6069.688724,-6069.688724,0.000000
1410.642603,4737.318029,-6217.729913,76.609550
1410.642932,6069.688724,-7105.977043,536.266849
1410.643261,7105.977043,-7105.977043,1072.533697
1410.643590,6957.935855,-6439.791695,1225.752797
1410.643919,7328.038826,-5921.647536,1149.143247
1410.644248,8068.244768,-6143.709319,1532.190996
1410.644577,7698.141797,-6217.729913,2068.457845
1410.644906,7476.080014,-6513.812290,2145.067394
1410.645235,6957.935855,-6069.688724,459.657299
1410.645564,5773.606348,-5995.668130,459.657299
1410.645893,6069.688724,-7328.038826,1149.143247
1410.646222,7328.038826,-7254.018232,1685.410096
1410.646551,7550.100608,-6513.812290,1532.190996
1410.646880,7624.121203,-5551.544565,1302.362347
1410.647209,7994.224174,-5477.523971,1685.410096
1410.647538,7624.121203,-6587.832884,766.095498
1410.647867,6143.709319,-7105.977043,306.438199
1410.648196,4589.276840,-6735.874072,-612.876398
1410.648525,4811.338623,-7550.100608,-306.438199
1410.648854,6587.832884,-7328.038826,459.657299
1410.649183,6957.935855,-7476.080014,1532.190996
1410.649512,7550.100608,-6809.894666,1532.190996
1410.649841,7698.141797,-6661.853478,1302.362347
1410.650170,8068.244768,-6587.832884,1838.629195
1410.650499,7105.977043,-5847.626942,1225.752797
1410.650828,5847.626942,-5181.441594,766.095498
1410.651157,6439.791695,-5995.668130,306.438199
1410.651486,7105.977043,-6587.832884,766.095498
1410.651815,7550.100608,-6291.750507,1762.019645
1410.652144,8290.306550,-5403.503377,1685.410096
1410.652473,8364.327145,-5477.523971,1225.752797
1410.652802,7772.162391,-6365.771101,1838.629195
1410.653131,6809.894666,-7994.224174,536.266849
1410.653460,5033.400406,-7550.100608,306.438199
1410.653789,4367.215058,-8512.368333,0.000000
1410.654118,5403.503377,-8290.306550,306.438199
1410.654447,7105.977043,-7920.203579,1915.238745
1410.654776,8438.347739,-6809.894666,2068.457845
1410.655105,8290.306550,-4959.379811,1532.190996
1410.655434,7624.121203,-5181.441594,1378.971896
1410.655763,7179.997637,-5329.482782,842.705048
1410.656092,6809.894666,-6365.771101,306.438199
1410.656421,6809.894666,-4441.235652,306.438199
1410.656750,6957.935855,-6439.791695,536.266849
1410.657079,7031.956449,-7402.059420,2068.457845
1410.657408,7402.059420,-6365.771101,1455.581446
1410.657737,7550.100608,-6365.771101,1072.533697
1410.658066,8438.347739,-6143.709319,1455.581446
1410.658396,7772.162391,-6883.915261,1302.362347
1410.658725,6587.832884,-8142.265362,689.485948
1410.659054,4663.297435,-8068.244768,612.876398
1410.659383,4441.235652,-8438.347739,153.219100
1410.659712,6365.771101,-7402.059420,1762.019645
1410.660041,7624.121203,-6809.894666,2298.286494
1410.660370,7698.141797,-5773.606348,1838.629195
1410.660699,7624.121203,-3552.988522,612.876398
1410.661028,7624.121203,-4219.173869,842.705048
1410.661357,7994.224174,-5477.523971,1149.143247
1410.661686,7772.162391,-5477.523971,1149.143247
1410.662015,7031.956449,-5921.647536,919.314598
1410.662344,7031.956449,-6513.812290,459.657299
1410.662673,7105.977043,-7179.997637,1838.629195
1410.663002,7624.121203,-7846.182985,2068.457845
1410.663331,7328.038826,-7031.956449,1302.362347
1410.663660,7476.080014,-6883.915261,995.924147
1410.663989,6143.709319,-8290.306550,689.485948
1410.664318,3849.070898,-8364.327145,0.000000
1410.664647,3256.906145,-8216.285956,153.219100
1410.664976,5033.400406,-8956.491898,536.266849
1410.665305,6957.935855,-6661.853478,1455.581446
1410.665634,7624.121203,-5551.544565,1532.190996
1410.665963,8290.306550,-4885.359217,1762.019645
1410.666292,9104.533087,-4293.194464,1608.800546
1410.666621,8734.430116,-5329.482782,1532.190996
1410.666950,7402.059420,-5033.400406,1532.190996
1410.667279,6809.894666,-5477.523971,459.657299
1410.667608,6587.832884,-6661.853478,459.657299
1410.667937,6513.812290,-7698.141797,536.266849
1410.668266,6809.894666,-8290.306550,1685.410096
1410.668595,7179.997637,-6439.791695,1532.190996
1410.668924,7179.997637,-6809.894666,1378.971896
1410.669253,6513.812290,-7179.997637,1302.362347
1410.669582,6069.688724,-7994.224174,612.876398
1410.669911,4515.256246,-8068.244768,0.000000
1410.670240,3775.050304,-6883.915261,-766.095498
1410.670569,5773.606348,-7550.100608,153.219100
1410.670898,7698.141797,-7031.956449,1762.019645
1410.671227,8956.491898,-5255.462188,1915.238745
1410.671556,9770.718434,-4293.194464,1762.019645
1410.671885,9696.697840,-2960.823768,1455.581446
1410.672214,9474.636058,-4293.194464,1915.238745
1410.672543,8512.368333,-4737.318029,1685.410096
1410.672872,7031.956449,-5033.400406,1072.533697
1410.673201,6735.874072,-6513.812290,612.876398
1410.673530,5773.606348,-7698.141797,842.705048
1410.673859,5699.585753,-8068.244768,1762.019645
1410.674188,5773.606348,-7994.224174,842.705048
1410.674517,6217.729913,-7328.038826,1225.752797
1410.674846,6365.771101,-7476.080014,919.314598
1410.675175,5551.544565,-7994.224174,766.095498
1410.675504,4441.235652,-7179.997637,459.657299
1410.675834,4367.215058,-8364.327145,0.000000
1410.676163,6069.688724,-7179.997637,919.314598
1410.676492,7550.100608,-6809.894666,1608.800546
1410.676821,9030.512492,-5921.647536,2145.067394
1410.677150,9474.636058,-4219.173869,1608.800546
1410.677479,8808.450710,-4737.318029,1378.971896
1410.677808,8364.327145,-5403.503377,1302.362347
1410.678137,7105.977043,-5625.565159,536.266849
1410.678466,6513.812290,-6143.709319,306.438199
1410.678795,6809.894666,-6957.935855,536.266849
1410.679124,7254.018232,-8660.409521,1302.362347
1410.679453,6809.894666,-8216.285956,1685.410096
1410.679782,6883.915261,-7772.162391,1532.190996
1410.680111,7328.038826,-7179.997637,1072.533697
1410.680440,6143.709319,-7031.956449,383.047749
1410.680769,4367.215058,-7920.203579,306.438199
1410.681098,4663.297435,-8068.244768,0.000000
1410.681427,5625.565159,-7476.080014,229.828649
1410.681756,6957.935855,-7105.977043,1455.581446
1410.682085,8216.285956,-5551.544565,1378.971896
1410.682414,8956.491898,-3849.070898,1072.533697
1410.682744,9178.553681,-4071.132681,1378.971896
1410.683073,8882.471304,-4737.318029,1608.800546
1410.683402,8512.368333,-5551.544565,1225.752797
1410.683731,7179.997637,-4663.297435,1149.143247
1410.684061,6587.832884,-6069.688724,536.266849
1410.684390,7105.977043,-7105.977043,1762.019645
1410.684719,7698.141797,-7105.977043,1302.362347
1410.685048,7698.141797,-7328.038826,1532.190996
1410.685378,7328.038826,-6587.832884,1685.410096
1410.685707,7105.977043,-7031.956449,842.705048
1410.686036,5033.400406,-8142.265362,306.438199
1410.686365,3997.112087,-7846.182985,0.000000
1410.686694,4737.318029,-7994.224174,459.657299
1410.687024,6291.750507,-7402.059420,1225.752797
1410.687353,7105.977043,-7476.080014,2145.067394
1410.687682,7920.203579,-4589.276840,1072.533697
1410.688011,8364.327145,-3701.029710,842.705048
1410.688341,8808.450710,-4737.318029,1302.362347
1410.688670,8956.491898,-5107.421000,1915.238745
1410.688999,8216.285956,-5773.606348,2068.457845
1410.689328,7254.018232,-4737.318029,1532.190996
1410.689658,6735.874072,-5995.668130,919.314598
1410.689987,7179.997637,-7254.018232,1762.019645
1410.690316,7105.977043,-6661.853478,1532.190996
1410.690645,6957.935855,-7624.121203,1072.533697
1410.690975,6439.791695,-7179.997637,689.485948
1410.691304,5551.544565,-7105.977043,612.876398
1410.691633,4293.194464,-9252.574275,0.000000
1410.691962,4071.132681,-8808.450710,76.609550
1410.692292,4589.276840,-8734.430116,0.000000
1410.692621,5921.647536,-8660.409521,689.485948
1410.692950,7254.018232,-6143.709319,1762.019645
1410.693279,8660.409521,-4441.235652,1225.752797
1410.693609,9474.636058,-3627.009116,995.924147
1410.693938,9178.553681,-4515.256246,1532.190996
1410.694267,8956.491898,-5847.626942,2374.896044
1410.694596,7550.100608,-5329.482782,1225.752797
1410.694926,6809.894666,-5329.482782,1378.971896
1410.695255,7031.956449,-6143.709319,1302.362347
1410.695584,7476.080014,-7624.121203,1378.971896
1410.695913,7328.038826,-6735.874072,1225.752797
1410.696243,6661.853478,-6513.812290,1225.752797
1410.696572,7105.977043,-7624.121203,1225.752797
1410.696901,5921.647536,-7698.141797,612.876398
1410.697230,3627.009116,-9252.574275,306.438199
1410.697560,2812.782580,-8882.471304,-383.047749
1410.697889,4367.215058,-9104.533087,229.828649
1410.698218,6439.791695,-8586.388927,1225.752797
1410.698547,7920.203579,-5551.544565,1838.629195
1410.698876,8956.491898,-4219.173869,1838.629195
1410.699206,9548.656652,-3701.029710,1072.533697
1410.699535,9252.574275,-3849.070898,1378.971896
1410.699864,8438.347739,-4663.297435,1072.533697
1410.700193,8068.244768,-4737.318029,689.485948
1410.700523,8512.368333,-4959.379811,1072.533697
1410.700852,7698.141797,-6735.874072,1149.143247
1410.701181,7994.224174,-7031.956449,1225.752797
1410.701510,7550.100608,-7031.956449,1378.971896
1410.701840,7031.956449,-6809.894666,919.314598
1410.702169,6735.874072,-7179.997637,995.924147
1410.702498,5181.441594,-8438.347739,612.876398
1410.702827,3404.947333,-8956.491898,153.219100
1410.703157,2886.803174,-8586.388927,-459.657299
1410.703486,4737.318029,-8734.430116,459.657299
1410.703815,6883.915261,-6957.935855,1685.410096
1410.704144,8882.471304,-4959.379811,2528.115143
1410.704474,9474.636058,-4367.215058,1762.019645
1410.704803,9104.533087,-3182.885551,1455.581446
1410.705132,8290.306550,-4811.338623,1149.143247
1410.705461,7624.121203,-5033.400406,306.438199
1410.705791,7402.059420,-5625.565159,842.705048
1410.706120,7476.080014,-6883.915261,1302.362347
1410.706449,7994.224174,-7550.100608,1378.971896
1410.706778,7105.977043,-7476.080014,1302.362347
1410.707108,6143.709319,-8290.306550,842.705048
1410.707437,7105.977043,-7105.977043,612.876398
1410.707766,7105.977043,-7105.977043,1302.362347
1410.708095,5255.462188,-8216.285956,766.095498
1410.708425,3701.029710,-7772.162391,-229.828649
1410.708754,3849.070898,-7550.100608,0.000000
1410.709083,5477.523971,-8142.265362,0.000000
1410.709412,7402.059420,-7105.977043,1838.629195
1410.709741,9178.553681,-4367.215058,2068.457845
1410.710071,10066.800811,-4219.173869,1608.800546
1410.710400,9474.636058,-4589.276840,1838.629195
1410.710729,8512.368333,-4811.338623,919.314598
1410.711058,7624.121203,-5107.421000,229.828649
1410.711388,6735.874072,-6069.688724,536.266849
1410.711717,6957.935855,-7624.121203,766.095498
1410.712046,7105.977043,-7846.182985,1608.800546
1410.712375,7179.997637,-7846.182985,1685.410096
1410.712705,7994.224174,-6513.812290,1225.752797
1410.713034,7994.224174,-6217.729913,1838.629195
1410.713363,6439.791695,-6883.915261,1225.752797
1410.713692,4811.338623,-7476.080014,0.000000
1410.714022,4071.132681,-6809.894666,0.000000
1410.714351,4959.379811,-8734.430116,229.828649
1410.714680,6957.935855,-7698.141797,1225.752797
1410.715009,7624.121203,-6069.688724,1225.752797
1410.715339,8290.306550,-5329.482782,1455.581446
1410.715668,9104.533087,-4293.194464,1762.019645
1410.715997,9474.636058,-4441.235652,995.924147
1410.716326,8068.244768,-5329.482782,842.705048
1410.716656,6661.853478,-5477.523971,689.485948
1410.716985,6513.812290,-5995.668130,153.219100
1410.717314,6809.894666,-6661.853478,689.485948
1410.717643,6661.853478,-7402.059420,1991.848295
1410.717973,7105.977043,-6513.812290,2145.067394
1410.718302,7772.162391,-6957.935855,1991.848295
1410.718631,7328.038826,-6291.750507,1685.410096
1410.718960,5625.565159,-7476.080014,842.705048
1410.719290,4219.173869,-7328.038826,306.438199
1410.719619,4145.153275,-7772.162391,0.000000
1410.719948,5181.441594,-8734.430116,919.314598
1410.720277,7105.977043,-7698.141797,1838.629195
1410.720607,8438.347739,-5477.523971,1378.971896
1410.720936,8290.306550,-4737.318029,1455.581446
1410.721265,8216.285956,-5255.462188,766.095498
1410.721594,7994.224174,-7031.956449,612.876398
1410.721923,6439.791695,-6143.709319,229.828649
1410.722253,5847.626942,-6143.709319,229.828649
1410.722582,6661.853478,-6217.729913,153.219100
1410.722911,7994.224174,-7105.977043,1762.019645
1410.723240,8586.388927,-7402.059420,3064.381992
1410.723570,8808.450710,-6069.688724,2451.505594
1410.723899,8290.306550,-5773.606348,2451.505594
1410.724228,7105.977043,-5773.606348,1225.752797
1410.724557,5551.544565,-6809.894666,766.095498
1410.724887,4441.235652,-7254.018232,0.000000
1410.725216,4811.338623,-7772.162391,383.047749
1410.725545,6439.791695,-9030.512492,1225.752797
1410.725874,7105.977043,-7698.141797,1455.581446
1410.726204,6661.853478,-6661.853478,1378.971896
1410.726533,6809.894666,-5329.482782,306.438199
1410.726862,6957.935855,-6735.874072,612.876398
1410.727191,7105.977043,-6661.853478,0.000000
1410.727521,7031.956449,-5773.606348,689.485948
1410.727850,7476.080014,-4959.379811,1455.581446
1410.728179,8364.327145,-5995.668130,1455.581446
1410.728508,8068.244768,-6439.791695,2451.505594
1410.728838,7698.141797,-6217.729913,2298.286494
1410.729167,8438.347739,-5551.544565,1608.800546
1410.729496,8660.409521,-5995.668130,1991.848295
1410.729825,7920.203579,-6143.709319,1685.410096
1410.730155,5847.626942,-6809.894666,612.876398
1410.730484,4589.276840,-8068.244768,0.000000
1410.730813,5107.421000,-8586.388927,306.438199
1410.731142,5773.606348,-7846.182985,842.705048
1410.731472,6513.812290,-6735.874072,1225.752797
1410.731801,7254.018232,-6661.853478,842.705048
1410.732130,7772.162391,-6661.853478,536.266849
1410.732459,7179.997637,-5995.668130,1225.752797
1410.732789,7179.997637,-5329.482782,919.314598
1410.733118,6809.894666,-5181.441594,1225.752797
1410.733447,6957.935855,-5403.503377,1532.190996
1410.733776,7328.038826,-7105.977043,689.485948
1410.734105,7920.203579,-6439.791695,2068.457845
1410.734435,8882.471304,-6143.709319,2374.896044
1410.734764,9770.718434,-5847.626942,1838.629195
1410.735093,8586.388927,-5403.503377,2374.896044
1410.735422,6809.894666,-7476.080014,995.924147
1410.735752,4959.379811,-7772.162391,0.000000
1410.736081,3775.050304,-8956.491898,-383.047749
1410.736410,3034.844362,-10288.862594,0.000000
1410.736739,4145.153275,-8660.409521,0.000000
1410.737069,5107.421000,-7624.121203,76.609550
1410.737398,5847.626942,-7031.956449,766.095498
1410.737727,7476.080014,-5995.668130,1455.581446
1410.738056,7920.203579,-6291.750507,1225.752797
1410.738386,7624.121203,-5625.565159,1225.752797
1410.738715,7920.203579,-4811.338623,1149.143247
1410.739044,8290.306550,-4959.379811,1149.143247
1410.739373,9400.615463,-6217.729913,2604.724693
1410.739703,9326.594869,-7031.956449,3140.991542
1410.740032,9474.636058,-4737.318029,1685.410096
1410.740361,8438.347739,-5477.523971,1378.971896
1410.740690,6809.894666,-7698.141797,1455.581446
1410.741020,4441.235652,-8882.471304,306.438199
1410.741349,3108.864956,-7994.224174,-536.266849
1410.741678,3108.864956,-9030.512492,-306.438199
1410.742007,4737.318029,-7698.141797,459.657299
1410.742337,6143.709319,-7254.018232,1149.143247
1410.742666,7550.100608,-5551.544565,1072.533697
1410.742995,8290.306550,-4959.379811,612.876398
1410.743324,8512.368333,-5255.462188,1532.190996
1410.743654,8512.368333,-5181.441594,1608.800546
1410.743983,7550.100608,-5033.400406,306.438199
1410.744312,7698.141797,-5773.606348,1302.362347
1410.744641,8808.450710,-5403.503377,1149.143247
1410.744971,8734.430116,-7624.121203,2298.286494
1410.745300,8438.347739,-5625.565159,1838.629195
1410.745629,8068.244768,-5477.523971,2298.286494
1410.745958,8068.244768,-7031.956449,1302.362347
1410.746287,6143.709319,-6809.894666,766.095498
1410.746617,3627.009116,-7994.224174,0.000000
1410.746946,3404.947333,-8216.285956,-153.219100
1410.747275,3997.112087,-7846.182985,766.095498
1410.747604,5625.565159,-8808.450710,306.438199
1410.747934,7031.956449,-6661.853478,1915.238745
1410.748263,8216.285956,-5107.421000,995.924147
1410.748592,8586.388927,-5847.626942,1225.752797
1410.748921,8512.368333,-4515.256246,1225.752797
1410.749251,7994.224174,-5995.668130,1072.533697
1410.749580,7179.997637,-5329.482782,919.314598
1410.749909,6809.894666,-6439.791695,766.095498
1410.750238,7179.997637,-7920.203579,306.438199
1410.750568,6957.935855,-7105.977043,842.705048
1410.750897,6735.874072,-7698.141797,995.924147
1410.751226,7550.100608,-6291.750507,995.924147
1410.751555,7476.080014,-6809.894666,1302.362347
1410.751885,6661.853478,-7772.162391,0.000000
1410.752214,4441.235652,-7328.038826,306.438199
1410.752543,4589.276840,-7920.203579,306.438199
1410.752872,6143.709319,-8364.327145,459.657299
1410.753202,7105.977043,-6883.915261,1685.410096
1410.753531,7328.038826,-5181.441594,1302.362347
1410.753860,8586.388927,-4441.235652,1225.752797
1410.754189,8660.409521,-5033.400406,1455.581446
1410.754519,8142.265362,-5477.523971,1685.410096
1410.754848,7105.977043,-5699.585753,229.828649
1410.755177,6365.771101,-6365.771101,1225.752797
1410.755506,7105.977043,-6809.894666,689.485948
1410.755836,7254.018232,-7624.121203,1455.581446
1410.756165,7105.977043,-7772.162391,2145.067394
1410.756494,7920.203579,-5033.400406,612.876398
1410.756823,7846.182985,-5921.647536,1685.410096
1410.757153,7624.121203,-6513.812290,2068.457845
1410.757482,5995.668130,-6217.729913,306.438199
1410.757811,4589.276840,-7105.977043,76.609550
1410.758140,4663.297435,-7624.121203,153.219100
1410.758469,6735.874072,-7179.997637,1225.752797
1410.758799,8290.306550,-6217.729913,1378.971896
1410.759128,8734.430116,-5033.400406,1455.581446
1410.759457,9104.533087,-4737.318029,2221.676944
1410.759786,8882.471304,-5033.400406,1455.581446
1410.760116,7254.018232,-5699.585753,995.924147
1410.760445,6735.874072,-5995.668130,842.705048
1410.760774,6513.812290,-6587.832884,536.266849
1410.761103,6069.688724,-7846.182985,459.657299
1410.761433,5995.668130,-7846.182985,1149.143247
1410.761762,7031.956449,-6143.709319,1149.143247
1410.762091,8142.265362,-5181.441594,1072.533697
1410.762420,8290.306550,-6143.709319,1991.848295
1410.762750,7920.203579,-6365.771101,2068.457845
1410.763079,5773.606348,-6957.935855,383.047749
1410.763408,4515.256246,-8216.285956,0.000000
1410.763737,4441.235652,-7698.141797,-612.876398
1410.764067,7031.956449,-8660.409521,689.485948
1410.764396,7846.182985,-7254.018232,1685.410096
1410.764725,8512.368333,-6735.874072,1608.800546
1410.765054,8734.430116,-7105.977043,1072.533697
1410.765384,7031.956449,-6513.812290,689.485948
1410.765713,4663.297435,-7328.038826,-76.609550
1410.766042,4367.215058,-7179.997637,-229.828649
1410.766371,5477.523971,-7772.162391,0.000000
1410.766701,7254.018232,-7624.121203,1072.533697
1410.767030,7328.038826,-6661.853478,1302.362347
1410.767359,8438.347739,-4959.379811,1762.019645
1410.767688,9178.553681,-5033.400406,1608.800546
1410.768018,8808.450710,-5477.523971,2068.457845
1410.768347,7476.080014,-5773.606348,1532.190996
1410.768676,6069.688724,-6365.771101,766.095498
1410.769005,5699.585753,-7550.100608,1762.019645
1410.769334,7179.997637,-6587.832884,919.314598
1410.769664,7994.224174,-6661.853478,1838.629195
1410.769993,8438.347739,-4811.338623,2604.724693
1410.770322,8216.285956,-4663.297435,1455.581446
1410.770651,6809.894666,-5033.400406,1072.533697
1410.770981,5477.523971,-5033.400406,-383.047749
1410.771310,3849.070898,-7105.977043,-1225.752797
1410.771639,4663.297435,-6217.729913,76.609550
1410.771968,6957.935855,-7402.059420,612.876398
1410.772298,8734.430116,-7476.080014,2528.115143
1410.772627,9696.697840,-5921.647536,3064.381992
1410.772956,9844.739029,-5181.441594,1991.848295
1410.773285,10140.821405,-3923.091493,1838.629195
1410.773615,8808.450710,-5625.565159,1915.238745
1410.773944,6587.832884,-6661.853478,1149.143247
1410.774273,4589.276840,-6735.874072,459.657299
1410.774602,4441.235652,-8290.306550,689.485948
1410.774932,5255.462188,-7994.224174,995.924147
1410.775261,6439.791695,-7994.224174,1149.143247
1410.775590,6957.935855,-5921.647536,1302.362347
1410.775919,6957.935855,-6661.853478,536.266849
1410.776249,6291.750507,-6365.771101,229.828649
1410.776578,5181.441594,-6587.832884,-306.438199
1410.776907,5847.626942,-7179.997637,0.000000
1410.777236,6957.935855,-7624.121203,383.047749
1410.777566,7698.141797,-8068.244768,1608.800546
1410.777895,8364.327145,-7846.182985,2145.067394
1410.778224,8734.430116,-6439.791695,1915.238745
1410.778553,8660.409521,-5921.647536,1838.629195
1410.778883,7920.203579,-6069.688724,1532.190996
1410.779212,6143.709319,-5773.606348,229.828649
1410.779541,4663.297435,-7179.997637,0.000000
1410.779870,4737.318029,-7846.182985,153.219100
1410.780200,5847.626942,-8068.244768,1149.143247
1410.780529,6735.874072,-7920.203579,1455.581446
1410.780858,6735.874072,-7031.956449,919.314598
1410.781187,7105.977043,-5551.544565,612.876398
1410.781516,7476.080014,-6069.688724,842.705048
1410.781846,7402.059420,-5625.565159,766.095498
1410.782175,7402.059420,-5033.400406,919.314598
1410.782504,7179.997637,-5551.544565,1072.533697
1410.782833,7920.203579,-6069.688724,1225.752797
1410.783162,7920.203579,-7105.977043,2298.286494
1410.783492,7624.121203,-5625.565159,2068.457845
1410.783821,7920.203579,-4589.276840,1991.848295
1410.784150,8660.409521,-4885.359217,1608.800546
1410.784479,8216.285956,-5329.482782,2604.724693
1410.784808,6661.853478,-5921.647536,612.876398
1410.785138,4959.379811,-6735.874072,0.000000
1410.785467,4663.297435,-7994.224174,459.657299
1410.785796,5995.668130,-8290.306550,1455.581446
1410.786125,7105.977043,-7402.059420,1225.752797
1410.786454,7254.018232,-5921.647536,995.924147
1410.786784,7105.977043,-6291.750507,995.924147
1410.787113,7846.182985,-5995.668130,383.047749
1410.787442,7105.977043,-5699.585753,842.705048
1410.787771,6735.874072,-6143.709319,689.485948
1410.788100,7105.977043,-6587.832884,1378.971896
1410.788430,7031.956449,-7624.121203,919.314598
1410.788759,6883.915261,-7550.100608,1762.019645
1410.789088,7772.162391,-6217.729913,1532.190996
1410.789417,8290.306550,-5625.565159,1149.143247
1410.789746,8142.265362,-4885.359217,1532.190996
1410.790076,7105.977043,-7402.059420,842.705048
1410.790405,5181.441594,-7031.956449,0.000000
1410.790734,4293.194464,-8142.265362,-383.047749
1410.791063,5773.606348,-8068.244768,919.314598
1410.791392,7328.038826,-7476.080014,1532.190996
1410.791721,7105.977043,-7994.224174,1685.410096
1410.792051,7402.059420,-4293.194464,1149.143247
1410.792380,7550.100608,-5847.626942,842.705048
1410.792709,7846.182985,-5107.421000,995.924147
1410.793038,7031.956449,-5551.544565,1072.533697
1410.793367,6217.729913,-6735.874072,306.438199
1410.793697,6291.750507,-5625.565159,459.657299
1410.794026,6439.791695,-9178.553681,1378.971896
1410.794355,7550.100608,-7328.038826,1915.238745
1410.794684,7994.224174,-6069.688724,1608.800546
1410.795013,8216.285956,-6587.832884,1378.971896
1410.795343,7772.162391,-5329.482782,842.705048
1410.795672,5551.544565,-7920.203579,0.000000
1410.796001,4145.153275,-7550.100608,0.000000
1410.796330,4145.153275,-8068.244768,229.828649
1410.796659,6513.812290,-7402.059420,919.314598
1410.796989,8068.244768,-6661.853478,1455.581446
1410.797318,8808.450710,-5773.606348,2145.067394
1410.797647,9770.718434,-3701.029710,2145.067394
1410.797976,9104.533087,-4737.318029,1532.190996
1410.798305,7920.203579,-5033.400406,1532.190996
1410.798635,6291.750507,-4737.318029,1532.190996
1410.798964,6587.832884,-6291.750507,536.266849
1410.799293,6587.832884,-7402.059420,1302.362347
1410.799622,6587.832884,-8660.409521,1991.848295
1410.799951,7402.059420,-6587.832884,1838.629195
1410.800281,8216.285956,-5699.585753,1532.190996
1410.800610,7624.121203,-5921.647536,1149.143247
1410.800939,6587.832884,-6217.729913,383.047749
1410.801268,4663.297435,-7698.141797,-536.266849
1410.801597,4071.132681,-7105.977043,-766.095498
1410.801927,6069.688724,-8068.244768,995.924147
1410.802256,8068.244768,-7254.018232,1225.752797
1410.802585,8142.265362,-7031.956449,1532.190996
1410.802914,7846.182985,-5551.544565,1915.238745
1410.803243,9104.533087,-4515.256246,1915.238745
1410.803573,9030.512492,-5255.462188,1455.581446
1410.803902,7105.977043,-5477.523971,1225.752797
1410.804231,6143.709319,-5625.565159,536.266849
1410.804560,6217.729913,-6957.935855,612.876398
1410.804889,5773.606348,-7105.977043,919.314598
1410.805219,5477.523971,-8882.471304,1378.971896
1410.805548,6291.750507,-6661.853478,1532.190996
1410.805877,6661.853478,-6661.853478,919.314598
1410.806206,6587.832884,-7550.100608,766.095498
1410.806535,5625.565159,-7550.100608,1072.533697
1410.806865,4663.297435,-7772.162391,0.000000
1410.807194,4959.379811,-7624.121203,0.000000
1410.807523,5921.647536,-7994.224174,995.924147
1410.807852,8068.244768,-6217.729913,1532.190996
1410.808181,8956.491898,-6587.832884,1991.848295
1410.808511,8956.491898,-5255.462188,1991.848295
1410.808840,8734.430116,-4811.338623,995.924147
1410.809169,8512.368333,-4737.318029,919.314598
1410.809498,7105.977043,-5181.441594,383.047749
1410.809827,6143.709319,-6365.771101,229.828649
1410.810157,6735.874072,-6661.853478,919.314598
1410.810486,7550.100608,-7550.100608,766.095498
1410.810815,7624.121203,-6957.935855,1302.362347
1410.811144,7402.059420,-5699.585753,1455.581446
1410.811473,7698.141797,-6291.750507,1455.581446
1410.811803,7550.100608,-6217.729913,995.924147
1410.812132,6143.709319,-7179.997637,536.266849
1410.812461,4885.359217,-6217.729913,0.000000
1410.812790,5625.565159,-7179.997637,0.000000
1410.813119,6365.771101,-8142.265362,1838.629195
1410.813449,7994.224174,-6661.853478,1685.410096
1410.813778,8512.368333,-5551.544565,1302.362347
1410.814107,7772.162391,-4737.318029,1685.410096
1410.814436,7846.182985,-6143.709319,766.095498
1410.814765,7031.956449,-5995.668130,766.095498
1410.815095,5329.482782,-5921.647536,0.000000
1410.815424,6217.729913,-7476.080014,306.438199
1410.815753,7105.977043,-6957.935855,766.095498
1410.816082,7624.121203,-8290.306550,1608.800546
1410.816411,8216.285956,-6957.935855,1915.238745
1410.816741,8216.285956,-5625.565159,1455.581446
1410.817070,7920.203579,-6217.729913,76.609550
1410.817399,6513.812290,-6069.688724,766.095498
1410.817728,4441.235652,-7402.059420,0.000000
1410.818057,3330.926739,-7105.977043,-689.485948
1410.818387,3627.009116,-7994.224174,-612.876398
1410.818716,5773.606348,-9030.512492,612.876398
1410.819045,7402.059420,-7624.121203,2604.724693
1410.819374,8734.430116,-6069.688724,1915.238745
1410.819703,9400.615463,-4145.153275,1532.190996
1410.820033,9030.512492,-4737.318029,1455.581446
1410.820362,8512.368333,-4071.132681,1072.533697
1410.820691,7476.080014,-4367.215058,919.314598
1410.821020,7031.956449,-5921.647536,1072.533697
1410.821349,7550.100608,-6883.915261,1532.190996
1410.821679,7105.977043,-7476.080014,1455.581446
1410.822008,6587.832884,-6809.894666,1532.190996
1410.822337,6883.915261,-6587.832884,1838.629195
1410.822666,7105.977043,-7031.956449,1225.752797
1410.822995,5255.462188,-6439.791695,383.047749
1410.823325,3330.926739,-7624.121203,-536.266849
1410.823654,3923.091493,-8142.265362,-229.828649
1410.823983,6217.729913,-7920.203579,536.266849
1410.824312,7402.059420,-8956.491898,1378.971896
1410.824641,8068.244768,-6883.915261,1915.238745
1410.824971,8438.347739,-5699.585753,1455.581446
1410.825300,8882.471304,-5107.421000,1072.533697
1410.825629,8512.368333,-5477.523971,1608.800546
1410.825958,7624.121203,-4145.153275,919.314598
1410.826287,6883.915261,-5107.421000,459.657299
1410.826616,6735.874072,-6217.729913,919.314598
1410.826946,7105.977043,-6291.750507,1225.752797
1410.827275,7624.121203,-6661.853478,1762.019645
1410.827604,7846.182985,-6587.832884,2145.067394
1410.827933,7328.038826,-6143.709319,1838.629195
1410.828262,6809.894666,-7031.956449,766.095498
1410.828592,5107.421000,-7550.100608,459.657299
1410.828921,4885.359217,-7402.059420,0.000000
1410.829250,5181.441594,-8586.388927,0.000000
1410.829579,6291.750507,-7105.977043,229.828649
1410.829908,6513.812290,-7846.182985,995.924147
1410.830238,7624.121203,-6143.709319,1685.410096
1410.830567,8808.450710,-3997.112087,1838.629195
1410.830896,9104.533087,-5699.585753,2298.286494
1410.831225,7550.100608,-4737.318029,536.266849
1410.831554,5921.647536,-5107.421000,153.219100
1410.831884,6365.771101,-6217.729913,0.000000
1410.832213,6439.791695,-7476.080014,766.095498
1410.832542,6439.791695,-8216.285956,1302.362347
1410.832871,7328.038826,-7254.018232,1762.019645
1410.833200,7550.100608,-7179.997637,1225.752797
1410.833530,7994.224174,-5995.668130,1608.800546
1410.833859,6957.935855,-7698.141797,1532.190996
1410.834188,6069.688724,-6809.894666,459.657299
1410.834517,4811.338623,-7105.977043,153.219100
1410.834846,5329.482782,-8364.327145,612.876398
1410.835176,6143.709319,-6883.915261,1225.752797
1410.835505,7105.977043,-6883.915261,1149.143247
1410.835834,7624.121203,-5921.647536,1915.238745
1410.836163,8438.347739,-5033.400406,2145.067394
1410.836492,8734.430116,-5107.421000,1532.190996
1410.836822,6217.729913,-5255.462188,612.876398
1410.837151,5107.421000,-5847.626942,-229.828649
1410.837480,5847.626942,-6883.915261,153.219100
1410.837809,6809.894666,-7328.038826,1072.533697
1410.838138,7624.121203,-7105.977043,2298.286494
1410.838468,8586.388927,-6069.688724,2451.505594
1410.838797,9400.615463,-6217.729913,2451.505594
1410.839126,9178.553681,-5995.668130,1915.238745
1410.839455,6809.894666,-6143.709319,1149.143247
1410.839784,4959.379811,-7994.224174,0.000000
1410.840114,4219.173869,-8660.409521,0.000000
1410.840443,4071.132681,-9474.636058,306.438199
1410.840772,5329.482782,-9030.512492,1072.533697
1410.841101,6291.750507,-8068.244768,1072.533697
1410.841430,5995.668130,-7328.038826,766.095498
1410.841760,6291.750507,-7328.038826,689.485948
1410.842089,6513.812290,-8438.347739,919.314598
1410.842418,5625.565159,-7031.956449,153.219100
1410.842747,4145.153275,-7254.018232,-383.047749
1410.843076,4959.379811,-8290.306550,0.000000
1410.843406,7031.956449,-8142.265362,1378.971896
1410.843735,7624.121203,-8956.491898,2145.067394
1410.844064,7772.162391,-6513.812290,1838.629195
1410.844393,8586.388927,-5847.626942,1302.362347
1410.844722,7846.182985,-7179.997637,1302.362347
1410.845052,5847.626942,-8068.244768,995.924147
1410.845381,4071.132681,-8586.388927,0.000000
1410.845710,3849.070898,-7698.141797,-229.828649
1410.846039,5033.400406,-7994.224174,153.219100
1410.846368,6957.935855,-8660.409521,2604.724693
1410.846698,6957.935855,-7550.100608,2451.505594
1410.847027,6291.750507,-5551.544565,2298.286494
1410.847356,6661.853478,-3997.112087,919.314598
1410.847685,6809.894666,-5033.400406,1225.752797
1410.848014,5625.565159,-6661.853478,2298.286494
1410.848344,4737.318029,-8586.388927,1455.581446
1410.848673,4589.276840,-8364.327145,383.047749
1410.849002,4367.215058,-10362.883188,383.047749
1410.849331,4071.132681,-13471.748144,2604.724693
1410.849660,4071.132681,-11399.171507,1455.581446
1410.849990,4145.153275,-9178.553681,842.705048
1410.850319,4145.153275,-8512.368333,229.828649
1410.850648,4219.173869,-9178.553681,1608.800546
1410.850977,3552.988522,-9548.656652,1302.362347
1410.851306,2368.659014,-9104.533087,383.047749
1410.851636,2664.741391,-7550.100608,-229.828649
1410.851965,3552.988522,-10066.800811,995.924147
1410.852294,4589.276840,-10362.883188,2757.943793
1410.852623,5329.482782,-7920.203579,2145.067394
1410.852952,5921.647536,-5551.544565,153.219100
1410.853282,6291.750507,-4293.194464,229.828649
1410.853611,6513.812290,-7550.100608,1685.410096
1410.853940,6661.853478,-9992.780217,2528.115143
1410.854269,5699.585753,-9474.636058,1072.533697
1410.854598,4515.256246,-9252.574275,-995.924147
1410.854928,4071.132681,-10881.027347,0.000000
1410.855257,4589.276840,-12731.542202,2681.334243
1410.855586,5329.482782,-11103.089130,2374.896044
1410.855915,4293.194464,-7772.162391,383.047749
1410.856244,2886.803174,-5699.585753,459.657299
1410.856574,3997.112087,-6957.935855,459.657299
1410.856903,5255.462188,-8216.285956,2451.505594
1410.857232,5625.565159,-8586.388927,1991.848295
1410.857561,5477.523971,-7105.977043,1838.629195
1410.857890,5107.421000,-7031.956449,1991.848295
1410.858220,5255.462188,-8438.347739,2068.457845
1410.858549,5773.606348,-9178.553681,1762.019645
1410.858878,5329.482782,-9770.718434,1072.533697
1410.859207,4663.297435,-8290.306550,76.609550
1410.859536,3478.967927,-9474.636058,842.705048
1410.859865,4663.297435,-9474.636058,612.876398
1410.860195,6439.791695,-7105.977043,-229.828649
1410.860524,6587.832884,-8142.265362,536.266849
1410.860853,5625.565159,-8142.265362,1762.019645
1410.861182,5625.565159,-8808.450710,1762.019645
1410.861511,6069.688724,-7476.080014,919.314598
1410.861841,4737.318029,-6439.791695,-459.657299
1410.862170,4367.215058,-8290.306550,-229.828649
1410.862499,4145.153275,-10510.924376,995.924147
1410.862828,5329.482782,-11473.192101,2068.457845
1410.863157,5995.668130,-9326.594869,1762.019645
1410.863487,5773.606348,-7031.956449,1302.362347
1410.863816,5255.462188,-7179.997637,1072.533697
1410.864145,5033.400406,-7846.182985,459.657299
1410.864474,5403.503377,-7402.059420,1378.971896
1410.864803,5773.606348,-6439.791695,1149.143247
1410.865133,5921.647536,-6291.750507,1915.238745
1410.865462,5551.544565,-7105.977043,2068.457845
1410.865791,4441.235652,-10510.924376,1532.190996
1410.866120,2812.782580,-10807.006753,153.219100
1410.866449,1924.535449,-10510.924376,-612.876398
1410.866779,1628.453072,-10955.047942,-229.828649
1410.867108,3552.988522,-10807.006753,153.219100
1410.867437,4737.318029,-11843.295072,1455.581446
1410.867766,4811.338623,-11029.068536,2068.457845
1410.868095,4071.132681,-8734.430116,1532.190996
1410.868425,5255.462188,-7328.038826,1838.629195
1410.868754,5847.626942,-5921.647536,1302.362347
1410.869083,6957.935855,-4885.359217,1762.019645
1410.869412,6587.832884,-5699.585753,1455.581446
1410.869741,6143.709319,-5625.565159,1378.971896
1410.870071,5107.421000,-8216.285956,995.924147
1410.870400,4293.194464,-9474.636058,995.924147
1410.870729,3256.906145,-10807.006753,689.485948
1410.871058,2294.638420,-11991.336260,689.485948
1410.871387,1258.350101,-12731.542202,76.609550
1410.871717,2072.576638,-13175.665768,0.000000
1410.872046,3552.988522,-12361.439231,536.266849
1410.872375,4959.379811,-9918.759623,1915.238745
1410.872704,5625.565159,-7846.182985,1915.238745
1410.873033,6069.688724,-7179.997637,2451.505594
1410.873363,5847.626942,-5625.565159,2604.724693
1410.873692,6069.688724,-4737.318029,2298.286494
1410.874021,6661.853478,-4293.194464,1991.848295
1410.874350,6513.812290,-4663.297435,2528.115143
1410.874679,6513.812290,-5403.503377,842.705048
1410.875009,5921.647536,-6439.791695,-76.609550
1410.875338,5107.421000,-9474.636058,229.828649
1410.875667,5255.462188,-10732.986159,0.000000
1410.875996,5551.544565,-12139.377449,536.266849
1410.876325,4959.379811,-11991.336260,536.266849
1410.876655,4367.215058,-11769.274478,612.876398
1410.876984,4071.132681,-11399.171507,1149.143247
1410.877313,3552.988522,-10066.800811,1608.800546
1410.877642,3997.112087,-10066.800811,842.705048
1410.877971,4219.173869,-8734.430116,2068.457845
1410.878301,4589.276840,-7105.977043,1915.238745
1410.878630,5403.503377,-4737.318029,1915.238745
1410.878959,6291.750507,-3182.885551,1685.410096
1410.879288,7105.977043,-3997.112087,1302.362347
1410.879617,7179.997637,-3330.926739,1455.581446
1410.879947,6735.874072,-5107.421000,1149.143247
1410.880276,6291.750507,-7624.121203,0.000000
1410.880605,4737.318029,-11917.315666,766.095498
1410.880934,4367.215058,-14285.974681,1532.190996
1410.881263,3997.112087,-13915.871710,1149.143247
1410.881593,4071.132681,-12509.480420,1149.143247
1410.881922,4885.359217,-11103.089130,1991.848295
1410.882251,4811.338623,-9178.553681,1762.019645
1410.882580,4737.318029,-7105.977043,1915.238745
1410.882909,3997.112087,-5107.421000,689.485948
1410.883239,4071.132681,-5921.647536,459.657299
1410.883568,4885.359217,-5107.421000,383.047749
1410.883897,5403.503377,-5329.482782,306.438199
1410.884226,5625.565159,-6439.791695,383.047749
1410.884556,5773.606348,-7402.059420,536.266849
1410.884885,5921.647536,-11103.089130,306.438199
1410.885214,5477.523971,-11843.295072,842.705048
1410.885544,4589.276840,-11843.295072,995.924147
1410.885873,4293.194464,-12361.439231,689.485948
1410.886202,3997.112087,-11843.295072,1685.410096
1410.886531,4071.132681,-10732.986159,3217.601092
1410.886861,5329.482782,-8660.409521,3677.258390
1410.887190,6069.688724,-5773.606348,3370.820191
1410.887519,6217.729913,-5033.400406,3140.991542
1410.887848,5773.606348,-4145.153275,2528.115143
1410.888178,4959.379811,-5551.544565,2298.286494
1410.888507,4885.359217,-5403.503377,1225.752797
1410.888836,3775.050304,-6883.915261,229.828649
1410.889165,3849.070898,-9104.533087,612.876398
1410.889495,4515.256246,-11177.109724,1072.533697
1410.889824,4663.297435,-13323.706956,1685.410096
1410.890153,4219.173869,-12805.562797,1915.238745
1410.890483,4367.215058,-12065.356855,1915.238745
1410.890812,4737.318029,-9696.697840,2681.334243
1410.891141,6217.729913,-7994.224174,3600.648841
1410.891470,7179.997637,-5921.647536,4596.572988
1410.891800,7328.038826,-4145.153275,4443.353888
1410.892129,7698.141797,-3256.906145,4290.134789
1410.892458,7920.203579,-2960.823768,3524.039291
1410.892787,7179.997637,-3478.967927,2834.553343
1410.893117,5847.626942,-5107.421000,1838.629195
1410.893446,5699.585753,-7105.977043,2451.505594
1410.893775,5847.626942,-8956.491898,2528.115143
1410.894104,6735.874072,-9326.594869,3600.648841
1410.894434,6439.791695,-9474.636058,3983.696590
1410.894763,6661.853478,-9030.512492,3677.258390
1410.895092,5921.647536,-9104.533087,2681.334243
1410.895422,5551.544565,-7476.080014,3907.087040
1410.895751,6513.812290,-5847.626942,3600.648841
1410.896080,7624.121203,-4737.318029,3753.867940
1410.896409,7920.203579,-3701.029710,4903.011187
1410.896739,8438.347739,-4145.153275,4903.011187
1410.897068,8956.491898,-3108.864956,5362.668486
1410.897397,8956.491898,-3330.926739,4749.792088
1410.897726,8290.306550,-4515.256246,4903.011187
1410.898056,8660.409521,-5403.503377,4290.134789
1410.898385,7772.162391,-7402.059420,3600.648841
1410.898714,6217.729913,-8956.491898,3753.867940
1410.899043,5625.565159,-10658.965565,3830.477490
1410.899373,4737.318029,-11251.130318,3370.820191
1410.899702,3849.070898,-11325.150913,3217.601092
1410.900031,3775.050304,-10807.006753,3370.820191
1410.900361,3552.988522,-9622.677246,3907.087040
1410.900690,4663.297435,-8586.388927,4596.572988
1410.901019,5403.503377,-5995.668130,4979.620737
1410.901348,6735.874072,-4219.173869,5209.449386
1410.901678,8734.430116,-3034.844362,4979.620737
1410.902007,9104.533087,-2960.823768,5975.544884
1410.902336,9400.615463,-3182.885551,5669.106685
1410.902665,9696.697840,-3552.988522,5286.058936
1410.902995,9622.677246,-4071.132681,5975.544884
1410.903324,8956.491898,-5699.585753,4979.620737
1410.903653,8216.285956,-6661.853478,4749.792088
1410.903982,6809.894666,-7179.997637,4290.134789
1410.904312,6365.771101,-8216.285956,3983.696590
1410.904641,5773.606348,-8512.368333,4213.525239
1410.904970,5403.503377,-8808.450710,3983.696590
1410.905300,4515.256246,-9178.553681,3907.087040
1410.905629,3330.926739,-8808.450710,3370.820191
1410.905958,2664.741391,-8364.327145,3600.648841
1410.906287,3108.864956,-7402.059420,3677.258390
1410.906617,5329.482782,-6735.874072,3907.087040
1410.906946,7772.162391,-5699.585753,5132.839837
1410.907275,9548.656652,-4367.215058,5975.544884
1410.907604,10362.883188,-3478.967927,6281.983084
1410.907934,10362.883188,-2664.741391,5822.325785
1410.908263,9622.677246,-3256.906145,4673.182538
1410.908592,8586.388927,-4589.276840,4290.134789
1410.908921,7328.038826,-6069.688724,3600.648841
1410.909251,6217.729913,-7476.080014,3294.210641
1410.909580,5329.482782,-8586.388927,2374.896044
1410.909909,4811.338623,-9474.636058,2681.334243
1410.910239,5107.421000,-9474.636058,3140.991542
1410.910568,5329.482782,-8882.471304,3907.087040
1410.910897,6143.709319,-7402.059420,3677.258390
1410.911226,6661.853478,-5699.585753,3830.477490
1410.911556,8142.265362,-4885.359217,4213.525239
1410.911885,9178.553681,-4293.194464,4519.963438
1410.912214,9622.677246,-4219.173869,4060.306139
1410.912543,8956.491898,-5403.503377,3524.039291
1410.912873,7920.203579,-6587.832884,3217.601092
1410.913202,6587.832884,-7476.080014,2834.553343
1410.913531,5181.441594,-7031.956449,3064.381992
1410.913860,5551.544565,-7920.203579,2834.553343
1410.914190,5551.544565,-7920.203579,3370.820191
1410.914519,6513.812290,-7031.956449,3753.867940
1410.914848,7179.997637,-6513.812290,4290.134789
1410.915178,8512.368333,-5995.668130,4519.963438
1410.915507,8216.285956,-6291.750507,4749.792088
1410.915836,7624.121203,-5625.565159,4060.306139
1410.916165,7254.018232,-4663.297435,3447.429741
1410.916495,7698.141797,-4145.153275,3753.867940
1410.916824,8586.388927,-3997.112087,4060.306139
1410.917153,8882.471304,-4737.318029,4213.525239
1410.917482,7920.203579,-4885.359217,4366.744339
1410.917812,7031.956449,-7402.059420,2834.553343
1410.918141,5403.503377,-9474.636058,3447.429741
1410.918470,4737.318029,-10288.862594,2298.286494
1410.918799,3552.988522,-11103.089130,2451.505594
1410.919129,3404.947333,-10288.862594,3217.601092
1410.919458,4293.194464,-8586.388927,2451.505594
1410.919787,5699.585753,-6069.688724,3217.601092
1410.920117,7402.059420,-4959.379811,4136.915689
1410.920446,8586.388927,-4959.379811,4903.011187
1410.920775,8882.471304,-3627.009116,5209.449386
1410.921104,8956.491898,-3256.906145,5898.935335
1410.921434,10362.883188,-2368.659014,5745.716235
1410.921763,11029.068536,-3108.864956,5822.325785
1410.922092,10066.800811,-3775.050304,5056.230287
1410.922421,8438.347739,-4885.359217,3983.696590
1410.922751,7031.956449,-7254.018232,2681.334243
1410.923080,5403.503377,-9770.718434,2757.943793
1410.923409,4219.173869,-11843.295072,3217.601092
1410.923738,3478.967927,-12287.418637,3600.648841
1410.924068,3108.864956,-11251.130318,3677.258390
1410.924397,3182.885551,-9252.574275,2374.896044
1410.924726,3552.988522,-6661.853478,2451.505594
1410.925056,5403.503377,-4811.338623,3447.429741
1410.925385,9770.718434,-3478.967927,5515.887586
1410.925714,11103.089130,-1776.494261,6665.030833
1410.926043,11325.150913,-1702.473667,6511.811733
1410.926373,10955.047942,-2294.638420,5822.325785
1410.926702,8882.471304,-3627.009116,5132.839837
1410.927031,7031.956449,-7105.977043,4673.182538
1410.927360,6217.729913,-8290.306550,4749.792088
1410.927690,7105.977043,-9474.636058,3830.477490
1410.928019,6661.853478,-10288.862594,4213.525239
1410.928348,5847.626942,-9474.636058,3753.867940
1410.928677,4885.359217,-8438.347739,3600.648841
1410.929007,4811.338623,-7105.977043,2604.724693
1410.929336,5699.585753,-6217.729913,4213.525239
1410.929665,7550.100608,-5477.523971,5286.058936
1410.929995,8290.306550,-5181.441594,5898.935335
1410.930324,7624.121203,-4293.194464,4903.011187
1410.930653,6661.853478,-4737.318029,4596.572988
1410.930982,6883.915261,-5477.523971,4596.572988
1410.931312,7994.224174,-5551.544565,4903.011187
1410.931641,7772.162391,-5477.523971,4443.353888
1410.931970,7476.080014,-5995.668130,3907.087040
1410.932299,6957.935855,-8068.244768,3983.696590
1410.932629,6661.853478,-9548.656652,4060.306139
1410.932958,6365.771101,-8142.265362,3753.867940
1410.933287,6291.750507,-8216.285956,3907.087040
1410.933616,5625.565159,-7476.080014,3294.210641
1410.933946,4811.338623,-7105.977043,2451.505594
1410.934275,5699.585753,-7179.997637,3140.991542
1410.934604,7772.162391,-4515.256246,3753.867940
1410.934934,7994.224174,-2442.679609,3907.087040
1410.935263,7624.121203,-2442.679609,2987.772442
1410.935592,7920.203579,-4219.173869,2757.943793
1410.935921,8586.388927,-5847.626942,3217.601092
1410.936251,8364.327145,-7031.956449,3983.696590
1410.936580,8068.244768,-7846.182985,3370.820191
1410.936909,7402.059420,-7328.038826,2298.286494
1410.937238,5773.606348,-9548.656652,1838.629195
1410.937568,4367.215058,-10436.903782,2145.067394
1410.937897,5255.462188,-8586.388927,2374.896044
1410.938226,6809.894666,-7031.956449,2221.676944
1410.938555,7550.100608,-5551.544565,2451.505594
1410.938885,7254.018232,-5773.606348,3064.381992
1410.939214,6735.874072,-4441.235652,1991.848295
1410.939543,6661.853478,-3849.070898,1762.019645
1410.939873,6735.874072,-3923.091493,1072.533697
1410.940202,7476.080014,-5255.462188,1225.752797
1410.940531,7994.224174,-7105.977043,2068.457845
1410.940860,8216.285956,-6513.812290,1838.629195
1410.941190,7254.018232,-7179.997637,842.705048
1410.941519,6957.935855,-9400.615463,1149.143247
1410.941848,6883.915261,-8882.471304,1072.533697
1410.942177,6735.874072,-8142.265362,766.095498
1410.942507,6735.874072,-8364.327145,1302.362347
1410.942836,6291.750507,-9400.615463,2145.067394
1410.943165,6587.832884,-8068.244768,2221.676944
1410.943494,6735.874072,-4367.215058,1608.800546
1410.943824,7254.018232,-2368.659014,1378.971896
1410.944153,7920.203579,-2220.617826,1532.190996
1410.944482,7179.997637,-4145.153275,1225.752797
1410.944812,6513.812290,-3330.926739,1072.533697
1410.945141,8216.285956,-3701.029710,1072.533697
1410.945470,8734.430116,-6143.709319,689.485948
1410.945799,6809.894666,-8734.430116,459.657299
1410.946129,5255.462188,-10510.924376,459.657299
1410.946458,5995.668130,-9918.759623,-383.047749
1410.946787,6957.935855,-7698.141797,76.609550
1410.947116,6069.688724,-8586.388927,306.438199
1410.947446,5921.647536,-9252.574275,689.485948
1410.947775,5699.585753,-7920.203579,1455.581446
1410.948104,6143.709319,-7031.956449,1225.752797
1410.948433,6587.832884,-4737.318029,1302.362347
1410.948763,5995.668130,-6809.894666,2145.067394
1410.949092,5847.626942,-5847.626942,1915.238745
1410.949421,5921.647536,-2368.659014,766.095498
1410.949751,8216.285956,-2146.597232,995.924147
1410.950080,10362.883188,-3627.009116,2451.505594
1410.950409,9696.697840,-6587.832884,2911.162892
1410.950738,8512.368333,-6809.894666,2604.724693
1410.951068,7624.121203,-6735.874072,689.485948
1410.951397,6143.709319,-7846.182985,-306.438199
1410.951726,4959.379811,-9252.574275,229.828649
1410.952055,5329.482782,-9104.533087,842.705048
1410.952385,6365.771101,-7105.977043,229.828649
1410.952714,6735.874072,-6883.915261,383.047749
1410.953043,7105.977043,-7031.956449,536.266849
1410.953372,7328.038826,-7105.977043,2528.115143
1410.953702,7402.059420,-7846.182985,2068.457845
1410.954031,6439.791695,-6587.832884,1149.143247
1410.954360,6513.812290,-5847.626942,689.485948
1410.954690,7994.224174,-6365.771101,1915.238745
1410.955019,9474.636058,-4663.297435,2834.553343
1410.955348,9770.718434,-4737.318029,1532.190996
1410.955677,8290.306550,-5181.441594,842.705048
1410.956007,6587.832884,-6661.853478,1608.800546
1410.956336,5699.585753,-7179.997637,919.314598
1410.956665,5625.565159,-7698.141797,766.095498
1410.956994,6143.709319,-7254.018232,612.876398
1410.957324,6661.853478,-7920.203579,612.876398
1410.957653,6661.853478,-6957.935855,1685.410096
1410.957982,7031.956449,-5921.647536,1302.362347
1410.958311,7179.997637,-4885.359217,229.828649
1410.958641,6957.935855,-4589.276840,842.705048
1410.958970,6217.729913,-5921.647536,842.705048
1410.959299,6069.688724,-7476.080014,1838.629195
1410.959629,6143.709319,-7328.038826,2221.676944
1410.959958,6661.853478,-6735.874072,1149.143247
1410.960287,7179.997637,-5477.523971,2451.505594
1410.960616,8586.388927,-5329.482782,4136.915689
1410.960946,8586.388927,-5921.647536,2068.457845
1410.961275,6439.791695,-4589.276840,306.438199
1410.961604,4959.379811,-5329.482782,0.000000
1410.961933,5329.482782,-5329.482782,383.047749
1410.962263,6291.750507,-6735.874072,0.000000
1410.962592,7105.977043,-8660.409521,1072.533697
1410.962921,7920.203579,-7179.997637,689.485948
1410.963250,7846.182985,-8364.327145,1302.362347
1410.963580,7402.059420,-6883.915261,995.924147
1410.963909,7179.997637,-7476.080014,0.000000
1410.964238,7179.997637,-6661.853478,536.266849
1410.964568,5921.647536,-7105.977043,459.657299
1410.964897,5329.482782,-8808.450710,1532.190996
1410.965226,6513.812290,-7772.162391,1072.533697
1410.965555,7105.977043,-6809.894666,1225.752797
1410.965885,7476.080014,-5773.606348,2068.457845
1410.966214,8142.265362,-5699.585753,2145.067394
1410.966543,8068.244768,-5699.585753,1532.190996
1410.966872,7994.224174,-4959.379811,919.314598
1410.967202,7476.080014,-4737.318029,1072.533697
1410.967531,7328.038826,-4885.359217,0.000000
1410.967860,7254.018232,-6069.688724,229.828649
1410.968189,6957.935855,-7550.100608,459.657299
1410.968519,7105.977043,-8216.285956,306.438199
1410.968848,6735.874072,-6587.832884,0.000000
1410.969177,6069.688724,-8142.265362,0.000000
1410.969507,7031.956449,-8290.306550,536.266849
1410.969836,6291.750507,-8586.388927,1149.143247
1410.970165,5551.544565,-9178.553681,1455.581446
1410.970494,4589.276840,-7031.956449,612.876398
1410.970824,4811.338623,-6513.812290,459.657299
1410.971153,6809.894666,-5625.565159,2145.067394
1410.971482,7994.224174,-3256.906145,1455.581446
1410.971811,8808.450710,-3627.009116,2068.457845
1410.972141,9400.615463,-3552.988522,1455.581446
1410.972470,8956.491898,-3627.009116,1455.581446
1410.972799,7698.141797,-4071.132681,1378.971896
1410.973128,7698.141797,-5329.482782,1225.752797
1410.973458,7105.977043,-7624.121203,612.876398
1410.973787,6513.812290,-8290.306550,229.828649
1410.974116,5699.585753,-8142.265362,689.485948
1410.974446,6735.874072,-7772.162391,0.000000
1410.974775,7179.997637,-8068.244768,-306.438199
1410.975104,6661.853478,-8290.306550,153.219100
1410.975433,5921.647536,-9474.636058,995.924147
1410.975763,5107.421000,-9696.697840,689.485948
1410.976092,4367.215058,-7254.018232,612.876398
1410.976421,5551.544565,-6143.709319,919.314598
1410.976750,8216.285956,-5773.606348,2145.067394
1410.977080,10214.842000,-4589.276840,4060.306139
1410.977409,9474.636058,-4367.215058,2834.553343
1410.977738,8734.430116,-3108.864956,1378.971896
1410.978067,8068.244768,-3997.112087,1532.190996
1410.978397,7550.100608,-5181.441594,612.876398
1410.978726,6217.729913,-7476.080014,1072.533697
1410.979055,5847.626942,-8586.388927,306.438199
1410.979385,5995.668130,-8956.491898,383.047749
1410.979714,6365.771101,-8882.471304,1149.143247
1410.980043,6513.812290,-8290.306550,1149.143247
1410.980372,7179.997637,-8882.471304,766.095498
1410.980702,6587.832884,-7179.997637,612.876398
1410.981031,5033.400406,-6883.915261,689.485948
1410.981360,4663.297435,-6513.812290,1378.971896
1410.981689,6291.750507,-4885.359217,1991.848295
1410.982019,7179.997637,-4589.276840,2604.724693
1410.982348,8364.327145,-4219.173869,3907.087040
1410.982677,9178.553681,-5033.400406,3447.429741
1410.983006,8512.368333,-5403.503377,2681.334243
1410.983336,6957.935855,-4589.276840,1762.019645
1410.983665,5921.647536,-5699.585753,229.828649
1410.983994,5699.585753,-6735.874072,0.000000
1410.984324,5921.647536,-8734.430116,-306.438199
1410.984653,6735.874072,-8660.409521,153.219100
1410.984982,7328.038826,-7105.977043,842.705048
1410.985311,7994.224174,-6291.750507,536.266849
1410.985640,7402.059420,-6661.853478,536.266849
1410.985969,7179.997637,-8068.244768,995.924147
1410.986298,7179.997637,-7105.977043,919.314598
1410.986628,6513.812290,-6587.832884,1455.581446
1410.986957,6217.729913,-6883.915261,1762.019645
1410.987286,7105.977043,-6143.709319,1532.190996
1410.987615,7772.162391,-5181.441594,2451.505594
1410.987944,7624.121203,-4071.132681,1838.629195
1410.988273,7476.080014,-4959.379811,1608.800546
1410.988602,7402.059420,-5773.606348,1225.752797
1410.988931,7254.018232,-5625.565159,919.314598
1410.989261,6809.894666,-5699.585753,1225.752797
1410.989590,6661.853478,-7550.100608,0.000000
1410.989919,6291.750507,-8290.306550,-229.828649
1410.990248,5847.626942,-7994.224174,-689.485948
1410.990577,5995.668130,-7402.059420,0.000000
1410.990906,6883.915261,-6661.853478,-76.609550
1410.991235,7328.038826,-8216.285956,-229.828649
1410.991564,7105.977043,-9326.594869,1838.629195
1410.991894,7031.956449,-8956.491898,1532.190996
1410.992223,7105.977043,-8438.347739,1762.019645
1410.992552,5773.606348,-7179.997637,1532.190996
1410.992881,5995.668130,-6069.688724,536.266849
1410.993210,6957.935855,-5329.482782,1455.581446
1410.993539,7550.100608,-4441.235652,1685.410096
1410.993868,7920.203579,-3182.885551,919.314598
1410.994197,7105.977043,-3849.070898,689.485948
1410.994527,6809.894666,-4737.318029,766.095498
1410.994856,7031.956449,-6069.688724,1225.752797
1410.995185,7846.182985,-7994.224174,1149.143247
1410.995514,7402.059420,-7920.203579,306.438199
1410.995843,6217.729913,-6735.874072,-383.047749
1410.996172,5921.647536,-7328.038826,-536.266849
1410.996501,6883.915261,-6365.771101,-612.876398
1410.996830,6291.750507,-8068.244768,-536.266849
1410.997160,6957.935855,-9104.533087,1915.238745
1410.997489,7031.956449,-9104.533087,2681.334243
1410.997818,6661.853478,-9030.512492,2834.553343
1410.998147,6513.812290,-6439.791695,1838.629195
1410.998476,7179.997637,-5477.523971,2145.067394
1410.998805,8068.244768,-4959.379811,2451.505594
1410.999134,8068.244768,-2886.803174,1378.971896
1410.999463,7254.018232,-2960.823768,153.219100
1410.999793,7550.100608,-2146.597232,-229.828649
1411.000122,6809.894666,-4515.256246,-306.438199
1411.000451,7105.977043,-7031.956449,842.705048
1411.000780,7254.018232,-8216.285956,919.314598
1411.001109,7105.977043,-9474.636058,612.876398
1411.001438,7476.080014,-8216.285956,2068.457845
1411.001767,7476.080014,-7920.203579,1072.533697
1411.002097,7698.141797,-8068.244768,459.657299
1411.002426,7254.018232,-7105.977043,689.485948
1411.002755,6735.874072,-8142.265362,919.314598
1411.003084,6291.750507,-6217.729913,1225.752797
1411.003413,5625.565159,-6957.935855,1455.581446
1411.003742,5773.606348,-6809.894666,2298.286494
1411.004071,7328.038826,-5255.462188,2757.943793
1411.004400,8364.327145,-6217.729913,3830.477490
1411.004730,8586.388927,-5181.441594,2068.457845
1411.005059,6809.894666,-3923.091493,0.000000
1411.005388,6143.709319,-4737.318029,-229.828649
1411.005717,5477.523971,-6365.771101,-536.266849
1411.006046,4885.359217,-8216.285956,-612.876398
1411.006375,5625.565159,-8364.327145,0.000000
1411.006704,7402.059420,-8660.409521,1225.752797
1411.007033,8216.285956,-8586.388927,2604.724693
1411.007363,8512.368333,-7402.059420,1915.238745
1411.007692,7550.100608,-8512.368333,1532.190996
1411.008021,7105.977043,-7179.997637,1762.019645
1411.008350,6217.729913,-6291.750507,1149.143247
1411.008679,5625.565159,-5699.585753,1225.752797
1411.009008,5921.647536,-5107.421000,1915.238745
1411.009337,6809.894666,-4589.276840,919.314598
1411.009666,7698.141797,-4441.235652,2757.943793
1411.009996,8438.347739,-3997.112087,2757.943793
1411.010325,8216.285956,-4959.379811,1685.410096
1411.010654,7476.080014,-5477.523971,1072.533697
1411.010983,6291.750507,-6809.894666,1149.143247
1411.011312,5773.606348,-7772.162391,306.438199
1411.011641,5255.462188,-8660.409521,0.000000
1411.011970,5847.626942,-8142.265362,-306.438199
1411.012299,6809.894666,-7254.018232,306.438199
1411.012629,7772.162391,-6661.853478,1608.800546
1411.012958,7846.182985,-7772.162391,1608.800546
1411.013287,7772.162391,-7105.977043,1378.971896
1411.013616,7105.977043,-6217.729913,1685.410096
1411.013945,6809.894666,-5625.565159,1225.752797
1411.014274,6069.688724,-4959.379811,612.876398
1411.014603,6291.750507,-5699.585753,536.266849
1411.014932,7179.997637,-5107.421000,1685.410096
1411.015262,8364.327145,-5181.441594,1378.971896
1411.015591,8364.327145,-5033.400406,1532.190996
1411.015920,7846.182985,-6291.750507,766.095498
1411.016249,7476.080014,-7105.977043,612.876398
1411.016578,6661.853478,-8216.285956,1149.143247
1411.016907,5847.626942,-9104.533087,459.657299
1411.017236,6439.791695,-8068.244768,229.828649
1411.017565,6587.832884,-7698.141797,229.828649
1411.017895,7624.121203,-6661.853478,1302.362347
1411.018224,7550.100608,-4885.359217,919.314598
1411.018553,6957.935855,-6143.709319,0.000000
1411.018882,6513.812290,-5477.523971,229.828649
1411.019211,7179.997637,-6217.729913,1762.019645
1411.019540,7846.182985,-6661.853478,1762.019645
1411.019869,6143.709319,-7254.018232,766.095498
1411.020198,5107.421000,-7105.977043,229.828649
1411.020528,6661.853478,-6365.771101,306.438199
1411.020857,7846.182985,-5477.523971,919.314598
1411.021186,7994.224174,-6291.750507,1072.533697
1411.021515,7624.121203,-6809.894666,995.924147
1411.021844,6735.874072,-6217.729913,383.047749
1411.022173,5847.626942,-7105.977043,229.828649
1411.022502,5551.544565,-7476.080014,919.314598
1411.022831,7031.956449,-7179.997637,919.314598
1411.023161,7179.997637,-6513.812290,919.314598
1411.023490,7328.038826,-5551.544565,536.266849
1411.023819,7920.203579,-4737.318029,612.876398
1411.024148,8438.347739,-5773.606348,766.095498
1411.024477,7624.121203,-5403.503377,1149.143247
1411.024806,6291.750507,-6143.709319,383.047749
1411.025135,5625.565159,-6735.874072,229.828649
1411.025464,6069.688724,-7846.182985,1302.362347
1411.025794,6661.853478,-7846.182985,1915.238745
1411.026123,8290.306550,-5847.626942,2451.505594
1411.026452,8660.409521,-5625.565159,1991.848295
1411.026781,8142.265362,-5403.503377,1455.581446
1411.027110,7105.977043,-5551.544565,766.095498
1411.027439,6217.729913,-6365.771101,306.438199
1411.027768,6143.709319,-5921.647536,0.000000
1411.028098,6143.709319,-7698.141797,-229.828649
1411.028427,7476.080014,-7846.182985,1302.362347
1411.028756,8216.285956,-7846.182985,1455.581446
1411.029085,8438.347739,-6217.729913,1685.410096
1411.029414,7772.162391,-4737.318029,229.828649
1411.029743,7105.977043,-6735.874072,-229.828649
1411.030072,7105.977043,-7254.018232,1455.581446
1411.030401,6143.709319,-6883.915261,1302.362347
1411.030731,5847.626942,-7846.182985,995.924147
1411.031060,5551.544565,-6957.935855,995.924147
1411.031389,6439.791695,-6661.853478,1685.410096
1411.031718,8882.471304,-5995.668130,3370.820191
1411.032047,9326.594869,-5773.606348,3064.381992
1411.032376,8142.265362,-5551.544565,1685.410096
1411.032705,6513.812290,-5033.400406,306.438199
1411.033034,5551.544565,-5329.482782,306.438199
1411.033364,5255.462188,-6809.894666,0.000000
1411.033693,5477.523971,-7772.162391,0.000000
1411.034022,5773.606348,-7920.203579,536.266849
1411.034351,6143.709319,-8142.265362,1302.362347
1411.034680,6217.729913,-7476.080014,1532.190996
1411.035009,6365.771101,-6809.894666,459.657299
1411.035338,6217.729913,-7624.121203,76.609550
1411.035667,5625.565159,-7254.018232,1378.971896
1411.035997,5625.565159,-7179.997637,2145.067394
1411.036326,6809.894666,-7105.977043,1838.629195
1411.036655,7994.224174,-6069.688724,2451.505594
1411.036984,9178.553681,-5995.668130,3753.867940
1411.037313,8882.471304,-3997.112087,2987.772442
1411.037642,7105.977043,-4515.256246,1762.019645
1411.037971,7031.956449,-5107.421000,612.876398
1411.038300,7031.956449,-4959.379811,229.828649
1411.038630,6735.874072,-7105.977043,919.314598
1411.038959,6513.812290,-8364.327145,1225.752797
1411.039288,6439.791695,-8512.368333,536.266849
1411.039617,6143.709319,-7624.121203,306.438199
1411.039946,5255.462188,-6883.915261,0.000000
1411.040275,6291.750507,-6217.729913,-383.047749
1411.040604,6735.874072,-6957.935855,0.000000
1411.040933,7105.977043,-6809.894666,1149.143247
1411.041263,7402.059420,-6365.771101,2221.676944
1411.041592,7772.162391,-6883.915261,2681.334243
1411.041921,7846.182985,-6291.750507,2451.505594
1411.042250,8216.285956,-5921.647536,2834.553343
1411.042579,8882.471304,-5255.462188,2528.115143
1411.042908,9400.615463,-4441.235652,1762.019645
1411.043237,8216.285956,-4959.379811,306.438199
1411.043566,6735.874072,-5699.585753,0.000000
1411.043896,6661.853478,-6587.832884,-766.095498
1411.044225,5699.585753,-8068.244768,-995.924147
1411.044554,5255.462188,-8734.430116,-612.876398
1411.044883,5773.606348,-9474.636058,0.000000
1411.045212,6661.853478,-8734.430116,459.657299
1411.045541,6513.812290,-7105.977043,766.095498
1411.045870,7105.977043,-7328.038826,919.314598
1411.046199,8364.327145,-6365.771101,1991.848295
1411.046529,8438.347739,-5329.482782,1991.848295
1411.046858,7105.977043,-5255.462188,1838.629195
1411.047187,6439.791695,-5847.626942,2528.115143
1411.047516,7031.956449,-5329.482782,1762.019645
1411.047845,7105.977043,-4515.256246,1455.581446
1411.048174,7476.080014,-5033.400406,1608.800546
1411.048503,8660.409521,-5551.544565,2068.457845
1411.048832,7772.162391,-6217.729913,306.438199
1411.049162,5699.585753,-7994.224174,306.438199
1411.049491,5181.441594,-7179.997637,-383.047749
1411.049820,4589.276840,-8882.471304,-2221.676944
1411.050149,3627.009116,-9178.553681,-1685.410096
1411.050478,4737.318029,-8660.409521,0.000000
1411.050807,7254.018232,-7624.121203,229.828649
1411.051136,8142.265362,-6587.832884,1302.362347
1411.051466,7772.162391,-5921.647536,2298.286494
1411.051795,8586.388927,-6291.750507,2221.676944
1411.052124,8660.409521,-6217.729913,2451.505594
1411.052453,7031.956449,-6143.709319,2068.457845
1411.052782,5847.626942,-5477.523971,1685.410096
1411.053111,6587.832884,-5255.462188,689.485948
1411.053440,7550.100608,-4663.297435,1685.410096
1411.053769,8512.368333,-4737.318029,1991.848295
1411.054099,8142.265362,-5699.585753,1149.143247
1411.054428,7105.977043,-6587.832884,536.266849
1411.054757,5107.421000,-7698.141797,383.047749
1411.055086,5181.441594,-8364.327145,0.000000
1411.055415,5403.503377,-8586.388927,0.000000
1411.055744,5551.544565,-8216.285956,612.876398
1411.056073,6365.771101,-7772.162391,766.095498
1411.056402,7772.162391,-6957.935855,1991.848295
1411.056732,8364.327145,-5477.523971,919.314598
1411.057061,8290.306550,-5921.647536,1838.629195
1411.057390,7994.224174,-6069.688724,2145.067394
1411.057719,7254.018232,-6513.812290,1991.848295
1411.058048,6365.771101,-6661.853478,1762.019645
1411.058377,6217.729913,-6513.812290,1685.410096
1411.058706,6661.853478,-5255.462188,1991.848295
1411.059035,8660.409521,-5477.523971,2374.896044
1411.059365,7772.162391,-5847.626942,1915.238745
1411.059694,7105.977043,-6661.853478,383.047749
1411.060023,6587.832884,-7031.956449,612.876398
1411.060352,6291.750507,-6439.791695,383.047749
1411.060681,5625.565159,-7254.018232,612.876398
1411.061010,5995.668130,-8364.327145,919.314598
1411.061339,6661.853478,-8364.327145,1532.190996
1411.061668,7920.203579,-7179.997637,2451.505594
1411.061998,7550.100608,-4663.297435,1608.800546
1411.062327,6957.935855,-5551.544565,842.705048
1411.062656,6957.935855,-5773.606348,689.485948
1411.062985,6735.874072,-5699.585753,2068.457845
1411.063314,5995.668130,-6365.771101,2145.067394
1411.063643,6365.771101,-7105.977043,1378.971896
1411.063972,5995.668130,-7328.038826,1532.190996
1411.064301,6957.935855,-6809.894666,1915.238745
1411.064631,8290.306550,-6069.688724,1838.629195
1411.064960,8216.285956,-6587.832884,1915.238745
1411.065289,7328.038826,-5181.441594,0.000000
1411.065618,5847.626942,-5477.523971,-995.924147
1411.065947,5699.585753,-6143.709319,76.609550
1411.066276,6735.874072,-6883.915261,0.000000
1411.066605,6957.935855,-8068.244768,306.438199
1411.066934,6883.915261,-6217.729913,1302.362347
1411.067264,8068.244768,-6883.915261,1532.190996
1411.067593,9178.553681,-5477.523971,1532.190996
1411.067922,8512.368333,-5625.565159,1455.581446
1411.068251,8364.327145,-7402.059420,1762.019645
1411.068580,6957.935855,-6439.791695,842.705048
1411.068909,4885.359217,-6661.853478,76.609550
1411.069238,4219.173869,-6661.853478,-766.095498
1411.069567,5995.668130,-6587.832884,1532.190996
1411.069897,8142.265362,-7179.997637,2451.505594
1411.070226,9178.553681,-6513.812290,2757.943793
1411.070555,8512.368333,-5329.482782,2374.896044
1411.070884,7550.100608,-4589.276840,536.266849
1411.071213,6069.688724,-6291.750507,229.828649
1411.071542,5403.503377,-5625.565159,-536.266849
1411.071871,5847.626942,-7105.977043,-919.314598
1411.072200,6809.894666,-6883.915261,0.000000
1411.072530,7772.162391,-7402.059420,1072.533697
1411.072859,8068.244768,-8216.285956,1378.971896
1411.073188,7994.224174,-6809.894666,229.828649
1411.073517,6883.915261,-8808.450710,842.705048
1411.073846,6439.791695,-7698.141797,1072.533697
1411.074175,5625.565159,-7698.141797,1378.971896
1411.074504,5847.626942,-7402.059420,1149.143247
1411.074833,5773.606348,-5847.626942,995.924147
1411.075163,6661.853478,-5033.400406,1455.581446
1411.075492,7402.059420,-3552.988522,2145.067394
1411.075821,7920.203579,-3552.988522,1838.629195
1411.076150,8290.306550,-4663.297435,1532.190996
1411.076479,7920.203579,-4737.318029,1378.971896
1411.076808,6439.791695,-6365.771101,842.705048
1411.077137,5995.668130,-7402.059420,383.047749
1411.077467,5773.606348,-9178.553681,-459.657299
1411.077796,6587.832884,-7698.141797,383.047749
1411.078125,6809.894666,-8290.306550,459.657299
1411.078454,7179.997637,-7994.224174,1072.533697
1411.078783,6291.750507,-8068.244768,383.047749
1411.079112,5995.668130,-8290.306550,76.609550
1411.079441,5773.606348,-6513.812290,459.657299
1411.079770,5847.626942,-7031.956449,1455.581446
1411.080100,6735.874072,-6513.812290,2834.553343
1411.080429,7328.038826,-4737.318029,1302.362347
1411.080758,8142.265362,-4441.235652,2374.896044
1411.081087,9548.656652,-3404.947333,1762.019645
1411.081416,9844.739029,-4219.173869,1838.629195
1411.081745,9400.615463,-4811.338623,1838.629195
1411.082074,7772.162391,-5773.606348,995.924147
1411.082403,5625.565159,-5995.668130,459.657299
1411.082733,5107.421000,-7105.977043,-689.485948
1411.083062,5847.626942,-8956.491898,229.828649
1411.083391,7402.059420,-9104.533087,1455.581446
1411.083720,8068.244768,-8956.491898,2145.067394
1411.084049,7105.977043,-7476.080014,459.657299
1411.084378,5773.606348,-7550.100608,229.828649
1411.084707,5995.668130,-7550.100608,306.438199
1411.085036,5033.400406,-7550.100608,1302.362347
1411.085366,5255.462188,-5551.544565,1915.238745
1411.085695,5921.647536,-6365.771101,1225.752797
1411.086024,7624.121203,-5255.462188,2757.943793
1411.086353,9474.636058,-5255.462188,3677.258390
1411.086682,9992.780217,-4515.256246,3064.381992
1411.087011,8808.450710,-4145.153275,2451.505594
1411.087341,7920.203579,-5255.462188,766.095498
1411.087670,6809.894666,-5551.544565,842.705048
1411.087999,5995.668130,-5773.606348,153.219100
1411.088328,6069.688724,-8364.327145,-459.657299
1411.088657,5699.585753,-7920.203579,0.000000
1411.088987,5773.606348,-8660.409521,153.219100
1411.089316,6735.874072,-8882.471304,919.314598
1411.089645,6735.874072,-8734.430116,1225.752797
1411.089974,6809.894666,-8142.265362,1302.362347
1411.090304,7254.018232,-7476.080014,1532.190996
1411.090633,6957.935855,-6957.935855,3370.820191
1411.090962,6513.812290,-5255.462188,1378.971896
1411.091291,5477.523971,-4811.338623,842.705048
1411.091620,6661.853478,-3478.967927,1532.190996
1411.091950,8290.306550,-3701.029710,2298.286494
1411.092279,9326.594869,-4441.235652,2834.553343
1411.092608,9252.574275,-5551.544565,2681.334243
1411.092937,7846.182985,-6291.750507,1225.752797
1411.093267,5847.626942,-5995.668130,0.000000
1411.093596,4959.379811,-7402.059420,-459.657299
1411.093925,5329.482782,-8438.347739,-1225.752797
1411.094254,6587.832884,-8438.347739,-612.876398
1411.094583,7624.121203,-8512.368333,842.705048
1411.094913,7772.162391,-7698.141797,919.314598
1411.095242,7624.121203,-8216.285956,842.705048
1411.095571,6883.915261,-7846.182985,1225.752797
1411.095900,6143.709319,-7105.977043,919.314598
1411.096230,5847.626942,-6735.874072,1072.533697
1411.096559,5181.441594,-6143.709319,1838.629195
1411.096888,7179.997637,-5847.626942,1991.848295
1411.097217,9178.553681,-2960.823768,2528.115143
1411.097546,9326.594869,-2738.761985,1915.238745
1411.097876,9178.553681,-3404.947333,1762.019645
1411.098205,8438.347739,-5033.400406,995.924147
1411.098534,6809.894666,-6957.935855,459.657299
1411.098863,5847.626942,-6513.812290,0.000000
1411.099193,5329.482782,-8882.471304,-229.828649
1411.099522,5329.482782,-9400.615463,-842.705048
1411.099851,6661.853478,-9030.512492,919.314598
1411.100180,7402.059420,-8512.368333,919.314598
1411.100509,7105.977043,-7920.203579,0.000000
1411.100839,6143.709319,-7550.100608,306.438199
1411.101168,6217.729913,-7846.182985,842.705048
1411.101497,6217.729913,-7105.977043,995.924147
1411.101826,5847.626942,-6291.750507,1685.410096
1411.102156,5995.668130,-5551.544565,1149.143247
1411.102485,7698.141797,-4367.215058,1991.848295
1411.102814,8882.471304,-2442.679609,1838.629195
1411.103143,9104.533087,-3330.926739,1302.362347
1411.103472,8882.471304,-4737.318029,1302.362347
1411.103802,7772.162391,-6217.729913,995.924147
1411.104131,6735.874072,-7179.997637,1072.533697
1411.104460,5625.565159,-7772.162391,0.000000
1411.104789,5773.606348,-8808.450710,-689.485948
1411.105119,6143.709319,-8512.368333,-153.219100
1411.105448,6661.853478,-9178.553681,1302.362347
1411.105777,7402.059420,-7550.100608,995.924147
1411.106106,7105.977043,-6513.812290,383.047749
1411.106436,6291.750507,-6661.853478,1072.533697
1411.106765,5995.668130,-6661.853478,842.705048
1411.107094,5329.482782,-7476.080014,1685.410096
1411.107423,5329.482782,-7254.018232,2604.724693
1411.107752,6957.935855,-6439.791695,1915.238745
1411.108082,8290.306550,-4737.318029,2834.553343
1411.108411,9104.533087,-3330.926739,2068.457845
1411.108740,8142.265362,-4515.256246,536.266849
1411.109069,7402.059420,-5773.606348,1225.752797
1411.109399,7105.977043,-5847.626942,536.266849
1411.109728,6883.915261,-6661.853478,306.438199
1411.110057,6735.874072,-7550.100608,1378.971896
1411.110386,6883.915261,-8142.265362,1532.190996
1411.110715,7179.997637,-8956.491898,459.657299
1411.111045,7031.956449,-7402.059420,1302.362347
1411.111374,7179.997637,-6587.832884,459.657299
1411.111703,7550.100608,-6217.729913,842.705048
1411.112032,6513.812290,-5921.647536,842.705048
1411.112362,5551.544565,-7179.997637,842.705048
1411.112691,5699.585753,-7031.956449,1455.581446
1411.113020,6217.729913,-6143.709319,612.876398
1411.113349,6809.894666,-6217.729913,2145.067394
1411.113678,7772.162391,-4737.318029,3140.991542
1411.114008,8956.491898,-5181.441594,2528.115143
1411.114337,8364.327145,-5477.523971,1762.019645
1411.114666,6809.894666,-5477.523971,1685.410096
1411.114995,7328.038826,-5995.668130,842.705048
1411.115325,6439.791695,-6439.791695,0.000000
1411.115654,5477.523971,-7550.100608,76.609550
1411.115983,5329.482782,-9474.636058,-153.219100
1411.116312,7105.977043,-8438.347739,919.314598
1411.116641,7624.121203,-8068.244768,1072.533697
1411.116971,7624.121203,-6957.935855,766.095498
1411.117300,7402.059420,-6439.791695,766.095498
1411.117629,6809.894666,-7920.203579,1072.533697
1411.117958,5551.544565,-7179.997637,1991.848295
1411.118288,5107.421000,-6291.750507,1149.143247
1411.118617,5847.626942,-5699.585753,1149.143247
1411.118946,6661.853478,-5033.400406,2068.457845
1411.119275,8734.430116,-4515.256246,3677.258390
1411.119604,9992.780217,-3923.091493,4060.306139
1411.119934,9326.594869,-4219.173869,2298.286494
1411.120263,7476.080014,-4737.318029,919.314598
1411.120592,6291.750507,-5773.606348,153.219100
1411.120921,6069.688724,-7031.956449,-383.047749
1411.121251,5551.544565,-8734.430116,-383.047749
1411.121580,5699.585753,-8734.430116,-306.438199
1411.121909,6957.935855,-8364.327145,842.705048
1411.122238,7476.080014,-7772.162391,306.438199
1411.122568,7031.956449,-6883.915261,689.485948
1411.122897,6439.791695,-7846.182985,689.485948
1411.123226,6883.915261,-7624.121203,919.314598
1411.123555,6513.812290,-6587.832884,1532.190996
1411.123884,6513.812290,-6143.709319,2145.067394
1411.124214,6439.791695,-5255.462188,1149.143247
1411.124543,7105.977043,-3775.050304,1608.800546
1411.124872,8734.430116,-4145.153275,2068.457845
1411.125201,9622.677246,-4811.338623,2528.115143
1411.125531,9326.594869,-5329.482782,1838.629195
1411.125860,7476.080014,-6365.771101,459.657299
1411.126189,5995.668130,-6217.729913,0.000000
1411.126518,5477.523971,-8142.265362,-766.095498
1411.126847,5995.668130,-9548.656652,-383.047749
1411.127177,6513.812290,-7772.162391,76.609550
1411.127506,6735.874072,-7698.141797,-229.828649
1411.127835,6661.853478,-6587.832884,-459.657299
