#time,accel_x,accel_y,accel_z
1276.285805,7254.018232,-6291.750507,842.705048
1276.286136,7254.018232,-5995.668130,1149.143247
1276.286466,7105.977043,-6217.729913,1072.533697
1276.286797,7105.977043,-6291.750507,1302.362347
1276.287127,7105.977043,-6143.709319,1072.533697
1276.287457,6587.832884,-6291.750507,995.924147
1276.287788,6661.853478,-6587.832884,919.314598
1276.288118,6957.935855,-6883.915261,1225.752797
1276.288449,7105.977043,-6809.894666,1149.143247
1276.288779,6661.853478,-6661.853478,1225.752797
1276.289110,6587.832884,-6957.935855,1225.752797
1276.289440,6735.874072,-6809.894666,842.705048
1276.289771,6587.832884,-7179.997637,919.314598
1276.290101,6365.771101,-6883.915261,689.485948
1276.290431,6735.874072,-6957.935855,766.095498
1276.290762,7031.956449,-6809.894666,766.095498
1276.291092,7328.038826,-6439.791695,1072.533697
1276.291423,7105.977043,-6439.791695,2221.676944
1276.291753,7254.018232,-6513.812290,1149.143247
1276.292084,7031.956449,-6883.915261,995.924147
1276.292414,6735.874072,-6513.812290,766.095498
1276.292744,7105.977043,-6883.915261,766.095498
1276.293075,7254.018232,-5773.606348,1072.533697
1276.293405,7105.977043,-6587.832884,995.924147
1276.293736,7105.977043,-6513.812290,1302.362347
1276.294066,7105.977043,-6513.812290,1225.752797
1276.294397,7254.018232,-6735.874072,1455.581446
1276.294727,6957.935855,-6809.894666,1072.533697
1276.295058,6513.812290,-6809.894666,995.924147
1276.295388,6439.791695,-6365.771101,995.924147
1276.295718,7031.956449,-6365.771101,1072.533697
1276.296049,6809.894666,-6365.771101,1378.971896
1276.296379,6957.935855,-6587.832884,1225.752797
1276.296710,6735.874072,-6809.894666,1225.752797
1276.297040,6587.832884,-7105.977043,919.314598
1276.297371,6513.812290,-6439.791695,842.705048
1276.297701,6957.935855,-7031.956449,1072.533697
1276.298032,7179.997637,-6809.894666,1149.143247
1276.298362,7254.018232,-6439.791695,1378.971896
1276.298692,7254.018232,-6587.832884,919.314598
1276.299023,7254.018232,-5921.647536,995.924147
1276.299353,7105.977043,-6365.771101,919.314598
1276.299684,7031.956449,-6883.915261,919.314598
1276.300014,7254.018232,-6217.729913,1225.752797
1276.300345,7402.059420,-5847.626942,1072.533697
1276.300675,7105.977043,-5847.626942,919.314598
1276.301005,6957.935855,-5921.647536,766.095498
1276.301336,7105.977043,-6291.750507,1072.533697
1276.301666,7031.956449,-6513.812290,1072.533697
1276.301997,6957.935855,-6439.791695,612.876398
1276.302327,6217.729913,-6661.853478,995.924147
1276.302658,6809.894666,-6735.874072,1072.533697
1276.302988,7031.956449,-6365.771101,842.705048
1276.303319,6883.915261,-7031.956449,1149.143247
1276.303649,7105.977043,-6883.915261,1302.362347
1276.303979,6661.853478,-6957.935855,766.095498
1276.304310,6661.853478,-6957.935855,536.266849
1276.304640,6439.791695,-6957.935855,1149.143247
1276.304971,6735.874072,-6291.750507,1225.752797
1276.305301,7476.080014,-7179.997637,919.314598
1276.305632,7328.038826,-7031.956449,1455.581446
1276.305962,7105.977043,-6439.791695,842.705048
1276.306293,7105.977043,-6735.874072,689.485948
1276.306623,6661.853478,-6661.853478,1378.971896
1276.306953,6809.894666,-6809.894666,1225.752797
1276.307284,7105.977043,-6217.729913,1149.143247
1276.307614,7105.977043,-5921.647536,1225.752797
1276.307945,7105.977043,-6217.729913,766.095498
1276.308275,7328.038826,-6365.771101,919.314598
1276.308606,7031.956449,-6587.832884,1149.143247
1276.308936,7105.977043,-6661.853478,919.314598
1276.309266,6883.915261,-6217.729913,842.705048
1276.309597,7031.956449,-6365.771101,689.485948
1276.309927,6809.894666,-6735.874072,1149.143247
1276.310258,7105.977043,-6809.894666,1149.143247
1276.310588,6809.894666,-6735.874072,1072.533697
1276.310919,6809.894666,-6587.832884,1072.533697
1276.311249,6587.832884,-6809.894666,1072.533697
1276.311580,6587.832884,-6587.832884,612.876398
1276.311910,6735.874072,-6513.812290,842.705048
1276.312240,6883.915261,-6809.894666,995.924147
1276.312571,7179.997637,-6883.915261,689.485948
1276.312901,7031.956449,-6587.832884,1072.533697
1276.313232,7105.977043,-6661.853478,1149.143247
1276.313562,7105.977043,-6217.729913,919.314598
1276.313893,7179.997637,-6365.771101,1149.143247
1276.314223,7031.956449,-6587.832884,1455.581446
1276.314553,7179.997637,-6365.771101,1378.971896
1276.314884,7402.059420,-5995.668130,1149.143247
1276.315214,7179.997637,-6365.771101,919.314598
1276.315545,7105.977043,-6069.688724,1455.581446
1276.315875,6883.915261,-5921.647536,1072.533697
1276.316206,6883.915261,-6735.874072,995.924147
1276.316536,6661.853478,-6069.688724,1378.971896
1276.316867,6513.812290,-6365.771101,1302.362347
1276.317197,6735.874072,-6439.791695,383.047749
1276.317527,6883.915261,-6809.894666,1302.362347
1276.317858,6513.812290,-6883.915261,842.705048
1276.318188,6439.791695,-6883.915261,1072.533697
1276.318519,6587.832884,-6883.915261,1302.362347
1276.318849,6883.915261,-7254.018232,842.705048
1276.319180,6513.812290,-7031.956449,689.485948
1276.319510,6513.812290,-6809.894666,995.924147
1276.319841,7254.018232,-7031.956449,995.924147
1276.320171,7105.977043,-6365.771101,1532.190996
1276.320501,7105.977043,-6809.894666,995.924147
1276.320832,7105.977043,-6587.832884,919.314598
1276.321162,7179.997637,-6883.915261,1072.533697
1276.321493,7105.977043,-6661.853478,919.314598
1276.321823,7179.997637,-6439.791695,1378.971896
1276.322154,7328.038826,-6143.709319,919.314598
1276.322484,7105.977043,-6365.771101,459.657299
1276.322814,6957.935855,-6291.750507,919.314598
1276.323145,7105.977043,-6513.812290,1149.143247
1276.323475,7254.018232,-5995.668130,995.924147
1276.323806,6735.874072,-6365.771101,1072.533697
1276.324136,6587.832884,-6513.812290,842.705048
1276.324467,6809.894666,-6661.853478,1225.752797
1276.324797,7105.977043,-6809.894666,995.924147
1276.325128,6735.874072,-6735.874072,536.266849
1276.325458,6883.915261,-6661.853478,919.314598
1276.325788,6809.894666,-6957.935855,1225.752797
1276.326119,6439.791695,-7105.977043,383.047749
1276.326449,6661.853478,-7105.977043,842.705048
1276.326780,7031.956449,-6735.874072,995.924147
1276.327110,7254.018232,-6809.894666,995.924147
1276.327441,7402.059420,-6291.750507,1455.581446
1276.327771,7402.059420,-6143.709319,1302.362347
1276.328102,7105.977043,-6143.709319,842.705048
1276.328432,7254.018232,-6291.750507,536.266849
1276.328762,7031.956449,-6809.894666,919.314598
1276.329093,7179.997637,-6291.750507,689.485948
1276.329423,7254.018232,-6143.709319,1225.752797
1276.329754,7179.997637,-6439.791695,842.705048
1276.330084,7105.977043,-6143.709319,1455.581446
1276.330415,7105.977043,-6217.729913,1225.752797
1276.330745,7105.977043,-6365.771101,1225.752797
1276.331075,7105.977043,-6143.709319,1149.143247
1276.331406,6735.874072,-6661.853478,1149.143247
1276.331736,7031.956449,-6809.894666,1532.190996
1276.332067,6735.874072,-6439.791695,1072.533697
1276.332397,6957.935855,-6587.832884,1225.752797
1276.332728,6809.894666,-6735.874072,919.314598
1276.333058,6809.894666,-7105.977043,1302.362347
1276.333389,6587.832884,-7328.038826,995.924147
1276.333719,6439.791695,-7254.018232,1072.533697
1276.334049,6957.935855,-6957.935855,766.095498
1276.334380,6957.935855,-7254.018232,995.924147
1276.334710,6957.935855,-6883.915261,1302.362347
1276.335041,7105.977043,-6291.750507,1072.533697
1276.335371,7105.977043,-6217.729913,995.924147
1276.335702,6883.915261,-6809.894666,1378.971896
1276.336032,6957.935855,-6735.874072,689.485948
1276.336363,6957.935855,-6513.812290,842.705048
1276.336693,7105.977043,-5847.626942,1225.752797
1276.337023,6735.874072,-5773.606348,1225.752797
1276.337354,6809.894666,-6439.791695,1225.752797
1276.337684,6883.915261,-6439.791695,1225.752797
1276.338015,7105.977043,-6661.853478,995.924147
1276.338345,7105.977043,-6291.750507,1378.971896
1276.338676,6439.791695,-6439.791695,612.876398
1276.339006,6957.935855,-6661.853478,1149.143247
1276.339336,6809.894666,-6513.812290,1149.143247
1276.339667,7031.956449,-6143.709319,766.095498
1276.339997,7105.977043,-5995.668130,536.266849
1276.340328,6735.874072,-6513.812290,1072.533697
1276.340658,6809.894666,-6661.853478,459.657299
1276.340989,6587.832884,-6883.915261,766.095498
1276.341319,6883.915261,-6957.935855,1072.533697
1276.341650,7328.038826,-6587.832884,1225.752797
1276.341980,7254.018232,-6513.812290,1149.143247
1276.342310,7550.100608,-6735.874072,919.314598
1276.342641,7476.080014,-6291.750507,766.095498
1276.342971,7254.018232,-6587.832884,1225.752797
1276.343302,7105.977043,-6439.791695,919.314598
1276.343632,7476.080014,-6291.750507,1149.143247
1276.343963,7476.080014,-5921.647536,1302.362347
1276.344293,7402.059420,-6291.750507,919.314598
1276.344624,7402.059420,-6365.771101,995.924147
1276.344954,6957.935855,-6143.709319,1072.533697
1276.345284,6735.874072,-6661.853478,1149.143247
1276.345615,6735.874072,-6217.729913,842.705048
1276.345945,6661.853478,-6883.915261,1302.362347
1276.346276,6661.853478,-6735.874072,1149.143247
1276.346606,7105.977043,-6735.874072,1302.362347
1276.346937,6883.915261,-6735.874072,842.705048
1276.347267,6661.853478,-6883.915261,842.705048
1276.347597,6439.791695,-5773.606348,2298.286494
1276.347928,6661.853478,-6809.894666,842.705048
1276.348258,6365.771101,-6587.832884,919.314598
1276.348589,6513.812290,-6661.853478,1149.143247
1276.348919,6809.894666,-6957.935855,689.485948
1276.349250,6957.935855,-6809.894666,995.924147
1276.349580,6883.915261,-6587.832884,1225.752797
1276.349911,7031.956449,-6957.935855,689.485948
1276.350240,7105.977043,-6883.915261,919.314598
1276.350569,6957.935855,-6883.915261,919.314598
1276.350899,7105.977043,-7105.977043,1302.362347
1276.351228,7254.018232,-5699.585753,1149.143247
1276.351557,6957.935855,-6291.750507,919.314598
1276.351887,7031.956449,-6291.750507,1149.143247
1276.352216,7031.956449,-6439.791695,1225.752797
1276.352546,6957.935855,-6513.812290,919.314598
1276.352875,6809.894666,-6439.791695,766.095498
1276.353204,6291.750507,-6439.791695,842.705048
1276.353534,6587.832884,-6661.853478,1149.143247
1276.353863,6957.935855,-6957.935855,1149.143247
1276.354192,6809.894666,-6809.894666,1302.362347
1276.354522,6957.935855,-6735.874072,766.095498
1276.354851,6735.874072,-6661.853478,1302.362347
1276.355181,6809.894666,-6735.874072,689.485948
1276.355510,7031.956449,-6883.915261,919.314598
1276.355839,6957.935855,-6587.832884,919.314598
1276.356169,7105.977043,-6883.915261,1149.143247
1276.356498,7179.997637,-6587.832884,1378.971896
1276.356827,7105.977043,-6217.729913,1608.800546
1276.357157,7105.977043,-6291.750507,229.828649
1276.357486,7031.956449,-6365.771101,995.924147
1276.357816,7105.977043,-6735.874072,995.924147
1276.358145,7550.100608,-6587.832884,1149.143247
1276.358474,7179.997637,-5921.647536,1608.800546
1276.358804,7550.100608,-5921.647536,919.314598
1276.359133,6513.812290,-6217.729913,1149.143247
1276.359462,7105.977043,-6217.729913,842.705048
1276.359792,7105.977043,-5921.647536,1072.533697
1276.360121,6957.935855,-6217.729913,1072.533697
1276.360451,6661.853478,-6439.791695,766.095498
1276.360780,6735.874072,-6957.935855,1072.533697
1276.361109,6957.935855,-6513.812290,1072.533697
1276.361439,7105.977043,-6587.832884,919.314598
1276.361768,6809.894666,-6587.832884,766.095498
1276.362097,6661.853478,-6661.853478,1149.143247
1276.362427,6513.812290,-7105.977043,842.705048
1276.362756,6809.894666,-6809.894666,919.314598
1276.363086,6587.832884,-6661.853478,766.095498
1276.363415,6735.874072,-7105.977043,842.705048
1276.363744,7105.977043,-7105.977043,1302.362347
1276.364074,7105.977043,-6661.853478,1378.971896
1276.364403,7179.997637,-6735.874072,1302.362347
1276.364732,6809.894666,-6587.832884,1149.143247
1276.365062,6809.894666,-6735.874072,1149.143247
1276.365391,6587.832884,-6661.853478,766.095498
1276.365721,7105.977043,-6217.729913,1302.362347
1276.366050,7031.956449,-5773.606348,1149.143247
1276.366379,6957.935855,-6217.729913,1302.362347
1276.366709,6957.935855,-6439.791695,1072.533697
1276.367038,7105.977043,-6439.791695,766.095498
1276.367367,7105.977043,-6735.874072,842.705048
1276.367697,6587.832884,-6587.832884,459.657299
1276.368026,6513.812290,-7105.977043,995.924147
1276.368356,7031.956449,-6809.894666,1072.533697
1276.368685,6883.915261,-6809.894666,1149.143247
1276.369014,7031.956449,-6217.729913,1149.143247
1276.369344,6809.894666,-6809.894666,1149.143247
1276.369673,6513.812290,-6661.853478,842.705048
1276.370002,6735.874072,-6661.853478,689.485948
1276.370332,6587.832884,-6291.750507,1072.533697
1276.370661,6957.935855,-6661.853478,689.485948
1276.370991,7328.038826,-6143.709319,1608.800546
1276.371320,7328.038826,-6069.688724,1225.752797
1276.371649,7550.100608,-6513.812290,919.314598
1276.371979,7476.080014,-5995.668130,766.095498
1276.372308,7105.977043,-6883.915261,766.095498
1276.372638,7328.038826,-6957.935855,995.924147
1276.372967,7402.059420,-6143.709319,1149.143247
1276.373296,7476.080014,-6143.709319,1378.971896
1276.373626,7254.018232,-6143.709319,1072.533697
1276.373955,6883.915261,-6291.750507,1225.752797
1276.374284,7105.977043,-6365.771101,1072.533697
1276.374614,7105.977043,-5921.647536,919.314598
1276.374943,7254.018232,-6439.791695,1225.752797
1276.375273,7031.956449,-6957.935855,1225.752797
1276.375602,7105.977043,-6661.853478,1225.752797
1276.375931,7031.956449,-6513.812290,842.705048
1276.376261,6735.874072,-6587.832884,536.266849
1276.376590,6513.812290,-6883.915261,1225.752797
1276.376919,6809.894666,-7179.997637,1149.143247
1276.377249,6661.853478,-6957.935855,919.314598
1276.377578,6587.832884,-6661.853478,842.705048
1276.377908,6735.874072,-6809.894666,995.924147
1276.378237,7105.977043,-6587.832884,842.705048
1276.378566,7105.977043,-6291.750507,1149.143247
1276.378896,7105.977043,-6439.791695,1072.533697
1276.379225,6883.915261,-6587.832884,1225.752797
1276.379554,6513.812290,-5995.668130,1225.752797
1276.379884,6957.935855,-6809.894666,919.314598
1276.380213,6883.915261,-6291.750507,1149.143247
1276.380543,7328.038826,-6439.791695,1149.143247
1276.380872,7179.997637,-6143.709319,842.705048
1276.381201,6587.832884,-6735.874072,1685.410096
1276.381531,7105.977043,-6439.791695,1072.533697
1276.381860,6809.894666,-6365.771101,1149.143247
1276.382189,6217.729913,-6365.771101,1072.533697
1276.382519,7105.977043,-6883.915261,842.705048
1276.382848,6883.915261,-6883.915261,1072.533697
1276.383178,7031.956449,-6809.894666,919.314598
1276.383507,6809.894666,-6661.853478,689.485948
1276.383836,6735.874072,-6587.832884,766.095498
1276.384166,7105.977043,-7179.997637,919.314598
1276.384495,6661.853478,-6957.935855,612.876398
1276.384824,6735.874072,-7105.977043,1302.362347
1276.385154,6217.729913,-6661.853478,536.266849
1276.385483,7402.059420,-6957.935855,1072.533697
1276.385813,7254.018232,-6217.729913,919.314598
1276.386142,7402.059420,-6661.853478,1072.533697
1276.386471,7179.997637,-5995.668130,766.095498
1276.386801,7179.997637,-6439.791695,919.314598
1276.387130,6809.894666,-5995.668130,689.485948
1276.387459,7254.018232,-6069.688724,1149.143247
1276.387789,7328.038826,-5995.668130,1225.752797
1276.388118,7105.977043,-5995.668130,1149.143247
1276.388448,6957.935855,-6513.812290,766.095498
1276.388777,7179.997637,-6513.812290,842.705048
1276.389106,7328.038826,-6439.791695,229.828649
1276.389436,6809.894666,-6439.791695,919.314598
1276.389765,6735.874072,-6883.915261,995.924147
1276.390094,6661.853478,-6069.688724,1378.971896
1276.390424,7105.977043,-6587.832884,1302.362347
1276.390753,6809.894666,-6661.853478,919.314598
1276.391083,6809.894666,-6291.750507,1302.362347
1276.391412,7179.997637,-7105.977043,1225.752797
1276.391741,6513.812290,-6661.853478,919.314598
1276.392071,6513.812290,-6513.812290,919.314598
1276.392400,7031.956449,-6661.853478,842.705048
1276.392729,7402.059420,-6661.853478,995.924147
1276.393059,7476.080014,-6587.832884,919.314598
1276.393388,7105.977043,-6809.894666,842.705048
1276.393718,7105.977043,-6661.853478,919.314598
1276.394047,6735.874072,-6513.812290,842.705048
1276.394376,7105.977043,-7328.038826,1225.752797
1276.394706,7550.100608,-6143.709319,1302.362347
1276.395035,7402.059420,-6291.750507,919.314598
1276.395364,7031.956449,-6365.771101,1378.971896
1276.395694,6883.915261,-6513.812290,1532.190996
1276.396023,6661.853478,-5699.585753,1149.143247
1276.396353,6809.894666,-6365.771101,689.485948
1276.396682,6513.812290,-6439.791695,995.924147
1276.397011,6735.874072,-6957.935855,1225.752797
1276.397341,6957.935855,-6735.874072,1378.971896
1276.397670,6809.894666,-6069.688724,1685.410096
1276.397999,6735.874072,-6735.874072,1072.533697
1276.398329,6513.812290,-6513.812290,1378.971896
1276.398658,6809.894666,-6957.935855,919.314598
1276.398988,7105.977043,-6809.894666,1149.143247
1276.399317,7031.956449,-6809.894666,1225.752797
1276.399646,6883.915261,-6809.894666,995.924147
1276.399976,7105.977043,-6809.894666,1149.143247
1276.400305,7105.977043,-6365.771101,1149.143247
1276.400634,7105.977043,-5329.482782,995.924147
1276.400964,7920.203579,-5403.503377,1072.533697
1276.401293,8142.265362,-5477.523971,1149.143247
1276.401623,8808.450710,-5403.503377,1072.533697
1276.401952,8586.388927,-5699.585753,1532.190996
1276.402281,7624.121203,-5551.544565,536.266849
1276.402611,6513.812290,-7031.956449,229.828649
1276.402940,6291.750507,-6735.874072,306.438199
1276.403269,6735.874072,-6513.812290,76.609550
1276.403599,7846.182985,-6291.750507,1149.143247
1276.403928,8216.285956,-5847.626942,1685.410096
1276.404258,7772.162391,-5255.462188,1608.800546
1276.404587,8068.244768,-4071.132681,995.924147
1276.404916,7772.162391,-4959.379811,842.705048
1276.405246,8290.306550,-4737.318029,536.266849
1276.405575,8882.471304,-4293.194464,1302.362347
1276.405904,8956.491898,-4885.359217,1378.971896
1276.406234,8216.285956,-4441.235652,612.876398
1276.406563,7846.182985,-5033.400406,1072.533697
1276.406893,8290.306550,-4663.297435,612.876398
1276.407222,8660.409521,-5477.523971,919.314598
1276.407551,8586.388927,-5255.462188,1455.581446
1276.407881,8512.368333,-5329.482782,536.266849
1276.408210,8290.306550,-5329.482782,766.095498
1276.408539,7846.182985,-5255.462188,1225.752797
1276.408869,7698.141797,-5847.626942,306.438199
1276.409198,7846.182985,-4959.379811,1149.143247
1276.409528,8660.409521,-4811.338623,766.095498
1276.409857,8882.471304,-4811.338623,1225.752797
1276.410186,9992.780217,-3849.070898,1991.848295
1276.410516,9548.656652,-3997.112087,1685.410096
1276.410845,9622.677246,-2516.700203,1225.752797
1276.411174,9548.656652,-2812.782580,1762.019645
1276.411504,9548.656652,-3627.009116,1838.629195
1276.411833,9992.780217,-3034.844362,2068.457845
1276.412163,9696.697840,-4219.173869,919.314598
1276.412492,9326.594869,-4441.235652,1149.143247
1276.412821,8216.285956,-5181.441594,1378.971896
1276.413151,8512.368333,-5921.647536,1685.410096
1276.413480,7772.162391,-6143.709319,842.705048
1276.413810,6809.894666,-5625.565159,842.705048
1276.414139,7179.997637,-5329.482782,766.095498
1276.414468,7698.141797,-6439.791695,612.876398
1276.414798,7994.224174,-5625.565159,1225.752797
1276.415127,7920.203579,-5995.668130,0.000000
1276.415456,8142.265362,-5255.462188,229.828649
1276.415786,8586.388927,-3997.112087,536.266849
1276.416115,9474.636058,-4367.215058,536.266849
1276.416445,10807.006753,-3775.050304,766.095498
1276.416774,10881.027347,-3849.070898,919.314598
1276.417103,10658.965565,-3701.029710,1149.143247
1276.417433,10140.821405,-2664.741391,1378.971896
1276.417762,9696.697840,-3701.029710,919.314598
1276.418091,9474.636058,-3997.112087,919.314598
1276.418421,9178.553681,-4293.194464,1225.752797
1276.418750,9326.594869,-4515.256246,1072.533697
1276.419080,9400.615463,-3997.112087,1838.629195
1276.419409,9252.574275,-4515.256246,2145.067394
1276.419738,8956.491898,-4071.132681,1608.800546
1276.420068,8734.430116,-3627.009116,1762.019645
1276.420397,8438.347739,-3330.926739,842.705048
1276.420726,8660.409521,-3627.009116,842.705048
1276.421056,8808.450710,-3701.029710,536.266849
1276.421385,9474.636058,-3923.091493,153.219100
1276.421715,9770.718434,-4293.194464,766.095498
1276.422044,9400.615463,-4663.297435,229.828649
1276.422373,9030.512492,-5477.523971,0.000000
1276.422703,9030.512492,-5403.503377,0.000000
1276.423032,8660.409521,-6661.853478,383.047749
1276.423361,8290.306550,-7105.977043,1149.143247
1276.423691,7624.121203,-6439.791695,1762.019645
1276.424020,7772.162391,-6069.688724,1072.533697
1276.424350,7772.162391,-6069.688724,1991.848295
1276.424679,8290.306550,-5477.523971,3064.381992
1276.425008,8882.471304,-4589.276840,2298.286494
1276.425338,8808.450710,-2886.803174,1685.410096
1276.425667,9030.512492,-1924.535449,1072.533697
1276.425996,9252.574275,-2294.638420,842.705048
1276.426326,9844.739029,-1628.453072,1455.581446
1276.426655,9548.656652,-2146.597232,0.000000
1276.426985,9622.677246,-3108.864956,153.219100
1276.427314,9844.739029,-5033.400406,612.876398
1276.427643,9104.533087,-6957.935855,1455.581446
1276.427973,8660.409521,-8586.388927,1149.143247
1276.428302,6735.874072,-9400.615463,1149.143247
1276.428631,4811.338623,-9770.718434,229.828649
1276.428961,4293.194464,-10955.047942,229.828649
1276.429290,4293.194464,-9474.636058,383.047749
1276.429620,4441.235652,-8438.347739,0.000000
1276.429949,5403.503377,-6957.935855,0.000000
1276.430278,6513.812290,-6069.688724,689.485948
1276.430608,7254.018232,-5329.482782,995.924147
1276.430937,7920.203579,-4219.173869,1762.019645
1276.431266,8438.347739,-3108.864956,689.485948
1276.431596,8512.368333,-3108.864956,536.266849
1276.431925,9178.553681,-3256.906145,919.314598
1276.432255,10510.924376,-4737.318029,2221.676944
1276.432584,10881.027347,-4441.235652,1455.581446
1276.432913,9548.656652,-4737.318029,1608.800546
1276.433243,8290.306550,-5255.462188,1532.190996
1276.433572,7698.141797,-6365.771101,1838.629195
1276.433901,7550.100608,-6587.832884,2298.286494
1276.434231,6661.853478,-6661.853478,2068.457845
1276.434560,6365.771101,-6587.832884,2145.067394
1276.434890,5921.647536,-5921.647536,1915.238745
1276.435219,5699.585753,-6365.771101,842.705048
1276.435548,5995.668130,-6143.709319,229.828649
1276.435878,5995.668130,-5995.668130,0.000000
1276.436207,6587.832884,-6957.935855,-229.828649
1276.436536,6809.894666,-7105.977043,536.266849
1276.436866,7105.977043,-7179.997637,612.876398
1276.437195,7920.203579,-8068.244768,0.000000
1276.437525,7550.100608,-7698.141797,1302.362347
1276.437854,7772.162391,-7994.224174,1225.752797
1276.438183,7698.141797,-6661.853478,1608.800546
1276.438513,7994.224174,-5403.503377,1685.410096
1276.438842,7476.080014,-5551.544565,1302.362347
1276.439171,7105.977043,-5995.668130,1455.581446
1276.439501,7105.977043,-5847.626942,1455.581446
1276.439830,6513.812290,-5551.544565,1455.581446
1276.440160,5551.544565,-6365.771101,1762.019645
1276.440489,5551.544565,-6883.915261,1455.581446
1276.440818,5847.626942,-6661.853478,1225.752797
1276.441148,6291.750507,-6217.729913,1149.143247
1276.441477,7031.956449,-5995.668130,383.047749
1276.441806,7254.018232,-6661.853478,689.485948
1276.442136,7328.038826,-7031.956449,1455.581446
1276.442465,7550.100608,-6513.812290,919.314598
1276.442795,7328.038826,-5995.668130,1149.143247
1276.443124,7772.162391,-5625.565159,2451.505594
1276.443453,7920.203579,-5551.544565,1532.190996
1276.443783,7328.038826,-4737.318029,1762.019645
1276.444112,7105.977043,-5329.482782,766.095498
1276.444441,7846.182985,-5329.482782,229.828649
1276.444771,7476.080014,-5847.626942,689.485948
1276.445100,6661.853478,-7772.162391,689.485948
1276.445430,6291.750507,-8586.388927,1225.752797
1276.445759,6069.688724,-9030.512492,1072.533697
1276.446088,5477.523971,-8882.471304,612.876398
1276.446418,4959.379811,-8660.409521,612.876398
1276.446747,5255.462188,-8512.368333,0.000000
1276.447076,5625.565159,-8438.347739,-229.828649
1276.447406,5921.647536,-8216.285956,0.000000
1276.447735,5847.626942,-8586.388927,76.609550
1276.448065,6291.750507,-7550.100608,1072.533697
1276.448394,6439.791695,-7402.059420,1991.848295
1276.448723,6513.812290,-5329.482782,2145.067394
1276.449053,7476.080014,-3256.906145,2604.724693
1276.449382,9326.594869,-2368.659014,2604.724693
1276.449711,10436.903782,-1702.473667,2374.896044
1276.450041,10288.862594,-2812.782580,1915.238745
1276.450370,9400.615463,-4367.215058,1149.143247
1276.450700,9104.533087,-5181.441594,229.828649
1276.451029,7031.956449,-7328.038826,536.266849
1276.451358,6883.915261,-8216.285956,1149.143247
1276.451688,6513.812290,-9030.512492,842.705048
1276.452017,5847.626942,-8216.285956,1072.533697
1276.452346,5403.503377,-9326.594869,76.609550
1276.452675,4441.235652,-8882.471304,153.219100
1276.453004,4293.194464,-7179.997637,-766.095498
1276.453334,4145.153275,-7402.059420,-1302.362347
1276.453663,4885.359217,-7105.977043,306.438199
1276.453992,6957.935855,-7105.977043,1149.143247
1276.454321,8512.368333,-5551.544565,2068.457845
1276.454650,9030.512492,-4515.256246,2374.896044
1276.454979,8882.471304,-4663.297435,2221.676944
1276.455308,8808.450710,-3997.112087,1072.533697
1276.455637,8586.388927,-4959.379811,842.705048
1276.455967,8808.450710,-4737.318029,842.705048
1276.456296,7846.182985,-6587.832884,1149.143247
1276.456625,7698.141797,-7031.956449,1378.971896
1276.456954,6513.812290,-7624.121203,842.705048
1276.457283,5551.544565,-8734.430116,1072.533697
1276.457612,5181.441594,-7846.182985,995.924147
1276.457941,4367.215058,-8364.327145,612.876398
1276.458270,4663.297435,-7179.997637,229.828649
1276.458600,5033.400406,-7031.956449,229.828649
1276.458929,6217.729913,-6883.915261,-306.438199
1276.459258,7179.997637,-6291.750507,459.657299
1276.459587,7476.080014,-6661.853478,689.485948
1276.459916,7920.203579,-7179.997637,1685.410096
1276.460245,8364.327145,-6069.688724,1915.238745
1276.460574,8808.450710,-5699.585753,1838.629195
1276.460903,8734.430116,-4663.297435,1915.238745
1276.461232,9622.677246,-4219.173869,995.924147
1276.461562,9696.697840,-4441.235652,1455.581446
1276.461891,9178.553681,-4737.318029,1455.581446
1276.462220,7624.121203,-5625.565159,1455.581446
1276.462549,7031.956449,-6661.853478,1915.238745
1276.462878,5847.626942,-7328.038826,1225.752797
1276.463207,5107.421000,-7698.141797,1302.362347
1276.463536,4441.235652,-8068.244768,842.705048
1276.463865,4367.215058,-8068.244768,459.657299
1276.464195,4811.338623,-7846.182985,-612.876398
1276.464524,5329.482782,-7254.018232,0.000000
1276.464853,6439.791695,-6587.832884,612.876398
1276.465182,7624.121203,-6883.915261,919.314598
1276.465511,7698.141797,-6883.915261,1838.629195
1276.465840,8290.306550,-5773.606348,1685.410096
1276.466169,8438.347739,-4737.318029,1302.362347
1276.466498,8808.450710,-4811.338623,1378.971896
1276.466828,8808.450710,-5255.462188,1225.752797
1276.467157,8512.368333,-5551.544565,459.657299
1276.467486,7772.162391,-5403.503377,766.095498
1276.467815,7550.100608,-6365.771101,1532.190996
1276.468144,7179.997637,-7698.141797,1608.800546
1276.468473,6513.812290,-8290.306550,1608.800546
1276.468802,6069.688724,-8660.409521,995.924147
1276.469131,5255.462188,-7402.059420,766.095498
1276.469461,4737.318029,-7105.977043,612.876398
1276.469790,5033.400406,-7772.162391,536.266849
1276.470119,6217.729913,-7105.977043,536.266849
1276.470448,6217.729913,-7105.977043,459.657299
1276.470777,6513.812290,-6735.874072,612.876398
1276.471106,7105.977043,-6365.771101,1532.190996
1276.471435,7476.080014,-5847.626942,1455.581446
1276.471764,7994.224174,-5033.400406,2221.676944
1276.472093,8438.347739,-4071.132681,1762.019645
1276.472423,8364.327145,-4367.215058,1378.971896
1276.472752,8364.327145,-4589.276840,919.314598
1276.473081,7920.203579,-5329.482782,612.876398
1276.473410,7624.121203,-6513.812290,1149.143247
1276.473739,7772.162391,-7179.997637,1608.800546
1276.474068,7105.977043,-8438.347739,1149.143247
1276.474397,6587.832884,-8586.388927,1302.362347
1276.474726,6217.729913,-7624.121203,1378.971896
1276.475056,5033.400406,-7994.224174,-229.828649
1276.475385,4071.132681,-8068.244768,-459.657299
1276.475714,4515.256246,-7994.224174,-306.438199
1276.476043,5477.523971,-7846.182985,0.000000
1276.476372,6439.791695,-7105.977043,612.876398
1276.476701,7179.997637,-6587.832884,1225.752797
1276.477030,7920.203579,-6661.853478,2068.457845
1276.477359,8808.450710,-5773.606348,2528.115143
1276.477689,8438.347739,-5181.441594,2374.896044
1276.478018,8438.347739,-3849.070898,1455.581446
1276.478347,8660.409521,-3478.967927,1378.971896
1276.478676,9030.512492,-4515.256246,689.485948
1276.479005,8660.409521,-5625.565159,995.924147
1276.479334,7772.162391,-5921.647536,1455.581446
1276.479663,6809.894666,-7846.182985,766.095498
1276.479992,6439.791695,-8216.285956,1915.238745
1276.480321,6439.791695,-8290.306550,1302.362347
1276.480651,6217.729913,-7846.182985,842.705048
1276.480980,4959.379811,-6957.935855,-306.438199
1276.481309,4959.379811,-7698.141797,0.000000
1276.481638,5699.585753,-7105.977043,0.000000
1276.481967,5847.626942,-7328.038826,0.000000
1276.482296,5995.668130,-7179.997637,0.000000
1276.482625,6513.812290,-7105.977043,1302.362347
1276.482954,7328.038826,-7105.977043,2834.553343
1276.483284,8290.306550,-5625.565159,2911.162892
1276.483613,8808.450710,-3997.112087,2451.505594
1276.483942,8660.409521,-2516.700203,2298.286494
1276.484271,8142.265362,-3923.091493,612.876398
1276.484600,8068.244768,-4663.297435,919.314598
1276.484929,7994.224174,-5329.482782,842.705048
1276.485258,8068.244768,-7846.182985,919.314598
1276.485587,7254.018232,-8512.368333,1991.848295
1276.485917,6069.688724,-9400.615463,1838.629195
1276.486246,4737.318029,-8216.285956,306.438199
1276.486575,3552.988522,-8438.347739,76.609550
1276.486904,3775.050304,-8808.450710,-612.876398
1276.487233,4737.318029,-6735.874072,76.609550
1276.487562,5403.503377,-6957.935855,153.219100
1276.487891,6735.874072,-6291.750507,459.657299
1276.488220,7179.997637,-6365.771101,1532.190996
1276.488549,7846.182985,-6513.812290,1762.019645
1276.488879,8216.285956,-5255.462188,1762.019645
1276.489208,8586.388927,-5107.421000,1915.238745
1276.489537,8364.327145,-3849.070898,1072.533697
1276.489866,7994.224174,-5107.421000,766.095498
1276.490195,7994.224174,-6217.729913,689.485948
1276.490524,8364.327145,-6291.750507,995.924147
1276.490853,8512.368333,-7179.997637,995.924147
1276.491182,7476.080014,-7105.977043,1685.410096
1276.491512,7031.956449,-8512.368333,2528.115143
1276.491841,6439.791695,-8216.285956,1838.629195
1276.492170,5255.462188,-7105.977043,536.266849
1276.492499,3997.112087,-7328.038826,-383.047749
1276.492828,4737.318029,-6439.791695,-459.657299
1276.493157,5255.462188,-7550.100608,-76.609550
1276.493486,5847.626942,-7698.141797,383.047749
1276.493815,6661.853478,-7550.100608,766.095498
1276.494145,7402.059420,-7402.059420,1685.410096
1276.494474,8068.244768,-6365.771101,2374.896044
1276.494803,8216.285956,-4959.379811,2221.676944
1276.495132,9030.512492,-3849.070898,1455.581446
1276.495461,9326.594869,-3404.947333,1149.143247
1276.495790,9326.594869,-4071.132681,1225.752797
1276.496119,8438.347739,-4367.215058,995.924147
1276.496448,8512.368333,-5477.523971,995.924147
1276.496778,7550.100608,-6439.791695,1225.752797
1276.497107,6735.874072,-7846.182985,1991.848295
1276.497436,5921.647536,-7846.182985,2374.896044
1276.497765,5255.462188,-7846.182985,612.876398
1276.498094,4589.276840,-7624.121203,-306.438199
1276.498423,4219.173869,-7105.977043,-612.876398
1276.498752,4885.359217,-8068.244768,-153.219100
1276.499081,6439.791695,-7994.224174,306.438199
1276.499410,6957.935855,-7550.100608,1072.533697
1276.499740,7105.977043,-7254.018232,842.705048
1276.500069,7402.059420,-6883.915261,1608.800546
1276.500398,7994.224174,-5921.647536,1915.238745
1276.500727,8068.244768,-5107.421000,1455.581446
1276.501056,8142.265362,-4663.297435,1149.143247
1276.501385,8142.265362,-4737.318029,766.095498
1276.501714,8142.265362,-5477.523971,689.485948
1276.502043,8142.265362,-5921.647536,1149.143247
1276.502373,7920.203579,-7254.018232,1149.143247
1276.502702,7402.059420,-8364.327145,1532.190996
1276.503031,6809.894666,-8142.265362,1762.019645
1276.503360,6069.688724,-8068.244768,842.705048
1276.503689,6217.729913,-7476.080014,919.314598
1276.504018,5255.462188,-7105.977043,-153.219100
1276.504347,4737.318029,-7402.059420,-459.657299
1276.504676,5329.482782,-7402.059420,76.609550
1276.505006,6439.791695,-7328.038826,919.314598
1276.505335,6957.935855,-7179.997637,1455.581446
1276.505664,7031.956449,-6809.894666,2145.067394
1276.505993,7105.977043,-5477.523971,2374.896044
1276.506322,7550.100608,-4367.215058,2298.286494
1276.506651,8290.306550,-3552.988522,2221.676944
1276.506980,9400.615463,-3256.906145,1608.800546
1276.507309,9400.615463,-3108.864956,1225.752797
1276.507638,8808.450710,-4367.215058,919.314598
1276.507968,8290.306550,-6661.853478,536.266849
1276.508297,7476.080014,-7476.080014,1915.238745
1276.508626,6439.791695,-8956.491898,1762.019645
1276.508955,5403.503377,-9326.594869,1302.362347
1276.509284,4219.173869,-8142.265362,842.705048
1276.509613,3997.112087,-8438.347739,-229.828649
1276.509942,4145.153275,-8216.285956,0.000000
1276.510271,5181.441594,-7920.203579,-153.219100
1276.510601,5625.565159,-7476.080014,76.609550
1276.510930,6291.750507,-7254.018232,1302.362347
1276.511259,6735.874072,-7031.956449,1378.971896
1276.511588,7846.182985,-6365.771101,1685.410096
1276.511917,8290.306550,-5181.441594,2145.067394
1276.512246,9178.553681,-4589.276840,1915.238745
1276.512575,9622.677246,-4515.256246,1532.190996
1276.512904,9252.574275,-4145.153275,1608.800546
1276.513234,8512.368333,-4737.318029,842.705048
1276.513563,8216.285956,-6217.729913,1838.629195
1276.513892,7698.141797,-6957.935855,1685.410096
1276.514221,7031.956449,-8290.306550,1608.800546
1276.514550,6069.688724,-7994.224174,1915.238745
1276.514879,5773.606348,-7994.224174,1302.362347
1276.515208,4811.338623,-7846.182985,383.047749
1276.515537,4441.235652,-7105.977043,-383.047749
1276.515866,4367.215058,-7698.141797,-689.485948
1276.516196,5329.482782,-7328.038826,0.000000
1276.516525,6735.874072,-7328.038826,689.485948
1276.516854,7402.059420,-7179.997637,1378.971896
1276.517183,7698.141797,-6587.832884,1685.410096
1276.517512,7920.203579,-5699.585753,1762.019645
1276.517841,8142.265362,-4959.379811,1838.629195
1276.518170,9030.512492,-3923.091493,2068.457845
1276.518499,9030.512492,-2590.720797,1225.752797
1276.518829,8512.368333,-4145.153275,995.924147
1276.519158,8290.306550,-4811.338623,919.314598
1276.519487,7624.121203,-5699.585753,1378.971896
1276.519816,6735.874072,-7846.182985,1762.019645
1276.520145,5699.585753,-8068.244768,1455.581446
1276.520474,4663.297435,-8364.327145,689.485948
1276.520803,3849.070898,-8142.265362,76.609550
1276.521132,4145.153275,-7994.224174,-76.609550
1276.521462,5255.462188,-7698.141797,-536.266849
1276.521791,6439.791695,-7031.956449,229.828649
1276.522120,7105.977043,-6809.894666,919.314598
1276.522449,7698.141797,-6883.915261,1149.143247
1276.522778,7402.059420,-6439.791695,1532.190996
1276.523107,7254.018232,-6513.812290,1225.752797
1276.523436,7994.224174,-5477.523971,1302.362347
1276.523765,8512.368333,-4811.338623,1532.190996
1276.524095,8586.388927,-4515.256246,1225.752797
1276.524424,8586.388927,-4515.256246,1455.581446
1276.524753,8438.347739,-5625.565159,1072.533697
1276.525082,7994.224174,-6513.812290,1225.752797
1276.525411,7179.997637,-7402.059420,1762.019645
1276.525740,6809.894666,-7402.059420,1378.971896
1276.526069,6365.771101,-7846.182985,995.924147
1276.526398,5699.585753,-7920.203579,919.314598
1276.526727,5329.482782,-8068.244768,536.266849
1276.527057,5625.565159,-7698.141797,306.438199
1276.527386,5699.585753,-7105.977043,0.000000
1276.527715,5403.503377,-7550.100608,842.705048
1276.528044,5995.668130,-8216.285956,612.876398
1276.528373,6365.771101,-7105.977043,1532.190996
1276.528702,6883.915261,-6365.771101,1991.848295
1276.529031,7105.977043,-5107.421000,2298.286494
1276.529360,7920.203579,-3849.070898,2451.505594
1276.529690,9178.553681,-2812.782580,1455.581446
1276.530019,9548.656652,-2960.823768,1455.581446
1276.530348,9252.574275,-4071.132681,1455.581446
1276.530677,9326.594869,-5773.606348,919.314598
1276.531006,8142.265362,-6587.832884,1608.800546
1276.531335,7105.977043,-7846.182985,1225.752797
1276.531664,6365.771101,-9104.533087,1762.019645
1276.531993,5625.565159,-8660.409521,1072.533697
1276.532323,4293.194464,-8364.327145,-306.438199
1276.532652,3627.009116,-8216.285956,-459.657299
1276.532981,4885.359217,-7179.997637,-766.095498
1276.533310,5921.647536,-7031.956449,-383.047749
1276.533639,6143.709319,-7254.018232,1302.362347
1276.533968,6883.915261,-6809.894666,1762.019645
1276.534297,7402.059420,-6439.791695,1378.971896
1276.534626,7328.038826,-5699.585753,1149.143247
1276.534955,7550.100608,-5403.503377,1378.971896
1276.535285,8956.491898,-4811.338623,1378.971896
1276.535614,9104.533087,-4515.256246,1762.019645
1276.535943,9178.553681,-4737.318029,1225.752797
1276.536272,9104.533087,-5181.441594,1455.581446
1276.536601,8290.306550,-7105.977043,1762.019645
1276.536930,7328.038826,-7550.100608,1302.362347
1276.537259,5773.606348,-7994.224174,1685.410096
1276.537588,5181.441594,-7698.141797,919.314598
1276.537918,4885.359217,-8068.244768,306.438199
1276.538247,4737.318029,-7698.141797,459.657299
1276.538576,4663.297435,-7476.080014,-536.266849
1276.538905,5107.421000,-7476.080014,-995.924147
1276.539234,5699.585753,-7698.141797,0.000000
1276.539563,6513.812290,-7698.141797,995.924147
1276.539892,7846.182985,-6661.853478,1915.238745
1276.540221,8438.347739,-5107.421000,2298.286494
1276.540551,8586.388927,-4219.173869,1915.238745
1276.540880,9326.594869,-3923.091493,2298.286494
1276.541209,10140.821405,-3627.009116,1915.238745
1276.541538,9622.677246,-3923.091493,1378.971896
1276.541867,8142.265362,-5033.400406,612.876398
1276.542196,7105.977043,-6661.853478,612.876398
1276.542525,6365.771101,-8216.285956,919.314598
1276.542854,5255.462188,-9252.574275,1455.581446
1276.543183,3701.029710,-9474.636058,842.705048
1276.543513,3701.029710,-9104.533087,153.219100
1276.543842,3256.906145,-8438.347739,-612.876398
1276.544171,4071.132681,-8660.409521,-689.485948
1276.544500,5477.523971,-7994.224174,-459.657299
1276.544829,6661.853478,-7476.080014,995.924147
1276.545158,7698.141797,-6809.894666,1225.752797
1276.545487,8068.244768,-5181.441594,2221.676944
1276.545816,8660.409521,-4515.256246,1991.848295
1276.546146,9474.636058,-4219.173869,2145.067394
1276.546475,9474.636058,-3552.988522,2068.457845
1276.546804,9030.512492,-3923.091493,1532.190996
1276.547133,9178.553681,-3627.009116,1225.752797
1276.547462,8586.388927,-4663.297435,612.876398
1276.547791,7328.038826,-7550.100608,842.705048
1276.548120,6291.750507,-8660.409521,1225.752797
1276.548449,5699.585753,-8956.491898,1378.971896
1276.548779,6143.709319,-8586.388927,1149.143247
1276.549108,5329.482782,-8290.306550,1225.752797
1276.549437,5181.441594,-7994.224174,306.438199
1276.549766,4663.297435,-8068.244768,-306.438199
1276.550095,4663.297435,-7328.038826,-459.657299
1276.550424,4959.379811,-7254.018232,76.609550
1276.550753,6513.812290,-7328.038826,689.485948
1276.551082,7476.080014,-6809.894666,1915.238745
1276.551411,8512.368333,-5995.668130,2068.457845
1276.551741,8882.471304,-4441.235652,2681.334243
1276.552070,8882.471304,-3330.926739,2374.896044
1276.552399,9400.615463,-3256.906145,1685.410096
1276.552728,9548.656652,-3108.864956,1532.190996
1276.553057,8586.388927,-4293.194464,689.485948
1276.553386,8364.327145,-5773.606348,229.828649
1276.553715,7328.038826,-6735.874072,766.095498
1276.554044,6809.894666,-7846.182985,1149.143247
1276.554373,6365.771101,-8364.327145,1302.362347
1276.554702,5921.647536,-7846.182985,1378.971896
1276.555032,5107.421000,-7698.141797,1455.581446
1276.555361,4293.194464,-7772.162391,229.828649
1276.555690,4737.318029,-6809.894666,-689.485948
1276.556019,5699.585753,-7031.956449,-459.657299
1276.556348,6661.853478,-7031.956449,842.705048
1276.556677,7105.977043,-7105.977043,1762.019645
1276.557006,7846.182985,-7031.956449,2068.457845
1276.557335,7402.059420,-6069.688724,1532.190996
1276.557664,7402.059420,-5255.462188,1378.971896
1276.557993,7698.141797,-4811.338623,1608.800546
1276.558323,8142.265362,-4811.338623,1225.752797
1276.558652,7994.224174,-5181.441594,689.485948
1276.558981,7328.038826,-5847.626942,689.485948
1276.559310,7179.997637,-7105.977043,1149.143247
1276.559639,7698.141797,-8142.265362,1378.971896
1276.559968,6809.894666,-8216.285956,1455.581446
1276.560297,5921.647536,-8142.265362,1302.362347
1276.560626,6069.688724,-7402.059420,766.095498
1276.560955,5847.626942,-7105.977043,536.266849
1276.561284,5551.544565,-7105.977043,0.000000
1276.561614,5773.606348,-7105.977043,0.000000
1276.561943,6513.812290,-7105.977043,689.485948
1276.562272,7179.997637,-7031.956449,1378.971896
1276.562601,7328.038826,-5995.668130,1608.800546
1276.562930,7994.224174,-5181.441594,2374.896044
1276.563259,8216.285956,-4737.318029,1991.848295
1276.563588,8068.244768,-3849.070898,1455.581446
1276.563917,7772.162391,-3108.864956,919.314598
1276.564246,8216.285956,-4737.318029,1302.362347
1276.564575,8216.285956,-5477.523971,1302.362347
1276.564905,7402.059420,-6587.832884,689.485948
1276.565234,6439.791695,-7920.203579,1225.752797
1276.565563,6587.832884,-8660.409521,2221.676944
1276.565892,6365.771101,-9252.574275,1455.581446
1276.566221,4959.379811,-8586.388927,919.314598
1276.566550,3997.112087,-8068.244768,76.609550
1276.566879,4515.256246,-8142.265362,-459.657299
1276.567208,4737.318029,-7402.059420,-689.485948
1276.567537,5329.482782,-7624.121203,0.000000
1276.567867,6513.812290,-7105.977043,76.609550
1276.568196,6735.874072,-6439.791695,995.924147
1276.568525,7550.100608,-5847.626942,995.924147
1276.568854,7920.203579,-5773.606348,1302.362347
1276.569183,8216.285956,-4515.256246,1378.971896
1276.569512,8586.388927,-4811.338623,1225.752797
1276.569841,9104.533087,-4219.173869,1149.143247
1276.570170,8882.471304,-3923.091493,2145.067394
1276.570499,9326.594869,-5477.523971,1685.410096
1276.570828,8586.388927,-6809.894666,1838.629195
1276.571158,6883.915261,-7994.224174,1762.019645
1276.571487,6217.729913,-7254.018232,1838.629195
1276.571816,6291.750507,-7624.121203,1608.800546
1276.572145,5699.585753,-7994.224174,1149.143247
1276.572474,5107.421000,-8216.285956,459.657299
1276.572803,4663.297435,-7105.977043,0.000000
1276.573132,4959.379811,-7476.080014,-995.924147
1276.573461,5033.400406,-7476.080014,-306.438199
1276.573790,6143.709319,-7105.977043,919.314598
1276.574119,7328.038826,-7031.956449,1149.143247
1276.574449,7624.121203,-5847.626942,1991.848295
1276.574778,8438.347739,-4959.379811,1685.410096
1276.575107,8956.491898,-4145.153275,1762.019645
1276.575436,9474.636058,-4145.153275,1685.410096
1276.575765,9400.615463,-4441.235652,1302.362347
1276.576094,9030.512492,-4885.359217,1378.971896
1276.576423,8734.430116,-5699.585753,1455.581446
1276.576752,7624.121203,-6661.853478,1149.143247
1276.577081,6291.750507,-7994.224174,1378.971896
1276.577410,5625.565159,-8586.388927,1378.971896
1276.577740,5625.565159,-8290.306550,842.705048
1276.578069,4515.256246,-7846.182985,153.219100
1276.578398,3775.050304,-7698.141797,-306.438199
1276.578727,4145.153275,-7179.997637,-689.485948
1276.579056,5477.523971,-7179.997637,76.609550
1276.579385,6883.915261,-6883.915261,1302.362347
1276.579714,7550.100608,-6661.853478,1685.410096
1276.580043,7105.977043,-5477.523971,1991.848295
1276.580372,7476.080014,-5773.606348,1302.362347
1276.580701,7846.182985,-4959.379811,1532.190996
1276.581031,8438.347739,-4663.297435,1225.752797
1276.581360,9326.594869,-5403.503377,1455.581446
1276.581689,8808.450710,-5995.668130,1302.362347
1276.582018,7994.224174,-6069.688724,1915.238745
1276.582347,8216.285956,-7105.977043,1225.752797
1276.582676,7031.956449,-7772.162391,1378.971896
1276.583005,6513.812290,-7328.038826,1225.752797
1276.583334,5921.647536,-8216.285956,1685.410096
1276.583663,5403.503377,-7179.997637,689.485948
1276.583992,4885.359217,-7550.100608,-306.438199
1276.584322,4589.276840,-7624.121203,0.000000
1276.584651,5329.482782,-7402.059420,0.000000
1276.584980,6957.935855,-7772.162391,766.095498
1276.585309,7550.100608,-6809.894666,1302.362347
1276.585638,7550.100608,-6143.709319,1455.581446
1276.585967,8142.265362,-5255.462188,1838.629195
1276.586296,7920.203579,-5403.503377,1685.410096
1276.586625,7698.141797,-4589.276840,1149.143247
1276.586954,7994.224174,-4515.256246,1225.752797
1276.587283,8142.265362,-4959.379811,1532.190996
1276.587613,8438.347739,-4959.379811,1072.533697
1276.587942,7772.162391,-6661.853478,1378.971896
1276.588271,7402.059420,-6957.935855,1608.800546
1276.588600,6365.771101,-7846.182985,1378.971896
1276.588929,5625.565159,-7550.100608,1149.143247
1276.589258,5033.400406,-7105.977043,459.657299
1276.589587,5107.421000,-7920.203579,-306.438199
1276.589916,5847.626942,-7254.018232,-383.047749
1276.590245,5847.626942,-7254.018232,0.000000
1276.590574,6883.915261,-7105.977043,919.314598
1276.590904,7698.141797,-6587.832884,1149.143247
1276.591233,7920.203579,-6587.832884,1838.629195
1276.591562,7328.038826,-6069.688724,1608.800546
1276.591891,7550.100608,-5699.585753,1455.581446
1276.592220,8438.347739,-5329.482782,1532.190996
1276.592549,8586.388927,-4959.379811,1838.629195
1276.592878,8364.327145,-4441.235652,1532.190996
1276.593207,8142.265362,-4959.379811,1225.752797
1276.593536,7994.224174,-6661.853478,1455.581446
1276.593865,7550.100608,-7179.997637,1455.581446
1276.594195,6291.750507,-7698.141797,1608.800546
1276.594524,6217.729913,-8290.306550,1455.581446
1276.594853,5329.482782,-8290.306550,689.485948
1276.595182,5107.421000,-8512.368333,612.876398
1276.595511,4293.194464,-7846.182985,0.000000
1276.595840,4811.338623,-8068.244768,-229.828649
1276.596169,5625.565159,-7846.182985,153.219100
1276.596498,6217.729913,-7254.018232,689.485948
1276.596827,7105.977043,-6809.894666,995.924147
1276.597156,7624.121203,-6143.709319,1685.410096
1276.597486,8216.285956,-5403.503377,1225.752797
1276.597815,8216.285956,-4811.338623,1915.238745
1276.598144,8882.471304,-3923.091493,2068.457845
1276.598473,9030.512492,-4441.235652,1378.971896
1276.598802,8660.409521,-3923.091493,1838.629195
1276.599131,8512.368333,-5699.585753,1608.800546
1276.599460,7698.141797,-6513.812290,536.266849
1276.599789,6439.791695,-7179.997637,842.705048
1276.600118,5255.462188,-8216.285956,1302.362347
1276.600447,5033.400406,-7846.182985,1302.362347
1276.600777,4737.318029,-8364.327145,612.876398
1276.601106,4737.318029,-7846.182985,612.876398
1276.601435,5403.503377,-7254.018232,229.828649
1276.601764,6883.915261,-6957.935855,1225.752797
1276.602093,7105.977043,-5921.647536,1072.533697
1276.602422,7550.100608,-6069.688724,1455.581446
1276.602751,7402.059420,-5625.565159,2221.676944
1276.603080,7846.182985,-5403.503377,1532.190996
1276.603409,7476.080014,-4219.173869,1608.800546
1276.603738,7402.059420,-4663.297435,995.924147
1276.604068,8216.285956,-5403.503377,766.095498
1276.604397,8290.306550,-5995.668130,1225.752797
1276.604726,7698.141797,-6883.915261,1532.190996
1276.605055,6809.894666,-7254.018232,1149.143247
1276.605384,6957.935855,-8290.306550,1225.752797
1276.605713,6513.812290,-8734.430116,1302.362347
1276.606042,5995.668130,-8882.471304,1608.800546
1276.606371,5551.544565,-8660.409521,919.314598
1276.606700,5181.441594,-7698.141797,76.609550
1276.607029,4959.379811,-7179.997637,-536.266849
1276.607359,5403.503377,-7328.038826,0.000000
1276.607688,6439.791695,-7254.018232,766.095498
1276.608017,7105.977043,-7476.080014,1378.971896
1276.608346,7105.977043,-6439.791695,1685.410096
1276.608675,7328.038826,-5477.523971,919.314598
1276.609004,7698.141797,-4737.318029,1762.019645
1276.609333,7994.224174,-3478.967927,1685.410096
1276.609662,8882.471304,-4219.173869,1302.362347
1276.609991,8882.471304,-4071.132681,1378.971896
1276.610321,8956.491898,-4959.379811,919.314598
1276.610650,8586.388927,-5773.606348,1302.362347
1276.610979,7772.162391,-6069.688724,2145.067394
1276.611308,7476.080014,-7772.162391,1302.362347
1276.611637,6143.709319,-7772.162391,1532.190996
1276.611966,5403.503377,-7476.080014,1072.533697
1276.612295,4811.338623,-7254.018232,76.609550
1276.612624,4885.359217,-6957.935855,-306.438199
1276.612953,5403.503377,-7624.121203,0.000000
1276.613282,5847.626942,-7550.100608,459.657299
1276.613612,6661.853478,-6809.894666,842.705048
1276.613941,7254.018232,-6513.812290,1608.800546
1276.614270,7550.100608,-6439.791695,1608.800546
1276.614599,7476.080014,-6069.688724,1608.800546
1276.614928,7624.121203,-5329.482782,1455.581446
1276.615257,7994.224174,-5329.482782,1608.800546
1276.615586,8438.347739,-4367.215058,1762.019645
1276.615915,8586.388927,-4959.379811,842.705048
1276.616244,8364.327145,-6143.709319,1608.800546
1276.616573,7994.224174,-6365.771101,1685.410096
1276.616903,6735.874072,-7476.080014,1532.190996
1276.617232,5995.668130,-7254.018232,995.924147
1276.617561,5329.482782,-7920.203579,842.705048
1276.617890,5255.462188,-8068.244768,306.438199
1276.618219,5033.400406,-7402.059420,229.828649
1276.618548,5625.565159,-7846.182985,229.828649
1276.618877,6143.709319,-7846.182985,76.609550
1276.619206,6365.771101,-7550.100608,459.657299
1276.619535,6513.812290,-7698.141797,612.876398
1276.619864,7328.038826,-7254.018232,1072.533697
1276.620194,7402.059420,-6217.729913,995.924147
1276.620523,7550.100608,-5699.585753,1455.581446
1276.620852,8068.244768,-4811.338623,1455.581446
1276.621181,9178.553681,-4219.173869,1532.190996
1276.621510,9548.656652,-3997.112087,2068.457845
1276.621839,8956.491898,-4367.215058,1685.410096
1276.622168,8882.471304,-5181.441594,1838.629195
1276.622497,8290.306550,-6217.729913,1532.190996
1276.622826,6883.915261,-7402.059420,2068.457845
1276.623155,5403.503377,-8290.306550,919.314598
1276.623485,4737.318029,-7994.224174,459.657299
1276.623814,4145.153275,-7624.121203,-76.609550
1276.624143,4219.173869,-8290.306550,-536.266849
1276.624472,4959.379811,-7846.182985,459.657299
1276.624801,6661.853478,-8142.265362,229.828649
1276.625130,6735.874072,-7402.059420,842.705048
1276.625459,6809.894666,-6365.771101,1225.752797
1276.625788,7328.038826,-6291.750507,1532.190996
1276.626117,7624.121203,-4885.359217,1762.019645
1276.626446,8290.306550,-4737.318029,1762.019645
1276.626776,8956.491898,-4441.235652,1532.190996
1276.627105,9400.615463,-3849.070898,1455.581446
1276.627434,9474.636058,-4663.297435,1378.971896
1276.627763,8882.471304,-5847.626942,1685.410096
1276.628092,7772.162391,-7179.997637,2068.457845
1276.628421,6661.853478,-8068.244768,1455.581446
1276.628750,5847.626942,-8068.244768,1455.581446
1276.629079,4959.379811,-8438.347739,995.924147
1276.629408,4589.276840,-7846.182985,0.000000
1276.629737,4663.297435,-8142.265362,153.219100
1276.630067,4811.338623,-7772.162391,0.000000
1276.630396,5625.565159,-7994.224174,76.609550
1276.630725,6217.729913,-7550.100608,612.876398
1276.631054,6809.894666,-7105.977043,1378.971896
1276.631383,6735.874072,-7105.977043,1455.581446
1276.631712,6661.853478,-5921.647536,1608.800546
1276.632041,7328.038826,-5033.400406,919.314598
1276.632370,7994.224174,-4589.276840,1762.019645
1276.632699,9178.553681,-3775.050304,1685.410096
1276.633028,9474.636058,-4663.297435,1302.362347
1276.633358,8956.491898,-5995.668130,1608.800546
1276.633687,8290.306550,-6291.750507,1378.971896
1276.634016,7105.977043,-7624.121203,919.314598
1276.634345,6143.709319,-7772.162391,1532.190996
1276.634674,5403.503377,-8068.244768,612.876398
1276.635003,5255.462188,-7328.038826,229.828649
1276.635332,4367.215058,-7105.977043,383.047749
1276.635661,5551.544565,-7105.977043,0.000000
1276.635990,6587.832884,-6809.894666,76.609550
1276.636319,6883.915261,-6883.915261,766.095498
1276.636649,7476.080014,-7402.059420,1608.800546
1276.636978,7105.977043,-6809.894666,1532.190996
1276.637307,7402.059420,-6291.750507,1532.190996
1276.637636,7402.059420,-5773.606348,1685.410096
1276.637965,8142.265362,-4589.276840,1455.581446
1276.638294,8882.471304,-3923.091493,1915.238745
1276.638623,8956.491898,-4737.318029,1149.143247
1276.638952,8512.368333,-4885.359217,1149.143247
1276.639281,7994.224174,-5773.606348,1072.533697
1276.639610,7772.162391,-7550.100608,1302.362347
1276.639940,7105.977043,-7624.121203,1532.190996
1276.640269,5921.647536,-8068.244768,1302.362347
1276.640598,5403.503377,-6883.915261,842.705048
1276.640927,5403.503377,-7105.977043,0.000000
1276.641256,5773.606348,-7624.121203,459.657299
1276.641585,6217.729913,-7402.059420,459.657299
1276.641914,6661.853478,-6883.915261,306.438199
1276.642243,6513.812290,-7179.997637,612.876398
1276.642572,6809.894666,-7254.018232,1378.971896
1276.642901,7105.977043,-7254.018232,1532.190996
1276.643231,7105.977043,-5699.585753,1532.190996
1276.643560,7105.977043,-5181.441594,1915.238745
1276.643889,7846.182985,-4293.194464,1455.581446
1276.644218,8882.471304,-3997.112087,1302.362347
1276.644547,9030.512492,-4145.153275,1532.190996
1276.644876,8438.347739,-4885.359217,1149.143247
1276.645205,8068.244768,-5625.565159,919.314598
1276.645534,7698.141797,-7328.038826,1378.971896
1276.645863,6217.729913,-8216.285956,1149.143247
1276.646192,5033.400406,-8216.285956,1072.533697
1276.646522,4219.173869,-8290.306550,0.000000
1276.646851,4071.132681,-8438.347739,-612.876398
1276.647180,4441.235652,-7624.121203,459.657299
1276.647509,5921.647536,-8290.306550,229.828649
1276.647838,7031.956449,-7550.100608,842.705048
1276.648167,7105.977043,-6883.915261,919.314598
1276.648496,7402.059420,-6661.853478,1225.752797
1276.648825,8068.244768,-5773.606348,1532.190996
1276.649154,8808.450710,-4959.379811,1455.581446
1276.649483,8438.347739,-4219.173869,1072.533697
1276.649813,8734.430116,-4071.132681,1225.752797
1276.650142,8734.430116,-4367.215058,766.095498
1276.650471,8290.306550,-5551.544565,1378.971896
1276.650800,7846.182985,-6587.832884,1149.143247
1276.651129,7105.977043,-8290.306550,2068.457845
1276.651458,6365.771101,-8438.347739,1838.629195
1276.651787,5477.523971,-7698.141797,1225.752797
1276.652116,4811.338623,-8068.244768,919.314598
1276.652445,4885.359217,-7698.141797,306.438199
1276.652774,4885.359217,-7476.080014,229.828649
1276.653104,5329.482782,-7179.997637,-76.609550
1276.653433,5699.585753,-6957.935855,383.047749
1276.653762,6661.853478,-6957.935855,842.705048
1276.654091,7254.018232,-7402.059420,1378.971896
1276.654420,7402.059420,-6291.750507,2145.067394
1276.654749,8068.244768,-5699.585753,1915.238745
1276.655078,8142.265362,-4515.256246,1455.581446
1276.655407,8512.368333,-4441.235652,919.314598
1276.655736,8882.471304,-4589.276840,842.705048
1276.656065,8956.491898,-4737.318029,1302.362347
1276.656395,8290.306550,-5329.482782,1455.581446
1276.656724,7476.080014,-6513.812290,1072.533697
1276.657053,6587.832884,-7698.141797,1608.800546
1276.657382,5773.606348,-7920.203579,1225.752797
1276.657711,5033.400406,-8068.244768,612.876398
1276.658040,4293.194464,-7179.997637,306.438199
1276.658369,4219.173869,-7476.080014,-383.047749
1276.658698,5107.421000,-7402.059420,0.000000
1276.659027,6217.729913,-7105.977043,536.266849
1276.659356,6957.935855,-6883.915261,306.438199
1276.659685,7624.121203,-7105.977043,1608.800546
1276.660015,7772.162391,-6587.832884,1991.848295
1276.660344,7698.141797,-5995.668130,1532.190996
1276.660673,7698.141797,-4293.194464,1915.238745
1276.661002,8660.409521,-4589.276840,1149.143247
1276.661331,9104.533087,-5181.441594,1455.581446
1276.661660,9252.574275,-4885.359217,1838.629195
1276.661989,8438.347739,-5329.482782,1302.362347
1276.662318,8068.244768,-6439.791695,1685.410096
1276.662647,6735.874072,-7772.162391,1838.629195
1276.662976,6069.688724,-8586.388927,1378.971896
1276.663306,5329.482782,-8068.244768,1072.533697
1276.663635,5181.441594,-7254.018232,536.266849
1276.663964,5107.421000,-7476.080014,76.609550
1276.664293,5255.462188,-7698.141797,153.219100
1276.664622,6069.688724,-7846.182985,383.047749
1276.664951,6809.894666,-7254.018232,842.705048
1276.665280,7031.956449,-6883.915261,919.314598
1276.665609,6809.894666,-6735.874072,1762.019645
1276.665938,7402.059420,-6513.812290,2451.505594
1276.666267,7994.224174,-4885.359217,2068.457845
1276.666596,8068.244768,-3627.009116,1532.190996
1276.666926,8512.368333,-3182.885551,612.876398
1276.667255,8734.430116,-3627.009116,919.314598
1276.667584,8586.388927,-4737.318029,1149.143247
1276.667913,8068.244768,-6069.688724,1455.581446
1276.668242,7476.080014,-7105.977043,1838.629195
1276.668571,6365.771101,-8068.244768,1608.800546
1276.668900,5625.565159,-8142.265362,1455.581446
1276.669229,4811.338623,-8216.285956,919.314598
1276.669558,5255.462188,-7624.121203,76.609550
1276.669887,4885.359217,-7179.997637,-229.828649
1276.670216,5551.544565,-7402.059420,-536.266849
1276.670546,6439.791695,-7920.203579,306.438199
1276.670875,7254.018232,-7105.977043,842.705048
1276.671204,7254.018232,-7179.997637,1225.752797
1276.671533,7328.038826,-5699.585753,1762.019645
1276.671862,7624.121203,-5255.462188,1685.410096
1276.672191,8364.327145,-4441.235652,1072.533697
1276.672520,8660.409521,-3701.029710,1149.143247
1276.672849,8660.409521,-4071.132681,1302.362347
1276.673178,8808.450710,-4811.338623,689.485948
1276.673507,8512.368333,-6439.791695,1455.581446
1276.673837,7846.182985,-7846.182985,1608.800546
1276.674166,7105.977043,-8216.285956,1915.238745
1276.674495,5773.606348,-7772.162391,1915.238745
1276.674824,5329.482782,-8142.265362,612.876398
1276.675153,4737.318029,-7920.203579,612.876398
1276.675482,4589.276840,-7476.080014,-306.438199
1276.675811,4219.173869,-7402.059420,-919.314598
1276.676140,4959.379811,-7920.203579,0.000000
1276.676469,5995.668130,-7550.100608,229.828649
1276.676798,7031.956449,-7328.038826,1302.362347
1276.677127,7846.182985,-7105.977043,2451.505594
1276.677457,8216.285956,-5847.626942,2528.115143
1276.677786,7994.224174,-4663.297435,2068.457845
1276.678115,8660.409521,-3552.988522,1608.800546
1276.678444,8808.450710,-3627.009116,536.266849
1276.678773,8956.491898,-4219.173869,1378.971896
1276.679102,9252.574275,-5329.482782,1225.752797
1276.679431,8660.409521,-6439.791695,1608.800546
1276.679760,7402.059420,-7031.956449,1608.800546
1276.680089,5847.626942,-8216.285956,1378.971896
1276.680418,4663.297435,-8586.388927,1762.019645
1276.680748,4293.194464,-8290.306550,383.047749
1276.681077,3701.029710,-7920.203579,-383.047749
1276.681406,4441.235652,-7624.121203,-229.828649
1276.681735,5551.544565,-7476.080014,306.438199
1276.682064,6513.812290,-7031.956449,306.438199
1276.682393,6883.915261,-7254.018232,1685.410096
1276.682722,7105.977043,-6587.832884,1685.410096
1276.683051,7846.182985,-5403.503377,1378.971896
1276.683380,8660.409521,-4441.235652,1455.581446
1276.683709,8808.450710,-4441.235652,1455.581446
1276.684038,9326.594869,-4071.132681,612.876398
1276.684368,9030.512492,-4811.338623,1378.971896
1276.684697,8290.306550,-4959.379811,612.876398
1276.685026,7920.203579,-8068.244768,995.924147
1276.685355,7254.018232,-8364.327145,1532.190996
1276.685684,6439.791695,-8956.491898,1302.362347
1276.686013,5921.647536,-8660.409521,1915.238745
1276.686342,5773.606348,-7624.121203,842.705048
1276.686671,5403.503377,-7179.997637,842.705048
1276.687000,4959.379811,-7105.977043,76.609550
1276.687329,4737.318029,-7402.059420,-459.657299
1276.687658,5699.585753,-7328.038826,0.000000
1276.687988,6291.750507,-7846.182985,995.924147
1276.688317,7254.018232,-7550.100608,1455.581446
1276.688646,7698.141797,-6439.791695,1915.238745
1276.688975,8068.244768,-5773.606348,2298.286494
1276.689304,8364.327145,-4737.318029,1532.190996
1276.689633,8882.471304,-3775.050304,1378.971896
1276.689962,8808.450710,-3404.947333,1149.143247
1276.690291,8882.471304,-4367.215058,995.924147
1276.690620,8290.306550,-5255.462188,1455.581446
1276.690949,7624.121203,-6439.791695,919.314598
1276.691279,7402.059420,-7698.141797,1302.362347
1276.691608,6439.791695,-7772.162391,1532.190996
1276.691937,5033.400406,-7698.141797,766.095498
1276.692266,4959.379811,-8216.285956,383.047749
1276.692595,5107.421000,-6883.915261,153.219100
1276.692924,5181.441594,-7254.018232,-459.657299
1276.693253,6365.771101,-7105.977043,0.000000
1276.693582,7328.038826,-6513.812290,919.314598
1276.693911,8216.285956,-6809.894666,1608.800546
1276.694240,7698.141797,-6217.729913,2451.505594
1276.694569,7624.121203,-5847.626942,1991.848295
1276.694899,7994.224174,-4885.359217,1532.190996
1276.695228,8142.265362,-4663.297435,1455.581446
1276.695557,8290.306550,-5329.482782,229.828649
1276.695886,7846.182985,-5033.400406,1072.533697
1276.696215,7550.100608,-5995.668130,1455.581446
1276.696544,7550.100608,-7402.059420,1455.581446
1276.696873,6735.874072,-8068.244768,1302.362347
1276.697202,6069.688724,-8734.430116,1838.629195
1276.697531,5625.565159,-8068.244768,1225.752797
1276.697860,5403.503377,-7476.080014,536.266849
1276.698190,5107.421000,-7402.059420,0.000000
1276.698519,5477.523971,-6883.915261,0.000000
1276.698848,5699.585753,-6957.935855,153.219100
1276.699177,6217.729913,-8068.244768,536.266849
1276.699506,6957.935855,-7550.100608,1149.143247
1276.699835,7402.059420,-6587.832884,1225.752797
1276.700164,7328.038826,-6291.750507,1685.410096
1276.700493,7772.162391,-5551.544565,2145.067394
1276.700822,8512.368333,-4663.297435,1838.629195
1276.701151,9400.615463,-3923.091493,1378.971896
1276.701480,8882.471304,-3552.988522,766.095498
1276.701810,8808.450710,-4441.235652,1225.752797
1276.702139,8068.244768,-5847.626942,1225.752797
1276.702468,7402.059420,-7179.997637,1608.800546
1276.702797,6217.729913,-8216.285956,1378.971896
1276.703126,4811.338623,-7772.162391,459.657299
1276.703455,4515.256246,-8364.327145,229.828649
1276.703784,4441.235652,-8438.347739,0.000000
1276.704113,4737.318029,-7994.224174,-229.828649
1276.704442,5255.462188,-7994.224174,383.047749
1276.704771,6957.935855,-7846.182985,766.095498
1276.705100,7254.018232,-7031.956449,1455.581446
1276.705430,8142.265362,-6069.688724,1762.019645
1276.705759,8586.388927,-5847.626942,1915.238745
1276.706088,8882.471304,-5181.441594,2374.896044
1276.706417,8364.327145,-3997.112087,1455.581446
1276.706746,8512.368333,-4441.235652,1072.533697
1276.707075,8512.368333,-4219.173869,1225.752797
1276.707404,8290.306550,-5033.400406,1302.362347
1276.707733,7698.141797,-6661.853478,1455.581446
1276.708062,6883.915261,-7254.018232,1455.581446
1276.708391,6809.894666,-8808.450710,1608.800546
1276.708721,6217.729913,-8808.450710,1685.410096
1276.709050,4959.379811,-8142.265362,1072.533697
1276.709379,4885.359217,-7994.224174,383.047749
1276.709708,4737.318029,-7772.162391,76.609550
1276.710037,5699.585753,-7846.182985,306.438199
1276.710366,6513.812290,-7476.080014,612.876398
1276.710695,7105.977043,-7105.977043,1302.362347
1276.711024,7179.997637,-7105.977043,1149.143247
1276.711353,7105.977043,-6587.832884,1302.362347
1276.711682,6661.853478,-6291.750507,1608.800546
1276.712011,7476.080014,-5477.523971,1302.362347
1276.712341,7402.059420,-4071.132681,919.314598
1276.712670,7846.182985,-4145.153275,1149.143247
1276.712999,8660.409521,-4515.256246,689.485948
1276.713328,8586.388927,-5033.400406,1225.752797
1276.713657,8216.285956,-6143.709319,1225.752797
1276.713986,7328.038826,-7031.956449,1072.533697
1276.714315,6809.894666,-7772.162391,1378.971896
1276.714644,5625.565159,-7920.203579,842.705048
1276.714973,4737.318029,-8660.409521,919.314598
1276.715302,4737.318029,-6957.935855,1455.581446
1276.715632,5107.421000,-7476.080014,-306.438199
1276.715961,5625.565159,-7105.977043,0.000000
1276.716290,6439.791695,-7031.956449,612.876398
1276.716619,7402.059420,-7031.956449,1149.143247
1276.716948,8142.265362,-6217.729913,1762.019645
1276.717277,7105.977043,-5625.565159,1455.581446
1276.717606,7624.121203,-4737.318029,1225.752797
1276.717935,8216.285956,-4589.276840,1378.971896
1276.718264,8142.265362,-4737.318029,1685.410096
1276.718593,8142.265362,-4811.338623,995.924147
1276.718922,8142.265362,-5477.523971,1225.752797
1276.719252,8290.306550,-6957.935855,995.924147
1276.719581,7920.203579,-7550.100608,1685.410096
1276.719910,7624.121203,-8142.265362,1838.629195
1276.720239,6809.894666,-7476.080014,1225.752797
1276.720568,5551.544565,-7328.038826,842.705048
1276.720897,4737.318029,-7476.080014,-153.219100
1276.721226,5107.421000,-7402.059420,-383.047749
1276.721555,5921.647536,-7105.977043,-229.828649
1276.721884,6069.688724,-7402.059420,0.000000
1276.722213,6735.874072,-7698.141797,689.485948
1276.722542,7105.977043,-7254.018232,1532.190996
1276.722872,7179.997637,-7105.977043,1532.190996
1276.723201,7402.059420,-5773.606348,1302.362347
1276.723530,7846.182985,-4885.359217,1302.362347
1276.723859,8142.265362,-4293.194464,1072.533697
1276.724188,8216.285956,-3627.009116,1302.362347
1276.724517,8290.306550,-4293.194464,1302.362347
1276.724846,8660.409521,-5477.523971,1378.971896
1276.725175,8290.306550,-6143.709319,1991.848295
1276.725504,7254.018232,-7920.203579,1685.410096
1276.725833,6439.791695,-8364.327145,842.705048
1276.726163,4811.338623,-8438.347739,536.266849
1276.726492,4145.153275,-8586.388927,153.219100
1276.726821,4071.132681,-7698.141797,0.000000
1276.727150,5107.421000,-7624.121203,0.000000
1276.727479,6439.791695,-6957.935855,306.438199
1276.727808,7402.059420,-6883.915261,1455.581446
1276.728137,7550.100608,-6069.688724,1072.533697
1276.728466,7476.080014,-5699.585753,1455.581446
1276.728795,8142.265362,-4737.318029,2145.067394
1276.729124,7994.224174,-3701.029710,1455.581446
1276.729453,8808.450710,-4441.235652,1838.629195
1276.729783,9178.553681,-4367.215058,1762.019645
1276.730112,9178.553681,-4515.256246,1378.971896
1276.730441,8438.347739,-5403.503377,1608.800546
1276.730770,7772.162391,-6809.894666,1378.971896
1276.731099,6661.853478,-8512.368333,1762.019645
1276.731428,5551.544565,-8660.409521,1455.581446
1276.731757,4959.379811,-8364.327145,919.314598
1276.732086,5181.441594,-8142.265362,689.485948
1276.732415,4811.338623,-8068.244768,612.876398
1276.732744,4959.379811,-7846.182985,0.000000
1276.733074,5403.503377,-7402.059420,0.000000
1276.733403,6365.771101,-6883.915261,766.095498
1276.733732,6957.935855,-6809.894666,536.266849
1276.734061,7624.121203,-6513.812290,1532.190996
1276.734390,7402.059420,-5699.585753,1685.410096
1276.734719,7994.224174,-5477.523971,1685.410096
1276.735048,8512.368333,-5181.441594,1762.019645
1276.735377,8438.347739,-4441.235652,1225.752797
1276.735706,8512.368333,-5181.441594,1378.971896
1276.736035,8438.347739,-5255.462188,1149.143247
1276.736364,8216.285956,-6291.750507,229.828649
1276.736694,6661.853478,-6957.935855,1455.581446
1276.737023,6143.709319,-7846.182985,1532.190996
1276.737352,5403.503377,-8364.327145,919.314598
1276.737681,4737.318029,-7846.182985,766.095498
1276.738010,4663.297435,-7698.141797,919.314598
1276.738339,4811.338623,-7328.038826,0.000000
1276.738668,5551.544565,-7105.977043,383.047749
1276.738997,6883.915261,-6587.832884,919.314598
1276.739326,7920.203579,-6069.688724,1225.752797
1276.739655,7920.203579,-5625.565159,2068.457845
1276.739984,7698.141797,-5329.482782,1532.190996
1276.740314,7624.121203,-4811.338623,1149.143247
1276.740643,7179.997637,-5033.400406,919.314598
1276.740972,8216.285956,-5255.462188,383.047749
1276.741301,8142.265362,-6365.771101,1378.971896
1276.741630,8142.265362,-6217.729913,1149.143247
1276.741959,7624.121203,-7105.977043,766.095498
1276.742288,7105.977043,-7920.203579,1149.143247
1276.742617,6217.729913,-7476.080014,1072.533697
1276.742946,6291.750507,-7846.182985,1149.143247
1276.743275,6365.771101,-7031.956449,1302.362347
1276.743605,5847.626942,-6883.915261,306.438199
1276.743934,5329.482782,-6735.874072,766.095498
1276.744263,5773.606348,-7105.977043,842.705048
1276.744592,6735.874072,-7476.080014,536.266849
1276.744921,6957.935855,-6809.894666,612.876398
1276.745250,6143.709319,-7105.977043,842.705048
1276.745579,6661.853478,-7105.977043,842.705048
1276.745908,7328.038826,-6439.791695,1149.143247
1276.746237,7402.059420,-5403.503377,1378.971896
1276.746566,7994.224174,-4885.359217,1302.362347
1276.746895,8660.409521,-4885.359217,2528.115143
1276.747225,8808.450710,-5107.421000,1149.143247
1276.747554,8290.306550,-4885.359217,1225.752797
1276.747883,7772.162391,-5403.503377,1455.581446
1276.748212,7402.059420,-6661.853478,919.314598
1276.748541,6809.894666,-6809.894666,1608.800546
1276.748870,5773.606348,-7402.059420,1072.533697
1276.749199,5255.462188,-7846.182985,76.609550
1276.749528,4811.338623,-8364.327145,0.000000
1276.749857,4811.338623,-7994.224174,0.000000
1276.750186,5699.585753,-8142.265362,76.609550
1276.750516,6809.894666,-7179.997637,1149.143247
1276.750845,7402.059420,-6661.853478,229.828649
1276.751174,7624.121203,-5995.668130,919.314598
1276.751503,8216.285956,-5699.585753,1991.848295
1276.751832,7772.162391,-4885.359217,919.314598
1276.752161,7698.141797,-4219.173869,1532.190996
1276.752490,8216.285956,-4589.276840,1302.362347
1276.752819,8956.491898,-4885.359217,995.924147
1276.753148,8808.450710,-5329.482782,2145.067394
1276.753477,8438.347739,-5773.606348,1685.410096
1276.753806,7920.203579,-6735.874072,1225.752797
1276.754136,7550.100608,-7031.956449,1302.362347
1276.754465,6809.894666,-7920.203579,1608.800546
1276.754794,5995.668130,-7105.977043,842.705048
1276.755123,5551.544565,-7772.162391,766.095498
1276.755452,5255.462188,-8438.347739,76.609550
1276.755781,5107.421000,-8216.285956,383.047749
1276.756110,5995.668130,-7920.203579,153.219100
1276.756440,6365.771101,-7624.121203,612.876398
1276.756769,6587.832884,-6809.894666,1072.533697
1276.757098,7105.977043,-5477.523971,1225.752797
1276.757427,7550.100608,-4811.338623,1072.533697
1276.757756,8364.327145,-4293.194464,2068.457845
1276.758085,8734.430116,-3775.050304,1455.581446
1276.758414,8808.450710,-4441.235652,1455.581446
1276.758744,8956.491898,-4737.318029,1915.238745
1276.759073,8734.430116,-5995.668130,1915.238745
1276.759402,8364.327145,-7179.997637,1838.629195
1276.759731,7105.977043,-7698.141797,1685.410096
1276.760060,5921.647536,-8586.388927,1532.190996
1276.760389,4885.359217,-8216.285956,612.876398
1276.760718,4071.132681,-8512.368333,919.314598
1276.761048,3701.029710,-8808.450710,-153.219100
1276.761377,4441.235652,-8142.265362,0.000000
1276.761706,5033.400406,-7624.121203,76.609550
1276.762035,6735.874072,-6735.874072,612.876398
1276.762364,7031.956449,-5699.585753,1149.143247
1276.762693,7476.080014,-5995.668130,1378.971896
1276.763023,7624.121203,-5181.441594,1455.581446
1276.763352,7846.182985,-4663.297435,1302.362347
1276.763681,8142.265362,-4589.276840,1455.581446
1276.764010,8808.450710,-5699.585753,1838.629195
1276.764339,8734.430116,-5699.585753,1302.362347
1276.764668,8734.430116,-6365.771101,1378.971896
1276.764997,8364.327145,-6587.832884,1532.190996
1276.765327,8216.285956,-6809.894666,1149.143247
1276.765656,6957.935855,-7328.038826,1378.971896
1276.765985,5921.647536,-7550.100608,1455.581446
1276.766314,5477.523971,-7476.080014,919.314598
1276.766643,5181.441594,-7402.059420,383.047749
1276.766972,5107.421000,-7179.997637,76.609550
1276.767302,4959.379811,-7328.038826,0.000000
1276.767631,5551.544565,-7179.997637,536.266849
1276.767960,6957.935855,-6661.853478,842.705048
1276.768289,6365.771101,-6661.853478,1608.800546
1276.768618,7105.977043,-5995.668130,1455.581446
1276.768947,7624.121203,-5625.565159,1455.581446
1276.769276,8216.285956,-5033.400406,1532.190996
1276.769606,8512.368333,-4589.276840,1608.800546
1276.769935,8808.450710,-5181.441594,2145.067394
1276.770264,8956.491898,-5181.441594,1532.190996
1276.770593,8512.368333,-5773.606348,1225.752797
1276.770922,7550.100608,-6661.853478,1072.533697
1276.771251,7105.977043,-7402.059420,1455.581446
1276.771581,5403.503377,-7846.182985,1072.533697
1276.771910,4737.318029,-8142.265362,536.266849
1276.772239,4293.194464,-7254.018232,76.609550
1276.772568,4589.276840,-7698.141797,0.000000
1276.772897,5551.544565,-7624.121203,0.000000
1276.773226,6365.771101,-7328.038826,842.705048
1276.773555,7846.182985,-7179.997637,766.095498
1276.773885,7846.182985,-6587.832884,1608.800546
1276.774214,7846.182985,-6217.729913,1608.800546
1276.774543,8216.285956,-5181.441594,1149.143247
1276.774872,8290.306550,-4959.379811,1378.971896
1276.775201,8586.388927,-5181.441594,1762.019645
1276.775530,8660.409521,-4885.359217,1685.410096
1276.775859,7550.100608,-6143.709319,1378.971896
1276.776189,7105.977043,-5477.523971,689.485948
1276.776518,6439.791695,-7031.956449,689.485948
1276.776847,6143.709319,-7846.182985,1455.581446
1276.777176,5921.647536,-7550.100608,1378.971896
1276.777505,6439.791695,-7920.203579,1149.143247
1276.777834,5403.503377,-7105.977043,689.485948
1276.778164,5033.400406,-7920.203579,153.219100
1276.778493,5403.503377,-8438.347739,229.828649
1276.778822,6217.729913,-6809.894666,459.657299
1276.779151,7402.059420,-7476.080014,919.314598
1276.779480,7994.224174,-5625.565159,1378.971896
1276.779809,7994.224174,-5403.503377,1225.752797
1276.780138,7328.038826,-5477.523971,1532.190996
1276.780468,7328.038826,-3997.112087,2298.286494
1276.780797,7920.203579,-4589.276840,1378.971896
1276.781126,8734.430116,-3552.988522,1685.410096
1276.781455,8142.265362,-4737.318029,1532.190996
1276.781784,8734.430116,-5107.421000,1455.581446
1276.782113,8290.306550,-5847.626942,1532.190996
1276.782443,7698.141797,-7402.059420,1762.019645
1276.782772,6735.874072,-7698.141797,1225.752797
1276.783101,5329.482782,-8364.327145,919.314598
1276.783430,4515.256246,-9104.533087,995.924147
1276.783759,4663.297435,-8290.306550,-153.219100
1276.784088,4737.318029,-8660.409521,0.000000
1276.784417,5255.462188,-8512.368333,0.000000
1276.784747,6513.812290,-7698.141797,612.876398
1276.785076,7105.977043,-5773.606348,536.266849
1276.785405,6957.935855,-6439.791695,766.095498
1276.785734,7105.977043,-4885.359217,1225.752797
1276.786063,7550.100608,-4885.359217,995.924147
1276.786392,8216.285956,-4885.359217,1378.971896
1276.786722,8808.450710,-4441.235652,1608.800546
1276.787051,8734.430116,-5477.523971,1762.019645
1276.787380,8364.327145,-5921.647536,1072.533697
1276.787709,8512.368333,-6883.915261,1378.971896
1276.788038,8142.265362,-7179.997637,1149.143247
1276.788367,7402.059420,-7402.059420,1455.581446
1276.788696,6217.729913,-7846.182985,1455.581446
1276.789026,5403.503377,-7328.038826,995.924147
1276.789355,5181.441594,-7105.977043,306.438199
1276.789684,4885.359217,-7105.977043,459.657299
1276.790013,4959.379811,-7328.038826,76.609550
1276.790342,5699.585753,-7402.059420,612.876398
1276.790671,6513.812290,-7105.977043,689.485948
1276.791001,7105.977043,-7105.977043,1378.971896
1276.791330,7031.956449,-6217.729913,1455.581446
1276.791659,7105.977043,-5847.626942,1225.752797
1276.791988,7920.203579,-5033.400406,1455.581446
1276.792317,8364.327145,-4293.194464,1991.848295
1276.792646,9252.574275,-4811.338623,1302.362347
1276.792975,9474.636058,-4737.318029,1455.581446
1276.793305,8808.450710,-5773.606348,1608.800546
1276.793634,8142.265362,-6587.832884,1072.533697
1276.793963,7105.977043,-6513.812290,1838.629195
1276.794292,5921.647536,-7624.121203,1225.752797
1276.794621,4885.359217,-8364.327145,536.266849
1276.794950,4367.215058,-8512.368333,383.047749
1276.795279,4515.256246,-8142.265362,0.000000
1276.795609,4959.379811,-7994.224174,153.219100
1276.795938,5329.482782,-7476.080014,229.828649
1276.796267,6513.812290,-7105.977043,689.485948
1276.796596,7328.038826,-6735.874072,1378.971896
1276.796925,7920.203579,-6513.812290,1685.410096
1276.797254,7105.977043,-5403.503377,1608.800546
1276.797584,7476.080014,-5033.400406,1455.581446
1276.797913,7772.162391,-5255.462188,1532.190996
1276.798242,8068.244768,-5329.482782,1378.971896
1276.798571,8216.285956,-5033.400406,1072.533697
1276.798900,8142.265362,-5847.626942,919.314598
1276.799229,8068.244768,-6661.853478,1225.752797
1276.799558,7624.121203,-6809.894666,1608.800546
1276.799888,6513.812290,-7624.121203,1762.019645
1276.800217,6513.812290,-7698.141797,1455.581446
1276.800546,5551.544565,-7476.080014,689.485948
1276.800875,4737.318029,-7994.224174,-153.219100
1276.801204,4515.256246,-7476.080014,0.000000
1276.801533,5773.606348,-8142.265362,-153.219100
1276.801863,6365.771101,-8142.265362,153.219100
1276.802192,6735.874072,-7476.080014,995.924147
1276.802521,7105.977043,-7031.956449,995.924147
1276.802850,7031.956449,-5921.647536,1378.971896
1276.803179,6809.894666,-4737.318029,1455.581446
1276.803508,7550.100608,-4219.173869,1455.581446
1276.803837,8882.471304,-3627.009116,1608.800546
1276.804167,9548.656652,-3775.050304,2145.067394
1276.804496,9622.677246,-4219.173869,1762.019645
1276.804825,8882.471304,-5403.503377,1608.800546
1276.805154,7920.203579,-6143.709319,1072.533697
1276.805483,7105.977043,-7476.080014,1225.752797
1276.805812,6143.709319,-8142.265362,1378.971896
1276.806142,5551.544565,-7920.203579,383.047749
1276.806471,4145.153275,-8660.409521,-306.438199
1276.806800,3478.967927,-8142.265362,-612.876398
1276.807129,4145.153275,-8586.388927,-383.047749
1276.807458,5551.544565,-8364.327145,0.000000
1276.807787,6587.832884,-7105.977043,689.485948
1276.808116,7624.121203,-7179.997637,1302.362347
1276.808446,8290.306550,-6143.709319,1991.848295
1276.808775,8290.306550,-4589.276840,1302.362347
1276.809104,7920.203579,-4441.235652,1378.971896
1276.809433,8142.265362,-4367.215058,1378.971896
1276.809762,8882.471304,-4293.194464,1149.143247
1276.810091,8882.471304,-5255.462188,1608.800546
1276.810420,8956.491898,-5403.503377,1685.410096
1276.810750,8512.368333,-6291.750507,1838.629195
1276.811079,7476.080014,-7624.121203,1225.752797
1276.811408,5995.668130,-7698.141797,1302.362347
1276.811737,5255.462188,-7476.080014,842.705048
1276.812066,5181.441594,-6809.894666,306.438199
1276.812395,4811.338623,-7698.141797,612.876398
1276.812725,4811.338623,-8068.244768,0.000000
1276.813054,5033.400406,-7698.141797,0.000000
1276.813383,6217.729913,-8068.244768,383.047749
1276.813712,7254.018232,-7624.121203,1378.971896
1276.814041,7476.080014,-7105.977043,1685.410096
1276.814370,7846.182985,-6217.729913,1455.581446
1276.814699,8142.265362,-4737.318029,1455.581446
1276.815029,8808.450710,-4515.256246,1608.800546
1276.815358,8660.409521,-3701.029710,1378.971896
1276.815687,9030.512492,-4219.173869,1532.190996
1276.816016,9326.594869,-4737.318029,1455.581446
1276.816345,8512.368333,-5921.647536,1608.800546
1276.816674,7772.162391,-6291.750507,1608.800546
1276.817004,6217.729913,-7772.162391,1149.143247
1276.817333,5477.523971,-8068.244768,995.924147
1276.817662,4515.256246,-7920.203579,153.219100
1276.817991,4071.132681,-8068.244768,0.000000
1276.818320,4293.194464,-8068.244768,153.219100
1276.818649,5181.441594,-8142.265362,229.828649
1276.818978,6069.688724,-7994.224174,383.047749
1276.819308,6735.874072,-7254.018232,1455.581446
1276.819637,8142.265362,-6217.729913,1762.019645
1276.819966,7772.162391,-6143.709319,1455.581446
1276.820295,7476.080014,-5551.544565,1685.410096
1276.820624,7698.141797,-4293.194464,1378.971896
1276.820953,8586.388927,-4515.256246,1225.752797
1276.821283,9252.574275,-3923.091493,1532.190996
1276.821612,8808.450710,-4737.318029,1455.581446
1276.821941,8512.368333,-5921.647536,1225.752797
1276.822270,7476.080014,-6661.853478,1302.362347
1276.822599,7031.956449,-7624.121203,612.876398
1276.822928,6291.750507,-8290.306550,1378.971896
1276.823257,5773.606348,-7920.203579,689.485948
1276.823587,4959.379811,-7772.162391,383.047749
1276.823916,4441.235652,-8142.265362,0.000000
1276.824245,5107.421000,-8660.409521,612.876398
1276.824574,6069.688724,-8290.306550,383.047749
1276.824903,6809.894666,-7772.162391,919.314598
1276.825232,7105.977043,-7031.956449,1149.143247
1276.825561,7179.997637,-6217.729913,1838.629195
1276.825891,7624.121203,-5921.647536,1685.410096
1276.826220,7698.141797,-4219.173869,2145.067394
1276.826549,8512.368333,-3552.988522,1762.019645
1276.826878,8808.450710,-3478.967927,1838.629195
1276.827207,8734.430116,-3849.070898,1225.752797
1276.827536,7994.224174,-5699.585753,1378.971896
1276.827866,7624.121203,-6217.729913,1378.971896
1276.828195,7179.997637,-7846.182985,1149.143247
1276.828524,6291.750507,-7994.224174,1378.971896
1276.828853,4885.359217,-8438.347739,995.924147
1276.829182,4293.194464,-8808.450710,229.828649
1276.829511,4145.153275,-8142.265362,0.000000
1276.829840,4219.173869,-7772.162391,-766.095498
1276.830170,5403.503377,-7476.080014,-229.828649
1276.830499,6661.853478,-7328.038826,995.924147
1276.830828,7772.162391,-6513.812290,1532.190996
1276.831157,8512.368333,-6143.709319,1991.848295
1276.831486,8734.430116,-4737.318029,2221.676944
1276.831815,8882.471304,-3997.112087,2374.896044
1276.832145,8808.450710,-3256.906145,1532.190996
1276.832474,8512.368333,-3997.112087,1378.971896
1276.832803,8734.430116,-4737.318029,1149.143247
1276.833132,7328.038826,-5699.585753,995.924147
1276.833461,8438.347739,-6883.915261,1149.143247
1276.833790,7550.100608,-8216.285956,1532.190996
1276.834119,6365.771101,-8216.285956,1302.362347
1276.834449,5255.462188,-8364.327145,842.705048
1276.834778,4367.215058,-8216.285956,536.266849
1276.835107,4441.235652,-8882.471304,0.000000
1276.835436,4811.338623,-8216.285956,-383.047749
1276.835765,5181.441594,-7772.162391,-153.219100
1276.836094,5625.565159,-7920.203579,0.000000
1276.836424,7105.977043,-7254.018232,919.314598
1276.836753,7550.100608,-7105.977043,1532.190996
1276.837082,8290.306550,-6143.709319,1225.752797
1276.837411,8512.368333,-4737.318029,2374.896044
1276.837740,8290.306550,-3256.906145,1302.362347
1276.838069,8364.327145,-3478.967927,1072.533697
1276.838398,8660.409521,-3701.029710,919.314598
1276.838728,8882.471304,-4293.194464,1378.971896
1276.839057,8734.430116,-5995.668130,1455.581446
1276.839386,7476.080014,-6217.729913,1378.971896
1276.839715,6513.812290,-7550.100608,1225.752797
1276.840044,5477.523971,-8290.306550,842.705048
1276.840373,4515.256246,-7624.121203,689.485948
1276.840703,4071.132681,-7846.182985,0.000000
1276.841032,4441.235652,-7846.182985,459.657299
1276.841361,5403.503377,-7105.977043,306.438199
1276.841690,6143.709319,-7402.059420,306.438199
1276.842019,7105.977043,-6513.812290,766.095498
1276.842348,7846.182985,-6957.935855,1915.238745
1276.842677,8364.327145,-6735.874072,1838.629195
1276.843007,8142.265362,-5625.565159,1838.629195
1276.843336,8216.285956,-4885.359217,1225.752797
1276.843665,8216.285956,-4515.256246,689.485948
1276.843994,8216.285956,-4885.359217,995.924147
1276.844323,8512.368333,-5921.647536,689.485948
1276.844652,8512.368333,-5773.606348,1455.581446
1276.844981,7846.182985,-6217.729913,1225.752797
1276.845311,7105.977043,-6957.935855,1915.238745
1276.845640,6809.894666,-7698.141797,1149.143247
1276.845969,6069.688724,-7994.224174,1685.410096
1276.846298,5477.523971,-7698.141797,689.485948
1276.846627,5033.400406,-7031.956449,459.657299
1276.846956,5033.400406,-7179.997637,0.000000
1276.847286,5329.482782,-7994.224174,229.828649
1276.847615,5995.668130,-7920.203579,383.047749
1276.847944,6809.894666,-7920.203579,919.314598
1276.848273,7254.018232,-7772.162391,1762.019645
1276.848602,7402.059420,-6291.750507,1608.800546
1276.848931,7179.997637,-5255.462188,1378.971896
1276.849260,7105.977043,-4811.338623,842.705048
1276.849590,7624.121203,-4071.132681,919.314598
1276.849919,8808.450710,-4219.173869,1225.752797
1276.850248,9252.574275,-4441.235652,1762.019645
1276.850577,9474.636058,-5033.400406,1915.238745
1276.850906,8660.409521,-6217.729913,1455.581446
1276.851235,7179.997637,-7179.997637,1455.581446
1276.851565,6143.709319,-8512.368333,1378.971896
1276.851894,4959.379811,-8956.491898,536.266849
1276.852223,4441.235652,-7772.162391,-76.609550
1276.852552,4071.132681,-8438.347739,-306.438199
1276.852881,5033.400406,-8660.409521,76.609550
1276.853210,5921.647536,-7920.203579,229.828649
1276.853539,6661.853478,-7920.203579,919.314598
1276.853869,7105.977043,-6883.915261,1072.533697
1276.854198,7031.956449,-6217.729913,995.924147
1276.854527,7772.162391,-5699.585753,1455.581446
1276.854856,7994.224174,-4737.318029,1608.800546
1276.855185,8438.347739,-3923.091493,1378.971896
1276.855514,8956.491898,-3923.091493,1532.190996
1276.855844,9104.533087,-4811.338623,1685.410096
1276.856173,8882.471304,-5255.462188,2068.457845
1276.856502,8142.265362,-6661.853478,1455.581446
1276.856831,6957.935855,-7994.224174,1455.581446
1276.857160,5995.668130,-8438.347739,1149.143247
1276.857489,5625.565159,-8586.388927,1149.143247
1276.857818,4441.235652,-7920.203579,383.047749
1276.858147,4219.173869,-8068.244768,-383.047749
1276.858476,4811.338623,-8142.265362,-459.657299
1276.858806,5181.441594,-8142.265362,-459.657299
1276.859135,6439.791695,-8068.244768,612.876398
1276.859464,6957.935855,-6883.915261,919.314598
1276.859793,7179.997637,-5995.668130,842.705048
1276.860122,7550.100608,-5329.482782,1762.019645
1276.860451,8068.244768,-4663.297435,2068.457845
1276.860780,9474.636058,-3923.091493,1455.581446
1276.861109,9400.615463,-3034.844362,1378.971896
1276.861438,9400.615463,-3849.070898,1762.019645
1276.861767,9770.718434,-5181.441594,1915.238745
1276.862096,9252.574275,-6365.771101,2068.457845
1276.862426,7105.977043,-6809.894666,1225.752797
1276.862755,5921.647536,-7994.224174,766.095498
1276.863084,5551.544565,-8216.285956,1149.143247
1276.863413,4811.338623,-8364.327145,766.095498
1276.863742,4219.173869,-8438.347739,153.219100
1276.864071,3923.091493,-7698.141797,-459.657299
1276.864400,4441.235652,-8216.285956,-612.876398
1276.864729,5625.565159,-7624.121203,383.047749
1276.865058,7402.059420,-6883.915261,1149.143247
1276.865387,8512.368333,-6587.832884,1762.019645
1276.865716,8734.430116,-6069.688724,2298.286494
1276.866046,8364.327145,-4959.379811,1378.971896
1276.866375,8734.430116,-4219.173869,1302.362347
1276.866704,9400.615463,-4219.173869,1149.143247
1276.867033,8586.388927,-4515.256246,919.314598
1276.867362,8216.285956,-5551.544565,1072.533697
1276.867691,7994.224174,-6069.688724,1072.533697
1276.868020,7254.018232,-6735.874072,842.705048
1276.868349,6439.791695,-7624.121203,1225.752797
1276.868678,5181.441594,-8142.265362,919.314598
1276.869007,4811.338623,-8364.327145,612.876398
1276.869336,4589.276840,-8216.285956,612.876398
1276.869666,4959.379811,-7550.100608,766.095498
1276.869995,5033.400406,-7254.018232,76.609550
1276.870324,5699.585753,-7179.997637,612.876398
1276.870653,6735.874072,-6883.915261,919.314598
1276.870982,7994.224174,-7105.977043,1685.410096
1276.871311,8364.327145,-6217.729913,2451.505594
1276.871640,8438.347739,-5181.441594,1762.019645
1276.871969,8586.388927,-4219.173869,1608.800546
1276.872298,8364.327145,-3997.112087,1455.581446
1276.872627,8734.430116,-4737.318029,1149.143247
1276.872956,8512.368333,-4589.276840,1225.752797
1276.873286,7994.224174,-5625.565159,919.314598
1276.873615,7402.059420,-7105.977043,766.095498
1276.873944,7105.977043,-7624.121203,1072.533697
1276.874273,6069.688724,-8216.285956,612.876398
1276.874602,5773.606348,-7994.224174,689.485948
1276.874931,4959.379811,-7698.141797,459.657299
1276.875260,5329.482782,-7328.038826,76.609550
1276.875589,5255.462188,-7624.121203,459.657299
1276.875918,5181.441594,-7254.018232,229.828649
1276.876247,6365.771101,-7476.080014,383.047749
1276.876576,7476.080014,-7105.977043,1225.752797
1276.876906,7920.203579,-6439.791695,1838.629195
1276.877235,7772.162391,-5847.626942,1378.971896
1276.877564,7550.100608,-4737.318029,1608.800546
1276.877893,7698.141797,-4959.379811,842.705048
1276.878222,7402.059420,-4885.359217,766.095498
1276.878551,8216.285956,-4885.359217,842.705048
1276.878880,8364.327145,-6513.812290,1302.362347
1276.879209,8068.244768,-7031.956449,1455.581446
1276.879538,7550.100608,-7179.997637,2068.457845
1276.879867,7402.059420,-7328.038826,1149.143247
1276.880196,6217.729913,-7624.121203,1838.629195
1276.880526,5625.565159,-7624.121203,919.314598
1276.880855,5329.482782,-7550.100608,153.219100
1276.881184,5403.503377,-7031.956449,76.609550
1276.881513,5477.523971,-7105.977043,0.000000
1276.881842,6291.750507,-7624.121203,229.828649
1276.882171,6513.812290,-6809.894666,536.266849
1276.882500,7105.977043,-7179.997637,842.705048
1276.882829,6957.935855,-6217.729913,1762.019645
1276.883158,7254.018232,-5773.606348,1149.143247
1276.883487,7476.080014,-5033.400406,1072.533697
1276.883816,7846.182985,-4663.297435,1072.533697
1276.884146,8734.430116,-4515.256246,1532.190996
1276.884475,9326.594869,-4663.297435,2068.457845
1276.884804,9178.553681,-5181.441594,2068.457845
1276.885133,8216.285956,-6069.688724,1762.019645
1276.885462,6957.935855,-7550.100608,1532.190996
1276.885791,6069.688724,-7698.141797,1378.971896
1276.886120,5403.503377,-8290.306550,1072.533697
1276.886449,4959.379811,-7994.224174,0.000000
1276.886778,4663.297435,-7698.141797,0.000000
1276.887107,4959.379811,-7846.182985,-306.438199
1276.887436,5921.647536,-7772.162391,229.828649
1276.887766,6809.894666,-6957.935855,229.828649
1276.888095,7402.059420,-7402.059420,919.314598
1276.888424,7550.100608,-6291.750507,1302.362347
1276.888753,7920.203579,-5625.565159,1149.143247
1276.889082,8068.244768,-4885.359217,1149.143247
1276.889411,8364.327145,-4071.132681,1149.143247
1276.889740,8586.388927,-4515.256246,1378.971896
1276.890069,8882.471304,-4885.359217,1685.410096
1276.890398,8290.306550,-5403.503377,1608.800546
1276.890727,8290.306550,-6217.729913,1685.410096
1276.891056,7328.038826,-7624.121203,1685.410096
1276.891386,6365.771101,-7994.224174,1302.362347
1276.891715,5477.523971,-8364.327145,995.924147
1276.892044,4737.318029,-7846.182985,842.705048
1276.892373,4441.235652,-7402.059420,612.876398
1276.892702,4589.276840,-7920.203579,-306.438199
1276.893031,5033.400406,-7994.224174,-306.438199
1276.893360,5773.606348,-7624.121203,0.000000
1276.893689,6513.812290,-7476.080014,1072.533697
1276.894018,7105.977043,-6809.894666,1225.752797
1276.894347,7994.224174,-5625.565159,1532.190996
1276.894676,8290.306550,-5477.523971,2068.457845
1276.895006,8068.244768,-4071.132681,1532.190996
1276.895335,8142.265362,-3849.070898,1915.238745
1276.895664,8956.491898,-4515.256246,1915.238745
1276.895993,9178.553681,-4663.297435,1532.190996
1276.896322,9030.512492,-5995.668130,2068.457845
1276.896651,8290.306550,-6587.832884,2068.457845
1276.896980,7476.080014,-6809.894666,1455.581446
1276.897309,6291.750507,-7328.038826,919.314598
1276.897638,5329.482782,-7179.997637,766.095498
1276.897967,5033.400406,-7772.162391,459.657299
1276.898296,5107.421000,-7772.162391,459.657299
1276.898626,4959.379811,-7179.997637,0.000000
1276.898955,5773.606348,-7550.100608,0.000000
1276.899284,6513.812290,-7105.977043,842.705048
1276.899613,7328.038826,-6883.915261,1378.971896
1276.899942,7698.141797,-6439.791695,1455.581446
1276.900271,7402.059420,-5033.400406,1302.362347
1276.900600,7476.080014,-4811.338623,842.705048
1276.900929,7624.121203,-5181.441594,919.314598
1276.901258,8512.368333,-5181.441594,1378.971896
1276.901587,8882.471304,-6513.812290,1532.190996
1276.901916,8438.347739,-6217.729913,1302.362347
1276.902246,7846.182985,-7328.038826,1225.752797
1276.902575,7328.038826,-8142.265362,995.924147
1276.902904,6439.791695,-8882.471304,1378.971896
1276.903233,5329.482782,-7994.224174,919.314598
1276.903562,4811.338623,-7550.100608,536.266849
1276.903891,4589.276840,-7254.018232,76.609550
1276.904220,4663.297435,-7550.100608,229.828649
1276.904549,5625.565159,-7772.162391,0.000000
1276.904878,6439.791695,-7105.977043,229.828649
1276.905207,6809.894666,-7179.997637,1225.752797
1276.905536,7328.038826,-6291.750507,1608.800546
1276.905866,7476.080014,-4811.338623,2451.505594
1276.906195,7994.224174,-4811.338623,1532.190996
1276.906524,8660.409521,-4145.153275,1838.629195
1276.906853,9030.512492,-4515.256246,1991.848295
1276.907182,9474.636058,-4737.318029,1149.143247
1276.907511,8956.491898,-4737.318029,1608.800546
1276.907840,8142.265362,-6291.750507,1685.410096
1276.908169,7624.121203,-6883.915261,1455.581446
1276.908498,6439.791695,-7179.997637,1225.752797
1276.908827,5847.626942,-7105.977043,536.266849
1276.909156,5181.441594,-7031.956449,689.485948
1276.909486,5107.421000,-7254.018232,459.657299
1276.909815,5033.400406,-7550.100608,0.000000
1276.910144,5107.421000,-7772.162391,153.219100
1276.910473,6365.771101,-7550.100608,383.047749
1276.910802,6883.915261,-7179.997637,842.705048
1276.911131,7698.141797,-7105.977043,1915.238745
1276.911460,7698.141797,-6217.729913,1685.410096
1276.911789,7402.059420,-5033.400406,612.876398
1276.912118,7328.038826,-5033.400406,1455.581446
1276.912447,7402.059420,-5033.400406,842.705048
1276.912776,7772.162391,-5699.585753,1149.143247
1276.913105,7920.203579,-5625.565159,1532.190996
1276.913435,8142.265362,-7179.997637,2145.067394
1276.913764,7772.162391,-7254.018232,1915.238745
1276.914093,7105.977043,-7550.100608,1838.629195
1276.914422,6439.791695,-8290.306550,1225.752797
1276.914751,5699.585753,-7328.038826,919.314598
1276.915080,5477.523971,-7994.224174,612.876398
1276.915409,4811.338623,-7846.182985,229.828649
1276.915738,5181.441594,-7476.080014,153.219100
1276.916067,5921.647536,-7846.182985,0.000000
1276.916396,6883.915261,-7254.018232,1072.533697
1276.916725,6587.832884,-7624.121203,1072.533697
1276.917055,7031.956449,-6587.832884,995.924147
1276.917384,7105.977043,-5551.544565,1225.752797
1276.917713,7550.100608,-4737.318029,1149.143247
1276.918042,8216.285956,-4071.132681,1915.238745
1276.918371,9252.574275,-4219.173869,1991.848295
1276.918700,9474.636058,-3849.070898,1991.848295
1276.919029,9178.553681,-5181.441594,1762.019645
1276.919358,8512.368333,-5403.503377,1532.190996
1276.919687,7328.038826,-7179.997637,1685.410096
1276.920016,6587.832884,-7550.100608,1378.971896
1276.920345,5625.565159,-7402.059420,1149.143247
1276.920675,4663.297435,-7994.224174,76.609550
1276.921004,4441.235652,-7994.224174,0.000000
1276.921333,4959.379811,-7920.203579,-383.047749
1276.921662,5551.544565,-7772.162391,-229.828649
1276.921991,5551.544565,-7402.059420,0.000000
1276.922320,6439.791695,-7402.059420,766.095498
1276.922649,7402.059420,-6069.688724,1149.143247
1276.922978,7920.203579,-5699.585753,2068.457845
1276.923307,8216.285956,-4959.379811,1302.362347
1276.923636,8290.306550,-4145.153275,995.924147
1276.923965,8808.450710,-4145.153275,1455.581446
1276.924295,9252.574275,-4811.338623,995.924147
1276.924624,9474.636058,-5329.482782,1838.629195
1276.924953,9474.636058,-5847.626942,1838.629195
1276.925282,8512.368333,-6365.771101,1455.581446
1276.925611,6957.935855,-7476.080014,1455.581446
1276.925940,5921.647536,-7772.162391,612.876398
1276.926269,5181.441594,-8142.265362,383.047749
1276.926598,4663.297435,-8068.244768,0.000000
1276.926927,4367.215058,-8068.244768,0.000000
1276.927256,4737.318029,-7994.224174,-536.266849
1276.927585,5329.482782,-7402.059420,76.609550
1276.927915,5551.544565,-7846.182985,612.876398
1276.928244,7105.977043,-7105.977043,1455.581446
1276.928573,8068.244768,-5329.482782,1685.410096
1276.928902,7846.182985,-5181.441594,1378.971896
1276.929231,7698.141797,-4663.297435,1762.019645
1276.929560,8512.368333,-4737.318029,1532.190996
1276.929889,8734.430116,-4663.297435,1149.143247
1276.930218,8364.327145,-4515.256246,2068.457845
1276.930547,8808.450710,-5699.585753,1532.190996
1276.930876,8364.327145,-6735.874072,1532.190996
1276.931205,7031.956449,-7328.038826,1532.190996
1276.931535,5625.565159,-7402.059420,306.438199
1276.931864,5107.421000,-7550.100608,229.828649
1276.932193,4589.276840,-9252.574275,306.438199
1276.932522,4589.276840,-7402.059420,0.000000
1276.932851,5181.441594,-7772.162391,306.438199
1276.933180,6513.812290,-7105.977043,689.485948
1276.933509,7328.038826,-7105.977043,1225.752797
1276.933838,7920.203579,-6365.771101,2145.067394
1276.934167,8068.244768,-5329.482782,2068.457845
1276.934496,7476.080014,-5033.400406,1455.581446
1276.934825,7698.141797,-3923.091493,2145.067394
1276.935155,8216.285956,-4737.318029,842.705048
1276.935484,8364.327145,-4959.379811,1532.190996
1276.935813,8216.285956,-5403.503377,1838.629195
1276.936142,8068.244768,-6069.688724,919.314598
1276.936471,7328.038826,-6661.853478,1915.238745
1276.936800,6513.812290,-8364.327145,919.314598
1276.937129,5477.523971,-8290.306550,766.095498
1276.937458,4959.379811,-7698.141797,459.657299
1276.937787,4589.276840,-8882.471304,689.485948
1276.938116,5329.482782,-8364.327145,383.047749
1276.938445,5329.482782,-7846.182985,612.876398
1276.938775,5773.606348,-7105.977043,0.000000
1276.939104,6513.812290,-7179.997637,459.657299
1276.939433,7105.977043,-7179.997637,766.095498
1276.939762,7328.038826,-7105.977043,1225.752797
1276.940091,7550.100608,-5329.482782,2221.676944
1276.940420,7920.203579,-4663.297435,1302.362347
1276.940749,7920.203579,-4367.215058,1378.971896
1276.941078,8512.368333,-3627.009116,1378.971896
1276.941407,8512.368333,-5181.441594,1838.629195
1276.941736,8660.409521,-5107.421000,1685.410096
1276.942065,8290.306550,-5477.523971,1762.019645
1276.942395,7254.018232,-6957.935855,1302.362347
1276.942724,6439.791695,-7698.141797,1149.143247
1276.943053,5477.523971,-7698.141797,1302.362347
1276.943382,4737.318029,-8216.285956,153.219100
1276.943711,4589.276840,-7402.059420,0.000000
1276.944040,4737.318029,-7846.182985,0.000000
1276.944369,5625.565159,-7698.141797,0.000000
1276.944698,6365.771101,-7254.018232,1072.533697
1276.945027,6661.853478,-7550.100608,995.924147
1276.945356,8068.244768,-6513.812290,1378.971896
1276.945685,7772.162391,-5921.647536,1685.410096
1276.946015,7994.224174,-5181.441594,1302.362347
1276.946344,8142.265362,-4441.235652,1149.143247
1276.946673,8216.285956,-4145.153275,842.705048
1276.947002,8142.265362,-5403.503377,1378.971896
1276.947331,8290.306550,-5107.421000,1685.410096
1276.947660,8142.265362,-5847.626942,1302.362347
1276.947989,7920.203579,-6217.729913,1149.143247
1276.948318,7105.977043,-7105.977043,1608.800546
1276.948647,6365.771101,-8068.244768,1762.019645
1276.948976,5921.647536,-7698.141797,1072.533697
1276.949305,5255.462188,-7254.018232,842.705048
1276.949635,4959.379811,-7105.977043,0.000000
1276.949964,5181.441594,-7550.100608,-153.219100
1276.950293,5551.544565,-7920.203579,229.828649
1276.950622,6291.750507,-8216.285956,306.438199
1276.950951,6809.894666,-7105.977043,919.314598
1276.951280,7846.182985,-6809.894666,1302.362347
1276.951609,7772.162391,-5921.647536,1378.971896
1276.951938,7772.162391,-5107.421000,1685.410096
1276.952267,8068.244768,-4737.318029,1072.533697
1276.952596,8438.347739,-4441.235652,995.924147
1276.952925,8956.491898,-4219.173869,1455.581446
1276.953255,9178.553681,-5033.400406,1149.143247
1276.953584,8808.450710,-5921.647536,2068.457845
1276.953913,7772.162391,-6587.832884,1455.581446
1276.954242,6809.894666,-7476.080014,1915.238745
1276.954571,5921.647536,-7994.224174,1149.143247
1276.954900,5181.441594,-7624.121203,612.876398
1276.955229,4811.338623,-7402.059420,-229.828649
1276.955558,4145.153275,-8068.244768,-306.438199
1276.955887,5255.462188,-8216.285956,0.000000
1276.956216,5847.626942,-8142.265362,229.828649
1276.956545,6661.853478,-7402.059420,1149.143247
1276.956874,7179.997637,-6809.894666,1225.752797
1276.957203,8364.327145,-5255.462188,1608.800546
1276.957533,7994.224174,-5181.441594,2145.067394
1276.957862,8512.368333,-4367.215058,1532.190996
1276.958191,8290.306550,-3701.029710,1072.533697
1276.958520,8438.347739,-4367.215058,1072.533697
1276.958849,9400.615463,-5477.523971,1532.190996
1276.959178,8586.388927,-6069.688724,2451.505594
1276.959507,7328.038826,-7402.059420,2068.457845
1276.959836,6735.874072,-7254.018232,1225.752797
1276.960165,5699.585753,-7550.100608,995.924147
1276.960494,4737.318029,-7846.182985,306.438199
1276.960823,4885.359217,-8216.285956,76.609550
1276.961152,5107.421000,-7772.162391,0.000000
1276.961481,5107.421000,-7698.141797,-306.438199
1276.961810,5255.462188,-7254.018232,76.609550
1276.962139,6513.812290,-7476.080014,766.095498
1276.962468,7179.997637,-7550.100608,1225.752797
1276.962797,7105.977043,-6291.750507,1685.410096
1276.963126,7328.038826,-5699.585753,919.314598
1276.963455,7994.224174,-4959.379811,1532.190996
1276.963785,8660.409521,-4293.194464,2068.457845
1276.964114,9030.512492,-4293.194464,1225.752797
1276.964443,8808.450710,-4441.235652,1685.410096
1276.964772,8290.306550,-5403.503377,1915.238745
1276.965101,7254.018232,-6587.832884,1302.362347
1276.965430,6735.874072,-7624.121203,1378.971896
1276.965759,5477.523971,-8586.388927,766.095498
1276.966088,4737.318029,-8808.450710,383.047749
1276.966417,4811.338623,-8290.306550,306.438199
1276.966746,4737.318029,-8290.306550,153.219100
1276.967075,5699.585753,-7698.141797,0.000000
1276.967404,5921.647536,-7105.977043,306.438199
1276.967733,6587.832884,-7031.956449,536.266849
1276.968062,8068.244768,-7179.997637,1455.581446
1276.968391,8660.409521,-5921.647536,1838.629195
1276.968720,8512.368333,-5033.400406,1685.410096
1276.969049,8290.306550,-4219.173869,1225.752797
1276.969378,8438.347739,-3701.029710,1838.629195
1276.969707,8438.347739,-4663.297435,1532.190996
1276.970036,8142.265362,-4589.276840,995.924147
1276.970366,8290.306550,-5551.544565,919.314598
1276.970695,8142.265362,-6957.935855,1455.581446
1276.971024,7624.121203,-7476.080014,1072.533697
1276.971353,6143.709319,-7846.182985,1072.533697
1276.971682,5403.503377,-8068.244768,766.095498
1276.972011,5107.421000,-8142.265362,1072.533697
1276.972340,4959.379811,-7476.080014,459.657299
1276.972669,4959.379811,-7550.100608,-229.828649
1276.972998,4959.379811,-7920.203579,0.000000
1276.973327,5773.606348,-8142.265362,0.000000
1276.973656,6513.812290,-7624.121203,1149.143247
1276.973985,7328.038826,-7179.997637,1838.629195
1276.974314,7920.203579,-6439.791695,1915.238745
1276.974643,7698.141797,-5625.565159,1608.800546
1276.974972,7698.141797,-5329.482782,1225.752797
1276.975301,8290.306550,-4589.276840,1149.143247
1276.975630,8808.450710,-3478.967927,1455.581446
1276.975959,9178.553681,-4145.153275,1455.581446
1276.976288,9178.553681,-5255.462188,1838.629195
1276.976618,8216.285956,-5847.626942,1685.410096
1276.976947,7402.059420,-7105.977043,1072.533697
1276.977276,5847.626942,-7105.977043,1225.752797
1276.977605,5181.441594,-7550.100608,306.438199
1276.977934,4811.338623,-7772.162391,153.219100
1276.978263,5033.400406,-7402.059420,306.438199
1276.978592,5181.441594,-7994.224174,-383.047749
1276.978921,5995.668130,-8068.244768,306.438199
1276.979250,6587.832884,-7328.038826,1072.533697
1276.979579,7179.997637,-7402.059420,1225.752797
1276.979908,7254.018232,-6143.709319,1838.629195
1276.980237,7920.203579,-5329.482782,1302.362347
1276.980566,8068.244768,-4589.276840,995.924147
1276.980895,8216.285956,-4293.194464,1225.752797
1276.981224,7994.224174,-4589.276840,919.314598
1276.981553,8808.450710,-4293.194464,1225.752797
1276.981882,8586.388927,-5921.647536,1455.581446
1276.982211,8068.244768,-6513.812290,1762.019645
1276.982540,7328.038826,-7920.203579,1455.581446
1276.982870,7105.977043,-7624.121203,1378.971896
1276.983199,6143.709319,-7994.224174,1072.533697
1276.983528,5255.462188,-7846.182985,459.657299
1276.983857,4959.379811,-7402.059420,229.828649
1276.984186,4737.318029,-7772.162391,-536.266849
1276.984515,5107.421000,-7994.224174,-383.047749
1276.984844,5847.626942,-8438.347739,612.876398
1276.985173,7031.956449,-7846.182985,919.314598
1276.985502,7031.956449,-6883.915261,1685.410096
1276.985831,6809.894666,-6217.729913,1455.581446
1276.986160,7624.121203,-5107.421000,1378.971896
1276.986489,7846.182985,-4515.256246,1685.410096
1276.986818,8438.347739,-4293.194464,1302.362347
1276.987147,8438.347739,-3775.050304,1455.581446
1276.987476,9400.615463,-4219.173869,1532.190996
1276.987805,8734.430116,-5773.606348,1455.581446
1276.988134,7920.203579,-6957.935855,1991.848295
1276.988463,7031.956449,-8068.244768,1532.190996
1276.988792,5921.647536,-7920.203579,842.705048
1276.989121,5107.421000,-8290.306550,383.047749
1276.989451,4737.318029,-8068.244768,-229.828649
1276.989780,4737.318029,-7994.224174,0.000000
1276.990109,5551.544565,-7698.141797,0.000000
1276.990438,6217.729913,-7402.059420,306.438199
1276.990767,6809.894666,-7550.100608,919.314598
1276.991096,8216.285956,-6883.915261,1762.019645
1276.991425,7920.203579,-6439.791695,1685.410096
1276.991754,7624.121203,-4737.318029,1225.752797
1276.992083,7550.100608,-3923.091493,1225.752797
1276.992412,8438.347739,-4145.153275,1149.143247
1276.992741,8956.491898,-4293.194464,2068.457845
1276.993070,9030.512492,-5107.421000,1532.190996
1276.993399,8734.430116,-6217.729913,1072.533697
1276.993728,7550.100608,-6883.915261,2221.676944
1276.994057,6735.874072,-8142.265362,1378.971896
1276.994386,5773.606348,-8364.327145,1225.752797
1276.994715,5255.462188,-8216.285956,612.876398
1276.995044,4737.318029,-8216.285956,0.000000
1276.995373,4145.153275,-7994.224174,0.000000
1276.995703,4811.338623,-8068.244768,-153.219100
1276.996032,5699.585753,-8068.244768,0.000000
1276.996361,6291.750507,-7994.224174,1072.533697
1276.996690,7105.977043,-7105.977043,1455.581446
1276.997019,7254.018232,-6661.853478,842.705048
1276.997348,7698.141797,-5033.400406,1685.410096
1276.997677,8290.306550,-4959.379811,1225.752797
1276.998006,8882.471304,-4071.132681,1455.581446
1276.998335,8882.471304,-3849.070898,1378.971896
1276.998664,9326.594869,-4737.318029,1685.410096
1276.998993,9104.533087,-5107.421000,1685.410096
1276.999322,7772.162391,-6587.832884,1455.581446
1276.999651,6735.874072,-6957.935855,1685.410096
1276.999980,6217.729913,-8142.265362,1072.533697
1277.000309,5329.482782,-7920.203579,919.314598
1277.000638,4737.318029,-7920.203579,536.266849
1277.000967,4663.297435,-7772.162391,536.266849
1277.001296,4663.297435,-7994.224174,0.000000
1277.001625,5551.544565,-7624.121203,229.828649
1277.001954,7105.977043,-6883.915261,1072.533697
1277.002284,7846.182985,-6883.915261,1225.752797
1277.002613,8068.244768,-6735.874072,1762.019645
1277.002942,7624.121203,-4811.338623,1455.581446
1277.003271,7846.182985,-4293.194464,1302.362347
1277.003600,8364.327145,-4367.215058,1455.581446
1277.003929,8290.306550,-4737.318029,1225.752797
1277.004258,8660.409521,-5033.400406,1149.143247
1277.004587,8660.409521,-5477.523971,1378.971896
1277.004916,8216.285956,-7105.977043,1455.581446
1277.005245,7105.977043,-7550.100608,1915.238745
1277.005574,6661.853478,-8216.285956,1838.629195
1277.005903,6291.750507,-7624.121203,995.924147
1277.006232,5033.400406,-6883.915261,306.438199
1277.006561,5033.400406,-7254.018232,153.219100
1277.006890,5329.482782,-7476.080014,306.438199
1277.007219,5773.606348,-7328.038826,612.876398
1277.007548,6217.729913,-6957.935855,306.438199
1277.007877,6883.915261,-7031.956449,459.657299
1277.008206,7179.997637,-7179.997637,1455.581446
1277.008536,6883.915261,-6957.935855,1302.362347
1277.008865,7105.977043,-6365.771101,1072.533697
1277.009194,7328.038826,-4737.318029,1225.752797
1277.009523,8142.265362,-4959.379811,1072.533697
1277.009852,8734.430116,-5625.565159,1532.190996
1277.010181,8808.450710,-5033.400406,1915.238745
1277.010510,8882.471304,-5921.647536,919.314598
1277.010839,8512.368333,-5921.647536,1532.190996
1277.011168,7402.059420,-7105.977043,1149.143247
1277.011497,5773.606348,-7920.203579,766.095498
1277.011826,5255.462188,-7402.059420,153.219100
1277.012155,4441.235652,-7698.141797,0.000000
1277.012484,4885.359217,-7254.018232,229.828649
1277.012813,5921.647536,-7254.018232,766.095498
1277.013142,7328.038826,-6883.915261,229.828649
1277.013471,7550.100608,-6809.894666,1685.410096
1277.013800,7772.162391,-6809.894666,1302.362347
1277.014129,7698.141797,-5551.544565,1915.238745
1277.014458,8068.244768,-5477.523971,2298.286494
1277.014788,7476.080014,-5329.482782,1915.238745
1277.015117,7624.121203,-4737.318029,1378.971896
1277.015446,7550.100608,-5921.647536,1608.800546
1277.015775,7846.182985,-5625.565159,1225.752797
1277.016104,7476.080014,-6809.894666,1455.581446
1277.016433,7031.956449,-6957.935855,919.314598
1277.016762,6217.729913,-7476.080014,689.485948
1277.017091,6439.791695,-8438.347739,1915.238745
1277.017420,5921.647536,-7772.162391,1838.629195
1277.017749,5995.668130,-7550.100608,1149.143247
1277.018078,5773.606348,-6883.915261,229.828649
1277.018407,5329.482782,-7179.997637,0.000000
1277.018736,5921.647536,-8364.327145,536.266849
1277.019065,6587.832884,-7328.038826,919.314598
1277.019394,7105.977043,-7105.977043,919.314598
1277.019723,6957.935855,-7105.977043,1072.533697
1277.020052,6735.874072,-6587.832884,1685.410096
1277.020381,7105.977043,-6069.688724,766.095498
1277.020710,7698.141797,-4663.297435,1302.362347
1277.021039,7772.162391,-4219.173869,1685.410096
1277.021369,8512.368333,-4145.153275,1762.019645
1277.021698,8586.388927,-4885.359217,1608.800546
1277.022027,8364.327145,-5921.647536,1915.238745
1277.022356,7920.203579,-6439.791695,1225.752797
1277.022685,7105.977043,-7402.059420,1608.800546
1277.023014,5921.647536,-7772.162391,1225.752797
1277.023343,4811.338623,-8216.285956,229.828649
1277.023672,4071.132681,-7846.182985,0.000000
1277.024001,4367.215058,-7772.162391,-459.657299
1277.024330,5181.441594,-8142.265362,153.219100
1277.024659,6291.750507,-7179.997637,766.095498
1277.024988,7105.977043,-7476.080014,766.095498
1277.025317,7105.977043,-7254.018232,1378.971896
1277.025646,7624.121203,-6291.750507,1149.143247
1277.025975,7994.224174,-5107.421000,1225.752797
1277.026304,8882.471304,-3627.009116,1455.581446
1277.026633,8956.491898,-3775.050304,995.924147
1277.026962,8438.347739,-4071.132681,1455.581446
1277.027291,8586.388927,-4885.359217,1455.581446
1277.027621,8956.491898,-6291.750507,1685.410096
1277.027950,8512.368333,-7179.997637,1838.629195
1277.028279,6883.915261,-7328.038826,1685.410096
1277.028608,5995.668130,-7920.203579,1455.581446
1277.028937,5181.441594,-8068.244768,995.924147
1277.029266,4885.359217,-7402.059420,612.876398
1277.029595,4737.318029,-7254.018232,0.000000
1277.029924,5477.523971,-7179.997637,-383.047749
1277.030253,5551.544565,-7179.997637,76.609550
1277.030582,6365.771101,-7846.182985,459.657299
1277.030911,7254.018232,-7550.100608,1149.143247
1277.031240,7328.038826,-7105.977043,1302.362347
1277.031569,7772.162391,-6513.812290,1455.581446
1277.031898,7550.100608,-4737.318029,1149.143247
1277.032227,8216.285956,-4589.276840,842.705048
1277.032556,9104.533087,-4145.153275,1302.362347
1277.032885,9474.636058,-4071.132681,1225.752797
1277.033214,9030.512492,-5699.585753,1378.971896
1277.033543,8660.409521,-6143.709319,1762.019645
1277.033872,7328.038826,-7402.059420,1455.581446
1277.034202,5773.606348,-8438.347739,842.705048
1277.034531,4885.359217,-8438.347739,842.705048
1277.034860,4219.173869,-8512.368333,0.000000
1277.035189,3923.091493,-7772.162391,0.000000
1277.035518,4367.215058,-7846.182985,0.000000
1277.035847,5477.523971,-7846.182985,459.657299
1277.036176,6661.853478,-7402.059420,842.705048
1277.036505,7254.018232,-6587.832884,1378.971896
1277.036834,8216.285956,-6587.832884,1838.629195
1277.037163,8216.285956,-5847.626942,2298.286494
1277.037492,7994.224174,-4441.235652,1685.410096
1277.037821,8512.368333,-4071.132681,612.876398
1277.038150,8586.388927,-4293.194464,1302.362347
1277.038479,8512.368333,-5107.421000,1455.581446
1277.038808,8660.409521,-5551.544565,1455.581446
1277.039137,7920.203579,-5995.668130,2221.676944
1277.039466,7402.059420,-7328.038826,1302.362347
1277.039795,6217.729913,-7772.162391,1532.190996
1277.040124,5551.544565,-8216.285956,1455.581446
1277.040454,5625.565159,-7105.977043,766.095498
1277.040783,5551.544565,-6661.853478,612.876398
1277.041112,5921.647536,-6513.812290,536.266849
1277.041441,6143.709319,-6883.915261,0.000000
1277.041770,6513.812290,-7179.997637,612.876398
1277.042099,7624.121203,-7031.956449,689.485948
1277.042428,7772.162391,-6809.894666,766.095498
1277.042757,7328.038826,-6439.791695,1838.629195
1277.043086,7550.100608,-5477.523971,1762.019645
1277.043415,7550.100608,-5329.482782,1838.629195
1277.043744,8216.285956,-4441.235652,1455.581446
1277.044073,8512.368333,-5033.400406,1455.581446
1277.044402,8734.430116,-4959.379811,2068.457845
1277.044731,8142.265362,-5921.647536,1149.143247
1277.045060,7031.956449,-7328.038826,1072.533697
1277.045389,5921.647536,-7698.141797,919.314598
1277.045718,5477.523971,-8586.388927,536.266849
1277.046047,4885.359217,-8068.244768,536.266849
1277.046376,4737.318029,-7994.224174,995.924147
1277.046706,5477.523971,-8068.244768,-76.609550
1277.047035,5625.565159,-7476.080014,153.219100
1277.047364,5995.668130,-7402.059420,229.828649
1277.047693,6735.874072,-7476.080014,383.047749
1277.048022,7031.956449,-6365.771101,1608.800546
1277.048351,7772.162391,-6069.688724,1532.190996
1277.048680,7994.224174,-5403.503377,1608.800546
1277.049009,8438.347739,-4663.297435,1608.800546
1277.049338,8734.430116,-4515.256246,1149.143247
1277.049667,8882.471304,-4367.215058,1532.190996
1277.049996,8364.327145,-4737.318029,766.095498
1277.050325,7994.224174,-5699.585753,1302.362347
1277.050654,7624.121203,-7105.977043,1302.362347
1277.050983,7328.038826,-7105.977043,1455.581446
1277.051312,6587.832884,-7550.100608,1608.800546
1277.051641,6439.791695,-7179.997637,1608.800546
1277.051970,5995.668130,-6883.915261,1072.533697
1277.052299,5551.544565,-7772.162391,76.609550
1277.052628,4959.379811,-7402.059420,0.000000
1277.052957,5255.462188,-7994.224174,-459.657299
1277.053287,6143.709319,-7846.182985,0.000000
1277.053616,6661.853478,-7624.121203,842.705048
1277.053945,7402.059420,-7846.182985,1302.362347
1277.054274,7550.100608,-5995.668130,1608.800546
1277.054603,7476.080014,-5477.523971,1302.362347
1277.054932,7402.059420,-4737.318029,842.705048
1277.055261,7772.162391,-4663.297435,1302.362347
1277.055590,8808.450710,-4293.194464,1225.752797
1277.055919,8586.388927,-4959.379811,1532.190996
1277.056248,7994.224174,-5921.647536,1455.581446
1277.056577,7698.141797,-6883.915261,1532.190996
1277.056906,6809.894666,-7476.080014,1532.190996
1277.057235,5921.647536,-7994.224174,1302.362347
1277.057564,5181.441594,-7846.182985,689.485948
1277.057893,4959.379811,-7550.100608,306.438199
1277.058222,4515.256246,-7476.080014,229.828649
1277.058552,5033.400406,-7994.224174,842.705048
1277.058881,6069.688724,-7402.059420,229.828649
1277.059210,6735.874072,-7179.997637,1225.752797
1277.059539,6883.915261,-6883.915261,1149.143247
1277.059868,7476.080014,-5773.606348,1455.581446
1277.060197,7476.080014,-4811.338623,1225.752797
1277.060526,7994.224174,-4515.256246,919.314598
1277.060856,8142.265362,-4367.215058,1225.752797
1277.061185,8734.430116,-4737.318029,1378.971896
1277.061514,8512.368333,-5329.482782,1225.752797
1277.061843,8808.450710,-6291.750507,1762.019645
1277.062172,8364.327145,-7328.038826,1838.629195
1277.062501,7698.141797,-7402.059420,1838.629195
1277.062830,7105.977043,-6809.894666,1455.581446
1277.063160,5847.626942,-7105.977043,1225.752797
1277.063489,5773.606348,-7105.977043,1302.362347
1277.063818,5625.565159,-7476.080014,612.876398
1277.064147,5107.421000,-7846.182985,153.219100
1277.064476,5107.421000,-7476.080014,0.000000
1277.064805,5625.565159,-7550.100608,383.047749
1277.065134,5847.626942,-7772.162391,766.095498
1277.065464,6957.935855,-6661.853478,1225.752797
1277.065793,7105.977043,-5995.668130,1378.971896
1277.066122,8290.306550,-5477.523971,1378.971896
1277.066451,7994.224174,-4885.359217,1762.019645
1277.066780,8364.327145,-4737.318029,1378.971896
1277.067109,8882.471304,-5033.400406,766.095498
1277.067438,9178.553681,-5477.523971,1378.971896
1277.067768,8808.450710,-6291.750507,1378.971896
1277.068097,7846.182985,-6291.750507,1532.190996
1277.068426,6809.894666,-7179.997637,1532.190996
1277.068755,5847.626942,-7328.038826,1072.533697
1277.069084,4441.235652,-7846.182985,306.438199
1277.069413,3849.070898,-7254.018232,-689.485948
1277.069742,3923.091493,-7624.121203,-459.657299
1277.070072,5181.441594,-7994.224174,0.000000
1277.070401,6217.729913,-7772.162391,459.657299
1277.070730,6883.915261,-7105.977043,1532.190996
1277.071059,7994.224174,-6513.812290,1608.800546
1277.071388,8142.265362,-5551.544565,1455.581446
1277.071717,8142.265362,-4589.276840,1532.190996
1277.072046,8142.265362,-4293.194464,1302.362347
1277.072376,8808.450710,-4219.173869,1685.410096
1277.072705,8808.450710,-5107.421000,1762.019645
1277.073034,8734.430116,-5773.606348,1915.238745
1277.073363,8142.265362,-6513.812290,1685.410096
1277.073692,7328.038826,-6883.915261,1991.848295
1277.074021,6735.874072,-7254.018232,1762.019645
1277.074350,5995.668130,-7772.162391,1455.581446
1277.074680,5107.421000,-7254.018232,766.095498
1277.075009,4959.379811,-7846.182985,383.047749
1277.075338,5033.400406,-7698.141797,0.000000
1277.075667,4737.318029,-7846.182985,-459.657299
1277.075996,5625.565159,-8586.388927,0.000000
1277.076325,6365.771101,-8142.265362,766.095498
1277.076654,7031.956449,-7846.182985,842.705048
1277.076984,7328.038826,-7031.956449,1838.629195
1277.077313,7994.224174,-5403.503377,1302.362347
1277.077642,8512.368333,-4515.256246,1455.581446
1277.077971,8882.471304,-3701.029710,2068.457845
1277.078300,9548.656652,-4219.173869,2681.334243
1277.078629,9918.759623,-3997.112087,2221.676944
1277.078958,8956.491898,-4219.173869,1838.629195
1277.079288,7994.224174,-5847.626942,1532.190996
1277.079617,6809.894666,-6661.853478,1149.143247
1277.079946,5995.668130,-7476.080014,459.657299
1277.080275,4589.276840,-7994.224174,689.485948
1277.080604,4367.215058,-8438.347739,459.657299
1277.080933,4441.235652,-8364.327145,229.828649
1277.081262,4663.297435,-8142.265362,153.219100
1277.081592,5477.523971,-7920.203579,229.828649
1277.081921,5847.626942,-7550.100608,76.609550
1277.082250,6883.915261,-7624.121203,383.047749
1277.082579,7698.141797,-6883.915261,1685.410096
1277.082908,8290.306550,-5329.482782,1225.752797
1277.083237,8364.327145,-4737.318029,1149.143247
1277.083566,8142.265362,-4515.256246,1302.362347
1277.083896,8438.347739,-4737.318029,1072.533697
1277.084225,8216.285956,-5181.441594,1072.533697
1277.084554,7772.162391,-4811.338623,995.924147
1277.084883,7772.162391,-6735.874072,1149.143247
1277.085212,7179.997637,-7698.141797,1455.581446
1277.085541,6587.832884,-7772.162391,1608.800546
1277.085870,5847.626942,-8068.244768,1302.362347
1277.086200,4959.379811,-7476.080014,689.485948
1277.086529,4737.318029,-7772.162391,0.000000
1277.086858,5107.421000,-8438.347739,153.219100
1277.087187,5403.503377,-7698.141797,153.219100
1277.087516,6513.812290,-7772.162391,612.876398
1277.087845,6735.874072,-7031.956449,842.705048
1277.088174,7179.997637,-6439.791695,1838.629195
1277.088503,7846.182985,-6217.729913,1302.362347
1277.088833,7994.224174,-4737.318029,1302.362347
1277.089162,7624.121203,-4219.173869,1149.143247
1277.089491,8512.368333,-4737.318029,1532.190996
1277.089820,8956.491898,-4219.173869,1838.629195
1277.090149,9030.512492,-4441.235652,1685.410096
1277.090478,9104.533087,-5329.482782,1072.533697
1277.090807,7698.141797,-6587.832884,1072.533697
1277.091137,6735.874072,-7550.100608,766.095498
1277.091466,6069.688724,-8216.285956,1225.752797
1277.091795,5921.647536,-7698.141797,689.485948
1277.092124,5255.462188,-7254.018232,612.876398
1277.092453,5255.462188,-7698.141797,306.438199
1277.092782,5551.544565,-7402.059420,536.266849
1277.093111,5847.626942,-7624.121203,229.828649
1277.093441,6439.791695,-6661.853478,689.485948
1277.093770,6735.874072,-6291.750507,459.657299
1277.094099,7105.977043,-6365.771101,1149.143247
1277.094428,7179.997637,-6069.688724,1685.410096
1277.094757,7328.038826,-5551.544565,1302.362347
1277.095086,7328.038826,-4589.276840,919.314598
1277.095415,8068.244768,-5329.482782,1302.362347
1277.095745,8364.327145,-5847.626942,1302.362347
1277.096074,8068.244768,-6069.688724,1455.581446
1277.096403,8364.327145,-7031.956449,1915.238745
1277.096732,7846.182985,-7031.956449,1455.581446
1277.097061,6439.791695,-6365.771101,1225.752797
1277.097390,6513.812290,-6809.894666,1225.752797
1277.097719,5921.647536,-7254.018232,612.876398
1277.098049,5255.462188,-7328.038826,689.485948
1277.098378,5033.400406,-7772.162391,76.609550
1277.098707,5625.565159,-7402.059420,0.000000
1277.099036,6217.729913,-8290.306550,536.266849
1277.099365,6957.935855,-7328.038826,919.314598
1277.099694,6513.812290,-7105.977043,842.705048
