#time,accel_x,accel_y,accel_z
1421.738754,7105.977043,-6439.791695,1378.971896
1421.739085,7105.977043,-6217.729913,1225.752797
1421.739415,7031.956449,-6513.812290,766.095498
1421.739745,6809.894666,-6291.750507,919.314598
1421.740075,6809.894666,-6291.750507,919.314598
1421.740406,6735.874072,-6957.935855,612.876398
1421.740736,6661.853478,-6809.894666,1149.143247
1421.741066,6587.832884,-6735.874072,1072.533697
1421.741397,7031.956449,-6883.915261,1072.533697
1421.741727,6587.832884,-6883.915261,1455.581446
1421.742057,6735.874072,-6809.894666,919.314598
1421.742388,6735.874072,-6809.894666,842.705048
1421.742718,6809.894666,-6587.832884,1149.143247
1421.743048,7031.956449,-6439.791695,1608.800546
1421.743378,7476.080014,-6513.812290,1532.190996
1421.743709,7402.059420,-5921.647536,1302.362347
1421.744039,7772.162391,-6143.709319,612.876398
1421.744369,7179.997637,-6217.729913,995.924147
1421.744700,7105.977043,-6809.894666,995.924147
1421.745030,6809.894666,-6439.791695,536.266849
1421.745360,7179.997637,-6143.709319,1225.752797
1421.745691,7550.100608,-5995.668130,1149.143247
1421.746021,7476.080014,-6217.729913,1072.533697
1421.746351,6809.894666,-6513.812290,1072.533697
1421.746681,7328.038826,-6439.791695,919.314598
1421.747012,6883.915261,-6143.709319,1455.581446
1421.747342,6809.894666,-6513.812290,842.705048
1421.747672,6957.935855,-6217.729913,842.705048
1421.748003,7105.977043,-6587.832884,995.924147
1421.748333,6957.935855,-6587.832884,919.314598
1421.748663,6809.894666,-6587.832884,689.485948
1421.748994,6735.874072,-6957.935855,1608.800546
1421.749324,6735.874072,-7105.977043,766.095498
1421.749654,6513.812290,-7031.956449,689.485948
1421.749984,5995.668130,-6735.874072,766.095498
1421.750315,6513.812290,-7179.997637,919.314598
1421.750645,7772.162391,-7105.977043,1225.752797
1421.750975,7328.038826,-6439.791695,1149.143247
1421.751306,7105.977043,-6735.874072,919.314598
1421.751636,7105.977043,-6365.771101,919.314598
1421.751966,7031.956449,-6883.915261,919.314598
1421.752297,6957.935855,-7031.956449,842.705048
1421.752627,7105.977043,-6439.791695,1072.533697
1421.752957,7105.977043,-6439.791695,1149.143247
1421.753287,7105.977043,-6661.853478,919.314598
1421.753618,6883.915261,-6809.894666,1532.190996
1421.753948,6809.894666,-6587.832884,995.924147
1421.754278,6883.915261,-6809.894666,612.876398
1421.754609,6587.832884,-6217.729913,1072.533697
1421.754939,6513.812290,-6587.832884,1225.752797
1421.755269,7105.977043,-6439.791695,842.705048
1421.755600,6883.915261,-6513.812290,1225.752797
1421.755930,6883.915261,-6735.874072,1072.533697
1421.756260,6883.915261,-6439.791695,1072.533697
1421.756590,6661.853478,-6513.812290,1302.362347
1421.756921,6217.729913,-7105.977043,842.705048
1421.757251,6735.874072,-6735.874072,1149.143247
1421.757581,6735.874072,-6661.853478,1072.533697
1421.757912,7179.997637,-7179.997637,919.314598
1421.758242,7476.080014,-6217.729913,1608.800546
1421.758572,7179.997637,-6587.832884,1302.362347
1421.758903,7105.977043,-6365.771101,919.314598
1421.759233,7105.977043,-6291.750507,1072.533697
1421.759563,6809.894666,-5921.647536,383.047749
1421.759893,7624.121203,-6513.812290,1225.752797
1421.760224,7624.121203,-6143.709319,1149.143247
1421.760554,7402.059420,-6439.791695,1072.533697
1421.760884,7328.038826,-6291.750507,1532.190996
1421.761215,7105.977043,-6513.812290,1455.581446
1421.761545,7105.977043,-6661.853478,766.095498
1421.761875,6661.853478,-6587.832884,1072.533697
1421.762206,6661.853478,-6661.853478,1302.362347
1421.762536,6809.894666,-6661.853478,919.314598
1421.762866,6957.935855,-6513.812290,1225.752797
1421.763196,6957.935855,-6735.874072,919.314598
1421.763527,6809.894666,-7105.977043,1072.533697
1421.763857,6883.915261,-6809.894666,1302.362347
1421.764187,7031.956449,-6735.874072,842.705048
1421.764518,6735.874072,-6809.894666,919.314598
1421.764848,6883.915261,-6957.935855,995.924147
1421.765178,7105.977043,-6735.874072,766.095498
1421.765509,7105.977043,-7031.956449,1455.581446
1421.765839,7550.100608,-6439.791695,919.314598
1421.766169,6661.853478,-6291.750507,766.095498
1421.766499,7031.956449,-6735.874072,919.314598
1421.766830,6883.915261,-7031.956449,842.705048
1421.767160,7105.977043,-6809.894666,1225.752797
1421.767490,7105.977043,-6143.709319,995.924147
1421.767821,7105.977043,-6291.750507,1149.143247
1421.768151,7105.977043,-6439.791695,1302.362347
1421.768481,6883.915261,-6661.853478,1532.190996
1421.768812,7550.100608,-6365.771101,1149.143247
1421.769142,6883.915261,-6439.791695,1455.581446
1421.769472,6513.812290,-6513.812290,842.705048
1421.769802,6809.894666,-6735.874072,842.705048
1421.770133,6809.894666,-6291.750507,689.485948
1421.770463,6735.874072,-6957.935855,995.924147
1421.770793,6809.894666,-6661.853478,1072.533697
1421.771124,6883.915261,-6587.832884,995.924147
1421.771454,6661.853478,-6957.935855,612.876398
1421.771784,6735.874072,-7031.956449,1149.143247
1421.772115,6809.894666,-6883.915261,1149.143247
1421.772445,6957.935855,-7105.977043,1149.143247
1421.772775,7105.977043,-6735.874072,995.924147
1421.773105,7105.977043,-6217.729913,1149.143247
1421.773436,7031.956449,-6069.688724,1072.533697
1421.773766,7254.018232,-6291.750507,919.314598
1421.774096,7105.977043,-6587.832884,1149.143247
1421.774427,7105.977043,-6587.832884,766.095498
1421.774757,6735.874072,-5699.585753,1072.533697
1421.775087,7179.997637,-6217.729913,1225.752797
1421.775418,7254.018232,-6439.791695,919.314598
1421.775748,7179.997637,-6439.791695,1302.362347
1421.776078,7105.977043,-6587.832884,1302.362347
1421.776408,7031.956449,-6291.750507,1455.581446
1421.776739,6809.894666,-5921.647536,842.705048
1421.777069,6809.894666,-6735.874072,766.095498
1421.777399,6883.915261,-6809.894666,1072.533697
1421.777730,6883.915261,-6439.791695,995.924147
1421.778060,7402.059420,-6735.874072,689.485948
1421.778390,6957.935855,-6883.915261,1072.533697
1421.778721,6957.935855,-6809.894666,919.314598
1421.779051,6661.853478,-7105.977043,766.095498
1421.779381,6217.729913,-6587.832884,1608.800546
1421.779711,7105.977043,-7105.977043,229.828649
1421.780042,7179.997637,-7105.977043,995.924147
1421.780372,7254.018232,-6513.812290,1302.362347
1421.780702,7698.141797,-6513.812290,1072.533697
1421.781033,7402.059420,-5995.668130,612.876398
1421.781363,6809.894666,-6809.894666,919.314598
1421.781693,6957.935855,-6661.853478,766.095498
1421.782024,7179.997637,-6587.832884,1225.752797
1421.782354,7624.121203,-5329.482782,766.095498
1421.782684,7105.977043,-6587.832884,1302.362347
1421.783014,7105.977043,-6587.832884,919.314598
1421.783345,6957.935855,-6735.874072,1225.752797
1421.783675,6957.935855,-6217.729913,919.314598
1421.784005,6735.874072,-6439.791695,995.924147
1421.784336,6661.853478,-6735.874072,995.924147
1421.784666,6883.915261,-6661.853478,919.314598
1421.784996,6661.853478,-6809.894666,1225.752797
1421.785327,6809.894666,-6143.709319,919.314598
1421.785657,6439.791695,-6291.750507,995.924147
1421.785987,6513.812290,-6809.894666,1225.752797
1421.786317,6809.894666,-6587.832884,842.705048
1421.786648,6217.729913,-6587.832884,766.095498
1421.786978,6735.874072,-6883.915261,1149.143247
1421.787308,7031.956449,-6809.894666,919.314598
1421.787639,7179.997637,-6809.894666,1455.581446
1421.787969,7105.977043,-6587.832884,1302.362347
1421.788299,7328.038826,-6513.812290,842.705048
1421.788630,7105.977043,-5773.606348,1149.143247
1421.788960,7031.956449,-6587.832884,995.924147
1421.789290,6883.915261,-6513.812290,842.705048
1421.789620,7328.038826,-6143.709319,1149.143247
1421.789951,7402.059420,-6439.791695,919.314598
1421.790281,7031.956449,-6069.688724,1378.971896
1421.790611,7179.997637,-6661.853478,1149.143247
1421.790942,7254.018232,-6217.729913,842.705048
1421.791272,7105.977043,-6661.853478,383.047749
1421.791602,7402.059420,-6735.874072,1072.533697
1421.791933,6957.935855,-6883.915261,995.924147
1421.792263,7105.977043,-6883.915261,995.924147
1421.792593,6957.935855,-6735.874072,1072.533697
1421.792923,6809.894666,-6587.832884,612.876398
1421.793254,6883.915261,-6587.832884,1302.362347
1421.793584,6735.874072,-7105.977043,1072.533697
1421.793914,6587.832884,-7031.956449,612.876398
1421.794245,6513.812290,-6735.874072,1378.971896
1421.794575,7031.956449,-7476.080014,1608.800546
1421.794905,7254.018232,-6661.853478,919.314598
1421.795236,7105.977043,-6069.688724,1532.190996
1421.795566,7105.977043,-6587.832884,919.314598
1421.795896,7179.997637,-6439.791695,919.314598
1421.796226,7105.977043,-6217.729913,766.095498
1421.796557,7105.977043,-6587.832884,995.924147
1421.796887,6957.935855,-6291.750507,842.705048
1421.797217,7031.956449,-6217.729913,1225.752797
1421.797548,7105.977043,-6587.832884,1149.143247
1421.797878,7031.956449,-6735.874072,1302.362347
1421.798208,7105.977043,-6365.771101,1072.533697
1421.798539,6957.935855,-6439.791695,1149.143247
1421.798869,6661.853478,-6143.709319,1149.143247
1421.799199,6809.894666,-6439.791695,919.314598
1421.799529,6587.832884,-6661.853478,1072.533697
1421.799860,6809.894666,-6439.791695,1302.362347
1421.800190,6883.915261,-6661.853478,919.314598
1421.800520,6809.894666,-6587.832884,1302.362347
1421.800851,6735.874072,-7031.956449,689.485948
1421.801181,7179.997637,-7105.977043,842.705048
1421.801511,6735.874072,-6809.894666,919.314598
1421.801842,6809.894666,-6809.894666,919.314598
1421.802172,7105.977043,-6809.894666,1455.581446
1421.802502,7550.100608,-6661.853478,1455.581446
1421.802832,7328.038826,-6513.812290,1072.533697
1421.803163,7179.997637,-6439.791695,919.314598
1421.803493,7105.977043,-6513.812290,1225.752797
1421.803823,6735.874072,-5921.647536,1532.190996
1421.804154,6957.935855,-6661.853478,1149.143247
1421.804484,7179.997637,-5995.668130,766.095498
1421.804813,7254.018232,-6513.812290,919.314598
1421.805143,7402.059420,-6217.729913,1838.629195
1421.805472,7179.997637,-6587.832884,1225.752797
1421.805802,7105.977043,-6069.688724,995.924147
1421.806131,6439.791695,-6513.812290,842.705048
1421.806461,6439.791695,-6735.874072,1149.143247
1421.806790,7105.977043,-6365.771101,1455.581446
1421.807120,7031.956449,-6587.832884,1302.362347
1421.807449,6439.791695,-6513.812290,1149.143247
1421.807779,6735.874072,-6661.853478,766.095498
1421.808108,7031.956449,-6883.915261,1225.752797
1421.808438,7031.956449,-6809.894666,842.705048
1421.808767,7031.956449,-6809.894666,612.876398
1421.809097,6809.894666,-6809.894666,995.924147
1421.809427,7179.997637,-7031.956449,689.485948
1421.809756,7328.038826,-6513.812290,1225.752797
1421.810086,7254.018232,-6143.709319,1149.143247
1421.810415,7031.956449,-6735.874072,842.705048
1421.810745,6809.894666,-6735.874072,1149.143247
1421.811074,6587.832884,-6957.935855,995.924147
1421.811404,6883.915261,-6217.729913,1072.533697
1421.811733,7105.977043,-5921.647536,919.314598
1421.812063,7105.977043,-6439.791695,919.314598
1421.812392,7105.977043,-6291.750507,1149.143247
1421.812722,7105.977043,-6439.791695,1608.800546
1421.813051,7328.038826,-6291.750507,1072.533697
1421.813381,6661.853478,-6143.709319,1149.143247
1421.813710,6735.874072,-6735.874072,842.705048
1421.814040,6735.874072,-6883.915261,1378.971896
1421.814369,6735.874072,-6217.729913,1149.143247
1421.814699,6957.935855,-6883.915261,1149.143247
1421.815028,6957.935855,-6661.853478,1072.533697
1421.815358,6587.832884,-6883.915261,1302.362347
1421.815687,6735.874072,-6957.935855,919.314598
1421.816017,6809.894666,-6957.935855,842.705048
1421.816346,6809.894666,-6291.750507,995.924147
1421.816676,6809.894666,-7031.956449,995.924147
1421.817005,7402.059420,-6809.894666,612.876398
1421.817335,7179.997637,-6291.750507,1302.362347
1421.817664,7328.038826,-6809.894666,842.705048
1421.817994,7179.997637,-6439.791695,995.924147
1421.818323,7105.977043,-6957.935855,1225.752797
1421.818653,7254.018232,-6661.853478,1072.533697
1421.818982,7328.038826,-6069.688724,842.705048
1421.819312,7476.080014,-6217.729913,766.095498
1421.819641,7179.997637,-6143.709319,689.485948
1421.819971,7031.956449,-6365.771101,1072.533697
1421.820300,7698.141797,-6069.688724,1149.143247
1421.820630,6883.915261,-6365.771101,1072.533697
1421.820959,6661.853478,-6217.729913,1072.533697
1421.821289,6809.894666,-6513.812290,842.705048
1421.821618,7031.956449,-6883.915261,1072.533697
1421.821948,6809.894666,-6365.771101,1455.581446
1421.822277,6661.853478,-6883.915261,842.705048
1421.822607,6957.935855,-6957.935855,995.924147
1421.822936,6957.935855,-6883.915261,1225.752797
1421.823266,7402.059420,-6883.915261,459.657299
1421.823595,6957.935855,-6809.894666,919.314598
1421.823925,6735.874072,-6883.915261,1149.143247
1421.824254,7179.997637,-7031.956449,842.705048
1421.824584,6957.935855,-6291.750507,1378.971896
1421.824913,6883.915261,-6217.729913,1302.362347
1421.825243,7179.997637,-6069.688724,1072.533697
1421.825572,7105.977043,-6661.853478,995.924147
1421.825902,6957.935855,-6365.771101,536.266849
1421.826231,7105.977043,-6365.771101,689.485948
1421.826561,7031.956449,-6365.771101,1149.143247
1421.826890,7105.977043,-6291.750507,1149.143247
1421.827220,7105.977043,-6587.832884,1685.410096
1421.827549,6883.915261,-6809.894666,1378.971896
1421.827879,7105.977043,-6291.750507,842.705048
1421.828208,6735.874072,-6439.791695,842.705048
1421.828538,6291.750507,-6513.812290,842.705048
1421.828867,6735.874072,-6587.832884,919.314598
1421.829197,6883.915261,-6883.915261,1149.143247
1421.829526,7105.977043,-6661.853478,1225.752797
1421.829856,6735.874072,-6587.832884,1302.362347
1421.830185,6809.894666,-6809.894666,1225.752797
1421.830515,6809.894666,-6809.894666,766.095498
1421.830844,6809.894666,-6439.791695,766.095498
1421.831174,6809.894666,-6883.915261,1149.143247
1421.831503,7179.997637,-7179.997637,766.095498
1421.831833,7328.038826,-6513.812290,1225.752797
1421.832162,7105.977043,-6661.853478,1072.533697
1421.832492,7179.997637,-6513.812290,1225.752797
1421.832821,7031.956449,-6365.771101,1072.533697
1421.833151,7105.977043,-6661.853478,612.876398
1421.833480,7105.977043,-6143.709319,766.095498
1421.833810,7624.121203,-5699.585753,1072.533697
1421.834139,7846.182985,-6439.791695,1225.752797
1421.834469,7105.977043,-6439.791695,1378.971896
1421.834798,7179.997637,-6587.832884,1225.752797
1421.835128,7105.977043,-6513.812290,919.314598
1421.835457,7031.956449,-6217.729913,1302.362347
1421.835787,6883.915261,-6661.853478,1072.533697
1421.836116,6883.915261,-6883.915261,995.924147
1421.836446,7105.977043,-6661.853478,1302.362347
1421.836775,6957.935855,-6217.729913,1302.362347
1421.837105,6365.771101,-6439.791695,1149.143247
1421.837434,6809.894666,-6587.832884,1149.143247
1421.837764,6957.935855,-6809.894666,1072.533697
1421.838093,6587.832884,-7031.956449,842.705048
1421.838423,6809.894666,-6735.874072,919.314598
1421.838752,6661.853478,-6809.894666,842.705048
1421.839082,7105.977043,-6957.935855,536.266849
1421.839411,7179.997637,-6291.750507,842.705048
1421.839741,7105.977043,-6291.750507,995.924147
1421.840070,7105.977043,-6143.709319,459.657299
1421.840400,7031.956449,-6587.832884,995.924147
1421.840729,7105.977043,-6217.729913,1072.533697
1421.841059,7031.956449,-6217.729913,1225.752797
1421.841388,7328.038826,-5847.626942,1072.533697
1421.841718,7105.977043,-6513.812290,1225.752797
1421.842047,6809.894666,-6513.812290,1532.190996
1421.842377,6957.935855,-6365.771101,766.095498
1421.842706,6735.874072,-6735.874072,1072.533697
1421.843036,6587.832884,-6291.750507,536.266849
1421.843365,6365.771101,-6883.915261,995.924147
1421.843695,6883.915261,-7105.977043,995.924147
1421.844024,6957.935855,-6809.894666,1225.752797
1421.844354,6957.935855,-6587.832884,919.314598
1421.844683,7105.977043,-6957.935855,1225.752797
1421.845013,6809.894666,-6587.832884,1302.362347
1421.845342,6365.771101,-7179.997637,995.924147
1421.845672,6587.832884,-6883.915261,995.924147
1421.846001,7105.977043,-7031.956449,1149.143247
1421.846331,7254.018232,-6439.791695,1072.533697
1421.846660,7105.977043,-6587.832884,1149.143247
1421.846990,7328.038826,-6587.832884,842.705048
1421.847319,7402.059420,-6883.915261,919.314598
1421.847649,7328.038826,-6365.771101,1225.752797
1421.847978,7179.997637,-6143.709319,766.095498
1421.848308,7254.018232,-6143.709319,1072.533697
1421.848637,7254.018232,-5921.647536,995.924147
1421.848967,7328.038826,-6439.791695,1302.362347
1421.849296,6661.853478,-6217.729913,919.314598
1421.849626,7105.977043,-6217.729913,1225.752797
1421.849955,7031.956449,-6291.750507,995.924147
1421.850285,6439.791695,-6513.812290,995.924147
1421.850614,6957.935855,-6513.812290,995.924147
1421.850944,6735.874072,-6587.832884,1149.143247
1421.851273,7105.977043,-7105.977043,1532.190996
1421.851603,6735.874072,-6587.832884,995.924147
1421.851932,7105.977043,-6439.791695,1072.533697
1421.852262,6735.874072,-6809.894666,1762.019645
1421.852591,7031.956449,-6735.874072,842.705048
1421.852921,6735.874072,-6883.915261,766.095498
1421.853250,6661.853478,-6809.894666,76.609550
1421.853580,6883.915261,-7476.080014,995.924147
1421.853909,6957.935855,-6513.812290,1225.752797
1421.854239,7031.956449,-6735.874072,1072.533697
1421.854568,7105.977043,-6513.812290,1302.362347
1421.854898,7105.977043,-6217.729913,1149.143247
1421.855227,6735.874072,-6735.874072,1225.752797
1421.855557,6883.915261,-6439.791695,995.924147
1421.855886,7105.977043,-5921.647536,1225.752797
1421.856216,6957.935855,-6365.771101,919.314598
1421.856545,7254.018232,-6217.729913,1225.752797
1421.856875,7328.038826,-6069.688724,1302.362347
1421.857204,7476.080014,-5329.482782,919.314598
1421.857534,7402.059420,-5255.462188,1149.143247
1421.857863,7772.162391,-5477.523971,1149.143247
1421.858193,8068.244768,-6143.709319,1378.971896
1421.858522,7550.100608,-6217.729913,919.314598
1421.858852,6291.750507,-7031.956449,536.266849
1421.859181,5625.565159,-7624.121203,76.609550
1421.859511,6439.791695,-7179.997637,766.095498
1421.859840,7920.203579,-7105.977043,689.485948
1421.860170,7624.121203,-6883.915261,1149.143247
1421.860499,8142.265362,-5847.626942,1532.190996
1421.860829,8216.285956,-5107.421000,842.705048
1421.861158,8068.244768,-4515.256246,612.876398
1421.861488,8142.265362,-4367.215058,1072.533697
1421.861817,8808.450710,-4219.173869,995.924147
1421.862147,8808.450710,-4515.256246,1072.533697
1421.862476,8882.471304,-4737.318029,919.314598
1421.862806,7846.182985,-4737.318029,306.438199
1421.863135,7846.182985,-4959.379811,383.047749
1421.863465,8586.388927,-5181.441594,459.657299
1421.863794,9178.553681,-6365.771101,1225.752797
1421.864124,8068.244768,-5403.503377,1302.362347
1421.864453,8142.265362,-5625.565159,459.657299
1421.864783,7846.182985,-5551.544565,689.485948
1421.865112,7994.224174,-4885.359217,1072.533697
1421.865442,8216.285956,-4885.359217,1072.533697
1421.865771,9030.512492,-3997.112087,2145.067394
1421.866101,8956.491898,-4145.153275,1378.971896
1421.866430,9400.615463,-3404.947333,1378.971896
1421.866760,9326.594869,-3627.009116,1608.800546
1421.867089,9474.636058,-2886.803174,1532.190996
1421.867419,9474.636058,-2886.803174,842.705048
1421.867748,9400.615463,-3256.906145,1149.143247
1421.868078,9696.697840,-3775.050304,1455.581446
1421.868407,10214.842000,-4515.256246,1302.362347
1421.868737,10362.883188,-4441.235652,1455.581446
1421.869066,9104.533087,-4811.338623,919.314598
1421.869396,8660.409521,-5625.565159,1149.143247
1421.869725,7994.224174,-4885.359217,766.095498
1421.870055,7624.121203,-6365.771101,306.438199
1421.870384,7402.059420,-5403.503377,1532.190996
1421.870714,7772.162391,-4811.338623,689.485948
1421.871043,8438.347739,-4589.276840,995.924147
1421.871373,8956.491898,-4145.153275,1225.752797
1421.871702,8956.491898,-4219.173869,1149.143247
1421.872032,9474.636058,-3701.029710,536.266849
1421.872361,9400.615463,-4145.153275,612.876398
1421.872691,9622.677246,-4293.194464,612.876398
1421.873020,9770.718434,-5255.462188,1149.143247
1421.873350,9992.780217,-5181.441594,766.095498
1421.873679,9030.512492,-5255.462188,612.876398
1421.874009,8438.347739,-5477.523971,459.657299
1421.874338,8364.327145,-5181.441594,612.876398
1421.874668,8364.327145,-5847.626942,919.314598
1421.874997,8512.368333,-5181.441594,995.924147
1421.875327,8142.265362,-5181.441594,1378.971896
1421.875656,8364.327145,-4145.153275,1149.143247
1421.875986,9104.533087,-4071.132681,2451.505594
1421.876315,9474.636058,-3330.926739,2374.896044
1421.876645,9844.739029,-2738.761985,1838.629195
1421.876974,9770.718434,-3330.926739,1455.581446
1421.877304,9474.636058,-3034.844362,459.657299
1421.877633,9104.533087,-3923.091493,0.000000
1421.877963,8956.491898,-3330.926739,306.438199
1421.878292,8956.491898,-4219.173869,-612.876398
1421.878622,9104.533087,-5403.503377,459.657299
1421.878951,9030.512492,-5699.585753,995.924147
1421.879281,9400.615463,-5551.544565,842.705048
1421.879610,8586.388927,-5403.503377,766.095498
1421.879940,7920.203579,-5773.606348,995.924147
1421.880269,8142.265362,-6069.688724,1455.581446
1421.880599,8586.388927,-5181.441594,2451.505594
1421.880928,9474.636058,-4959.379811,2987.772442
1421.881258,9252.574275,-3478.967927,2068.457845
1421.881587,9400.615463,-2442.679609,2221.676944
1421.881917,9992.780217,-1850.514855,1378.971896
1421.882246,10658.965565,-1480.411884,153.219100
1421.882576,9992.780217,-740.205942,76.609550
1421.882905,10066.800811,-2368.659014,-306.438199
1421.883235,10214.842000,-3108.864956,153.219100
1421.883564,9918.759623,-4441.235652,229.828649
1421.883894,9474.636058,-5995.668130,306.438199
1421.884223,8956.491898,-7105.977043,919.314598
1421.884553,7920.203579,-8364.327145,842.705048
1421.884882,7105.977043,-8586.388927,536.266849
1421.885212,6513.812290,-8142.265362,612.876398
1421.885541,6809.894666,-6365.771101,842.705048
1421.885871,7105.977043,-5403.503377,1149.143247
1421.886200,7920.203579,-4219.173869,1685.410096
1421.886530,9400.615463,-2812.782580,1762.019645
1421.886859,10510.924376,-2072.576638,2374.896044
1421.887189,10436.903782,-370.102971,1991.848295
1421.887518,10510.924376,-518.144159,1225.752797
1421.887848,11103.089130,-962.267725,1072.533697
1421.888177,11547.212695,-740.205942,919.314598
1421.888507,11843.295072,-1850.514855,1225.752797
1421.888836,12361.439231,-2664.741391,1838.629195
1421.889166,11399.171507,-3552.988522,1608.800546
1421.889495,9474.636058,-6291.750507,1762.019645
1421.889825,7772.162391,-7402.059420,1302.362347
1421.890154,6217.729913,-8216.285956,1149.143247
1421.890484,4737.318029,-8882.471304,76.609550
1421.890813,4071.132681,-8364.327145,-383.047749
1421.891143,4367.215058,-8216.285956,-842.705048
1421.891472,6217.729913,-7920.203579,-459.657299
1421.891802,7476.080014,-6291.750507,536.266849
1421.892131,8734.430116,-4885.359217,1302.362347
1421.892461,9918.759623,-2442.679609,1455.581446
1421.892790,10584.944971,-1554.432478,1072.533697
1421.893120,11177.109724,-1110.308913,1455.581446
1421.893449,11769.274478,-370.102971,1149.143247
1421.893779,12435.459826,-814.226536,1608.800546
1421.894108,12879.583391,-666.185348,2221.676944
1421.894438,12583.501014,-2368.659014,2911.162892
1421.894767,12139.377449,-2960.823768,2757.943793
1421.895097,9104.533087,-4515.256246,2068.457845
1421.895426,7105.977043,-6513.812290,919.314598
1421.895756,5477.523971,-7179.997637,383.047749
1421.896085,4589.276840,-6957.935855,0.000000
1421.896415,3627.009116,-8068.244768,-612.876398
1421.896744,4589.276840,-7105.977043,-1149.143247
1421.897074,7105.977043,-5329.482782,-842.705048
1421.897403,9474.636058,-4219.173869,-306.438199
1421.897733,11399.171507,-3108.864956,1302.362347
1421.898062,12361.439231,-2368.659014,2145.067394
1421.898392,12139.377449,-2146.597232,2298.286494
1421.898721,11251.130318,-2368.659014,1762.019645
1421.899051,10807.006753,-3552.988522,2681.334243
1421.899380,9474.636058,-4515.256246,1455.581446
1421.899710,8956.491898,-5773.606348,1455.581446
1421.900039,8882.471304,-7179.997637,1915.238745
1421.900369,8956.491898,-6069.688724,1991.848295
1421.900698,8290.306550,-5107.421000,1685.410096
1421.901028,7698.141797,-3627.009116,459.657299
1421.901357,8216.285956,-3182.885551,153.219100
1421.901687,8290.306550,-3182.885551,229.828649
1421.902016,8660.409521,-2294.638420,689.485948
1421.902346,9770.718434,-2072.576638,995.924147
1421.902675,11103.089130,-1850.514855,1149.143247
1421.903005,11547.212695,-3034.844362,1455.581446
1421.903334,11547.212695,-4811.338623,2451.505594
1421.903664,10510.924376,-4959.379811,2451.505594
1421.903993,9178.553681,-5329.482782,919.314598
1421.904323,7254.018232,-5107.421000,-383.047749
1421.904652,6439.791695,-5625.565159,-689.485948
1421.904982,6661.853478,-7772.162391,-229.828649
1421.905311,7254.018232,-8882.471304,1378.971896
1421.905641,7698.141797,-7105.977043,1838.629195
1421.905970,8068.244768,-6143.709319,383.047749
1421.906300,6735.874072,-4367.215058,-229.828649
1421.906629,6217.729913,-4811.338623,0.000000
1421.906958,7402.059420,-6291.750507,689.485948
1421.907287,8882.471304,-2442.679609,995.924147
1421.907616,9918.759623,-1184.329507,383.047749
1421.907945,11103.089130,0.000000,1532.190996
1421.908274,11917.315666,-1406.391290,2068.457845
1421.908604,11547.212695,-3182.885551,2221.676944
1421.908933,9992.780217,-3108.864956,1302.362347
1421.909262,9178.553681,-4219.173869,1072.533697
1421.909591,9178.553681,-4737.318029,1762.019645
1421.909920,9104.533087,-7179.997637,2068.457845
1421.910249,7994.224174,-7624.121203,1149.143247
1421.910578,6587.832884,-6365.771101,-153.219100
1421.910907,6291.750507,-6439.791695,459.657299
1421.911236,7254.018232,-7105.977043,1608.800546
1421.911565,8142.265362,-6957.935855,1225.752797
1421.911894,6143.709319,-6587.832884,306.438199
1421.912223,3182.885551,-6069.688724,-1532.190996
1421.912552,3775.050304,-7105.977043,-919.314598
1421.912881,6883.915261,-6661.853478,459.657299
1421.913210,9770.718434,-5995.668130,1762.019645
1421.913539,10658.965565,-3701.029710,1532.190996
1421.913868,9622.677246,-5329.482782,1608.800546
1421.914197,9622.677246,-6069.688724,2068.457845
1421.914526,9548.656652,-5625.565159,1455.581446
1421.914855,8438.347739,-4219.173869,383.047749
1421.915184,7994.224174,-3478.967927,0.000000
1421.915513,8216.285956,-6587.832884,1532.190996
1421.915842,9178.553681,-6291.750507,2068.457845
1421.916171,9178.553681,-4959.379811,2145.067394
1421.916500,8068.244768,-3330.926739,1302.362347
1421.916829,7105.977043,-3775.050304,689.485948
1421.917158,6365.771101,-6957.935855,1072.533697
1421.917487,4959.379811,-7254.018232,1302.362347
1421.917816,3997.112087,-6069.688724,-689.485948
1421.918145,4959.379811,-8734.430116,-76.609550
1421.918474,6957.935855,-7254.018232,1225.752797
1421.918803,8142.265362,-8882.471304,2298.286494
1421.919132,8734.430116,-7402.059420,1762.019645
1421.919461,8364.327145,-6883.915261,2145.067394
1421.919790,7328.038826,-7698.141797,1149.143247
1421.920119,5995.668130,-5773.606348,383.047749
1421.920448,5403.503377,-6513.812290,536.266849
1421.920777,6513.812290,-5403.503377,612.876398
1421.921106,7105.977043,-5403.503377,1455.581446
1421.921435,7105.977043,-5551.544565,2068.457845
1421.921764,8216.285956,-4959.379811,2911.162892
1421.922093,9104.533087,-5033.400406,1762.019645
1421.922422,8142.265362,-5625.565159,1685.410096
1421.922751,6291.750507,-5329.482782,1149.143247
1421.923081,5403.503377,-5921.647536,383.047749
1421.923410,5847.626942,-7105.977043,1455.581446
1421.923739,7402.059420,-7031.956449,995.924147
1421.924068,8586.388927,-5329.482782,1225.752797
1421.924397,8660.409521,-6291.750507,1225.752797
1421.924726,7772.162391,-8364.327145,2528.115143
1421.925055,7105.977043,-6439.791695,1532.190996
1421.925384,6365.771101,-5921.647536,229.828649
1421.925713,5773.606348,-4959.379811,153.219100
1421.926042,5255.462188,-6809.894666,0.000000
1421.926371,6513.812290,-6365.771101,306.438199
1421.926700,7328.038826,-6365.771101,612.876398
1421.927029,8364.327145,-7105.977043,1302.362347
1421.927358,8586.388927,-6587.832884,2221.676944
1421.927687,7624.121203,-8660.409521,1685.410096
1421.928016,6735.874072,-7550.100608,0.000000
1421.928345,4885.359217,-8364.327145,76.609550
1421.928674,5847.626942,-7994.224174,306.438199
1421.929003,7105.977043,-7846.182985,1608.800546
1421.929332,7550.100608,-6069.688724,1685.410096
1421.929661,7105.977043,-5329.482782,76.609550
1421.929990,5329.482782,-6735.874072,153.219100
1421.930319,4959.379811,-7772.162391,842.705048
1421.930648,5773.606348,-7031.956449,0.000000
1421.930977,5699.585753,-5921.647536,0.000000
1421.931306,5625.565159,-5403.503377,306.438199
1421.931635,7179.997637,-6365.771101,995.924147
1421.931964,8734.430116,-6217.729913,1685.410096
1421.932293,9696.697840,-7402.059420,2604.724693
1421.932622,9622.677246,-6513.812290,2298.286494
1421.932951,7920.203579,-5921.647536,1991.848295
1421.933280,5181.441594,-6661.853478,153.219100
1421.933609,4219.173869,-7105.977043,153.219100
1421.933938,6217.729913,-7402.059420,842.705048
1421.934267,7105.977043,-6957.935855,1225.752797
1421.934596,7772.162391,-5847.626942,1532.190996
1421.934925,7179.997637,-5403.503377,1762.019645
1421.935254,6661.853478,-6365.771101,0.000000
1421.935583,6513.812290,-7254.018232,536.266849
1421.935912,5181.441594,-6735.874072,0.000000
1421.936241,6513.812290,-5403.503377,0.000000
1421.936570,7994.224174,-6291.750507,1378.971896
1421.936899,8956.491898,-5255.462188,919.314598
1421.937229,8660.409521,-6143.709319,1225.752797
1421.937558,8438.347739,-6809.894666,1532.190996
1421.937887,8882.471304,-7846.182985,2374.896044
1421.938216,7624.121203,-7031.956449,1378.971896
1421.938545,5625.565159,-5699.585753,766.095498
1421.938874,4663.297435,-6809.894666,0.000000
1421.939203,5773.606348,-7920.203579,1072.533697
1421.939532,7179.997637,-6143.709319,1608.800546
1421.939861,8142.265362,-4737.318029,995.924147
1421.940190,7550.100608,-5921.647536,995.924147
1421.940519,6439.791695,-6809.894666,842.705048
1421.940848,5773.606348,-7846.182985,383.047749
1421.941177,6217.729913,-5921.647536,0.000000
1421.941506,7031.956449,-6069.688724,459.657299
1421.941835,7698.141797,-6217.729913,1149.143247
1421.942164,7994.224174,-5995.668130,1072.533697
1421.942493,8142.265362,-5551.544565,1225.752797
1421.942822,8586.388927,-7328.038826,2451.505594
1421.943151,7772.162391,-7846.182985,2451.505594
1421.943480,6069.688724,-7402.059420,766.095498
1421.943809,4145.153275,-7402.059420,0.000000
1421.944138,4737.318029,-6661.853478,-153.219100
1421.944467,7179.997637,-8068.244768,2068.457845
1421.944796,8438.347739,-7105.977043,2298.286494
1421.945125,8808.450710,-5255.462188,1991.848295
1421.945454,7698.141797,-4515.256246,229.828649
1421.945783,6735.874072,-4441.235652,229.828649
1421.946112,5477.523971,-7179.997637,536.266849
1421.946441,5773.606348,-6883.915261,383.047749
1421.946770,7105.977043,-6143.709319,459.657299
1421.947099,7698.141797,-6217.729913,995.924147
1421.947428,7846.182985,-5773.606348,1685.410096
1421.947757,7846.182985,-7624.121203,1991.848295
1421.948086,7328.038826,-8068.244768,1762.019645
1421.948415,5847.626942,-8956.491898,842.705048
1421.948744,4441.235652,-7772.162391,1072.533697
1421.949073,4145.153275,-6883.915261,0.000000
1421.949402,5773.606348,-6957.935855,1915.238745
1421.949731,8068.244768,-5699.585753,2528.115143
1421.950060,9252.574275,-3404.947333,2145.067394
1421.950389,9030.512492,-3330.926739,1838.629195
1421.950718,9400.615463,-4293.194464,1378.971896
1421.951047,7920.203579,-5625.565159,612.876398
1421.951376,6735.874072,-5699.585753,229.828649
1421.951706,6439.791695,-5921.647536,-153.219100
1421.952035,7402.059420,-6069.688724,1455.581446
1421.952364,8290.306550,-6661.853478,1378.971896
1421.952693,7698.141797,-8586.388927,1455.581446
1421.953022,7031.956449,-8068.244768,1378.971896
1421.953351,6735.874072,-9474.636058,766.095498
1421.953680,4663.297435,-9770.718434,536.266849
1421.954009,3997.112087,-9252.574275,0.000000
1421.954338,4293.194464,-7254.018232,-459.657299
1421.954667,5477.523971,-7402.059420,689.485948
1421.954996,6365.771101,-6439.791695,1838.629195
1421.955325,7402.059420,-4663.297435,689.485948
1421.955654,8586.388927,-4589.276840,919.314598
1421.955983,8882.471304,-4515.256246,1455.581446
1421.956312,8586.388927,-5847.626942,1685.410096
1421.956641,8734.430116,-5107.421000,766.095498
1421.956970,7846.182985,-4441.235652,1225.752797
1421.957299,7624.121203,-5329.482782,766.095498
1421.957628,7179.997637,-5921.647536,766.095498
1421.957957,6809.894666,-7254.018232,919.314598
1421.958286,6069.688724,-9178.553681,1225.752797
1421.958615,5255.462188,-9696.697840,1455.581446
1421.958944,3997.112087,-8290.306550,383.047749
1421.959273,3182.885551,-8512.368333,-1072.533697
1421.959602,3701.029710,-8586.388927,1302.362347
1421.959931,6809.894666,-6439.791695,1532.190996
1421.960260,8438.347739,-5181.441594,1762.019645
1421.960589,8290.306550,-3478.967927,1532.190996
1421.960918,8586.388927,-3256.906145,1149.143247
1421.961247,9474.636058,-5107.421000,383.047749
1421.961576,7550.100608,-5847.626942,1149.143247
1421.961905,7179.997637,-7328.038826,1378.971896
1421.962234,7920.203579,-5403.503377,689.485948
1421.962563,7402.059420,-6069.688724,2298.286494
1421.962892,7402.059420,-7846.182985,1762.019645
1421.963221,7031.956449,-7402.059420,1532.190996
1421.963550,5847.626942,-8882.471304,842.705048
1421.963879,4515.256246,-9474.636058,536.266849
1421.964208,3849.070898,-8512.368333,76.609550
1421.964537,4515.256246,-7105.977043,0.000000
1421.964866,6217.729913,-6735.874072,153.219100
1421.965195,7402.059420,-5921.647536,2221.676944
1421.965524,9400.615463,-4145.153275,1915.238745
1421.965854,9918.759623,-3404.947333,1762.019645
1421.966183,9844.739029,-2368.659014,919.314598
1421.966512,9400.615463,-4663.297435,1455.581446
1421.966841,8734.430116,-6291.750507,766.095498
1421.967170,8734.430116,-5625.565159,689.485948
1421.967499,7550.100608,-6661.853478,1302.362347
1421.967828,6587.832884,-6809.894666,842.705048
1421.968157,5625.565159,-7402.059420,76.609550
1421.968486,5033.400406,-9474.636058,1225.752797
1421.968815,6735.874072,-10288.862594,2374.896044
1421.969144,5995.668130,-9770.718434,1915.238745
1421.969473,4071.132681,-7846.182985,153.219100
1421.969802,3478.967927,-5329.482782,-459.657299
1421.970131,5255.462188,-5625.565159,0.000000
1421.970460,6809.894666,-6439.791695,612.876398
1421.970789,7698.141797,-5773.606348,1838.629195
1421.971118,8882.471304,-5773.606348,1302.362347
1421.971447,9474.636058,-5329.482782,1455.581446
1421.971776,7920.203579,-6587.832884,1685.410096
1421.972105,7105.977043,-6735.874072,842.705048
1421.972434,7105.977043,-6365.771101,383.047749
1421.972763,7105.977043,-7254.018232,1072.533697
1421.973092,7179.997637,-7105.977043,919.314598
1421.973421,6587.832884,-6883.915261,995.924147
1421.973750,7105.977043,-7698.141797,1149.143247
1421.974079,7105.977043,-9030.512492,1838.629195
1421.974408,6143.709319,-8438.347739,1915.238745
1421.974737,5847.626942,-5995.668130,536.266849
1421.975066,4737.318029,-5033.400406,0.000000
1421.975395,5625.565159,-5107.421000,153.219100
1421.975724,7179.997637,-5477.523971,919.314598
1421.976053,8734.430116,-4885.359217,1378.971896
1421.976382,9104.533087,-5033.400406,1915.238745
1421.976711,8734.430116,-5773.606348,1455.581446
1421.977040,8512.368333,-6883.915261,2451.505594
1421.977369,8142.265362,-6217.729913,1915.238745
1421.977698,7772.162391,-5847.626942,1072.533697
1421.978027,7550.100608,-5773.606348,1455.581446
1421.978356,7550.100608,-5921.647536,1225.752797
1421.978685,6735.874072,-6661.853478,383.047749
1421.979014,6365.771101,-6587.832884,1455.581446
1421.979343,6291.750507,-8068.244768,1378.971896
1421.979672,5477.523971,-8808.450710,995.924147
1421.980001,3997.112087,-7624.121203,0.000000
1421.980331,3849.070898,-7846.182985,0.000000
1421.980660,5625.565159,-6587.832884,536.266849
1421.980989,7328.038826,-6143.709319,612.876398
1421.981318,8216.285956,-5699.585753,842.705048
1421.981647,8364.327145,-5551.544565,1455.581446
1421.981976,8438.347739,-6661.853478,1838.629195
1421.982305,7920.203579,-6291.750507,1378.971896
1421.982634,7105.977043,-6069.688724,1455.581446
1421.982963,7179.997637,-5699.585753,1149.143247
1421.983292,7402.059420,-6883.915261,1302.362347
1421.983621,7624.121203,-6217.729913,1532.190996
1421.983950,7624.121203,-7031.956449,1838.629195
1421.984279,7105.977043,-7920.203579,1455.581446
1421.984608,6365.771101,-8068.244768,2451.505594
1421.984937,5329.482782,-8290.306550,995.924147
1421.985266,4145.153275,-5477.523971,153.219100
1421.985595,3849.070898,-6809.894666,-383.047749
1421.985924,4959.379811,-6957.935855,306.438199
1421.986253,6661.853478,-5847.626942,919.314598
1421.986582,7772.162391,-5921.647536,1302.362347
1421.986911,9474.636058,-6439.791695,2374.896044
1421.987240,8068.244768,-7402.059420,2298.286494
1421.987569,6809.894666,-6143.709319,1225.752797
1421.987898,5847.626942,-5477.523971,153.219100
1421.988227,6587.832884,-4959.379811,919.314598
1421.988556,8142.265362,-5625.565159,1685.410096
1421.988885,8956.491898,-5995.668130,2451.505594
1421.989214,8660.409521,-6217.729913,2298.286494
1421.989543,7624.121203,-7624.121203,1762.019645
1421.989872,6069.688724,-8216.285956,1302.362347
1421.990201,4367.215058,-7624.121203,536.266849
1421.990530,4219.173869,-8364.327145,0.000000
1421.990859,4293.194464,-7550.100608,0.000000
1421.991188,4737.318029,-8586.388927,76.609550
1421.991517,6439.791695,-6365.771101,383.047749
1421.991846,8586.388927,-5033.400406,1685.410096
1421.992175,9400.615463,-6365.771101,1991.848295
1421.992504,8512.368333,-6143.709319,2145.067394
1421.992833,7550.100608,-4663.297435,1378.971896
1421.993162,7105.977043,-4367.215058,0.000000
1421.993491,7994.224174,-4589.276840,612.876398
1421.993820,8956.491898,-5255.462188,2145.067394
1421.994149,9178.553681,-5255.462188,1685.410096
1421.994479,8660.409521,-5995.668130,1608.800546
1421.994808,7624.121203,-7624.121203,1685.410096
1421.995137,6365.771101,-8512.368333,689.485948
1421.995466,5033.400406,-6883.915261,-153.219100
1421.995795,3997.112087,-8364.327145,0.000000
1421.996124,4515.256246,-8438.347739,-229.828649
1421.996453,5107.421000,-8216.285956,612.876398
1421.996782,5995.668130,-6735.874072,459.657299
1421.997111,7105.977043,-5699.585753,995.924147
1421.997440,8512.368333,-6069.688724,842.705048
1421.997769,8438.347739,-6069.688724,995.924147
1421.998098,7550.100608,-5847.626942,1149.143247
1421.998427,7698.141797,-5181.441594,919.314598
1421.998756,8068.244768,-5921.647536,1072.533697
1421.999085,8586.388927,-5551.544565,1302.362347
1421.999414,8364.327145,-5551.544565,1149.143247
1421.999743,8142.265362,-7105.977043,1072.533697
1422.000072,7402.059420,-9178.553681,2604.724693
1422.000401,6735.874072,-8068.244768,1149.143247
1422.000730,5181.441594,-7179.997637,0.000000
1422.001059,3775.050304,-6513.812290,-229.828649
1422.001388,4589.276840,-6957.935855,-689.485948
1422.001717,6217.729913,-6291.750507,0.000000
1422.002046,7772.162391,-5107.421000,1378.971896
1422.002375,9030.512492,-4737.318029,995.924147
1422.002704,9622.677246,-5625.565159,1455.581446
1422.003033,8438.347739,-5551.544565,1225.752797
1422.003362,7328.038826,-5181.441594,153.219100
1422.003691,7698.141797,-5255.462188,766.095498
1422.004020,8734.430116,-5551.544565,1225.752797
1422.004349,9474.636058,-6143.709319,2298.286494
1422.004678,9400.615463,-5921.647536,2528.115143
1422.005007,8216.285956,-6735.874072,2374.896044
1422.005336,7328.038826,-8142.265362,2374.896044
1422.005665,5255.462188,-7846.182985,1378.971896
1422.005994,3923.091493,-6809.894666,-306.438199
1422.006323,3256.906145,-7179.997637,-306.438199
1422.006652,3849.070898,-7105.977043,306.438199
1422.006981,5477.523971,-7328.038826,0.000000
1422.007310,7328.038826,-6143.709319,536.266849
1422.007639,7254.018232,-6143.709319,459.657299
1422.007968,7698.141797,-7994.224174,1149.143247
1422.008297,7402.059420,-6809.894666,1378.971896
1422.008626,7105.977043,-6217.729913,459.657299
1422.008956,7476.080014,-5847.626942,842.705048
1422.009285,8216.285956,-6291.750507,1838.629195
1422.009614,8734.430116,-6883.915261,1455.581446
1422.009943,8512.368333,-6143.709319,2298.286494
1422.010272,8216.285956,-6809.894666,2374.896044
1422.010601,7179.997637,-7994.224174,2068.457845
1422.010930,5107.421000,-7031.956449,995.924147
1422.011259,3849.070898,-6513.812290,-76.609550
1422.011588,4515.256246,-6809.894666,-229.828649
1422.011917,5255.462188,-7550.100608,995.924147
1422.012246,5921.647536,-6957.935855,919.314598
1422.012575,7476.080014,-6217.729913,459.657299
1422.012904,7994.224174,-5995.668130,1149.143247
1422.013233,7550.100608,-7328.038826,1991.848295
1422.013563,7476.080014,-6735.874072,1608.800546
1422.013892,7698.141797,-4441.235652,2145.067394
1422.014221,8734.430116,-4145.153275,2451.505594
1422.014550,8882.471304,-3701.029710,2145.067394
1422.014879,9178.553681,-3330.926739,2068.457845
1422.015208,9770.718434,-4811.338623,2528.115143
1422.015538,9104.533087,-5921.647536,2298.286494
1422.015867,6661.853478,-6587.832884,1991.848295
1422.016196,4367.215058,-8068.244768,536.266849
1422.016525,3256.906145,-8438.347739,0.000000
1422.016854,3256.906145,-8956.491898,-153.219100
1422.017183,4589.276840,-8808.450710,459.657299
1422.017513,6291.750507,-7105.977043,536.266849
1422.017842,7772.162391,-5995.668130,919.314598
1422.018171,8142.265362,-6883.915261,1149.143247
1422.018500,7179.997637,-7402.059420,1378.971896
1422.018829,6957.935855,-5995.668130,306.438199
1422.019158,6735.874072,-5625.565159,0.000000
1422.019488,7772.162391,-6365.771101,1149.143247
1422.019817,8512.368333,-6365.771101,2451.505594
1422.020146,8882.471304,-5773.606348,2528.115143
1422.020475,8882.471304,-5773.606348,2068.457845
1422.020804,7846.182985,-7402.059420,2068.457845
1422.021133,6291.750507,-7624.121203,842.705048
1422.021463,4515.256246,-7328.038826,-383.047749
1422.021792,3256.906145,-8808.450710,-536.266849
1422.022121,3997.112087,-8364.327145,0.000000
1422.022450,5107.421000,-8882.471304,76.609550
1422.022779,6217.729913,-7402.059420,153.219100
1422.023108,7254.018232,-6809.894666,689.485948
1422.023438,7105.977043,-7328.038826,383.047749
1422.023767,7105.977043,-6661.853478,766.095498
1422.024096,6809.894666,-5255.462188,0.000000
1422.024425,7698.141797,-4737.318029,306.438199
1422.024754,8660.409521,-4441.235652,1378.971896
1422.025083,9622.677246,-5403.503377,1991.848295
1422.025413,10140.821405,-5033.400406,2145.067394
1422.025742,9622.677246,-5995.668130,2911.162892
1422.026071,8364.327145,-7179.997637,2298.286494
1422.026400,6587.832884,-7031.956449,1455.581446
1422.026729,4959.379811,-6587.832884,459.657299
1422.027058,4737.318029,-6883.915261,-383.047749
1422.027388,5403.503377,-7254.018232,995.924147
1422.027717,6809.894666,-7031.956449,1915.238745
1422.028046,6957.935855,-5699.585753,536.266849
1422.028375,7105.977043,-5625.565159,612.876398
1422.028704,7031.956449,-7476.080014,1149.143247
1422.029033,6809.894666,-6513.812290,536.266849
1422.029363,7031.956449,-5551.544565,383.047749
1422.029692,7550.100608,-4811.338623,459.657299
1422.030021,9178.553681,-4737.318029,1072.533697
1422.030350,9474.636058,-5107.421000,2145.067394
1422.030679,9844.739029,-6069.688724,2374.896044
1422.031008,9696.697840,-6735.874072,2374.896044
1422.031338,8290.306550,-7476.080014,1608.800546
1422.031667,6217.729913,-7846.182985,1149.143247
1422.031996,4737.318029,-7846.182985,229.828649
1422.032325,4663.297435,-7624.121203,-383.047749
1422.032654,4589.276840,-8438.347739,0.000000
1422.032983,5181.441594,-7846.182985,229.828649
1422.033313,5921.647536,-6513.812290,229.828649
1422.033642,6513.812290,-7328.038826,383.047749
1422.033971,6143.709319,-8290.306550,459.657299
1422.034300,5551.544565,-7846.182985,383.047749
1422.034629,5847.626942,-5625.565159,-76.609550
1422.034958,7402.059420,-6069.688724,459.657299
1422.035288,9400.615463,-5107.421000,1838.629195
1422.035617,9400.615463,-6439.791695,2374.896044
1422.035946,8882.471304,-5995.668130,2604.724693
1422.036275,8216.285956,-6883.915261,2451.505594
1422.036604,7476.080014,-7328.038826,1838.629195
1422.036933,5995.668130,-6291.750507,1072.533697
1422.037263,4219.173869,-6587.832884,0.000000
1422.037592,4737.318029,-7550.100608,459.657299
1422.037921,5625.565159,-7846.182985,919.314598
1422.038250,6069.688724,-6661.853478,459.657299
1422.038579,6513.812290,-5551.544565,229.828649
1422.038908,6661.853478,-6587.832884,689.485948
1422.039238,6883.915261,-7105.977043,1455.581446
1422.039567,6291.750507,-5921.647536,842.705048
1422.039896,7105.977043,-4811.338623,1455.581446
1422.040225,9252.574275,-3701.029710,1685.410096
1422.040554,10362.883188,-4515.256246,2681.334243
1422.040883,10066.800811,-4589.276840,2681.334243
1422.041213,9400.615463,-5551.544565,2604.724693
1422.041542,8438.347739,-5921.647536,2451.505594
1422.041871,7179.997637,-6883.915261,1838.629195
1422.042200,5847.626942,-7031.956449,1225.752797
1422.042529,5551.544565,-6661.853478,842.705048
1422.042858,5921.647536,-7846.182985,383.047749
1422.043188,5699.585753,-7624.121203,1915.238745
1422.043517,5995.668130,-6143.709319,536.266849
1422.043846,5773.606348,-5995.668130,229.828649
1422.044175,5995.668130,-5921.647536,0.000000
1422.044504,4885.359217,-9178.553681,153.219100
1422.044833,5403.503377,-7772.162391,153.219100
1422.045163,6069.688724,-6735.874072,1072.533697
1422.045492,7772.162391,-6069.688724,612.876398
1422.045821,8808.450710,-5181.441594,2604.724693
1422.046150,9548.656652,-5921.647536,2221.676944
1422.046479,9474.636058,-6661.853478,2145.067394
1422.046808,8808.450710,-6957.935855,2068.457845
1422.047138,7031.956449,-7402.059420,1225.752797
1422.047467,5181.441594,-6587.832884,536.266849
1422.047796,4885.359217,-6883.915261,0.000000
1422.048125,4959.379811,-8216.285956,842.705048
1422.048454,5551.544565,-8364.327145,995.924147
1422.048783,5847.626942,-6439.791695,766.095498
1422.049113,5921.647536,-5625.565159,0.000000
1422.049442,5699.585753,-7550.100608,0.000000
1422.049771,5773.606348,-7476.080014,0.000000
1422.050100,5847.626942,-7402.059420,0.000000
1422.050429,7402.059420,-6809.894666,383.047749
1422.050758,8956.491898,-6143.709319,1838.629195
1422.051088,9326.594869,-5477.523971,1991.848295
1422.051417,8882.471304,-5403.503377,1915.238745
1422.051746,8956.491898,-5995.668130,2298.286494
1422.052075,8068.244768,-6883.915261,1685.410096
1422.052404,6587.832884,-5995.668130,1762.019645
1422.052733,5995.668130,-5403.503377,919.314598
1422.053063,6513.812290,-6217.729913,459.657299
1422.053392,6661.853478,-6661.853478,2221.676944
1422.053721,6365.771101,-6587.832884,766.095498
1422.054050,6661.853478,-5033.400406,383.047749
1422.054379,6587.832884,-5107.421000,306.438199
1422.054708,7105.977043,-6957.935855,76.609550
1422.055038,7254.018232,-6883.915261,689.485948
1422.055367,6217.729913,-6735.874072,766.095498
1422.055696,7550.100608,-5255.462188,229.828649
1422.056025,8216.285956,-6069.688724,1225.752797
1422.056354,8734.430116,-5255.462188,1838.629195
1422.056683,9104.533087,-5699.585753,2298.286494
1422.057013,8734.430116,-6809.894666,2298.286494
1422.057342,7031.956449,-10362.883188,2145.067394
1422.057671,6069.688724,-4663.297435,229.828649
1422.058000,4441.235652,-7105.977043,919.314598
1422.058329,4885.359217,-7772.162391,76.609550
1422.058658,6883.915261,-4589.276840,1072.533697
1422.058988,7624.121203,-7846.182985,1762.019645
1422.059317,6883.915261,-5847.626942,-306.438199
1422.059646,6513.812290,-7105.977043,612.876398
1422.059975,7179.997637,-7772.162391,689.485948
1422.060304,6365.771101,-7254.018232,-459.657299
1422.060633,5921.647536,-7476.080014,842.705048
1422.060963,7179.997637,-6365.771101,612.876398
1422.061292,7698.141797,-6513.812290,383.047749
1422.061621,7698.141797,-6661.853478,1608.800546
1422.061950,7698.141797,-6587.832884,1072.533697
1422.062279,8734.430116,-7476.080014,2298.286494
1422.062608,7624.121203,-8068.244768,1762.019645
1422.062938,5403.503377,-7624.121203,766.095498
1422.063267,4589.276840,-6513.812290,-383.047749
1422.063596,5403.503377,-6587.832884,153.219100
1422.063925,6439.791695,-7402.059420,1225.752797
1422.064254,7772.162391,-5773.606348,1455.581446
1422.064583,7920.203579,-5773.606348,1455.581446
1422.064913,7105.977043,-6069.688724,919.314598
1422.065242,6809.894666,-6883.915261,1225.752797
1422.065571,6587.832884,-6809.894666,459.657299
1422.065900,6439.791695,-5699.585753,76.609550
1422.066229,7105.977043,-6069.688724,1149.143247
1422.066558,7624.121203,-7031.956449,1225.752797
1422.066888,7624.121203,-5995.668130,1378.971896
1422.067217,8216.285956,-6365.771101,2145.067394
1422.067546,8364.327145,-6587.832884,1915.238745
1422.067875,7179.997637,-7402.059420,1762.019645
1422.068204,5181.441594,-6513.812290,766.095498
1422.068533,4811.338623,-6291.750507,383.047749
1422.068863,5477.523971,-5921.647536,229.828649
1422.069192,7402.059420,-6217.729913,2145.067394
1422.069521,8956.491898,-5403.503377,1915.238745
1422.069850,8882.471304,-5181.441594,2221.676944
1422.070179,7476.080014,-5921.647536,1762.019645
1422.070508,6809.894666,-5477.523971,689.485948
1422.070838,5995.668130,-5255.462188,229.828649
1422.071167,6217.729913,-5773.606348,153.219100
1422.071496,7179.997637,-6291.750507,842.705048
1422.071825,7476.080014,-6957.935855,1915.238745
1422.072154,7328.038826,-7105.977043,2068.457845
1422.072483,7772.162391,-7402.059420,2374.896044
1422.072813,7624.121203,-7994.224174,2298.286494
1422.073142,5847.626942,-7624.121203,1225.752797
1422.073471,4367.215058,-7254.018232,306.438199
1422.073800,4737.318029,-7105.977043,0.000000
1422.074129,5699.585753,-7476.080014,766.095498
1422.074458,7105.977043,-7105.977043,2068.457845
1422.074788,7772.162391,-5847.626942,1225.752797
1422.075117,7476.080014,-5255.462188,689.485948
1422.075446,6513.812290,-6365.771101,1225.752797
1422.075775,6661.853478,-7031.956449,842.705048
1422.076104,6883.915261,-5625.565159,612.876398
1422.076433,6957.935855,-5255.462188,459.657299
1422.076763,7254.018232,-6291.750507,995.924147
1422.077092,7550.100608,-7328.038826,919.314598
1422.077421,8364.327145,-6883.915261,1762.019645
1422.077750,8660.409521,-8512.368333,1915.238745
1422.078079,7920.203579,-9252.574275,2528.115143
1422.078408,5773.606348,-7402.059420,842.705048
1422.078738,3627.009116,-7254.018232,-842.705048
1422.079067,3256.906145,-6587.832884,0.000000
1422.079396,5847.626942,-6217.729913,689.485948
1422.079725,8290.306550,-6143.709319,2068.457845
1422.080054,9178.553681,-3256.906145,2528.115143
1422.080383,8808.450710,-4515.256246,1225.752797
1422.080713,7550.100608,-4589.276840,1455.581446
1422.081042,6661.853478,-5847.626942,842.705048
1422.081371,7772.162391,-5477.523971,612.876398
1422.081700,8364.327145,-5255.462188,1378.971896
1422.082029,8808.450710,-6661.853478,1685.410096
1422.082358,8290.306550,-6513.812290,1072.533697
1422.082688,7846.182985,-7698.141797,1455.581446
1422.083017,7772.162391,-8586.388927,1762.019645
1422.083346,6513.812290,-9326.594869,1455.581446
1422.083675,5181.441594,-8216.285956,612.876398
1422.084004,3552.988522,-6661.853478,-919.314598
1422.084333,4145.153275,-6957.935855,-383.047749
1422.084663,6069.688724,-7031.956449,1225.752797
1422.084992,8142.265362,-5107.421000,1532.190996
1422.085321,8216.285956,-5033.400406,1608.800546
1422.085650,7550.100608,-5477.523971,1225.752797
1422.085979,7031.956449,-5773.606348,766.095498
1422.086308,6587.832884,-6143.709319,0.000000
1422.086638,6883.915261,-6883.915261,383.047749
1422.086967,8068.244768,-6809.894666,1838.629195
1422.087296,9104.533087,-6587.832884,1762.019645
1422.087625,8364.327145,-6957.935855,1532.190996
1422.087954,7105.977043,-7179.997637,1149.143247
1422.088283,6291.750507,-8216.285956,689.485948
1422.088613,4737.318029,-9178.553681,459.657299
1422.088942,3182.885551,-8068.244768,-229.828649
1422.089271,3997.112087,-7328.038826,-536.266849
1422.089600,5921.647536,-6883.915261,689.485948
1422.089929,7328.038826,-7031.956449,1762.019645
1422.090258,7698.141797,-5477.523971,1762.019645
1422.090588,8734.430116,-3923.091493,1149.143247
1422.090917,8512.368333,-4145.153275,1455.581446
1422.091246,8142.265362,-4811.338623,2298.286494
1422.091575,8290.306550,-5329.482782,1072.533697
1422.091904,8216.285956,-5033.400406,1072.533697
1422.092233,8290.306550,-6291.750507,1915.238745
1422.092563,8512.368333,-6291.750507,1915.238745
1422.092892,7846.182985,-6291.750507,1838.629195
1422.093221,6513.812290,-7402.059420,1838.629195
1422.093550,6365.771101,-8882.471304,1838.629195
1422.093879,4737.318029,-8216.285956,153.219100
1422.094208,3182.885551,-7031.956449,0.000000
1422.094538,3552.988522,-8142.265362,-689.485948
1422.094867,5403.503377,-6883.915261,459.657299
1422.095196,6661.853478,-7254.018232,1455.581446
1422.095525,7624.121203,-6069.688724,1838.629195
1422.095854,8882.471304,-4071.132681,1455.581446
1422.096183,9252.574275,-5699.585753,1608.800546
1422.096513,8660.409521,-5551.544565,2145.067394
1422.096842,8290.306550,-4219.173869,1455.581446
1422.097171,8142.265362,-5477.523971,1608.800546
1422.097500,7402.059420,-5181.441594,1378.971896
1422.097829,7254.018232,-7179.997637,919.314598
1422.098158,6957.935855,-7105.977043,1302.362347
1422.098488,6883.915261,-8216.285956,1608.800546
1422.098817,6513.812290,-10066.800811,1302.362347
1422.099146,5181.441594,-8734.430116,919.314598
1422.099475,3849.070898,-8142.265362,-306.438199
1422.099804,3552.988522,-7328.038826,-766.095498
1422.100133,4663.297435,-7994.224174,153.219100
1422.100463,6883.915261,-7179.997637,919.314598
1422.100792,8290.306550,-4885.359217,1302.362347
1422.101121,8586.388927,-4441.235652,1762.019645
1422.101450,9178.553681,-4959.379811,2298.286494
1422.101779,9326.594869,-4737.318029,1685.410096
1422.102108,8734.430116,-3404.947333,1608.800546
1422.102438,8216.285956,-4811.338623,1302.362347
1422.102767,8882.471304,-5033.400406,2221.676944
1422.103096,8216.285956,-6735.874072,1915.238745
1422.103425,6809.894666,-8734.430116,1378.971896
1422.103754,4811.338623,-8734.430116,995.924147
1422.104083,4663.297435,-9992.780217,306.438199
1422.104413,4071.132681,-9474.636058,153.219100
1422.104742,4145.153275,-7402.059420,612.876398
1422.105071,5255.462188,-7994.224174,0.000000
1422.105400,6735.874072,-6661.853478,995.924147
1422.105729,7698.141797,-5625.565159,1915.238745
1422.106058,9104.533087,-3997.112087,1225.752797
1422.106388,9844.739029,-3627.009116,2221.676944
1422.106717,9326.594869,-4663.297435,1991.848295
1422.107046,8808.450710,-4515.256246,1532.190996
1422.107375,8438.347739,-5033.400406,995.924147
1422.107704,7994.224174,-5699.585753,1378.971896
1422.108033,7550.100608,-6661.853478,1072.533697
1422.108362,7550.100608,-7328.038826,1072.533697
1422.108691,6513.812290,-7994.224174,1072.533697
1422.109020,5329.482782,-9770.718434,995.924147
1422.109349,4367.215058,-9622.677246,1149.143247
1422.109678,3997.112087,-7994.224174,-612.876398
1422.110007,3627.009116,-7698.141797,-766.095498
1422.110337,4885.359217,-7772.162391,229.828649
1422.110666,6291.750507,-7328.038826,1072.533697
1422.110995,7624.121203,-5033.400406,1762.019645
1422.111324,9178.553681,-3330.926739,1608.800546
1422.111653,10214.842000,-3404.947333,1149.143247
1422.111982,9548.656652,-3997.112087,1915.238745
1422.112311,7920.203579,-4441.235652,689.485948
1422.112640,7994.224174,-5403.503377,536.266849
1422.112969,8364.327145,-5921.647536,919.314598
1422.113298,8808.450710,-7031.956449,1225.752797
1422.113627,8068.244768,-7846.182985,1455.581446
1422.113956,7179.997637,-8364.327145,2145.067394
1422.114285,6587.832884,-9474.636058,1072.533697
1422.114614,5477.523971,-9252.574275,1302.362347
1422.114943,4293.194464,-8142.265362,0.000000
1422.115272,3552.988522,-7179.997637,-612.876398
1422.115601,4367.215058,-7772.162391,0.000000
1422.115930,5255.462188,-6365.771101,612.876398
1422.116259,6883.915261,-6513.812290,995.924147
1422.116588,8586.388927,-5181.441594,1838.629195
1422.116917,8882.471304,-4515.256246,919.314598
1422.117246,8290.306550,-5181.441594,919.314598
1422.117576,7920.203579,-5625.565159,995.924147
1422.117905,8808.450710,-5625.565159,1302.362347
1422.118234,9844.739029,-4589.276840,1532.190996
1422.118563,9992.780217,-5255.462188,2987.772442
1422.118892,9696.697840,-5699.585753,1685.410096
1422.119221,7772.162391,-7179.997637,1685.410096
1422.119550,6069.688724,-9326.594869,1608.800546
1422.119879,4663.297435,-9104.533087,1149.143247
1422.120208,3330.926739,-7105.977043,-383.047749
1422.120537,2590.720797,-7402.059420,-306.438199
1422.120866,3849.070898,-8068.244768,383.047749
1422.121195,6143.709319,-7698.141797,1072.533697
1422.121524,7254.018232,-5107.421000,1072.533697
1422.121853,7994.224174,-4293.194464,1378.971896
1422.122182,9252.574275,-4441.235652,1608.800546
1422.122511,8956.491898,-5107.421000,1608.800546
1422.122840,7772.162391,-5773.606348,995.924147
1422.123169,8512.368333,-5329.482782,1608.800546
1422.123498,9030.512492,-6069.688724,2221.676944
1422.123827,8586.388927,-6661.853478,2068.457845
1422.124156,7476.080014,-6661.853478,2068.457845
1422.124485,6143.709319,-7772.162391,1915.238745
1422.124814,5181.441594,-8956.491898,1225.752797
1422.125144,3552.988522,-8586.388927,536.266849
1422.125473,2960.823768,-7254.018232,-536.266849
1422.125802,3627.009116,-7920.203579,-229.828649
1422.126131,4959.379811,-8586.388927,612.876398
1422.126460,6143.709319,-7994.224174,1149.143247
1422.126789,7105.977043,-5921.647536,1225.752797
1422.127118,8660.409521,-3997.112087,229.828649
1422.127447,8808.450710,-4959.379811,1225.752797
1422.127776,8956.491898,-5255.462188,1225.752797
1422.128105,8660.409521,-5699.585753,612.876398
1422.128434,8586.388927,-5551.544565,1225.752797
1422.128763,8734.430116,-6513.812290,1915.238745
1422.129092,8586.388927,-5921.647536,1608.800546
1422.129421,7402.059420,-7105.977043,1838.629195
1422.129750,6439.791695,-8068.244768,2298.286494
1422.130079,5995.668130,-8438.347739,1225.752797
1422.130408,5033.400406,-7105.977043,612.876398
1422.130737,3923.091493,-6587.832884,0.000000
1422.131066,4515.256246,-6439.791695,-229.828649
1422.131395,5551.544565,-7476.080014,842.705048
1422.131724,6735.874072,-6439.791695,1608.800546
1422.132053,8364.327145,-4589.276840,612.876398
1422.132383,9030.512492,-4441.235652,1302.362347
1422.132712,8882.471304,-5995.668130,1762.019645
1422.133041,8216.285956,-6513.812290,1302.362347
1422.133370,7772.162391,-5255.462188,1149.143247
1422.133699,8142.265362,-4959.379811,536.266849
1422.134028,8512.368333,-6069.688724,1378.971896
1422.134357,8068.244768,-6291.750507,1838.629195
1422.134686,7550.100608,-7402.059420,1685.410096
1422.135015,7328.038826,-7772.162391,2221.676944
1422.135344,7105.977043,-8142.265362,995.924147
1422.135673,4959.379811,-6957.935855,229.828649
1422.136002,3552.988522,-7031.956449,-536.266849
1422.136331,4145.153275,-6957.935855,0.000000
1422.136660,4737.318029,-7105.977043,0.000000
1422.136989,5773.606348,-7179.997637,689.485948
1422.137318,7476.080014,-5699.585753,1072.533697
1422.137647,7772.162391,-7031.956449,689.485948
1422.137976,6587.832884,-5625.565159,76.609550
1422.138305,6661.853478,-7624.121203,1532.190996
1422.138634,7846.182985,-7031.956449,612.876398
1422.138963,9178.553681,-3923.091493,2068.457845
1422.139292,9178.553681,-6513.812290,2911.162892
1422.139621,9326.594869,-5181.441594,2374.896044
1422.139951,7846.182985,-5847.626942,1455.581446
1422.140280,6143.709319,-8290.306550,1149.143247
1422.140609,5477.523971,-7105.977043,1455.581446
1422.140938,5255.462188,-7179.997637,76.609550
1422.141267,5847.626942,-6735.874072,-306.438199
1422.141596,5699.585753,-7254.018232,689.485948
1422.141925,6217.729913,-8142.265362,766.095498
1422.142254,6365.771101,-6661.853478,76.609550
1422.142583,6661.853478,-4737.318029,-229.828649
1422.142912,7254.018232,-5995.668130,689.485948
1422.143241,8290.306550,-7476.080014,612.876398
1422.143570,8512.368333,-5847.626942,1915.238745
1422.143899,8956.491898,-5847.626942,1991.848295
1422.144228,9918.759623,-5625.565159,1608.800546
1422.144557,8586.388927,-4737.318029,2221.676944
1422.144886,7105.977043,-5625.565159,1302.362347
1422.145215,7105.977043,-5403.503377,2374.896044
1422.145544,7031.956449,-7476.080014,1532.190996
1422.145873,6217.729913,-7328.038826,1302.362347
1422.146202,5329.482782,-6217.729913,995.924147
1422.146531,5477.523971,-7994.224174,0.000000
1422.146860,5255.462188,-7698.141797,306.438199
1422.147190,4663.297435,-8216.285956,1302.362347
1422.147519,6069.688724,-6661.853478,0.000000
1422.147848,7105.977043,-5699.585753,306.438199
1422.148177,7105.977043,-8216.285956,1072.533697
1422.148506,7402.059420,-7031.956449,1072.533697
1422.148835,6809.894666,-6587.832884,383.047749
1422.149164,6365.771101,-5773.606348,766.095498
1422.149493,7402.059420,-6439.791695,1455.581446
1422.149822,8512.368333,-4737.318029,1608.800546
1422.150151,7994.224174,-6217.729913,2068.457845
1422.150480,7624.121203,-7179.997637,2145.067394
1422.150809,7105.977043,-7920.203579,1838.629195
1422.151138,5847.626942,-8216.285956,995.924147
1422.151467,4441.235652,-7105.977043,-229.828649
1422.151796,4737.318029,-7402.059420,0.000000
1422.152125,6439.791695,-9104.533087,1302.362347
1422.152454,7105.977043,-7550.100608,1455.581446
1422.152783,6291.750507,-6291.750507,766.095498
1422.153112,7031.956449,-4145.153275,0.000000
1422.153441,6883.915261,-5921.647536,842.705048
1422.153770,7105.977043,-6587.832884,842.705048
1422.154099,6883.915261,-6217.729913,1225.752797
1422.154429,7772.162391,-4885.359217,1608.800546
1422.154758,8808.450710,-5329.482782,1532.190996
1422.155087,8216.285956,-5995.668130,2528.115143
1422.155416,7846.182985,-5403.503377,1838.629195
1422.155745,7846.182985,-7105.977043,1149.143247
1422.156074,7476.080014,-8068.244768,2221.676944
1422.156403,7328.038826,-7402.059420,1608.800546
1422.156732,5773.606348,-7254.018232,689.485948
1422.157061,5329.482782,-7698.141797,229.828649
1422.157390,5255.462188,-7698.141797,306.438199
1422.157719,5477.523971,-7179.997637,612.876398
1422.158048,5921.647536,-6069.688724,459.657299
1422.158377,7105.977043,-6291.750507,1302.362347
1422.158706,8142.265362,-5995.668130,1302.362347
1422.159035,6661.853478,-5403.503377,306.438199
1422.159364,5551.544565,-4811.338623,459.657299
1422.159693,7476.080014,-4589.276840,919.314598
1422.160022,7994.224174,-5847.626942,1072.533697
1422.160351,7920.203579,-5847.626942,1915.238745
1422.160680,8142.265362,-5995.668130,1762.019645
1422.161009,9252.574275,-7328.038826,2681.334243
1422.161338,8808.450710,-7402.059420,2528.115143
1422.161667,6957.935855,-6587.832884,1378.971896
1422.161997,5921.647536,-6513.812290,612.876398
1422.162326,5181.441594,-7550.100608,766.095498
1422.162655,5625.565159,-7624.121203,919.314598
1422.162984,5551.544565,-6883.915261,383.047749
1422.163313,5773.606348,-5995.668130,383.047749
1422.163642,6735.874072,-5995.668130,383.047749
1422.163971,5995.668130,-6587.832884,383.047749
1422.164300,6365.771101,-6217.729913,383.047749
1422.164629,7105.977043,-5403.503377,459.657299
1422.164958,7920.203579,-6809.894666,1072.533697
1422.165287,8290.306550,-6217.729913,1532.190996
1422.165616,9104.533087,-6883.915261,1838.629195
1422.165945,8808.450710,-7179.997637,1762.019645
1422.166274,7920.203579,-7846.182985,2528.115143
1422.166603,7328.038826,-8068.244768,2068.457845
1422.166932,5329.482782,-7254.018232,459.657299
1422.167261,2960.823768,-7550.100608,76.609550
1422.167590,4737.318029,-7920.203579,1225.752797
1422.167919,6513.812290,-7105.977043,1608.800546
1422.168248,7328.038826,-4441.235652,1225.752797
1422.168577,7105.977043,-3552.988522,306.438199
1422.168906,7698.141797,-5107.421000,306.438199
1422.169236,7624.121203,-5921.647536,1149.143247
1422.169565,7179.997637,-5699.585753,689.485948
1422.169894,7624.121203,-5181.441594,995.924147
1422.170223,7772.162391,-6069.688724,1225.752797
1422.170552,6735.874072,-8142.265362,1378.971896
1422.170881,6439.791695,-7105.977043,919.314598
1422.171210,6883.915261,-8068.244768,1915.238745
1422.171539,7994.224174,-7550.100608,2221.676944
1422.171868,8364.327145,-6365.771101,2145.067394
1422.172197,7105.977043,-5847.626942,1915.238745
1422.172526,6513.812290,-5773.606348,842.705048
1422.172855,6143.709319,-6735.874072,1378.971896
1422.173184,6809.894666,-5921.647536,1149.143247
1422.173513,7328.038826,-5255.462188,842.705048
1422.173842,7920.203579,-5699.585753,612.876398
1422.174171,7254.018232,-6587.832884,919.314598
1422.174500,5995.668130,-7105.977043,306.438199
1422.174829,5625.565159,-6883.915261,76.609550
1422.175158,6217.729913,-6365.771101,0.000000
1422.175487,6513.812290,-7550.100608,842.705048
1422.175816,7031.956449,-7105.977043,1225.752797
1422.176145,6661.853478,-7994.224174,1072.533697
1422.176474,6809.894666,-8882.471304,1762.019645
1422.176804,7179.997637,-7920.203579,2221.676944
1422.177133,7105.977043,-6365.771101,1149.143247
1422.177462,6217.729913,-6069.688724,536.266849
1422.177791,5847.626942,-7328.038826,842.705048
1422.178120,7105.977043,-6957.935855,1072.533697
1422.178449,7328.038826,-5477.523971,1072.533697
1422.178778,7179.997637,-5107.421000,0.000000
1422.179107,7550.100608,-5625.565159,536.266849
1422.179436,7031.956449,-6291.750507,0.000000
1422.179765,6291.750507,-6883.915261,0.000000
1422.180094,6735.874072,-6661.853478,459.657299
1422.180423,7550.100608,-5847.626942,1302.362347
1422.180752,7772.162391,-6735.874072,612.876398
1422.181081,7772.162391,-7031.956449,1225.752797
1422.181410,7772.162391,-7031.956449,1762.019645
1422.181739,7698.141797,-7402.059420,1762.019645
1422.182068,7624.121203,-7105.977043,2221.676944
1422.182397,7105.977043,-5551.544565,1225.752797
1422.182726,7476.080014,-5699.585753,995.924147
1422.183055,7402.059420,-5995.668130,1762.019645
1422.183384,7254.018232,-6883.915261,2068.457845
1422.183713,6809.894666,-5699.585753,919.314598
1422.184043,6661.853478,-4663.297435,-229.828649
1422.184372,5847.626942,-6217.729913,0.000000
1422.184701,5773.606348,-6809.894666,383.047749
1422.185030,6291.750507,-7476.080014,766.095498
1422.185359,7105.977043,-6587.832884,0.000000
1422.185688,7402.059420,-6291.750507,1072.533697
1422.186017,7846.182985,-6883.915261,919.314598
1422.186346,7994.224174,-6587.832884,919.314598
1422.186675,7920.203579,-6587.832884,1608.800546
1422.187004,8142.265362,-7772.162391,2451.505594
1422.187333,7920.203579,-6883.915261,1685.410096
1422.187662,6809.894666,-5921.647536,1302.362347
1422.187991,6513.812290,-5403.503377,919.314598
1422.188320,7105.977043,-5699.585753,842.705048
1422.188649,7105.977043,-6513.812290,1915.238745
1422.188978,7031.956449,-4663.297435,995.924147
1422.189307,7105.977043,-4737.318029,766.095498
1422.189636,6809.894666,-6217.729913,612.876398
1422.189965,5551.544565,-7550.100608,306.438199
1422.190294,4811.338623,-7328.038826,-153.219100
1422.190623,5403.503377,-7550.100608,0.000000
1422.190952,6587.832884,-8364.327145,1838.629195
1422.191282,7624.121203,-8068.244768,2298.286494
1422.191611,8586.388927,-6587.832884,1532.190996
1422.191940,8512.368333,-7254.018232,2145.067394
1422.192269,8438.347739,-7402.059420,2374.896044
1422.192598,7402.059420,-7846.182985,2374.896044
1422.192927,5625.565159,-5699.585753,612.876398
1422.193256,5181.441594,-5995.668130,-306.438199
1422.193585,6291.750507,-7402.059420,919.314598
1422.193914,8216.285956,-6217.729913,1608.800546
1422.194243,8068.244768,-6069.688724,1532.190996
1422.194572,7402.059420,-4737.318029,766.095498
1422.194901,6143.709319,-6069.688724,842.705048
1422.195230,5921.647536,-5995.668130,0.000000
1422.195559,5477.523971,-6661.853478,0.000000
1422.195888,5773.606348,-7328.038826,766.095498
1422.196217,7179.997637,-7550.100608,1685.410096
1422.196546,7920.203579,-6217.729913,2221.676944
1422.196875,8290.306550,-6143.709319,1685.410096
1422.197204,8512.368333,-6069.688724,2145.067394
1422.197533,8512.368333,-6735.874072,2604.724693
1422.197862,7402.059420,-6587.832884,1455.581446
1422.198191,6143.709319,-5181.441594,612.876398
1422.198520,5699.585753,-5477.523971,536.266849
1422.198850,7031.956449,-6143.709319,1455.581446
1422.199179,7328.038826,-5921.647536,1608.800546
1422.199508,6735.874072,-4737.318029,842.705048
1422.199837,6513.812290,-6069.688724,689.485948
1422.200166,7031.956449,-7624.121203,766.095498
1422.200495,5773.606348,-6883.915261,229.828649
1422.200824,6069.688724,-6661.853478,76.609550
1422.201153,7105.977043,-6513.812290,919.314598
1422.201482,7402.059420,-7402.059420,1532.190996
1422.201811,8216.285956,-7846.182985,1455.581446
1422.202140,8660.409521,-6439.791695,1685.410096
1422.202469,8808.450710,-7476.080014,1608.800546
1422.202798,7624.121203,-9178.553681,1991.848295
1422.203127,5403.503377,-7402.059420,919.314598
1422.203456,4589.276840,-7179.997637,-459.657299
1422.203785,5181.441594,-7846.182985,306.438199
1422.204114,6365.771101,-7402.059420,1608.800546
1422.204443,7105.977043,-6143.709319,1072.533697
1422.204772,6957.935855,-5107.421000,1149.143247
1422.205101,7254.018232,-5699.585753,1149.143247
1422.205430,6143.709319,-7254.018232,536.266849
1422.205759,5551.544565,-6809.894666,919.314598
1422.206089,5847.626942,-6143.709319,-383.047749
1422.206418,7550.100608,-6291.750507,766.095498
1422.206747,8882.471304,-6587.832884,1608.800546
1422.207076,9326.594869,-6661.853478,1991.848295
1422.207405,9326.594869,-6291.750507,1685.410096
1422.207734,8734.430116,-7328.038826,2145.067394
1422.208063,6735.874072,-7254.018232,842.705048
1422.208392,4663.297435,-6513.812290,0.000000
1422.208721,4663.297435,-6365.771101,76.609550
1422.209051,5847.626942,-6291.750507,153.219100
1422.209380,7179.997637,-5699.585753,1302.362347
1422.209709,7994.224174,-3552.988522,1685.410096
1422.210038,8882.471304,-3775.050304,1608.800546
1422.210367,8660.409521,-5329.482782,1608.800546
1422.210696,7254.018232,-5995.668130,842.705048
1422.211025,6587.832884,-5255.462188,0.000000
1422.211354,7254.018232,-5477.523971,229.828649
1422.211684,8216.285956,-6661.853478,1149.143247
1422.212013,8586.388927,-7402.059420,1991.848295
1422.212342,8660.409521,-6217.729913,1532.190996
1422.212671,7402.059420,-7402.059420,842.705048
1422.213000,6143.709319,-9104.533087,1762.019645
1422.213329,4589.276840,-9400.615463,536.266849
1422.213658,3775.050304,-8216.285956,-689.485948
1422.213987,3478.967927,-7328.038826,0.000000
1422.214316,5033.400406,-7254.018232,459.657299
1422.214646,7846.182985,-6735.874072,1455.581446
1422.214975,9104.533087,-4959.379811,1991.848295
1422.215304,9474.636058,-4959.379811,2068.457845
1422.215633,9104.533087,-5477.523971,1762.019645
1422.215962,7179.997637,-5921.647536,306.438199
1422.216291,5847.626942,-6217.729913,-306.438199
1422.216620,6365.771101,-6587.832884,76.609550
1422.216949,7105.977043,-7550.100608,1608.800546
1422.217279,7105.977043,-6883.915261,995.924147
1422.217608,7105.977043,-7328.038826,2068.457845
1422.217937,6957.935855,-7402.059420,766.095498
1422.218266,6439.791695,-9178.553681,1685.410096
1422.218595,5255.462188,-8512.368333,1302.362347
1422.218924,4737.318029,-6587.832884,0.000000
1422.219253,4885.359217,-6513.812290,0.000000
1422.219582,6513.812290,-6291.750507,2145.067394
1422.219911,7994.224174,-6217.729913,1838.629195
1422.220241,8956.491898,-3701.029710,1378.971896
1422.220570,8290.306550,-3849.070898,1608.800546
1422.220899,8142.265362,-5921.647536,1455.581446
1422.221228,8142.265362,-5699.585753,1225.752797
1422.221557,6513.812290,-5477.523971,919.314598
1422.221886,6735.874072,-6291.750507,612.876398
1422.222215,8068.244768,-6143.709319,1455.581446
1422.222544,7920.203579,-7105.977043,1608.800546
1422.222874,7550.100608,-7476.080014,2528.115143
1422.223203,8142.265362,-7772.162391,1838.629195
1422.223532,6513.812290,-8438.347739,995.924147
1422.223861,3997.112087,-8290.306550,76.609550
1422.224190,3256.906145,-6883.915261,-612.876398
1422.224519,5033.400406,-6587.832884,0.000000
1422.224848,7402.059420,-8290.306550,2145.067394
1422.225177,8216.285956,-5477.523971,2068.457845
1422.225506,7994.224174,-3404.947333,1302.362347
1422.225836,8364.327145,-3923.091493,536.266849
1422.226165,8068.244768,-5403.503377,1762.019645
1422.226494,7105.977043,-5847.626942,536.266849
1422.226823,6883.915261,-5477.523971,689.485948
1422.227152,7698.141797,-5477.523971,766.095498
1422.227481,8216.285956,-7772.162391,1762.019645
1422.227810,7994.224174,-7105.977043,2298.286494
1422.228139,7179.997637,-8290.306550,1302.362347
1422.228469,6587.832884,-8364.327145,1838.629195
1422.228798,5107.421000,-8734.430116,842.705048
1422.229127,3997.112087,-8290.306550,229.828649
1422.229456,3775.050304,-6957.935855,-306.438199
1422.229785,4811.338623,-6809.894666,229.828649
1422.230114,6587.832884,-7179.997637,1225.752797
1422.230443,7846.182985,-4515.256246,1762.019645
1422.230772,9104.533087,-3997.112087,1225.752797
1422.231101,9696.697840,-5255.462188,1608.800546
1422.231431,8734.430116,-6143.709319,1378.971896
1422.231760,7254.018232,-6439.791695,1149.143247
1422.232089,7179.997637,-5255.462188,76.609550
1422.232418,7105.977043,-6883.915261,919.314598
1422.232747,7624.121203,-7698.141797,1455.581446
1422.233076,7105.977043,-7920.203579,1302.362347
1422.233405,6513.812290,-8586.388927,1532.190996
1422.233734,6069.688724,-8956.491898,1608.800546
1422.234064,4737.318029,-9252.574275,995.924147
1422.234393,3478.967927,-6883.915261,0.000000
1422.234722,3330.926739,-6291.750507,-689.485948
1422.235051,5625.565159,-6143.709319,0.000000
1422.235380,7772.162391,-5699.585753,1149.143247
1422.235709,9326.594869,-4663.297435,2221.676944
1422.236038,10140.821405,-3330.926739,2068.457845
1422.236367,9918.759623,-4663.297435,1225.752797
1422.236696,9252.574275,-5107.421000,1762.019645
1422.237026,8586.388927,-5033.400406,1149.143247
1422.237355,7328.038826,-5403.503377,0.000000
1422.237684,6587.832884,-6809.894666,842.705048
1422.238013,7105.977043,-5921.647536,1302.362347
1422.238342,8438.347739,-6365.771101,1149.143247
1422.238671,7476.080014,-7772.162391,2374.896044
1422.239000,6513.812290,-8216.285956,2298.286494
1422.239329,5181.441594,-7772.162391,-536.266849
1422.239659,3182.885551,-7179.997637,-842.705048
1422.239988,3404.947333,-6809.894666,-383.047749
1422.240317,6661.853478,-7105.977043,536.266849
1422.240646,7254.018232,-7105.977043,1915.238745
1422.240975,7550.100608,-6217.729913,2145.067394
1422.241304,8438.347739,-4959.379811,995.924147
1422.241633,8586.388927,-5107.421000,2068.457845
1422.241962,7402.059420,-5551.544565,995.924147
1422.242291,7105.977043,-5995.668130,229.828649
1422.242621,7105.977043,-5477.523971,383.047749
1422.242950,6661.853478,-6883.915261,612.876398
1422.243279,7179.997637,-7254.018232,1378.971896
1422.243608,7772.162391,-7846.182985,1149.143247
1422.243937,7624.121203,-8956.491898,1532.190996
1422.244266,6143.709319,-9326.594869,766.095498
1422.244595,4219.173869,-8290.306550,153.219100
1422.244924,4663.297435,-7179.997637,-383.047749
1422.245254,5181.441594,-7179.997637,-229.828649
1422.245583,5995.668130,-7476.080014,1072.533697
1422.245912,7105.977043,-5847.626942,1455.581446
1422.246241,8068.244768,-6957.935855,1838.629195
1422.246570,8882.471304,-4737.318029,919.314598
1422.246899,7105.977043,-5551.544565,1455.581446
1422.247228,7254.018232,-5847.626942,995.924147
1422.247557,7179.997637,-5403.503377,842.705048
1422.247886,6439.791695,-7920.203579,1302.362347
1422.248216,6735.874072,-7254.018232,1762.019645
1422.248545,7328.038826,-8586.388927,1455.581446
1422.248874,6143.709319,-8808.450710,1072.533697
1422.249203,5477.523971,-8290.306550,1455.581446
1422.249532,5329.482782,-11769.274478,1149.143247
1422.249861,4219.173869,-8068.244768,-229.828649
1422.250190,2368.659014,-7846.182985,-612.876398
1422.250519,3404.947333,-9252.574275,-612.876398
1422.250849,4737.318029,-7328.038826,383.047749
1422.251178,5995.668130,-8586.388927,1225.752797
1422.251507,7772.162391,-6439.791695,2681.334243
1422.251836,8808.450710,-4737.318029,2604.724693
1422.252165,8586.388927,-4959.379811,2681.334243
1422.252494,7624.121203,-3997.112087,2221.676944
1422.252823,7105.977043,-4959.379811,1455.581446
1422.253152,6661.853478,-4663.297435,229.828649
1422.253481,5625.565159,-7402.059420,1378.971896
1422.253811,6513.812290,-7994.224174,1455.581446
1422.254140,7105.977043,-8068.244768,995.924147
1422.254469,6365.771101,-10510.924376,3140.991542
1422.254798,5551.544565,-11177.109724,1685.410096
1422.255127,3923.091493,-10066.800811,383.047749
1422.255456,1110.308913,-9030.512492,-536.266849
1422.255785,370.102971,-9992.780217,-1072.533697
1422.256114,1702.473667,-10214.842000,995.924147
1422.256444,3182.885551,-10362.883188,2145.067394
1422.256773,4737.318029,-8808.450710,1532.190996
1422.257102,6291.750507,-5255.462188,1302.362347
1422.257431,6809.894666,-6957.935855,2604.724693
1422.257760,8068.244768,-6291.750507,2451.505594
1422.258089,6217.729913,-6439.791695,2374.896044
1422.258418,3923.091493,-7624.121203,689.485948
1422.258747,3775.050304,-9326.594869,0.000000
1422.259076,3923.091493,-10436.903782,383.047749
1422.259406,3775.050304,-13545.768739,1302.362347
1422.259735,4737.318029,-12361.439231,1685.410096
1422.260064,5181.441594,-9400.615463,536.266849
1422.260393,5255.462188,-8956.491898,842.705048
1422.260722,5551.544565,-8364.327145,1608.800546
1422.261051,4515.256246,-7994.224174,919.314598
1422.261380,2738.761985,-7846.182985,0.000000
1422.261709,2738.761985,-8586.388927,383.047749
1422.262039,5033.400406,-9252.574275,2451.505594
1422.262368,6661.853478,-8660.409521,2834.553343
1422.262697,6735.874072,-6957.935855,1915.238745
1422.263026,7105.977043,-5403.503377,919.314598
1422.263355,7105.977043,-7105.977043,995.924147
1422.263684,5773.606348,-8586.388927,1608.800546
1422.264013,3923.091493,-9548.656652,1149.143247
1422.264342,3404.947333,-8808.450710,-383.047749
1422.264671,2664.741391,-9844.739029,-995.924147
1422.265001,3256.906145,-12287.418637,1378.971896
1422.265330,5477.523971,-11621.233289,3140.991542
1422.265659,5995.668130,-7846.182985,1455.581446
1422.265988,5033.400406,-5477.523971,0.000000
1422.266317,4367.215058,-5625.565159,-766.095498
1422.266646,5625.565159,-7476.080014,766.095498
1422.266975,6513.812290,-9548.656652,1532.190996
1422.267304,6661.853478,-7920.203579,2145.067394
1422.267634,5625.565159,-7179.997637,612.876398
1422.267963,4959.379811,-7476.080014,689.485948
1422.268292,4737.318029,-8882.471304,1455.581446
1422.268621,5107.421000,-9844.739029,1072.533697
1422.268950,5255.462188,-8586.388927,919.314598
1422.269279,4811.338623,-7402.059420,1378.971896
1422.269608,5255.462188,-6365.771101,1225.752797
1422.269937,6587.832884,-5033.400406,1072.533697
1422.270266,6365.771101,-5329.482782,689.485948
1422.270596,5625.565159,-7698.141797,689.485948
1422.270925,5255.462188,-8660.409521,2451.505594
1422.271254,5699.585753,-9030.512492,1302.362347
1422.271583,4663.297435,-9696.697840,0.000000
1422.271912,2664.741391,-10510.924376,-536.266849
1422.272241,2072.576638,-13619.789333,-612.876398
1422.272570,2664.741391,-13989.892304,766.095498
1422.272899,3552.988522,-13027.624579,1225.752797
1422.273229,4663.297435,-10140.821405,459.657299
1422.273558,4663.297435,-7476.080014,612.876398
1422.273887,4145.153275,-7105.977043,1378.971896
1422.274216,5625.565159,-6069.688724,1608.800546
1422.274545,7402.059420,-4071.132681,2451.505594
1422.274874,7994.224174,-3256.906145,2528.115143
1422.275203,7254.018232,-4811.338623,2221.676944
1422.275532,5625.565159,-7698.141797,2374.896044
1422.275861,4589.276840,-11177.109724,1149.143247
1422.276191,2812.782580,-11399.171507,0.000000
1422.276520,2072.576638,-11399.171507,-383.047749
1422.276849,2368.659014,-12139.377449,0.000000
1422.277178,2960.823768,-13323.706956,842.705048
1422.277507,3552.988522,-13545.768739,2145.067394
1422.277836,3256.906145,-11621.233289,1532.190996
1422.278165,3701.029710,-9178.553681,1532.190996
1422.278494,4367.215058,-6291.750507,1838.629195
1422.278824,6217.729913,-4441.235652,2528.115143
1422.279153,7179.997637,-3849.070898,2451.505594
1422.279482,7328.038826,-4367.215058,2068.457845
1422.279811,5995.668130,-5551.544565,1455.581446
1422.280140,5181.441594,-7328.038826,1149.143247
1422.280469,4515.256246,-9474.636058,1072.533697
1422.280798,3775.050304,-11251.130318,689.485948
1422.281127,2664.741391,-12435.459826,536.266849
1422.281456,3404.947333,-12583.501014,383.047749
1422.281786,4811.338623,-12509.480420,-459.657299
1422.282115,5477.523971,-10955.047942,383.047749
1422.282444,5329.482782,-10436.903782,1608.800546
1422.282773,4885.359217,-9252.574275,1608.800546
1422.283102,4441.235652,-7179.997637,1532.190996
1422.283431,4811.338623,-4885.359217,995.924147
1422.283760,6291.750507,-3849.070898,1915.238745
1422.284089,7772.162391,-3182.885551,2681.334243
1422.284419,8068.244768,-4589.276840,2681.334243
1422.284748,7254.018232,-4145.153275,2068.457845
1422.285077,6217.729913,-5847.626942,229.828649
1422.285406,5033.400406,-8808.450710,0.000000
1422.285735,3849.070898,-11843.295072,76.609550
1422.286064,4589.276840,-13471.748144,383.047749
1422.286393,5255.462188,-12361.439231,1532.190996
1422.286722,5181.441594,-12213.398043,1225.752797
1422.287051,4737.318029,-10362.883188,1225.752797
1422.287381,4737.318029,-9252.574275,995.924147
1422.287710,3775.050304,-8882.471304,383.047749
1422.288039,2960.823768,-7846.182985,76.609550
1422.288368,3775.050304,-6735.874072,995.924147
1422.288697,5403.503377,-5107.421000,383.047749
1422.289026,5995.668130,-5995.668130,842.705048
1422.289355,6587.832884,-5699.585753,1072.533697
1422.289684,6143.709319,-6291.750507,612.876398
1422.290014,6069.688724,-7179.997637,842.705048
1422.290343,5551.544565,-9104.533087,995.924147
1422.290672,4959.379811,-12065.356855,1532.190996
1422.291001,4737.318029,-12509.480420,766.095498
1422.291330,3923.091493,-12657.521608,1838.629195
1422.291659,4441.235652,-11547.212695,2068.457845
1422.291988,5329.482782,-8290.306550,2221.676944
1422.292317,5033.400406,-6143.709319,2221.676944
1422.292646,4515.256246,-6291.750507,1455.581446
1422.292976,2886.803174,-6587.832884,536.266849
1422.293305,2738.761985,-7402.059420,-689.485948
1422.293634,2590.720797,-7402.059420,-1149.143247
1422.293963,3701.029710,-7476.080014,-536.266849
1422.294292,5181.441594,-9474.636058,76.609550
1422.294621,5995.668130,-11547.212695,1455.581446
1422.294950,6291.750507,-11547.212695,1685.410096
1422.295279,5995.668130,-11547.212695,1072.533697
1422.295609,4959.379811,-11473.192101,1455.581446
1422.295938,4441.235652,-10288.862594,1838.629195
1422.296267,5107.421000,-9992.780217,2604.724693
1422.296596,6069.688724,-7105.977043,3753.867940
1422.296925,6143.709319,-5181.441594,3370.820191
1422.297254,6587.832884,-3849.070898,3370.820191
1422.297583,6143.709319,-4071.132681,2681.334243
1422.297912,5625.565159,-5773.606348,2374.896044
1422.298241,4589.276840,-6365.771101,1455.581446
1422.298571,4145.153275,-7105.977043,1072.533697
1422.298900,4515.256246,-9030.512492,306.438199
1422.299229,5181.441594,-10584.944971,1532.190996
1422.299558,5329.482782,-11621.233289,2374.896044
1422.299887,5329.482782,-12805.562797,1685.410096
1422.300216,4959.379811,-11399.171507,2681.334243
1422.300545,4737.318029,-9844.739029,2451.505594
1422.300874,5403.503377,-8808.450710,2911.162892
1422.301204,6439.791695,-5773.606348,3983.696590
1422.301533,7179.997637,-4737.318029,3830.477490
1422.301862,7698.141797,-3404.947333,4443.353888
1422.302191,8068.244768,-2812.782580,4290.134789
1422.302520,7550.100608,-3627.009116,2528.115143
1422.302849,6291.750507,-5477.523971,2528.115143
1422.303178,5847.626942,-7402.059420,2298.286494
1422.303507,6439.791695,-8068.244768,2374.896044
1422.303836,7105.977043,-8660.409521,3447.429741
1422.304166,7105.977043,-8586.388927,4290.134789
1422.304495,7105.977043,-8586.388927,3140.991542
1422.304824,6217.729913,-9178.553681,3753.867940
1422.305153,5551.544565,-8438.347739,3447.429741
1422.305482,5625.565159,-7031.956449,3294.210641
1422.305811,5847.626942,-5551.544565,3677.258390
1422.306140,6365.771101,-5255.462188,4366.744339
1422.306469,7328.038826,-4663.297435,4213.525239
1422.306799,8290.306550,-4145.153275,5362.668486
1422.307128,8438.347739,-4293.194464,4749.792088
1422.307457,8142.265362,-4293.194464,4673.182538
1422.307786,7476.080014,-5773.606348,4443.353888
1422.308115,7254.018232,-7476.080014,3907.087040
1422.308447,6661.853478,-9030.512492,3677.258390
1422.308776,5699.585753,-10214.842000,3830.477490
1422.309105,4811.338623,-10214.842000,3753.867940
1422.309434,4589.276840,-10955.047942,3677.258390
1422.309763,4293.194464,-9622.677246,3524.039291
1422.310093,4071.132681,-9030.512492,3600.648841
1422.310422,4737.318029,-7105.977043,4060.306139
1422.310751,5551.544565,-6291.750507,4213.525239
1422.311080,7105.977043,-5551.544565,5209.449386
1422.311409,8438.347739,-4219.173869,5822.325785
1422.311738,8882.471304,-4071.132681,6281.983084
1422.312067,9400.615463,-3330.926739,6435.202183
1422.312396,9474.636058,-3404.947333,5669.106685
1422.312726,10066.800811,-3849.070898,5745.716235
1422.313055,9474.636058,-4515.256246,5132.839837
1422.313384,8734.430116,-5625.565159,4903.011187
1422.313713,7772.162391,-6883.915261,4826.401637
1422.314042,6513.812290,-7698.141797,4290.134789
1422.314371,5107.421000,-9178.553681,4213.525239
1422.314700,4441.235652,-9622.677246,3907.087040
1422.315029,3330.926739,-9474.636058,3370.820191
1422.315358,2294.638420,-9252.574275,2681.334243
1422.315688,1628.453072,-9400.615463,2681.334243
1422.316017,2664.741391,-7994.224174,2604.724693
1422.316346,4737.318029,-7031.956449,3217.601092
1422.316675,7550.100608,-5921.647536,5056.230287
1422.317004,9474.636058,-4811.338623,5975.544884
1422.317333,11177.109724,-3997.112087,6435.202183
1422.317662,10881.027347,-2590.720797,6128.763984
1422.317991,10140.821405,-2590.720797,5515.887586
1422.318321,9104.533087,-3701.029710,3677.258390
1422.318650,7772.162391,-5329.482782,3677.258390
1422.318979,7105.977043,-6883.915261,3064.381992
1422.319308,6365.771101,-7698.141797,2757.943793
1422.319637,5255.462188,-8216.285956,2911.162892
1422.319966,5107.421000,-9622.677246,2528.115143
1422.320295,5033.400406,-9252.574275,3064.381992
1422.320624,5181.441594,-8290.306550,3370.820191
1422.320953,5995.668130,-7624.121203,4136.915689
1422.321283,7920.203579,-5625.565159,4366.744339
1422.321612,9252.574275,-5033.400406,4749.792088
1422.321941,9770.718434,-5033.400406,4443.353888
1422.322270,9104.533087,-4737.318029,3524.039291
1422.322599,8142.265362,-6291.750507,3370.820191
1422.322928,6439.791695,-6883.915261,2145.067394
1422.323257,5625.565159,-7476.080014,2911.162892
1422.323586,5625.565159,-8142.265362,2757.943793
1422.323916,5477.523971,-7624.121203,2451.505594
1422.324245,6069.688724,-6809.894666,3370.820191
1422.324574,7698.141797,-6883.915261,4213.525239
1422.324903,8586.388927,-5995.668130,4213.525239
1422.325232,7772.162391,-6365.771101,4136.915689
1422.325561,7105.977043,-5773.606348,3600.648841
1422.325890,7254.018232,-5107.421000,3524.039291
1422.326219,7328.038826,-4219.173869,3370.820191
1422.326548,8068.244768,-3182.885551,3677.258390
1422.326878,8882.471304,-4071.132681,4136.915689
1422.327207,9622.677246,-4441.235652,4596.572988
1422.327536,8290.306550,-6143.709319,4213.525239
1422.327865,6809.894666,-8660.409521,3907.087040
1422.328194,5181.441594,-9844.739029,3294.210641
1422.328523,3404.947333,-10955.047942,2528.115143
1422.328852,2960.823768,-9992.780217,2604.724693
1422.329181,3404.947333,-8216.285956,2604.724693
1422.329511,4885.359217,-7105.977043,3370.820191
1422.329840,6735.874072,-5329.482782,4213.525239
1422.330169,7624.121203,-5847.626942,3983.696590
1422.330498,8216.285956,-4293.194464,4979.620737
1422.330827,8290.306550,-3997.112087,5209.449386
1422.331156,9326.594869,-3552.988522,5515.887586
1422.331485,9844.739029,-2812.782580,5286.058936
1422.331814,10214.842000,-3997.112087,4596.572988
1422.332143,9474.636058,-4959.379811,4443.353888
1422.332473,7698.141797,-7254.018232,3830.477490
1422.332802,5477.523971,-8734.430116,3064.381992
1422.333131,3997.112087,-10807.006753,2681.334243
1422.333460,3182.885551,-11547.212695,3370.820191
1422.333789,3108.864956,-10955.047942,2911.162892
1422.334118,3627.009116,-10214.842000,3677.258390
1422.334447,5255.462188,-8142.265362,4519.963438
1422.334776,7698.141797,-5107.421000,5209.449386
1422.335106,8216.285956,-3552.988522,4903.011187
1422.335435,9104.533087,-2368.659014,5286.058936
1422.335764,9992.780217,-2590.720797,5669.106685
1422.336093,10066.800811,-1628.453072,5209.449386
1422.336422,9030.512492,-2664.741391,5669.106685
1422.336751,8290.306550,-5329.482782,5286.058936
1422.337080,7624.121203,-8290.306550,5056.230287
1422.337409,7328.038826,-9844.739029,4443.353888
1422.337738,6513.812290,-9992.780217,4366.744339
1422.338068,5847.626942,-9474.636058,3524.039291
1422.338397,4737.318029,-9104.533087,2528.115143
1422.338726,3849.070898,-7328.038826,2911.162892
1422.339055,4589.276840,-6291.750507,3217.601092
1422.339384,6809.894666,-5477.523971,4903.011187
1422.339713,8142.265362,-4737.318029,5439.278036
1422.340042,8290.306550,-4441.235652,5132.839837
1422.340371,7624.121203,-5033.400406,4673.182538
1422.340700,7994.224174,-5329.482782,5132.839837
1422.341030,8734.430116,-5403.503377,4443.353888
1422.341359,8438.347739,-5255.462188,4826.401637
1422.341688,8290.306550,-5329.482782,4596.572988
1422.342017,7698.141797,-6217.729913,3907.087040
1422.342346,7105.977043,-8068.244768,3983.696590
1422.342675,6439.791695,-9178.553681,4826.401637
1422.343004,6291.750507,-8216.285956,3983.696590
1422.343333,5329.482782,-8216.285956,3370.820191
1422.343663,4071.132681,-7772.162391,2757.943793
1422.343992,5181.441594,-8512.368333,3524.039291
1422.344321,6513.812290,-6883.915261,4673.182538
1422.344650,7105.977043,-4145.153275,3983.696590
1422.344979,7105.977043,-2516.700203,3064.381992
1422.345308,8216.285956,-2664.741391,2987.772442
1422.345637,8068.244768,-5773.606348,3370.820191
1422.345966,8512.368333,-6217.729913,4443.353888
1422.346295,8882.471304,-6809.894666,4596.572988
1422.346625,8290.306550,-8438.347739,2834.553343
1422.346954,6217.729913,-9104.533087,3983.696590
1422.347283,5033.400406,-11251.130318,3524.039291
1422.347612,5033.400406,-9030.512492,2451.505594
1422.347941,5403.503377,-5551.544565,2145.067394
1422.348270,6513.812290,-5033.400406,2604.724693
1422.348599,7846.182985,-5773.606348,2834.553343
1422.348928,6957.935855,-5329.482782,3753.867940
1422.349258,6291.750507,-3775.050304,2374.896044
1422.349587,6365.771101,-3775.050304,1378.971896
1422.349916,7105.977043,-4959.379811,2298.286494
1422.350245,8438.347739,-5255.462188,2834.553343
1422.350574,8808.450710,-6291.750507,2911.162892
1422.350903,8660.409521,-5329.482782,2451.505594
1422.351232,7328.038826,-7105.977043,1915.238745
1422.351561,7031.956449,-8290.306550,919.314598
1422.351890,6661.853478,-8512.368333,1302.362347
1422.352220,5477.523971,-10288.862594,1378.971896
1422.352549,4293.194464,-10436.903782,1072.533697
1422.352878,4219.173869,-9326.594869,842.705048
1422.353207,5847.626942,-6957.935855,1149.143247
1422.353536,8512.368333,-4219.173869,3294.210641
1422.353865,9252.574275,-4663.297435,3370.820191
1422.354194,8216.285956,-4515.256246,2757.943793
1422.354523,6957.935855,-2294.638420,1149.143247
1422.354853,7105.977043,-2368.659014,153.219100
1422.355182,8660.409521,-4071.132681,766.095498
1422.355511,8512.368333,-6957.935855,1762.019645
1422.355840,8660.409521,-8216.285956,1991.848295
1422.356169,7920.203579,-7402.059420,766.095498
1422.356498,7105.977043,-7254.018232,153.219100
1422.356827,6439.791695,-8438.347739,0.000000
1422.357156,5403.503377,-10066.800811,0.000000
1422.357485,4219.173869,-10140.821405,536.266849
1422.357815,3923.091493,-8586.388927,0.000000
1422.358144,4959.379811,-8290.306550,383.047749
1422.358473,6513.812290,-6661.853478,1762.019645
1422.358802,7698.141797,-5551.544565,2911.162892
1422.359131,8216.285956,-4811.338623,3600.648841
1422.359460,9104.533087,-2442.679609,2145.067394
1422.359789,8734.430116,-2368.659014,1302.362347
1422.360118,8142.265362,-2516.700203,1608.800546
1422.360448,7624.121203,-4811.338623,1302.362347
1422.360777,7179.997637,-5699.585753,229.828649
1422.361106,7105.977043,-6883.915261,0.000000
1422.361435,6957.935855,-8882.471304,459.657299
1422.361764,6217.729913,-9474.636058,1302.362347
1422.362093,6069.688724,-10584.944971,536.266849
1422.362422,5477.523971,-9252.574275,689.485948
1422.362751,4737.318029,-8142.265362,306.438199
1422.363080,3701.029710,-9104.533087,766.095498
1422.363410,4071.132681,-6809.894666,1685.410096
1422.363739,6735.874072,-5329.482782,1532.190996
1422.364068,9474.636058,-3997.112087,3217.601092
1422.364397,10658.965565,-4367.215058,4366.744339
1422.364726,9844.739029,-4441.235652,3830.477490
1422.365055,7920.203579,-2516.700203,2604.724693
1422.365384,7031.956449,-3627.009116,0.000000
1422.365713,6883.915261,-4737.318029,153.219100
1422.366043,7105.977043,-7402.059420,919.314598
1422.366372,7920.203579,-7698.141797,1302.362347
1422.366701,7772.162391,-7328.038826,0.000000
1422.367030,6143.709319,-9474.636058,0.000000
1422.367359,5625.565159,-10436.903782,1302.362347
1422.367688,5995.668130,-11029.068536,1225.752797
1422.368017,5107.421000,-9030.512492,1608.800546
1422.368346,3478.967927,-8512.368333,1072.533697
1422.368675,3997.112087,-6661.853478,612.876398
1422.369005,5995.668130,-2812.782580,995.924147
1422.369334,7994.224174,-3849.070898,2834.553343
1422.369663,9918.759623,-3330.926739,3447.429741
1422.369992,9548.656652,-3404.947333,2451.505594
1422.370321,8364.327145,-4145.153275,2298.286494
1422.370650,8512.368333,-4737.318029,1302.362347
1422.370979,8512.368333,-6809.894666,1302.362347
1422.371308,7624.121203,-7105.977043,0.000000
1422.371638,6587.832884,-7105.977043,-383.047749
1422.371967,6291.750507,-7846.182985,-459.657299
1422.372296,6291.750507,-8882.471304,-536.266849
1422.372625,6217.729913,-9622.677246,0.000000
1422.372954,5921.647536,-9844.739029,1149.143247
1422.373283,6217.729913,-9992.780217,1378.971896
1422.373612,5477.523971,-9252.574275,2068.457845
1422.373941,6069.688724,-6957.935855,2374.896044
1422.374270,6809.894666,-3627.009116,766.095498
1422.374600,7328.038826,-3552.988522,1302.362347
1422.374929,7846.182985,-3923.091493,1608.800546
1422.375258,8586.388927,-3627.009116,919.314598
1422.375587,8364.327145,-2738.761985,536.266849
1422.375916,8216.285956,-4663.297435,459.657299
1422.376245,8438.347739,-7698.141797,766.095498
1422.376574,8216.285956,-8660.409521,1149.143247
1422.376903,7772.162391,-8216.285956,0.000000
1422.377233,6661.853478,-7698.141797,-153.219100
1422.377562,5995.668130,-8068.244768,-459.657299
1422.377891,5551.544565,-9104.533087,-766.095498
1422.378220,5329.482782,-9104.533087,306.438199
1422.378549,5403.503377,-8364.327145,1225.752797
1422.378878,5033.400406,-8068.244768,536.266849
1422.379207,5033.400406,-6439.791695,1762.019645
1422.379536,6957.935855,-4959.379811,2221.676944
1422.379865,9400.615463,-4737.318029,3064.381992
1422.380195,9400.615463,-3849.070898,3907.087040
1422.380524,8068.244768,-2664.741391,1762.019645
1422.380853,7476.080014,-2368.659014,0.000000
1422.381182,6883.915261,-3034.844362,0.000000
1422.381511,6809.894666,-6513.812290,-459.657299
1422.381840,7254.018232,-6439.791695,229.828649
1422.382169,7105.977043,-6957.935855,306.438199
1422.382498,6587.832884,-8956.491898,-229.828649
1422.382827,6365.771101,-9696.697840,766.095498
1422.383157,6809.894666,-10732.986159,919.314598
1422.383486,6513.812290,-9400.615463,612.876398
1422.383815,4737.318029,-10066.800811,995.924147
1422.384144,4663.297435,-8808.450710,1225.752797
1422.384473,5773.606348,-5699.585753,459.657299
1422.384802,7846.182985,-3997.112087,1532.190996
1422.385131,8734.430116,-4219.173869,2681.334243
1422.385460,9104.533087,-4737.318029,2911.162892
1422.385790,8290.306550,-4219.173869,2221.676944
1422.386119,7105.977043,-3034.844362,689.485948
1422.386448,7105.977043,-5329.482782,536.266849
1422.386777,7624.121203,-6291.750507,919.314598
1422.387106,7772.162391,-7994.224174,842.705048
1422.387435,7624.121203,-7105.977043,919.314598
1422.387764,6735.874072,-7698.141797,76.609550
1422.388093,5699.585753,-9474.636058,229.828649
1422.388422,5625.565159,-9548.656652,689.485948
1422.388752,6069.688724,-10658.965565,1378.971896
1422.389081,5255.462188,-10140.821405,1685.410096
1422.389410,4071.132681,-7624.121203,1915.238745
1422.389739,5477.523971,-5255.462188,1225.752797
1422.390068,7846.182985,-3627.009116,1991.848295
1422.390397,8734.430116,-4441.235652,2757.943793
1422.390726,9178.553681,-3923.091493,2681.334243
1422.391055,8364.327145,-3256.906145,2068.457845
1422.391385,7402.059420,-2812.782580,383.047749
1422.391714,6809.894666,-5329.482782,536.266849
1422.392043,6883.915261,-6587.832884,1455.581446
1422.392372,7402.059420,-6513.812290,383.047749
1422.392701,7179.997637,-8068.244768,1149.143247
1422.393030,7105.977043,-8660.409521,1225.752797
1422.393359,6957.935855,-9030.512492,459.657299
1422.393688,5625.565159,-7994.224174,612.876398
1422.394017,5255.462188,-8290.306550,766.095498
1422.394347,5181.441594,-8364.327145,919.314598
1422.394676,5551.544565,-6957.935855,1915.238745
1422.395005,7179.997637,-4737.318029,2451.505594
1422.395334,9326.594869,-4293.194464,2987.772442
1422.395663,9400.615463,-4959.379811,3140.991542
1422.395992,7698.141797,-4811.338623,1991.848295
1422.396321,7105.977043,-4367.215058,536.266849
1422.396650,6809.894666,-4219.173869,-229.828649
1422.396980,6735.874072,-6069.688724,-612.876398
1422.397309,6809.894666,-7105.977043,0.000000
1422.397638,7105.977043,-7179.997637,153.219100
1422.397967,7179.997637,-7624.121203,0.000000
1422.398296,7105.977043,-8808.450710,306.438199
1422.398625,6513.812290,-8956.491898,612.876398
1422.398954,6661.853478,-8660.409521,306.438199
1422.399283,6291.750507,-9400.615463,1072.533697
1422.399612,6513.812290,-8660.409521,1378.971896
1422.399942,5699.585753,-6957.935855,1225.752797
1422.400271,7105.977043,-4515.256246,1608.800546
1422.400600,8438.347739,-4589.276840,1915.238745
1422.400929,8882.471304,-4737.318029,2681.334243
1422.401258,8512.368333,-4959.379811,2298.286494
1422.401587,7550.100608,-4737.318029,1149.143247
1422.401916,6217.729913,-4589.276840,0.000000
1422.402245,5551.544565,-6069.688724,-306.438199
1422.402575,5773.606348,-6587.832884,-919.314598
1422.402904,7031.956449,-6439.791695,76.609550
1422.403233,6735.874072,-7476.080014,-383.047749
1422.403562,6587.832884,-8956.491898,-306.438199
1422.403891,6217.729913,-8734.430116,153.219100
1422.404220,6661.853478,-7920.203579,689.485948
1422.404549,6809.894666,-9474.636058,1302.362347
1422.404878,6143.709319,-9178.553681,2374.896044
1422.405207,6069.688724,-7328.038826,1762.019645
1422.405537,7624.121203,-4663.297435,1455.581446
1422.405866,8290.306550,-3997.112087,2681.334243
1422.406195,7698.141797,-4737.318029,2298.286494
1422.406524,7105.977043,-3182.885551,536.266849
1422.406853,6957.935855,-3182.885551,0.000000
1422.407182,7254.018232,-3552.988522,76.609550
1422.407511,7402.059420,-5625.565159,842.705048
1422.407840,7994.224174,-6587.832884,459.657299
1422.408169,7994.224174,-6439.791695,536.266849
1422.408498,7550.100608,-7994.224174,612.876398
1422.408827,6661.853478,-8808.450710,-153.219100
1422.409157,5995.668130,-8364.327145,0.000000
1422.409486,5477.523971,-7994.224174,0.000000
1422.409815,5181.441594,-8956.491898,153.219100
1422.410144,5329.482782,-9622.677246,2221.676944
1422.410473,7031.956449,-7179.997637,2681.334243
1422.410802,8512.368333,-5921.647536,2604.724693
1422.411131,8586.388927,-5477.523971,3524.039291
1422.411460,7550.100608,-4663.297435,1915.238745
1422.411789,6735.874072,-4219.173869,766.095498
1422.412118,6661.853478,-3478.967927,76.609550
1422.412447,6513.812290,-4441.235652,-459.657299
1422.412776,7031.956449,-5995.668130,76.609550
1422.413105,7105.977043,-6217.729913,459.657299
1422.413434,7179.997637,-7328.038826,1685.410096
1422.413764,7328.038826,-8660.409521,919.314598
1422.414093,7105.977043,-10510.924376,2221.676944
1422.414422,7550.100608,-9844.739029,1991.848295
1422.414751,7254.018232,-9030.512492,1991.848295
1422.415080,5403.503377,-8586.388927,1608.800546
1422.415409,4959.379811,-6735.874072,842.705048
1422.415738,5847.626942,-5181.441594,1225.752797
1422.416067,7105.977043,-3849.070898,1608.800546
1422.416396,8586.388927,-4293.194464,2757.943793
1422.416725,8734.430116,-5107.421000,3524.039291
1422.417054,8216.285956,-5403.503377,2528.115143
1422.417383,7031.956449,-4515.256246,1149.143247
1422.417712,5921.647536,-4811.338623,536.266849
1422.418041,6217.729913,-6291.750507,0.000000
1422.418370,6365.771101,-5477.523971,-536.266849
1422.418700,6217.729913,-6069.688724,383.047749
1422.419029,6957.935855,-8438.347739,383.047749
1422.419358,7402.059420,-8438.347739,1455.581446
1422.419687,7476.080014,-8216.285956,1455.581446
1422.420016,6957.935855,-9400.615463,1685.410096
1422.420345,6809.894666,-9030.512492,2451.505594
1422.420674,6809.894666,-6883.915261,1991.848295
1422.421003,7179.997637,-4441.235652,2451.505594
1422.421332,8512.368333,-3627.009116,2374.896044
1422.421661,8512.368333,-4145.153275,2298.286494
1422.421990,7105.977043,-4219.173869,1455.581446
1422.422319,5847.626942,-3701.029710,842.705048
1422.422648,5995.668130,-4367.215058,-689.485948
1422.422977,5995.668130,-6439.791695,0.000000
1422.423307,7105.977043,-7624.121203,612.876398
1422.423636,8364.327145,-7031.956449,689.485948
1422.423965,7846.182985,-7031.956449,689.485948
1422.424294,6809.894666,-8808.450710,536.266849
1422.424623,6291.750507,-8956.491898,0.000000
1422.424952,6587.832884,-8956.491898,459.657299
1422.425281,6661.853478,-9178.553681,1762.019645
1422.425610,6217.729913,-9030.512492,1455.581446
1422.425939,6513.812290,-7476.080014,1762.019645
1422.426268,7550.100608,-5625.565159,1378.971896
1422.426597,8216.285956,-4959.379811,1838.629195
1422.426926,7402.059420,-4145.153275,1991.848295
1422.427255,7105.977043,-4737.318029,383.047749
1422.427584,6513.812290,-4219.173869,0.000000
1422.427914,6365.771101,-5033.400406,0.000000
1422.428243,7105.977043,-7105.977043,-383.047749
1422.428572,7476.080014,-6143.709319,306.438199
1422.428901,7105.977043,-6513.812290,153.219100
1422.429230,6661.853478,-7698.141797,-306.438199
1422.429559,6217.729913,-7920.203579,229.828649
1422.429888,6883.915261,-7402.059420,229.828649
1422.430217,7254.018232,-7476.080014,689.485948
1422.430546,6883.915261,-8438.347739,1915.238745
1422.430875,6439.791695,-8142.265362,2068.457845
1422.431204,6587.832884,-6883.915261,1302.362347
1422.431533,7105.977043,-4663.297435,2604.724693
1422.431862,8512.368333,-3849.070898,2221.676944
1422.432191,8142.265362,-3997.112087,1762.019645
1422.432520,7476.080014,-3627.009116,1225.752797
1422.432850,6217.729913,-3775.050304,-1149.143247
1422.433179,5921.647536,-5033.400406,-536.266849
1422.433508,6365.771101,-7179.997637,-229.828649
1422.433837,7105.977043,-7994.224174,0.000000
1422.434166,7105.977043,-7031.956449,0.000000
1422.434495,7402.059420,-9548.656652,76.609550
1422.434824,7402.059420,-9252.574275,1072.533697
1422.435153,7254.018232,-8956.491898,842.705048
1422.435482,6735.874072,-7772.162391,0.000000
1422.435811,6143.709319,-7476.080014,919.314598
1422.436140,6957.935855,-7476.080014,842.705048
1422.436469,7550.100608,-5921.647536,1685.410096
1422.436798,8364.327145,-4737.318029,2528.115143
1422.437127,9252.574275,-4293.194464,2987.772442
1422.437457,9326.594869,-4441.235652,2604.724693
1422.437786,7105.977043,-5773.606348,1838.629195
1422.438115,5699.585753,-3849.070898,76.609550
1422.438444,6143.709319,-6217.729913,-689.485948
1422.438773,6217.729913,-7105.977043,0.000000
1422.439102,5921.647536,-6439.791695,1225.752797
1422.439431,6957.935855,-7550.100608,0.000000
1422.439760,6587.832884,-8660.409521,536.266849
1422.440089,5625.565159,-10140.821405,1072.533697
1422.440418,5699.585753,-9770.718434,1072.533697
1422.440747,5773.606348,-8660.409521,1838.629195
1422.441076,5625.565159,-8216.285956,1915.238745
1422.441405,6439.791695,-6291.750507,2145.067394
1422.441734,7698.141797,-4885.359217,2374.896044
1422.442063,9400.615463,-3552.988522,2681.334243
1422.442393,8512.368333,-3849.070898,2757.943793
1422.442722,7105.977043,-3627.009116,1302.362347
1422.443051,6587.832884,-4737.318029,766.095498
1422.443380,5921.647536,-4515.256246,153.219100
1422.443709,5921.647536,-7550.100608,536.266849
1422.444038,6735.874072,-8438.347739,842.705048
1422.444367,7105.977043,-7031.956449,459.657299
1422.444696,6735.874072,-8290.306550,536.266849
1422.445025,6291.750507,-9474.636058,153.219100
1422.445354,5921.647536,-8438.347739,689.485948
1422.445683,6587.832884,-8068.244768,689.485948
1422.446012,7105.977043,-6809.894666,1838.629195
1422.446341,7031.956449,-6809.894666,2528.115143
1422.446670,7698.141797,-5625.565159,3677.258390
1422.447000,8512.368333,-3849.070898,2528.115143
1422.447329,8660.409521,-4367.215058,2987.772442
1422.447658,8586.388927,-4293.194464,2068.457845
1422.447987,7550.100608,-4441.235652,1072.533697
1422.448316,7105.977043,-5921.647536,383.047749
1422.448645,6957.935855,-5699.585753,0.000000
1422.448974,6365.771101,-7031.956449,-536.266849
1422.449303,5847.626942,-7254.018232,-689.485948
1422.449632,5847.626942,-7476.080014,-229.828649
1422.449961,6069.688724,-8808.450710,-153.219100
1422.450290,6143.709319,-10140.821405,153.219100
1422.450619,6069.688724,-9178.553681,1378.971896
1422.450948,7402.059420,-7698.141797,1608.800546
1422.451277,8142.265362,-7698.141797,2374.896044
1422.451607,7105.977043,-6143.709319,2528.115143
1422.451936,7105.977043,-4737.318029,2068.457845
1422.452265,8216.285956,-2886.803174,2068.457845
1422.452594,8660.409521,-2738.761985,2604.724693
1422.452923,8882.471304,-4219.173869,1608.800546
1422.453252,7920.203579,-5921.647536,919.314598
1422.453581,6661.853478,-6513.812290,612.876398
1422.453910,4959.379811,-7105.977043,-766.095498
1422.454239,4515.256246,-8364.327145,-612.876398
1422.454568,4811.338623,-8216.285956,-689.485948
1422.454897,5625.565159,-8216.285956,-689.485948
1422.455226,5699.585753,-8882.471304,76.609550
1422.455555,5921.647536,-9400.615463,689.485948
1422.455884,6439.791695,-8438.347739,1225.752797
1422.456213,7105.977043,-6809.894666,1378.971896
1422.456543,6365.771101,-5699.585753,1072.533697
1422.456872,6735.874072,-5847.626942,1685.410096
1422.457201,8068.244768,-4811.338623,1378.971896
1422.457530,8956.491898,-3108.864956,2221.676944
1422.457859,9696.697840,-3701.029710,3294.210641
1422.458188,9622.677246,-4145.153275,2298.286494
1422.458517,7328.038826,-5551.544565,995.924147
1422.458846,5181.441594,-6735.874072,-536.266849
1422.459175,5107.421000,-7179.997637,-536.266849
1422.459504,6069.688724,-8142.265362,-612.876398
1422.459833,6513.812290,-7179.997637,-459.657299
1422.460162,5773.606348,-7402.059420,153.219100
1422.460491,6217.729913,-9622.677246,612.876398
1422.460820,5773.606348,-8808.450710,689.485948
1422.461150,6661.853478,-7698.141797,1302.362347
1422.461479,7328.038826,-6735.874072,2068.457845
1422.461808,7772.162391,-6587.832884,2451.505594
1422.462137,7105.977043,-6291.750507,2681.334243
1422.462466,7254.018232,-4145.153275,2145.067394
1422.462795,8512.368333,-3552.988522,1762.019645
1422.463124,9548.656652,-4885.359217,2604.724693
1422.463453,9030.512492,-4515.256246,1532.190996
1422.463782,6735.874072,-6217.729913,459.657299
1422.464111,5551.544565,-7179.997637,-612.876398
1422.464440,5033.400406,-8882.471304,-459.657299
1422.464769,5921.647536,-9030.512492,306.438199
1422.465098,7179.997637,-8068.244768,459.657299
1422.465427,6883.915261,-8068.244768,153.219100
1422.465757,5773.606348,-8586.388927,0.000000
1422.466086,5773.606348,-8586.388927,459.657299
1422.466415,7105.977043,-7179.997637,1608.800546
1422.466744,7920.203579,-5921.647536,2068.457845
1422.467073,6587.832884,-5625.565159,2374.896044
1422.467402,6069.688724,-5773.606348,2834.553343
1422.467731,7846.182985,-4515.256246,2681.334243
1422.468060,9400.615463,-3627.009116,3064.381992
1422.468389,9178.553681,-4219.173869,3064.381992
1422.468718,8142.265362,-4663.297435,1532.190996
1422.469047,6809.894666,-5255.462188,995.924147
1422.469376,4959.379811,-6883.915261,153.219100
1422.469705,4737.318029,-7402.059420,-459.657299
1422.470034,5477.523971,-6809.894666,-612.876398
1422.470363,6217.729913,-7179.997637,-306.438199
1422.470693,7031.956449,-8882.471304,919.314598
1422.471022,6069.688724,-9104.533087,612.876398
1422.471351,6513.812290,-8586.388927,306.438199
1422.471680,6661.853478,-6735.874072,766.095498
1422.472009,6735.874072,-7105.977043,1378.971896
1422.472338,6809.894666,-7179.997637,2604.724693
1422.472667,7105.977043,-5477.523971,2451.505594
1422.472996,7920.203579,-3701.029710,2451.505594
1422.473325,10140.821405,-3330.926739,3294.210641
1422.473654,10584.944971,-3034.844362,3064.381992
1422.473983,9400.615463,-3478.967927,1762.019645
1422.474312,7328.038826,-4737.318029,612.876398
1422.474641,6143.709319,-6217.729913,0.000000
1422.474970,5847.626942,-7994.224174,-612.876398
1422.475300,6069.688724,-7772.162391,-766.095498
1422.475629,5773.606348,-7179.997637,-842.705048
1422.475958,5255.462188,-9252.574275,-842.705048
1422.476287,5625.565159,-11103.089130,153.219100
1422.476616,6513.812290,-10881.027347,919.314598
1422.476945,6513.812290,-8142.265362,0.000000
1422.477274,5403.503377,-8216.285956,536.266849
1422.477603,5477.523971,-8660.409521,1838.629195
1422.477932,7105.977043,-5625.565159,1991.848295
1422.478261,7920.203579,-3182.885551,1532.190996
1422.478590,9992.780217,-1628.453072,3983.696590
1422.478919,11103.089130,-2220.617826,3064.381992
1422.479248,9104.533087,-3775.050304,1762.019645
1422.479577,5995.668130,-3627.009116,0.000000
1422.479907,5551.544565,-6587.832884,-842.705048
1422.480236,6957.935855,-7328.038826,-995.924147
1422.480565,6735.874072,-7105.977043,-383.047749
1422.480894,6291.750507,-8290.306550,0.000000
1422.481223,6143.709319,-10140.821405,-536.266849
1422.481552,5181.441594,-10288.862594,0.000000
1422.481881,4293.194464,-9844.739029,0.000000
1422.482210,5033.400406,-8512.368333,536.266849
1422.482539,5477.523971,-8364.327145,1302.362347
1422.482868,5773.606348,-7846.182985,2604.724693
1422.483197,6957.935855,-4663.297435,2604.724693
1422.483526,9400.615463,-3034.844362,2987.772442
1422.483855,10510.924376,-1998.556043,3677.258390
1422.484184,9696.697840,-1258.350101,2451.505594
1422.484513,7920.203579,-1702.473667,995.924147
1422.484843,7105.977043,-3923.091493,0.000000
1422.485172,6661.853478,-6809.894666,153.219100
1422.485501,7328.038826,-7254.018232,-229.828649
1422.485830,7550.100608,-7772.162391,-153.219100
1422.486159,6587.832884,-8956.491898,-689.485948
1422.486488,5033.400406,-11325.150913,-766.095498
1422.486817,5033.400406,-11991.336260,-306.438199
1422.487146,6143.709319,-10362.883188,612.876398
1422.487475,6069.688724,-8512.368333,1149.143247
1422.487804,4959.379811,-8216.285956,919.314598
1422.488133,5181.441594,-7179.997637,1378.971896
1422.488462,8142.265362,-4885.359217,2987.772442
1422.488791,10140.821405,-2516.700203,3830.477490
1422.489120,11103.089130,-2442.679609,4903.011187
1422.489450,10658.965565,-1554.432478,3983.696590
1422.489779,8660.409521,-1702.473667,1149.143247
1422.490108,5995.668130,-2960.823768,0.000000
1422.490437,6069.688724,-5033.400406,-459.657299
1422.490766,6365.771101,-7476.080014,-612.876398
1422.491095,6957.935855,-8438.347739,383.047749
1422.491424,5847.626942,-10658.965565,689.485948
1422.491753,4589.276840,-12953.603985,153.219100
1422.492082,4589.276840,-11547.212695,1455.581446
1422.492411,5255.462188,-10955.047942,1149.143247
1422.492740,5773.606348,-8068.244768,1378.971896
1422.493069,5477.523971,-6587.832884,1302.362347
1422.493398,6217.729913,-5329.482782,1915.238745
1422.493727,8512.368333,-2812.782580,2834.553343
1422.494056,10140.821405,-3330.926739,3447.429741
1422.494386,11473.192101,-1850.514855,4213.525239
1422.494715,9918.759623,-2072.576638,2681.334243
1422.495044,7624.121203,-2442.679609,383.047749
1422.495373,6217.729913,-4071.132681,-306.438199
1422.495702,5995.668130,-7772.162391,153.219100
1422.496031,7105.977043,-7402.059420,0.000000
1422.496360,6291.750507,-7624.121203,-766.095498
1422.496689,5033.400406,-9178.553681,-536.266849
1422.497018,4219.173869,-11843.295072,0.000000
1422.497347,5329.482782,-11251.130318,1149.143247
1422.497676,6587.832884,-9326.594869,1225.752797
1422.498005,6809.894666,-7254.018232,1838.629195
1422.498334,6809.894666,-6957.935855,2528.115143
1422.498663,7698.141797,-5847.626942,3830.477490
1422.498993,8808.450710,-2368.659014,1838.629195
1422.499322,8290.306550,-1924.535449,1455.581446
1422.499651,9474.636058,-1850.514855,2298.286494
1422.499980,9400.615463,-2738.761985,842.705048
1422.500309,7179.997637,-4515.256246,306.438199
1422.500638,6143.709319,-6809.894666,-153.219100
1422.500967,7031.956449,-8586.388927,153.219100
1422.501296,7402.059420,-9326.594869,0.000000
1422.501625,5921.647536,-8956.491898,-229.828649
1422.501954,4441.235652,-9770.718434,-842.705048
1422.502283,5329.482782,-10881.027347,-1072.533697
1422.502612,6143.709319,-9178.553681,689.485948
1422.502941,6957.935855,-7994.224174,1072.533697
1422.503270,7624.121203,-6735.874072,1762.019645
1422.503600,7105.977043,-5107.421000,2068.457845
1422.503929,6217.729913,-4441.235652,2528.115143
1422.504258,9326.594869,-3478.967927,2987.772442
1422.504587,10584.944971,-3330.926739,3753.867940
1422.504916,9548.656652,-3108.864956,2145.067394
1422.505245,6957.935855,-3627.009116,229.828649
1422.505574,5329.482782,-5921.647536,-306.438199
1422.505903,4441.235652,-7624.121203,-1685.410096
1422.506232,4959.379811,-8660.409521,-919.314598
1422.506561,5995.668130,-9104.533087,0.000000
1422.506890,6365.771101,-8660.409521,-306.438199
1422.507219,5995.668130,-9696.697840,383.047749
1422.507548,5329.482782,-10436.903782,995.924147
1422.507877,6217.729913,-8438.347739,1072.533697
1422.508206,7550.100608,-6587.832884,1378.971896
1422.508536,7476.080014,-5181.441594,2068.457845
1422.508865,7105.977043,-5329.482782,1608.800546
1422.509194,7031.956449,-4959.379811,2451.505594
1422.509523,8438.347739,-2368.659014,2451.505594
1422.509852,8734.430116,-2368.659014,1838.629195
1422.510181,7994.224174,-2960.823768,2221.676944
1422.510510,6957.935855,-4663.297435,153.219100
1422.510839,5403.503377,-7254.018232,0.000000
1422.511168,6661.853478,-8364.327145,383.047749
1422.511497,7624.121203,-9030.512492,306.438199
1422.511826,7624.121203,-7105.977043,229.828649
1422.512155,6735.874072,-7550.100608,0.000000
1422.512484,5551.544565,-8142.265362,-919.314598
1422.512813,5921.647536,-8290.306550,-306.438199
1422.513143,6809.894666,-8142.265362,1915.238745
1422.513472,7994.224174,-6809.894666,1532.190996
1422.513801,7698.141797,-7698.141797,2451.505594
1422.514130,7031.956449,-7328.038826,2757.943793
1422.514459,7254.018232,-5033.400406,2451.505594
1422.514788,8660.409521,-4515.256246,2604.724693
1422.515117,9474.636058,-4737.318029,2757.943793
1422.515446,7772.162391,-4367.215058,1225.752797
1422.515775,5551.544565,-4737.318029,0.000000
1422.516104,4663.297435,-6143.709319,-1072.533697
1422.516433,5551.544565,-7994.224174,0.000000
1422.516762,7179.997637,-8216.285956,842.705048
1422.517091,7994.224174,-7550.100608,153.219100
1422.517420,7402.059420,-7179.997637,1072.533697
1422.517749,6365.771101,-9030.512492,1532.190996
1422.518079,6217.729913,-9178.553681,1532.190996
1422.518408,7105.977043,-7476.080014,1532.190996
1422.518737,6217.729913,-6957.935855,2374.896044
1422.519066,5403.503377,-7254.018232,2221.676944
1422.519395,5699.585753,-6735.874072,2451.505594
1422.519724,6587.832884,-3478.967927,2374.896044
1422.520053,8216.285956,-4885.359217,3600.648841
1422.520382,9252.574275,-3627.009116,3447.429741
1422.520711,7179.997637,-3997.112087,1455.581446
1422.521040,5847.626942,-4885.359217,919.314598
1422.521369,5329.482782,-4663.297435,612.876398
1422.521698,5847.626942,-7476.080014,0.000000
1422.522027,5995.668130,-7105.977043,383.047749
1422.522356,6883.915261,-6661.853478,0.000000
1422.522686,7698.141797,-8364.327145,0.000000
1422.523015,7179.997637,-8882.471304,536.266849
1422.523344,6513.812290,-8882.471304,919.314598
1422.523673,7920.203579,-8290.306550,1991.848295
1422.524002,7994.224174,-7179.997637,2681.334243
1422.524331,6439.791695,-7772.162391,2221.676944
1422.524660,6883.915261,-5995.668130,2298.286494
1422.524989,8216.285956,-4071.132681,2374.896044
1422.525318,9622.677246,-4219.173869,2604.724693
1422.525647,8882.471304,-3997.112087,2528.115143
1422.525976,7550.100608,-3627.009116,995.924147
1422.526305,6735.874072,-3627.009116,-459.657299
1422.526634,5847.626942,-6587.832884,-612.876398
1422.526963,6809.894666,-7698.141797,536.266849
1422.527293,7105.977043,-6957.935855,-689.485948
1422.527622,6587.832884,-7772.162391,0.000000
1422.527951,6291.750507,-9548.656652,0.000000
1422.528280,6809.894666,-10658.965565,-306.438199
1422.528609,7105.977043,-9104.533087,842.705048
1422.528938,7328.038826,-8956.491898,1302.362347
1422.529267,7105.977043,-9252.574275,1991.848295
1422.529596,5921.647536,-6809.894666,1838.629195
1422.529925,5255.462188,-4737.318029,919.314598
1422.530254,7105.977043,-3182.885551,1149.143247
1422.530583,8734.430116,-3108.864956,2221.676944
1422.530912,8956.491898,-4589.276840,1608.800546
1422.531241,7402.059420,-5033.400406,1072.533697
1422.531570,6291.750507,-4145.153275,-306.438199
1422.531899,5847.626942,-6143.709319,-1378.971896
1422.532229,5995.668130,-7698.141797,-229.828649
1422.532558,6217.729913,-6957.935855,-536.266849
1422.532887,6735.874072,-7105.977043,-229.828649
1422.533216,6513.812290,-9400.615463,0.000000
1422.533545,5773.606348,-9992.780217,842.705048
1422.533874,7179.997637,-9474.636058,1532.190996
1422.534203,7624.121203,-8068.244768,1838.629195
1422.534532,6439.791695,-7254.018232,1838.629195
1422.534861,5477.523971,-7031.956449,2068.457845
1422.535190,6883.915261,-3701.029710,2221.676944
1422.535519,8660.409521,-2738.761985,2145.067394
1422.535848,8660.409521,-3182.885551,2374.896044
1422.536177,7846.182985,-3627.009116,842.705048
1422.536506,6365.771101,-4737.318029,-383.047749
1422.536836,6069.688724,-5699.585753,0.000000
1422.537165,6439.791695,-7994.224174,76.609550
1422.537494,7846.182985,-7698.141797,459.657299
1422.537823,7698.141797,-7698.141797,76.609550
1422.538152,7105.977043,-8290.306550,0.000000
1422.538481,6661.853478,-9252.574275,229.828649
1422.538810,7105.977043,-9992.780217,1149.143247
1422.539139,8512.368333,-8512.368333,1838.629195
1422.539468,7994.224174,-7328.038826,2068.457845
1422.539797,5773.606348,-6661.853478,1762.019645
1422.540126,5773.606348,-6587.832884,2221.676944
1422.540455,7402.059420,-3849.070898,2528.115143
1422.540784,8586.388927,-1998.556043,2604.724693
1422.541113,8364.327145,-3627.009116,2374.896044
1422.541442,7698.141797,-4737.318029,2451.505594
1422.541772,6735.874072,-4737.318029,1149.143247
1422.542101,5181.441594,-6217.729913,229.828649
1422.542430,5329.482782,-7994.224174,612.876398
1422.542759,6661.853478,-7994.224174,76.609550
1422.543088,6587.832884,-7920.203579,-76.609550
1422.543417,5699.585753,-7846.182985,0.000000
1422.543746,6217.729913,-9918.759623,306.438199
1422.544075,7402.059420,-9918.759623,1378.971896
1422.544404,8068.244768,-7846.182985,2681.334243
1422.544733,7328.038826,-7624.121203,2681.334243
1422.545062,6809.894666,-7254.018232,2604.724693
1422.545391,5255.462188,-5847.626942,2145.067394
1422.545720,6587.832884,-3997.112087,2145.067394
1422.546049,8586.388927,-3034.844362,2757.943793
1422.546379,9030.512492,-2516.700203,1762.019645
1422.546708,6735.874072,-4145.153275,1072.533697
1422.547037,5921.647536,-4959.379811,689.485948
1422.547366,6143.709319,-5847.626942,153.219100
1422.547695,5625.565159,-7772.162391,76.609550
1422.548024,5699.585753,-7698.141797,76.609550
1422.548353,6809.894666,-7846.182985,306.438199
1422.548682,7476.080014,-8512.368333,689.485948
1422.549011,6809.894666,-8882.471304,612.876398
1422.549340,7179.997637,-8512.368333,1685.410096
1422.549669,8068.244768,-6809.894666,383.047749
1422.549998,7179.997637,-6661.853478,1149.143247
1422.550327,6217.729913,-7994.224174,2681.334243
1422.550656,7402.059420,-5329.482782,2834.553343
1422.550985,7920.203579,-3552.988522,2374.896044
1422.551315,7772.162391,-4441.235652,1838.629195
1422.551644,7476.080014,-4663.297435,1608.800546
1422.551973,7550.100608,-5329.482782,153.219100
