#time,accel_x,accel_y,accel_z
1266.840044,6809.894666,-6513.812290,995.924147
1266.840374,6809.894666,-6735.874072,1225.752797
1266.840705,6735.874072,-6587.832884,1532.190996
1266.841035,6883.915261,-6513.812290,919.314598
1266.841366,7179.997637,-6365.771101,1225.752797
1266.841696,7105.977043,-7105.977043,1302.362347
1266.842027,7031.956449,-6661.853478,919.314598
1266.842357,6661.853478,-6957.935855,689.485948
1266.842688,6735.874072,-6587.832884,612.876398
1266.843018,6513.812290,-6957.935855,995.924147
1266.843349,7179.997637,-6661.853478,1149.143247
1266.843679,7328.038826,-6513.812290,995.924147
1266.844010,7698.141797,-6439.791695,842.705048
1266.844340,7476.080014,-6217.729913,1072.533697
1266.844671,7328.038826,-6291.750507,689.485948
1266.845001,7105.977043,-6217.729913,1225.752797
1266.845332,6957.935855,-5625.565159,383.047749
1266.845662,6587.832884,-6439.791695,1302.362347
1266.845993,6661.853478,-6661.853478,1302.362347
1266.846323,7179.997637,-6217.729913,1225.752797
1266.846654,7105.977043,-6439.791695,1149.143247
1266.846984,6809.894666,-6217.729913,1685.410096
1266.847315,6809.894666,-7105.977043,919.314598
1266.847645,6587.832884,-6735.874072,1072.533697
1266.847976,6217.729913,-6883.915261,766.095498
1266.848306,7031.956449,-6957.935855,995.924147
1266.848637,6809.894666,-6735.874072,995.924147
1266.848967,7031.956449,-7179.997637,995.924147
1266.849298,6735.874072,-6957.935855,842.705048
1266.849628,6809.894666,-6661.853478,995.924147
1266.849959,6809.894666,-6883.915261,1225.752797
1266.850289,6883.915261,-6883.915261,842.705048
1266.850620,6809.894666,-6587.832884,919.314598
1266.850950,7254.018232,-6809.894666,689.485948
1266.851281,7698.141797,-6735.874072,995.924147
1266.851611,7550.100608,-6143.709319,1378.971896
1266.851942,7254.018232,-6291.750507,1072.533697
1266.852272,7105.977043,-6143.709319,1149.143247
1266.852603,6809.894666,-6809.894666,842.705048
1266.852933,6661.853478,-6513.812290,2451.505594
1266.853264,6957.935855,-6365.771101,995.924147
1266.853594,7179.997637,-6661.853478,919.314598
1266.853925,7328.038826,-6069.688724,1302.362347
1266.854255,7105.977043,-6291.750507,1302.362347
1266.854586,6661.853478,-6661.853478,1378.971896
1266.854916,6883.915261,-6513.812290,1072.533697
1266.855247,6439.791695,-6513.812290,919.314598
1266.855577,6217.729913,-6661.853478,689.485948
1266.855908,6957.935855,-6735.874072,1455.581446
1266.856238,7476.080014,-7031.956449,1225.752797
1266.856569,7254.018232,-6661.853478,1149.143247
1266.856899,6513.812290,-6735.874072,842.705048
1266.857230,7031.956449,-6587.832884,919.314598
1266.857560,7328.038826,-6883.915261,536.266849
1266.857891,7031.956449,-6365.771101,689.485948
1266.858221,7328.038826,-6661.853478,995.924147
1266.858552,7476.080014,-6291.750507,1302.362347
1266.858882,7550.100608,-6661.853478,1302.362347
1266.859213,7846.182985,-6291.750507,995.924147
1266.859543,7031.956449,-5995.668130,1149.143247
1266.859874,6809.894666,-6143.709319,766.095498
1266.860204,6513.812290,-6661.853478,1072.533697
1266.860535,7105.977043,-6365.771101,1072.533697
1266.860866,7402.059420,-6069.688724,383.047749
1266.861196,7179.997637,-6217.729913,1149.143247
1266.861527,7105.977043,-6365.771101,1378.971896
1266.861857,7031.956449,-6661.853478,1072.533697
1266.862188,6809.894666,-7105.977043,1532.190996
1266.862518,6513.812290,-6883.915261,689.485948
1266.862849,6513.812290,-6587.832884,1455.581446
1266.863179,6809.894666,-6735.874072,1149.143247
1266.863510,7105.977043,-6957.935855,1762.019645
1266.863840,7105.977043,-6957.935855,536.266849
1266.864171,6735.874072,-7031.956449,1072.533697
1266.864501,6735.874072,-6957.935855,689.485948
1266.864832,7031.956449,-6809.894666,1072.533697
1266.865162,6735.874072,-6217.729913,766.095498
1266.865493,7105.977043,-7254.018232,766.095498
1266.865823,7476.080014,-6735.874072,1455.581446
1266.866154,7476.080014,-6365.771101,1302.362347
1266.866484,7476.080014,-6291.750507,1378.971896
1266.866815,7254.018232,-5699.585753,919.314598
1266.867145,6809.894666,-6587.832884,536.266849
1266.867476,6439.791695,-6735.874072,842.705048
1266.867806,6809.894666,-6291.750507,1149.143247
1266.868137,7254.018232,-5551.544565,766.095498
1266.868467,7179.997637,-5847.626942,1149.143247
1266.868798,6957.935855,-6439.791695,1302.362347
1266.869128,6809.894666,-6661.853478,1072.533697
1266.869459,6735.874072,-6587.832884,766.095498
1266.869789,6587.832884,-5995.668130,919.314598
1266.870120,6439.791695,-7031.956449,995.924147
1266.870450,6957.935855,-6661.853478,1225.752797
1266.870781,7105.977043,-7105.977043,1378.971896
1266.871111,7031.956449,-6291.750507,919.314598
1266.871442,7031.956449,-6439.791695,995.924147
1266.871772,7105.977043,-6513.812290,612.876398
1266.872103,6735.874072,-6883.915261,919.314598
1266.872433,6957.935855,-6439.791695,919.314598
1266.872764,7402.059420,-6735.874072,995.924147
1266.873094,7105.977043,-6291.750507,1225.752797
1266.873425,7179.997637,-6291.750507,1072.533697
1266.873755,7476.080014,-6365.771101,995.924147
1266.874086,7698.141797,-6513.812290,995.924147
1266.874416,7105.977043,-6217.729913,689.485948
1266.874747,6661.853478,-6439.791695,919.314598
1266.875077,6513.812290,-6661.853478,1225.752797
1266.875408,7254.018232,-6365.771101,842.705048
1266.875738,7179.997637,-6217.729913,842.705048
1266.876069,7105.977043,-6143.709319,1149.143247
1266.876399,7031.956449,-6661.853478,1149.143247
1266.876730,6883.915261,-6735.874072,995.924147
1266.877060,6291.750507,-7105.977043,536.266849
1266.877391,6143.709319,-7179.997637,76.609550
1266.877721,6809.894666,-7105.977043,1072.533697
1266.878052,6809.894666,-7254.018232,995.924147
1266.878382,7105.977043,-7031.956449,1225.752797
1266.878713,7328.038826,-6365.771101,1302.362347
1266.879043,7031.956449,-6365.771101,919.314598
1266.879374,6661.853478,-6661.853478,919.314598
1266.879704,6513.812290,-6439.791695,919.314598
1266.880035,6883.915261,-6735.874072,536.266849
1266.880365,7698.141797,-6143.709319,612.876398
1266.880696,7402.059420,-6513.812290,1532.190996
1266.881026,7550.100608,-6143.709319,1225.752797
1266.881357,7254.018232,-6069.688724,1378.971896
1266.881687,7105.977043,-6143.709319,766.095498
1266.882018,6513.812290,-6587.832884,842.705048
1266.882348,6809.894666,-6809.894666,1302.362347
1266.882679,7031.956449,-6587.832884,995.924147
1266.883009,7179.997637,-6291.750507,1378.971896
1266.883340,6809.894666,-6217.729913,1915.238745
1266.883670,7105.977043,-6883.915261,1149.143247
1266.884001,6809.894666,-6809.894666,1302.362347
1266.884331,6587.832884,-6513.812290,842.705048
1266.884662,6143.709319,-6365.771101,689.485948
1266.884992,6587.832884,-5995.668130,1378.971896
1266.885323,7105.977043,-6809.894666,1302.362347
1266.885653,7105.977043,-6883.915261,1149.143247
1266.885984,6809.894666,-6587.832884,1072.533697
1266.886314,7031.956449,-6217.729913,842.705048
1266.886645,6883.915261,-6661.853478,689.485948
1266.886975,6957.935855,-6661.853478,536.266849
1266.887306,7254.018232,-6809.894666,995.924147
1266.887636,7402.059420,-6513.812290,1225.752797
1266.887967,7179.997637,-6513.812290,1302.362347
1266.888297,7328.038826,-6365.771101,919.314598
1266.888628,7254.018232,-6069.688724,1149.143247
1266.888958,6809.894666,-5773.606348,306.438199
1266.889289,6809.894666,-6735.874072,766.095498
1266.889619,6661.853478,-6439.791695,919.314598
1266.889950,7179.997637,-6365.771101,919.314598
1266.890280,7105.977043,-5921.647536,1455.581446
1266.890611,6809.894666,-6439.791695,1302.362347
1266.890941,7105.977043,-6513.812290,919.314598
1266.891272,6957.935855,-6809.894666,1378.971896
1266.891602,6439.791695,-6809.894666,995.924147
1266.891933,6513.812290,-6661.853478,766.095498
1266.892263,7031.956449,-6809.894666,689.485948
1266.892594,6661.853478,-6809.894666,1149.143247
1266.892924,7031.956449,-6513.812290,689.485948
1266.893255,6587.832884,-6883.915261,1149.143247
1266.893585,6957.935855,-7105.977043,842.705048
1266.893916,6735.874072,-6587.832884,536.266849
1266.894246,6587.832884,-6587.832884,919.314598
1266.894577,7105.977043,-7031.956449,842.705048
1266.894908,7476.080014,-6513.812290,1378.971896
1266.895238,7328.038826,-6661.853478,1302.362347
1266.895569,7328.038826,-6291.750507,1762.019645
1266.895899,7772.162391,-5847.626942,1378.971896
1266.896230,7105.977043,-6291.750507,766.095498
1266.896560,6513.812290,-6587.832884,1149.143247
1266.896891,6809.894666,-6439.791695,1072.533697
1266.897221,7105.977043,-6365.771101,995.924147
1266.897552,6809.894666,-6069.688724,1072.533697
1266.897882,6735.874072,-6365.771101,1149.143247
1266.898213,6809.894666,-6809.894666,1302.362347
1266.898543,7550.100608,-6883.915261,1225.752797
1266.898874,6735.874072,-6735.874072,919.314598
1266.899204,6661.853478,-6291.750507,995.924147
1266.899535,7105.977043,-6291.750507,1149.143247
1266.899865,7105.977043,-7105.977043,919.314598
1266.900196,7624.121203,-6957.935855,1149.143247
1266.900526,7105.977043,-6735.874072,1072.533697
1266.900857,7105.977043,-6661.853478,842.705048
1266.901187,6957.935855,-6883.915261,995.924147
1266.901518,6661.853478,-6587.832884,1378.971896
1266.901848,7105.977043,-7105.977043,689.485948
1266.902179,7179.997637,-6587.832884,1149.143247
1266.902509,7179.997637,-6439.791695,995.924147
1266.902840,7402.059420,-5921.647536,1225.752797
1266.903170,7550.100608,-5329.482782,1378.971896
1266.903501,7402.059420,-6069.688724,919.314598
1266.903831,6809.894666,-6439.791695,1072.533697
1266.904161,6587.832884,-6587.832884,919.314598
1266.904490,7328.038826,-6513.812290,0.000000
1266.904820,7105.977043,-6661.853478,1072.533697
1266.905150,6957.935855,-6661.853478,1378.971896
1266.905479,6735.874072,-6513.812290,919.314598
1266.905809,6883.915261,-7105.977043,995.924147
1266.906138,6217.729913,-5995.668130,842.705048
1266.906468,6439.791695,-6735.874072,612.876398
1266.906798,6513.812290,-6735.874072,919.314598
1266.907127,6809.894666,-6439.791695,842.705048
1266.907457,6957.935855,-6587.832884,919.314598
1266.907787,6587.832884,-6513.812290,1072.533697
1266.908116,6957.935855,-6513.812290,1532.190996
1266.908446,6809.894666,-6735.874072,842.705048
1266.908775,6809.894666,-6661.853478,689.485948
1266.909105,6957.935855,-7105.977043,536.266849
1266.909435,7254.018232,-6735.874072,689.485948
1266.909764,7179.997637,-7105.977043,995.924147
1266.910094,7328.038826,-6143.709319,1072.533697
1266.910424,7624.121203,-5921.647536,1302.362347
1266.910753,7328.038826,-5847.626942,1302.362347
1266.911083,6735.874072,-6365.771101,1225.752797
1266.911412,6735.874072,-6661.853478,995.924147
1266.911742,7031.956449,-6291.750507,689.485948
1266.912072,7476.080014,-5625.565159,1302.362347
1266.912401,7328.038826,-6217.729913,1225.752797
1266.912731,7105.977043,-6809.894666,842.705048
1266.913061,6587.832884,-7179.997637,1149.143247
1266.913390,6587.832884,-6957.935855,995.924147
1266.913720,6439.791695,-7031.956449,995.924147
1266.914049,6587.832884,-6439.791695,1072.533697
1266.914379,7105.977043,-7105.977043,1072.533697
1266.914709,6957.935855,-6957.935855,919.314598
1266.915038,6809.894666,-6809.894666,1302.362347
1266.915368,7105.977043,-7105.977043,842.705048
1266.915698,7031.956449,-6809.894666,919.314598
1266.916027,6661.853478,-6365.771101,995.924147
1266.916357,7031.956449,-6809.894666,842.705048
1266.916686,7254.018232,-6069.688724,1455.581446
1266.917016,6735.874072,-6069.688724,842.705048
1266.917346,7105.977043,-6217.729913,919.314598
1266.917675,7254.018232,-5995.668130,1532.190996
1266.918005,7254.018232,-6513.812290,766.095498
1266.918335,6661.853478,-6143.709319,1532.190996
1266.918664,6513.812290,-6439.791695,842.705048
1266.918994,6957.935855,-6809.894666,1302.362347
1266.919323,7031.956449,-6365.771101,1378.971896
1266.919653,6957.935855,-6513.812290,1685.410096
1266.919983,6883.915261,-6513.812290,995.924147
1266.920312,7031.956449,-6957.935855,1302.362347
1266.920642,6809.894666,-6883.915261,995.924147
1266.920971,6439.791695,-7031.956449,383.047749
1266.921301,6735.874072,-6587.832884,842.705048
1266.921631,7105.977043,-6587.832884,1149.143247
1266.921960,7031.956449,-7105.977043,919.314598
1266.922290,6661.853478,-7105.977043,1608.800546
1266.922620,7105.977043,-7105.977043,1838.629195
1266.922949,7031.956449,-6587.832884,919.314598
1266.923279,6735.874072,-6439.791695,995.924147
1266.923608,6809.894666,-6735.874072,766.095498
1266.923938,7402.059420,-6513.812290,1072.533697
1266.924268,7624.121203,-6291.750507,766.095498
1266.924597,7179.997637,-6439.791695,1149.143247
1266.924927,7254.018232,-6143.709319,1225.752797
1266.925257,7179.997637,-6439.791695,842.705048
1266.925586,6661.853478,-6735.874072,1072.533697
1266.925916,7179.997637,-6957.935855,919.314598
1266.926245,7031.956449,-6365.771101,766.095498
1266.926575,7105.977043,-6365.771101,995.924147
1266.926905,7105.977043,-6069.688724,1072.533697
1266.927234,7105.977043,-6439.791695,1225.752797
1266.927564,7179.997637,-6661.853478,1072.533697
1266.927894,6883.915261,-6735.874072,1149.143247
1266.928223,6587.832884,-6587.832884,842.705048
1266.928553,6809.894666,-6291.750507,995.924147
1266.928882,6661.853478,-6513.812290,1378.971896
1266.929212,6809.894666,-6735.874072,842.705048
1266.929542,6735.874072,-6809.894666,919.314598
1266.929871,7105.977043,-6809.894666,842.705048
1266.930201,7105.977043,-6809.894666,919.314598
1266.930531,7031.956449,-6291.750507,383.047749
1266.930860,7179.997637,-6957.935855,842.705048
1266.931190,7179.997637,-6735.874072,1225.752797
1266.931519,7550.100608,-6513.812290,995.924147
1266.931849,7328.038826,-6143.709319,689.485948
1266.932179,7550.100608,-6217.729913,1072.533697
1266.932508,7550.100608,-6217.729913,1149.143247
1266.932838,6809.894666,-6439.791695,1149.143247
1266.933168,6587.832884,-6439.791695,995.924147
1266.933497,6809.894666,-6587.832884,919.314598
1266.933827,6957.935855,-6513.812290,1532.190996
1266.934156,6735.874072,-6217.729913,1149.143247
1266.934486,6513.812290,-6883.915261,1302.362347
1266.934816,7105.977043,-6809.894666,1302.362347
1266.935145,6957.935855,-6809.894666,1149.143247
1266.935475,6957.935855,-6735.874072,1072.533697
1266.935804,6809.894666,-7031.956449,995.924147
1266.936134,7031.956449,-6957.935855,1378.971896
1266.936464,6809.894666,-6809.894666,1915.238745
1266.936793,6513.812290,-6809.894666,1225.752797
1266.937123,6809.894666,-6587.832884,919.314598
1266.937453,6883.915261,-6661.853478,842.705048
1266.937782,6809.894666,-6735.874072,1302.362347
1266.938112,7105.977043,-6661.853478,612.876398
1266.938441,7105.977043,-6439.791695,612.876398
1266.938771,7105.977043,-6439.791695,919.314598
1266.939101,6957.935855,-6217.729913,1149.143247
1266.939430,7179.997637,-5921.647536,1225.752797
1266.939760,7550.100608,-6143.709319,1149.143247
1266.940090,7179.997637,-6143.709319,1072.533697
1266.940419,6957.935855,-6365.771101,919.314598
1266.940749,7105.977043,-6809.894666,919.314598
1266.941078,7105.977043,-6439.791695,612.876398
1266.941408,6883.915261,-6291.750507,842.705048
1266.941738,6661.853478,-6661.853478,1072.533697
1266.942067,6587.832884,-6809.894666,766.095498
1266.942397,7105.977043,-6883.915261,383.047749
1266.942727,6439.791695,-6809.894666,1072.533697
1266.943056,6883.915261,-6291.750507,536.266849
1266.943386,6957.935855,-6735.874072,842.705048
1266.943715,7105.977043,-7031.956449,842.705048
1266.944045,7105.977043,-7105.977043,842.705048
1266.944375,7179.997637,-6809.894666,919.314598
1266.944704,7328.038826,-6587.832884,919.314598
1266.945034,7105.977043,-7031.956449,1072.533697
1266.945364,6883.915261,-6661.853478,1225.752797
1266.945693,7328.038826,-6365.771101,995.924147
1266.946023,7105.977043,-6291.750507,612.876398
1266.946352,7105.977043,-6291.750507,1072.533697
1266.946682,7550.100608,-5921.647536,995.924147
1266.947012,7698.141797,-5551.544565,1455.581446
1266.947341,6661.853478,-6291.750507,1072.533697
1266.947671,6735.874072,-6513.812290,1072.533697
1266.948000,7105.977043,-6513.812290,842.705048
1266.948330,7031.956449,-6069.688724,1532.190996
1266.948660,7105.977043,-6513.812290,1302.362347
1266.948989,6883.915261,-6513.812290,1378.971896
1266.949319,6883.915261,-6957.935855,1455.581446
1266.949649,6735.874072,-7105.977043,1302.362347
1266.949978,6735.874072,-6217.729913,1915.238745
1266.950308,6513.812290,-6365.771101,1149.143247
1266.950637,6735.874072,-6883.915261,1149.143247
1266.950967,6439.791695,-7031.956449,1149.143247
1266.951297,6735.874072,-6883.915261,1149.143247
1266.951626,6957.935855,-6291.750507,1608.800546
1266.951956,6957.935855,-6587.832884,766.095498
1266.952286,7031.956449,-6809.894666,1225.752797
1266.952615,7179.997637,-6735.874072,995.924147
1266.952945,7476.080014,-6809.894666,1378.971896
1266.953274,7105.977043,-6587.832884,1072.533697
1266.953604,6957.935855,-6217.729913,1072.533697
1266.953934,7328.038826,-6291.750507,1149.143247
1266.954263,7179.997637,-6365.771101,1072.533697
1266.954593,7179.997637,-6439.791695,1072.533697
1266.954923,6735.874072,-5847.626942,1455.581446
1266.955252,7328.038826,-5329.482782,919.314598
1266.955582,7624.121203,-5181.441594,1225.752797
1266.955911,8216.285956,-5255.462188,1072.533697
1266.956241,8734.430116,-6143.709319,1762.019645
1266.956571,7698.141797,-6439.791695,766.095498
1266.956900,6217.729913,-7179.997637,0.000000
1266.957230,5477.523971,-7402.059420,76.609550
1266.957560,6513.812290,-6809.894666,842.705048
1266.957889,7476.080014,-7402.059420,919.314598
1266.958219,7698.141797,-6883.915261,1302.362347
1266.958548,8290.306550,-5625.565159,1608.800546
1266.958878,8290.306550,-3923.091493,842.705048
1266.959208,8364.327145,-4367.215058,1225.752797
1266.959537,8068.244768,-4515.256246,995.924147
1266.959867,8512.368333,-4145.153275,689.485948
1266.960197,9104.533087,-4885.359217,919.314598
1266.960526,8956.491898,-3923.091493,536.266849
1266.960856,8142.265362,-5255.462188,536.266849
1266.961185,8882.471304,-4515.256246,919.314598
1266.961515,9622.677246,-4589.276840,995.924147
1266.961845,9104.533087,-6217.729913,1455.581446
1266.962174,8216.285956,-4663.297435,1302.362347
1266.962504,7772.162391,-5773.606348,459.657299
1266.962833,7920.203579,-4737.318029,842.705048
1266.963163,7994.224174,-4589.276840,229.828649
1266.963493,8290.306550,-4515.256246,689.485948
1266.963822,9104.533087,-4737.318029,1608.800546
1266.964152,9252.574275,-4663.297435,1838.629195
1266.964482,9252.574275,-3182.885551,1685.410096
1266.964811,8808.450710,-3478.967927,1608.800546
1266.965141,9178.553681,-3034.844362,1225.752797
1266.965470,9400.615463,-3701.029710,1072.533697
1266.965800,9030.512492,-4515.256246,1225.752797
1266.966130,9104.533087,-4071.132681,766.095498
1266.966459,9030.512492,-4959.379811,1072.533697
1266.966789,8290.306550,-4959.379811,1608.800546
1266.967119,8438.347739,-6143.709319,1455.581446
1266.967448,8586.388927,-5551.544565,995.924147
1266.967778,8290.306550,-4737.318029,766.095498
1266.968107,8142.265362,-5181.441594,995.924147
1266.968437,8808.450710,-4589.276840,1455.581446
1266.968767,9178.553681,-4219.173869,766.095498
1266.969096,8808.450710,-4737.318029,1225.752797
1266.969426,7846.182985,-5107.421000,1072.533697
1266.969756,8290.306550,-5625.565159,536.266849
1266.970085,8660.409521,-4885.359217,153.219100
1266.970415,8586.388927,-5033.400406,536.266849
1266.970744,9178.553681,-4515.256246,459.657299
1266.971074,9844.739029,-4515.256246,536.266849
1266.971404,10066.800811,-4441.235652,1302.362347
1266.971733,10066.800811,-4441.235652,1302.362347
1266.972063,9622.677246,-3627.009116,842.705048
1266.972393,9178.553681,-4145.153275,919.314598
1266.972722,8660.409521,-4663.297435,612.876398
1266.973052,8364.327145,-3775.050304,1455.581446
1266.973381,9252.574275,-4293.194464,1455.581446
1266.973711,9622.677246,-4145.153275,2068.457845
1266.974041,9474.636058,-3849.070898,2145.067394
1266.974370,9844.739029,-3997.112087,1378.971896
1266.974700,9474.636058,-3404.947333,1225.752797
1266.975030,9030.512492,-4219.173869,229.828649
1266.975359,8808.450710,-4367.215058,766.095498
1266.975689,8734.430116,-3849.070898,229.828649
1266.976018,9252.574275,-4663.297435,-536.266849
1266.976348,8734.430116,-5107.421000,-383.047749
1266.976678,8734.430116,-5921.647536,229.828649
1266.977007,8512.368333,-6291.750507,459.657299
1266.977337,8142.265362,-6069.688724,1302.362347
1266.977666,7920.203579,-5699.585753,842.705048
1266.977996,7328.038826,-5847.626942,919.314598
1266.978326,7846.182985,-6143.709319,1762.019645
1266.978655,8142.265362,-5921.647536,2757.943793
1266.978985,8586.388927,-4737.318029,2374.896044
1266.979315,8660.409521,-4145.153275,2068.457845
1266.979644,8882.471304,-3627.009116,1685.410096
1266.979974,8660.409521,-3256.906145,919.314598
1266.980303,8438.347739,-2590.720797,766.095498
1266.980633,9104.533087,-3330.926739,0.000000
1266.980963,9548.656652,-3330.926739,0.000000
1266.981292,9474.636058,-4367.215058,0.000000
1266.981622,8956.491898,-5921.647536,689.485948
1266.981952,8438.347739,-6809.894666,383.047749
1266.982281,7179.997637,-9252.574275,842.705048
1266.982611,6069.688724,-9622.677246,1149.143247
1266.982940,5625.565159,-9770.718434,919.314598
1266.983270,5551.544565,-9178.553681,1149.143247
1266.983600,4589.276840,-9326.594869,689.485948
1266.983929,4441.235652,-8586.388927,459.657299
1266.984259,5107.421000,-7031.956449,153.219100
1266.984589,5995.668130,-5847.626942,0.000000
1266.984918,7105.977043,-4737.318029,536.266849
1266.985248,7402.059420,-4589.276840,1149.143247
1266.985577,8586.388927,-4293.194464,1149.143247
1266.985907,9548.656652,-3849.070898,1608.800546
1266.986237,9918.759623,-3849.070898,1532.190996
1266.986566,9770.718434,-3923.091493,1455.581446
1266.986896,9474.636058,-4737.318029,1608.800546
1266.987226,8364.327145,-4959.379811,612.876398
1266.987555,7254.018232,-5477.523971,536.266849
1266.987885,6957.935855,-6069.688724,1532.190996
1266.988214,7698.141797,-6143.709319,1838.629195
1266.988544,7550.100608,-5995.668130,2911.162892
1266.988874,7179.997637,-7031.956449,2681.334243
1266.989203,6587.832884,-6365.771101,1378.971896
1266.989533,5625.565159,-6439.791695,995.924147
1266.989863,5699.585753,-6735.874072,1072.533697
1266.990192,5995.668130,-7031.956449,612.876398
1266.990522,7254.018232,-5773.606348,0.000000
1266.990851,7031.956449,-6735.874072,0.000000
1266.991181,7179.997637,-7105.977043,1225.752797
1266.991511,7994.224174,-6587.832884,1455.581446
1266.991840,7920.203579,-6883.915261,2298.286494
1266.992170,7698.141797,-5033.400406,1991.848295
1266.992499,8216.285956,-4737.318029,1455.581446
1266.992829,7698.141797,-5329.482782,2604.724693
1266.993159,7846.182985,-5107.421000,2528.115143
1266.993488,7179.997637,-5033.400406,1225.752797
1266.993818,6809.894666,-4515.256246,1072.533697
1266.994148,6217.729913,-6069.688724,919.314598
1266.994477,6143.709319,-8216.285956,612.876398
1266.994807,5329.482782,-8290.306550,689.485948
1266.995136,5255.462188,-8808.450710,383.047749
1266.995466,5625.565159,-7920.203579,1685.410096
1266.995796,6069.688724,-7698.141797,612.876398
1266.996125,6365.771101,-8808.450710,536.266849
1266.996455,6735.874072,-8216.285956,383.047749
1266.996785,6365.771101,-8142.265362,76.609550
1266.997114,6365.771101,-7179.997637,306.438199
1266.997444,6735.874072,-7031.956449,1608.800546
1266.997773,7772.162391,-6291.750507,1762.019645
1266.998103,8068.244768,-5403.503377,2298.286494
1266.998433,7624.121203,-3330.926739,2451.505594
1266.998762,7846.182985,-3997.112087,1455.581446
1266.999092,8216.285956,-4441.235652,1455.581446
1266.999422,7920.203579,-5403.503377,536.266849
1266.999751,7476.080014,-6513.812290,383.047749
1267.000081,6957.935855,-7476.080014,1149.143247
1267.000410,6735.874072,-7402.059420,689.485948
1267.000740,6735.874072,-8068.244768,1225.752797
1267.001070,6883.915261,-7698.141797,1532.190996
1267.001399,6735.874072,-7254.018232,1149.143247
1267.001729,5995.668130,-7402.059420,1072.533697
1267.002059,5181.441594,-7031.956449,459.657299
1267.002388,5773.606348,-7476.080014,-229.828649
1267.002718,5551.544565,-7105.977043,0.000000
1267.003047,5699.585753,-6957.935855,0.000000
1267.003377,6513.812290,-7698.141797,612.876398
1267.003707,7476.080014,-6883.915261,1378.971896
1267.004036,7476.080014,-6439.791695,842.705048
1267.004366,7179.997637,-5181.441594,1455.581446
1267.004696,8142.265362,-5329.482782,2221.676944
1267.005025,8734.430116,-4885.359217,995.924147
1267.005355,9030.512492,-4515.256246,1378.971896
1267.005684,8956.491898,-4737.318029,1149.143247
1267.006014,9030.512492,-4885.359217,1915.238745
1267.006343,7772.162391,-5107.421000,919.314598
1267.006673,6587.832884,-5995.668130,536.266849
1267.007002,6069.688724,-6217.729913,459.657299
1267.007331,5847.626942,-7254.018232,919.314598
1267.007661,5699.585753,-7179.997637,1991.848295
1267.007990,5847.626942,-8142.265362,1302.362347
1267.008319,6143.709319,-8068.244768,689.485948
1267.008649,6291.750507,-7920.203579,306.438199
1267.008978,5625.565159,-8142.265362,229.828649
1267.009307,5403.503377,-7328.038826,0.000000
1267.009636,6587.832884,-7624.121203,229.828649
1267.009966,7105.977043,-6957.935855,1225.752797
1267.010295,7105.977043,-5847.626942,1378.971896
1267.010624,7624.121203,-5329.482782,1302.362347
1267.010954,8364.327145,-4811.338623,1378.971896
1267.011283,8882.471304,-5255.462188,1225.752797
1267.011612,8734.430116,-6069.688724,1762.019645
1267.011942,8364.327145,-5551.544565,1378.971896
1267.012271,7920.203579,-5477.523971,1072.533697
1267.012600,6883.915261,-6587.832884,689.485948
1267.012930,6587.832884,-7105.977043,1762.019645
1267.013259,6809.894666,-7772.162391,2451.505594
1267.013588,7105.977043,-7105.977043,2221.676944
1267.013918,6217.729913,-6069.688724,1149.143247
1267.014247,5699.585753,-6661.853478,1302.362347
1267.014576,5847.626942,-7476.080014,766.095498
1267.014906,5477.523971,-7402.059420,612.876398
1267.015235,5255.462188,-7402.059420,689.485948
1267.015564,5403.503377,-7402.059420,306.438199
1267.015893,6143.709319,-7031.956449,919.314598
1267.016223,6735.874072,-7031.956449,1532.190996
1267.016552,7105.977043,-6217.729913,2068.457845
1267.016881,7994.224174,-5255.462188,1915.238745
1267.017211,8586.388927,-5551.544565,919.314598
1267.017540,8216.285956,-4959.379811,1149.143247
1267.017869,8438.347739,-5773.606348,536.266849
1267.018199,8068.244768,-6291.750507,1685.410096
1267.018528,8216.285956,-5847.626942,842.705048
1267.018857,7105.977043,-6365.771101,995.924147
1267.019187,6809.894666,-6069.688724,1762.019645
1267.019516,5921.647536,-7105.977043,1838.629195
1267.019845,5107.421000,-8068.244768,842.705048
1267.020175,4219.173869,-8216.285956,306.438199
1267.020504,4811.338623,-8586.388927,-153.219100
1267.020833,5847.626942,-7920.203579,76.609550
1267.021163,6587.832884,-7031.956449,229.828649
1267.021492,7105.977043,-6143.709319,919.314598
1267.021821,7920.203579,-5329.482782,1838.629195
1267.022150,8956.491898,-4885.359217,2145.067394
1267.022480,9030.512492,-3923.091493,2068.457845
1267.022809,9326.594869,-3256.906145,1991.848295
1267.023138,9178.553681,-3701.029710,1455.581446
1267.023468,8808.450710,-4737.318029,612.876398
1267.023797,7846.182985,-6439.791695,919.314598
1267.024126,7105.977043,-6661.853478,766.095498
1267.024456,7031.956449,-7254.018232,459.657299
1267.024785,6291.750507,-7328.038826,842.705048
1267.025114,6587.832884,-7994.224174,995.924147
1267.025444,6883.915261,-8068.244768,1532.190996
1267.025773,7254.018232,-7105.977043,1455.581446
1267.026102,5773.606348,-7254.018232,383.047749
1267.026432,5329.482782,-7031.956449,153.219100
1267.026761,5625.565159,-7920.203579,-383.047749
1267.027090,6143.709319,-8956.491898,-306.438199
1267.027420,6217.729913,-7254.018232,842.705048
1267.027749,7476.080014,-7105.977043,842.705048
1267.028078,7772.162391,-6069.688724,1225.752797
1267.028408,7328.038826,-5921.647536,1455.581446
1267.028737,7772.162391,-5403.503377,536.266849
1267.029066,7920.203579,-5477.523971,1838.629195
1267.029395,7846.182985,-6069.688724,1685.410096
1267.029725,7772.162391,-5847.626942,1302.362347
1267.030054,7698.141797,-5033.400406,1302.362347
1267.030383,7772.162391,-6069.688724,1762.019645
1267.030713,7105.977043,-6365.771101,1225.752797
1267.031042,5921.647536,-6661.853478,1225.752797
1267.031371,5255.462188,-6365.771101,612.876398
1267.031701,5255.462188,-6957.935855,-306.438199
1267.032030,5329.482782,-7994.224174,1072.533697
1267.032359,5773.606348,-8364.327145,689.485948
1267.032689,6587.832884,-7698.141797,995.924147
1267.033018,6809.894666,-6587.832884,689.485948
1267.033347,6661.853478,-6439.791695,766.095498
1267.033677,7179.997637,-6735.874072,1685.410096
1267.034006,7994.224174,-6365.771101,1838.629195
1267.034335,8142.265362,-5403.503377,1838.629195
1267.034665,7624.121203,-4515.256246,1455.581446
1267.034994,7179.997637,-5181.441594,1149.143247
1267.035323,7476.080014,-5773.606348,612.876398
1267.035652,7105.977043,-6291.750507,1149.143247
1267.035982,7105.977043,-6661.853478,689.485948
1267.036311,7402.059420,-6735.874072,1455.581446
1267.036640,7402.059420,-7105.977043,1072.533697
1267.036970,6735.874072,-8512.368333,1378.971896
1267.037299,6809.894666,-7698.141797,1532.190996
1267.037628,6587.832884,-7254.018232,1608.800546
1267.037958,5921.647536,-6587.832884,1455.581446
1267.038287,5921.647536,-7179.997637,1149.143247
1267.038616,6291.750507,-7698.141797,536.266849
1267.038946,6143.709319,-7994.224174,0.000000
1267.039275,5551.544565,-7550.100608,383.047749
1267.039604,5847.626942,-7772.162391,612.876398
1267.039934,6957.935855,-6439.791695,536.266849
1267.040263,6957.935855,-5921.647536,1149.143247
1267.040592,6883.915261,-5551.544565,1455.581446
1267.040922,7846.182985,-4663.297435,2145.067394
1267.041251,8512.368333,-4515.256246,1838.629195
1267.041580,9030.512492,-4441.235652,1378.971896
1267.041909,8734.430116,-4663.297435,919.314598
1267.042239,8660.409521,-5551.544565,1685.410096
1267.042568,8438.347739,-6513.812290,1149.143247
1267.042897,7254.018232,-6439.791695,1072.533697
1267.043227,6661.853478,-7328.038826,1225.752797
1267.043556,6365.771101,-7328.038826,1072.533697
1267.043885,5181.441594,-7920.203579,919.314598
1267.044215,4219.173869,-8660.409521,536.266849
1267.044544,4219.173869,-8216.285956,153.219100
1267.044873,4737.318029,-7846.182985,0.000000
1267.045203,5181.441594,-7402.059420,-612.876398
1267.045532,5107.421000,-7402.059420,306.438199
1267.045861,6735.874072,-7772.162391,459.657299
1267.046191,7105.977043,-7254.018232,919.314598
1267.046520,7402.059420,-6439.791695,1225.752797
1267.046849,8586.388927,-5255.462188,2298.286494
1267.047179,9474.636058,-3997.112087,1762.019645
1267.047508,9548.656652,-5477.523971,1685.410096
1267.047837,9030.512492,-5403.503377,1302.362347
1267.048166,8882.471304,-4737.318029,1072.533697
1267.048496,8364.327145,-4663.297435,1149.143247
1267.048825,7550.100608,-5995.668130,1225.752797
1267.049154,7031.956449,-6735.874072,1762.019645
1267.049484,6661.853478,-7105.977043,1838.629195
1267.049813,6217.729913,-6735.874072,1838.629195
1267.050142,6143.709319,-6217.729913,995.924147
1267.050472,5773.606348,-6883.915261,842.705048
1267.050801,5625.565159,-7920.203579,383.047749
1267.051130,5403.503377,-7328.038826,76.609550
1267.051460,5773.606348,-7994.224174,0.000000
1267.051789,6957.935855,-7328.038826,919.314598
1267.052118,7254.018232,-6735.874072,1225.752797
1267.052448,7179.997637,-6587.832884,919.314598
1267.052777,6883.915261,-6143.709319,1608.800546
1267.053106,7254.018232,-6217.729913,1762.019645
1267.053436,7994.224174,-5773.606348,1455.581446
1267.053765,7920.203579,-4071.132681,1302.362347
1267.054094,8660.409521,-4737.318029,689.485948
1267.054423,8290.306550,-4959.379811,1762.019645
1267.054753,8142.265362,-6143.709319,1072.533697
1267.055082,7105.977043,-7402.059420,1072.533697
1267.055411,6661.853478,-7105.977043,1302.362347
1267.055741,5921.647536,-7328.038826,766.095498
1267.056070,5033.400406,-7031.956449,1149.143247
1267.056399,4737.318029,-7994.224174,536.266849
1267.056729,5107.421000,-7994.224174,612.876398
1267.057058,5699.585753,-7179.997637,459.657299
1267.057387,5773.606348,-7105.977043,229.828649
1267.057717,6365.771101,-6291.750507,842.705048
1267.058046,6883.915261,-6809.894666,1225.752797
1267.058375,7624.121203,-6513.812290,2068.457845
1267.058705,7920.203579,-5181.441594,2221.676944
1267.059034,8512.368333,-4515.256246,1991.848295
1267.059363,8438.347739,-4441.235652,1762.019645
1267.059693,8068.244768,-5033.400406,842.705048
1267.060022,7328.038826,-6143.709319,536.266849
1267.060351,7920.203579,-7105.977043,1149.143247
1267.060681,7402.059420,-7402.059420,1072.533697
1267.061010,7254.018232,-6957.935855,1225.752797
1267.061339,7105.977043,-7179.997637,1532.190996
1267.061668,6735.874072,-7254.018232,1455.581446
1267.061998,6143.709319,-7846.182985,1455.581446
1267.062327,5551.544565,-7772.162391,842.705048
1267.062656,5329.482782,-7031.956449,306.438199
1267.062986,5847.626942,-6661.853478,0.000000
1267.063315,6217.729913,-7772.162391,0.000000
1267.063644,6883.915261,-7402.059420,919.314598
1267.063974,7179.997637,-7550.100608,842.705048
1267.064303,6661.853478,-6661.853478,842.705048
1267.064632,6513.812290,-6291.750507,766.095498
1267.064962,7031.956449,-5477.523971,1608.800546
1267.065291,7772.162391,-5699.585753,1608.800546
1267.065620,8808.450710,-5255.462188,1762.019645
1267.065950,8956.491898,-4293.194464,1685.410096
1267.066279,8660.409521,-4737.318029,1455.581446
1267.066608,8216.285956,-5255.462188,1455.581446
1267.066938,7476.080014,-6143.709319,1072.533697
1267.067267,6365.771101,-6439.791695,1149.143247
1267.067596,5921.647536,-7402.059420,1072.533697
1267.067925,5625.565159,-7846.182985,995.924147
1267.068255,5773.606348,-7402.059420,1072.533697
1267.068584,5403.503377,-7846.182985,612.876398
1267.068913,5551.544565,-7624.121203,536.266849
1267.069243,5329.482782,-8068.244768,0.000000
1267.069572,5921.647536,-7624.121203,-459.657299
1267.069901,6661.853478,-6957.935855,689.485948
1267.070231,7698.141797,-6217.729913,689.485948
1267.070560,7698.141797,-5995.668130,1378.971896
1267.070889,7624.121203,-5773.606348,1608.800546
1267.071219,7920.203579,-5033.400406,1455.581446
1267.071548,8068.244768,-4811.338623,1225.752797
1267.071877,8290.306550,-5255.462188,1072.533697
1267.072207,8068.244768,-5995.668130,1608.800546
1267.072536,8512.368333,-5995.668130,1149.143247
1267.072865,7994.224174,-5995.668130,1149.143247
1267.073195,7105.977043,-6957.935855,1149.143247
1267.073524,7031.956449,-7624.121203,1838.629195
1267.073853,5995.668130,-7550.100608,1072.533697
1267.074182,5403.503377,-7179.997637,229.828649
1267.074512,4811.338623,-7402.059420,536.266849
1267.074841,5255.462188,-7624.121203,383.047749
1267.075170,6217.729913,-7920.203579,689.485948
1267.075500,5995.668130,-7254.018232,919.314598
1267.075829,6217.729913,-6957.935855,536.266849
1267.076158,7031.956449,-6735.874072,1072.533697
1267.076488,7328.038826,-6069.688724,995.924147
1267.076817,7476.080014,-6217.729913,1455.581446
1267.077146,7994.224174,-5033.400406,2451.505594
1267.077476,8808.450710,-4663.297435,1532.190996
1267.077805,8808.450710,-4441.235652,1762.019645
1267.078134,8808.450710,-5033.400406,1838.629195
1267.078464,8660.409521,-5699.585753,1302.362347
1267.078793,8438.347739,-6365.771101,919.314598
1267.079122,6735.874072,-6587.832884,919.314598
1267.079452,5625.565159,-7254.018232,612.876398
1267.079781,5847.626942,-8142.265362,1378.971896
1267.080110,5847.626942,-7328.038826,1302.362347
1267.080439,4811.338623,-7550.100608,842.705048
1267.080769,4885.359217,-7920.203579,612.876398
1267.081098,4811.338623,-7698.141797,306.438199
1267.081427,5477.523971,-7698.141797,0.000000
1267.081757,5773.606348,-7846.182985,919.314598
1267.082086,6735.874072,-6735.874072,766.095498
1267.082415,7402.059420,-6069.688724,1302.362347
1267.082745,7624.121203,-5107.421000,1685.410096
1267.083074,8882.471304,-4959.379811,1915.238745
1267.083403,9622.677246,-4589.276840,2528.115143
1267.083733,9104.533087,-5107.421000,1991.848295
1267.084062,8142.265362,-5181.441594,919.314598
1267.084391,7550.100608,-5773.606348,306.438199
1267.084721,8438.347739,-6809.894666,919.314598
1267.085050,7402.059420,-6809.894666,1149.143247
1267.085379,7179.997637,-7254.018232,1378.971896
1267.085709,6957.935855,-7031.956449,1225.752797
1267.086038,6291.750507,-7105.977043,1225.752797
1267.086367,5995.668130,-6883.915261,919.314598
1267.086696,5329.482782,-7105.977043,766.095498
1267.087026,5477.523971,-7698.141797,306.438199
1267.087355,5107.421000,-7476.080014,76.609550
1267.087684,5255.462188,-8216.285956,536.266849
1267.088014,6143.709319,-7476.080014,612.876398
1267.088343,6883.915261,-6957.935855,995.924147
1267.088672,7105.977043,-6883.915261,842.705048
1267.089002,7105.977043,-6143.709319,1685.410096
1267.089331,7105.977043,-5921.647536,1838.629195
1267.089660,7994.224174,-5921.647536,1378.971896
1267.089990,8512.368333,-4663.297435,1685.410096
1267.090319,8808.450710,-5107.421000,995.924147
1267.090648,9178.553681,-5033.400406,1072.533697
1267.090978,8438.347739,-6365.771101,1532.190996
1267.091307,7772.162391,-6439.791695,842.705048
1267.091636,7031.956449,-6513.812290,1532.190996
1267.091966,6365.771101,-6513.812290,766.095498
1267.092295,5329.482782,-6439.791695,1685.410096
1267.092624,5625.565159,-7402.059420,919.314598
1267.092954,5847.626942,-7698.141797,919.314598
1267.093283,6143.709319,-7031.956449,536.266849
1267.093612,6291.750507,-7031.956449,383.047749
1267.093941,6143.709319,-7328.038826,459.657299
1267.094271,6735.874072,-7550.100608,612.876398
1267.094600,6957.935855,-7328.038826,1072.533697
1267.094929,6661.853478,-7031.956449,1149.143247
1267.095259,6735.874072,-5921.647536,2374.896044
1267.095588,7402.059420,-5329.482782,1378.971896
1267.095917,7920.203579,-4663.297435,1149.143247
1267.096247,7772.162391,-5329.482782,1455.581446
1267.096576,8512.368333,-5847.626942,1455.581446
1267.096905,8660.409521,-5551.544565,842.705048
1267.097235,7920.203579,-5773.606348,1225.752797
1267.097564,7402.059420,-6291.750507,995.924147
1267.097893,7105.977043,-7328.038826,1455.581446
1267.098223,5625.565159,-7476.080014,1532.190996
1267.098552,5847.626942,-7698.141797,1302.362347
1267.098881,5921.647536,-7254.018232,842.705048
1267.099211,6217.729913,-7476.080014,229.828649
1267.099540,5329.482782,-7920.203579,306.438199
1267.099869,5107.421000,-8512.368333,383.047749
1267.100198,5551.544565,-7994.224174,536.266849
1267.100528,6217.729913,-6809.894666,689.485948
1267.100857,6365.771101,-6143.709319,919.314598
1267.101186,6217.729913,-5625.565159,1532.190996
1267.101516,7550.100608,-4959.379811,2145.067394
1267.101845,9104.533087,-4589.276840,2451.505594
1267.102174,9548.656652,-4515.256246,2145.067394
1267.102504,9548.656652,-4441.235652,1685.410096
1267.102833,9252.574275,-5181.441594,1072.533697
1267.103162,7920.203579,-6513.812290,766.095498
1267.103492,6439.791695,-7105.977043,612.876398
1267.103821,5847.626942,-7994.224174,995.924147
1267.104150,5551.544565,-7994.224174,536.266849
1267.104480,5551.544565,-7550.100608,612.876398
1267.104809,4737.318029,-8586.388927,689.485948
1267.105138,4515.256246,-8068.244768,0.000000
1267.105468,4293.194464,-8142.265362,-612.876398
1267.105797,4663.297435,-8068.244768,0.000000
1267.106126,5995.668130,-7476.080014,76.609550
1267.106455,7550.100608,-6587.832884,229.828649
1267.106785,8364.327145,-6069.688724,1532.190996
1267.107114,8290.306550,-5699.585753,1991.848295
1267.107443,8660.409521,-4293.194464,2068.457845
1267.107773,9696.697840,-4367.215058,2451.505594
1267.108102,9548.656652,-4071.132681,1838.629195
1267.108431,8956.491898,-4885.359217,1608.800546
1267.108761,8068.244768,-5477.523971,536.266849
1267.109090,7105.977043,-5181.441594,1149.143247
1267.109419,6957.935855,-6735.874072,689.485948
1267.109749,6735.874072,-7105.977043,919.314598
1267.110078,6587.832884,-7994.224174,1149.143247
1267.110407,5255.462188,-7476.080014,383.047749
1267.110737,5477.523971,-6883.915261,612.876398
1267.111066,5773.606348,-8142.265362,459.657299
1267.111395,5921.647536,-8142.265362,383.047749
1267.111725,5847.626942,-7846.182985,153.219100
1267.112055,6513.812290,-7994.224174,229.828649
1267.112384,7031.956449,-7402.059420,689.485948
1267.112713,7328.038826,-7254.018232,919.314598
1267.113042,7105.977043,-6883.915261,919.314598
1267.113371,7254.018232,-5773.606348,1072.533697
1267.113701,7550.100608,-5033.400406,1072.533697
1267.114030,8290.306550,-4737.318029,1685.410096
1267.114359,9252.574275,-4737.318029,1991.848295
1267.114688,9474.636058,-4515.256246,1532.190996
1267.115017,8734.430116,-4293.194464,1915.238745
1267.115347,7624.121203,-5033.400406,842.705048
1267.115676,7179.997637,-6365.771101,1225.752797
1267.116005,6735.874072,-7105.977043,1532.190996
1267.116334,5921.647536,-7179.997637,995.924147
1267.116664,5403.503377,-6809.894666,689.485948
1267.116993,4959.379811,-7550.100608,306.438199
1267.117322,5255.462188,-8808.450710,459.657299
1267.117651,5699.585753,-8142.265362,153.219100
1267.117980,5847.626942,-7846.182985,0.000000
1267.118310,6365.771101,-6661.853478,229.828649
1267.118639,7105.977043,-6735.874072,689.485948
1267.118968,7476.080014,-6513.812290,1685.410096
1267.119297,7624.121203,-5699.585753,1302.362347
1267.119626,7624.121203,-5181.441594,1991.848295
1267.119956,7920.203579,-5033.400406,1302.362347
1267.120285,7846.182985,-6069.688724,1225.752797
1267.120614,8216.285956,-6143.709319,1455.581446
1267.120943,7402.059420,-5995.668130,919.314598
1267.121273,7846.182985,-6217.729913,689.485948
1267.121602,7105.977043,-7105.977043,1455.581446
1267.121931,7254.018232,-7550.100608,1378.971896
1267.122260,6809.894666,-7031.956449,1149.143247
1267.122589,5329.482782,-7254.018232,1302.362347
1267.122919,5773.606348,-6957.935855,1072.533697
1267.123248,6291.750507,-7254.018232,1532.190996
1267.123577,6291.750507,-6809.894666,1378.971896
1267.123906,6143.709319,-6217.729913,229.828649
1267.124236,5699.585753,-6661.853478,612.876398
1267.124565,6587.832884,-6735.874072,1302.362347
1267.124894,6809.894666,-6513.812290,842.705048
1267.125223,6735.874072,-6217.729913,1149.143247
1267.125552,6883.915261,-5477.523971,459.657299
1267.125882,7698.141797,-5773.606348,1685.410096
1267.126211,8808.450710,-5477.523971,2374.896044
1267.126540,9326.594869,-5699.585753,1608.800546
1267.126869,8956.491898,-5181.441594,1149.143247
1267.127198,8586.388927,-5551.544565,383.047749
1267.127528,7179.997637,-7105.977043,766.095498
1267.127857,6883.915261,-7105.977043,1532.190996
1267.128186,6217.729913,-7254.018232,842.705048
1267.128515,5181.441594,-6957.935855,1149.143247
1267.128845,4811.338623,-7772.162391,995.924147
1267.129174,4663.297435,-9104.533087,689.485948
1267.129503,5181.441594,-8586.388927,306.438199
1267.129832,5181.441594,-8068.244768,383.047749
1267.130161,5847.626942,-7105.977043,383.047749
1267.130491,6957.935855,-6957.935855,995.924147
1267.130820,7698.141797,-6587.832884,1455.581446
1267.131149,7772.162391,-6217.729913,919.314598
1267.131478,7624.121203,-5255.462188,1532.190996
1267.131808,8068.244768,-5255.462188,1532.190996
1267.132137,8068.244768,-5847.626942,1225.752797
1267.132466,8364.327145,-5995.668130,1685.410096
1267.132795,8216.285956,-6069.688724,1149.143247
1267.133124,7846.182985,-5477.523971,842.705048
1267.133454,7105.977043,-5847.626942,1072.533697
1267.133783,7402.059420,-6661.853478,612.876398
1267.134112,7254.018232,-6587.832884,1302.362347
1267.134441,6439.791695,-7105.977043,766.095498
1267.134770,6365.771101,-7105.977043,612.876398
1267.135100,5995.668130,-6735.874072,1149.143247
1267.135429,6735.874072,-7105.977043,919.314598
1267.135758,6883.915261,-7254.018232,919.314598
1267.136087,6513.812290,-6957.935855,76.609550
1267.136417,6291.750507,-8068.244768,383.047749
1267.136746,6513.812290,-6735.874072,459.657299
1267.137075,6439.791695,-6587.832884,229.828649
1267.137404,6291.750507,-6661.853478,459.657299
1267.137733,6439.791695,-6439.791695,1608.800546
1267.138063,7254.018232,-6143.709319,1532.190996
1267.138392,8142.265362,-5995.668130,1762.019645
1267.138721,8512.368333,-5403.503377,2068.457845
1267.139050,8438.347739,-5477.523971,1378.971896
1267.139379,7772.162391,-5181.441594,842.705048
1267.139709,7254.018232,-5699.585753,995.924147
1267.140038,6957.935855,-6513.812290,919.314598
1267.140367,6735.874072,-6365.771101,1072.533697
1267.140696,6217.729913,-6587.832884,1072.533697
1267.141026,6217.729913,-7402.059420,995.924147
1267.141355,6069.688724,-7920.203579,1072.533697
1267.141684,5847.626942,-7846.182985,459.657299
1267.142013,5699.585753,-7994.224174,0.000000
1267.142342,5995.668130,-7179.997637,612.876398
1267.142672,7105.977043,-6883.915261,689.485948
1267.143001,7179.997637,-6439.791695,612.876398
1267.143330,7328.038826,-6217.729913,1608.800546
1267.143659,7402.059420,-5773.606348,1991.848295
1267.143989,8290.306550,-5551.544565,1302.362347
1267.144318,7994.224174,-5329.482782,1149.143247
1267.144647,8142.265362,-5699.585753,1302.362347
1267.144976,8586.388927,-6365.771101,1302.362347
1267.145305,8364.327145,-5995.668130,1991.848295
1267.145635,8068.244768,-6291.750507,919.314598
1267.145964,7550.100608,-6217.729913,1149.143247
1267.146293,6513.812290,-7179.997637,1302.362347
1267.146622,5329.482782,-7698.141797,536.266849
1267.146951,4811.338623,-7328.038826,689.485948
1267.147281,5107.421000,-7772.162391,383.047749
1267.147610,5033.400406,-8068.244768,306.438199
1267.147939,5107.421000,-7328.038826,612.876398
1267.148268,5477.523971,-7698.141797,919.314598
1267.148598,6365.771101,-7402.059420,612.876398
1267.148927,6587.832884,-6365.771101,383.047749
1267.149256,6957.935855,-5921.647536,306.438199
1267.149585,7550.100608,-5403.503377,1378.971896
1267.149914,8216.285956,-5403.503377,1608.800546
1267.150244,8734.430116,-5551.544565,1685.410096
1267.150573,8660.409521,-5033.400406,1991.848295
1267.150902,8808.450710,-5033.400406,1455.581446
1267.151231,8290.306550,-5107.421000,2145.067394
1267.151560,8068.244768,-5329.482782,1149.143247
1267.151890,7179.997637,-6513.812290,1302.362347
1267.152219,6735.874072,-6809.894666,1455.581446
1267.152548,5847.626942,-6291.750507,995.924147
1267.152877,5181.441594,-6513.812290,919.314598
1267.153207,5699.585753,-7476.080014,2068.457845
1267.153536,5699.585753,-7772.162391,842.705048
1267.153865,5625.565159,-7254.018232,459.657299
1267.154194,5625.565159,-7476.080014,459.657299
1267.154523,6735.874072,-6735.874072,0.000000
1267.154853,7179.997637,-6957.935855,306.438199
1267.155182,7105.977043,-6143.709319,919.314598
1267.155511,7328.038826,-6735.874072,766.095498
1267.155840,7254.018232,-5921.647536,1378.971896
1267.156170,7698.141797,-5773.606348,1072.533697
1267.156499,7920.203579,-6217.729913,1225.752797
1267.156828,8216.285956,-6069.688724,1608.800546
1267.157157,8216.285956,-5403.503377,1378.971896
1267.157486,8290.306550,-5995.668130,842.705048
1267.157816,7698.141797,-5477.523971,1072.533697
1267.158145,7698.141797,-6365.771101,1149.143247
1267.158474,7105.977043,-7179.997637,1302.362347
1267.158803,6513.812290,-7105.977043,1608.800546
1267.159132,5255.462188,-7624.121203,1149.143247
1267.159462,5329.482782,-7772.162391,995.924147
1267.159791,5699.585753,-7698.141797,612.876398
1267.160120,5847.626942,-8290.306550,766.095498
1267.160449,5847.626942,-7920.203579,1608.800546
1267.160779,6217.729913,-7105.977043,229.828649
1267.161108,6291.750507,-6735.874072,153.219100
1267.161437,5995.668130,-7105.977043,919.314598
1267.161766,6587.832884,-6809.894666,612.876398
1267.162095,7031.956449,-5921.647536,1532.190996
1267.162425,8142.265362,-4959.379811,1991.848295
1267.162754,8734.430116,-3849.070898,1838.629195
1267.163083,9918.759623,-3997.112087,1915.238745
1267.163412,9474.636058,-4959.379811,1149.143247
1267.163741,8586.388927,-5773.606348,1685.410096
1267.164071,7624.121203,-5773.606348,919.314598
1267.164400,6661.853478,-6143.709319,459.657299
1267.164729,5625.565159,-7105.977043,689.485948
1267.165058,5699.585753,-8142.265362,1455.581446
1267.165388,5107.421000,-9030.512492,919.314598
1267.165717,5033.400406,-7624.121203,459.657299
1267.166046,4663.297435,-7402.059420,0.000000
1267.166375,5255.462188,-7328.038826,153.219100
1267.166704,5995.668130,-7550.100608,459.657299
1267.167034,6735.874072,-6957.935855,1072.533697
1267.167363,7179.997637,-6365.771101,1072.533697
1267.167692,7624.121203,-5921.647536,1532.190996
1267.168021,8734.430116,-5181.441594,1762.019645
1267.168351,8512.368333,-5033.400406,1762.019645
1267.168680,8438.347739,-4885.359217,1608.800546
1267.169009,8660.409521,-4959.379811,1225.752797
1267.169338,9030.512492,-5477.523971,689.485948
1267.169667,9104.533087,-5551.544565,1608.800546
1267.169997,8216.285956,-6291.750507,1072.533697
1267.170326,7328.038826,-6439.791695,842.705048
1267.170655,5699.585753,-7328.038826,536.266849
1267.170984,5255.462188,-7994.224174,1532.190996
1267.171313,5551.544565,-7402.059420,1302.362347
1267.171643,6143.709319,-7254.018232,919.314598
1267.171972,5699.585753,-6957.935855,1225.752797
1267.172301,5773.606348,-7179.997637,383.047749
1267.172630,6587.832884,-8438.347739,612.876398
1267.172960,6883.915261,-7105.977043,306.438199
1267.173289,6513.812290,-6365.771101,306.438199
1267.173618,6143.709319,-7031.956449,689.485948
1267.173947,6735.874072,-6513.812290,1608.800546
1267.174276,7550.100608,-6439.791695,1608.800546
1267.174606,8142.265362,-5847.626942,1685.410096
1267.174935,8586.388927,-5107.421000,1685.410096
1267.175264,8808.450710,-4959.379811,842.705048
1267.175593,8364.327145,-5625.565159,919.314598
1267.175923,7402.059420,-5477.523971,919.314598
1267.176252,7328.038826,-6439.791695,459.657299
1267.176581,7179.997637,-7105.977043,1072.533697
1267.176910,6513.812290,-6735.874072,766.095498
1267.177239,6143.709319,-7105.977043,1455.581446
1267.177569,5995.668130,-7105.977043,919.314598
1267.177898,5403.503377,-7105.977043,229.828649
1267.178227,5403.503377,-7846.182985,459.657299
1267.178556,6513.812290,-6809.894666,459.657299
1267.178885,7031.956449,-6661.853478,306.438199
1267.179215,7254.018232,-6365.771101,1225.752797
1267.179544,7031.956449,-6587.832884,1915.238745
1267.179873,7772.162391,-5551.544565,1532.190996
1267.180202,8290.306550,-5033.400406,1225.752797
1267.180532,7920.203579,-4737.318029,1455.581446
1267.180861,8216.285956,-5033.400406,1378.971896
1267.181190,8290.306550,-5995.668130,1685.410096
1267.181519,8216.285956,-5477.523971,1762.019645
1267.181848,7994.224174,-5995.668130,1072.533697
1267.182178,7920.203579,-6735.874072,1762.019645
1267.182507,7105.977043,-7254.018232,1608.800546
1267.182836,5995.668130,-7550.100608,995.924147
1267.183165,5107.421000,-7105.977043,1532.190996
1267.183494,5699.585753,-7476.080014,689.485948
1267.183824,6069.688724,-7624.121203,689.485948
1267.184153,5625.565159,-7550.100608,995.924147
1267.184482,5477.523971,-7772.162391,919.314598
1267.184811,6217.729913,-7476.080014,0.000000
1267.185141,6587.832884,-7105.977043,536.266849
1267.185470,6587.832884,-6809.894666,689.485948
1267.185799,6809.894666,-6217.729913,919.314598
1267.186128,6513.812290,-5921.647536,1225.752797
1267.186457,7105.977043,-5773.606348,1685.410096
1267.186787,8068.244768,-5625.565159,1838.629195
1267.187116,9104.533087,-5255.462188,1838.629195
1267.187445,9104.533087,-5403.503377,1532.190996
1267.187774,8290.306550,-5403.503377,919.314598
1267.188104,7846.182985,-5995.668130,1225.752797
1267.188433,7698.141797,-6513.812290,1455.581446
1267.188762,6883.915261,-6513.812290,1685.410096
1267.189091,5847.626942,-7254.018232,1072.533697
1267.189420,5551.544565,-7105.977043,1149.143247
1267.189750,5033.400406,-7624.121203,842.705048
1267.190079,5033.400406,-7994.224174,0.000000
1267.190408,5033.400406,-7476.080014,306.438199
1267.190737,5995.668130,-6661.853478,229.828649
1267.191066,6365.771101,-7105.977043,612.876398
1267.191396,6735.874072,-6365.771101,995.924147
1267.191725,7624.121203,-6439.791695,919.314598
1267.192054,8734.430116,-5551.544565,1532.190996
1267.192383,8882.471304,-5033.400406,2145.067394
1267.192713,8956.491898,-5033.400406,1149.143247
1267.193042,8882.471304,-5255.462188,1608.800546
1267.193371,9326.594869,-5477.523971,1378.971896
1267.193700,8660.409521,-6217.729913,919.314598
1267.194029,7698.141797,-5995.668130,1072.533697
1267.194359,7328.038826,-7105.977043,766.095498
1267.194688,6513.812290,-7550.100608,1225.752797
1267.195017,5181.441594,-7994.224174,919.314598
1267.195346,4737.318029,-7920.203579,689.485948
1267.195675,4737.318029,-7698.141797,76.609550
1267.196005,5329.482782,-7105.977043,766.095498
1267.196334,5551.544565,-7846.182985,536.266849
1267.196663,6217.729913,-7179.997637,842.705048
1267.196992,6513.812290,-7254.018232,536.266849
1267.197322,6957.935855,-6513.812290,689.485948
1267.197651,6735.874072,-6365.771101,689.485948
1267.197980,6809.894666,-6661.853478,919.314598
1267.198309,6957.935855,-6365.771101,1762.019645
1267.198638,7179.997637,-5847.626942,1532.190996
1267.198968,8216.285956,-6069.688724,1532.190996
1267.199297,8734.430116,-5477.523971,1762.019645
1267.199626,8438.347739,-5847.626942,1302.362347
1267.199955,7624.121203,-6365.771101,1225.752797
1267.200285,7254.018232,-6217.729913,842.705048
1267.200614,7105.977043,-6143.709319,689.485948
1267.200943,5995.668130,-5773.606348,766.095498
1267.201272,6069.688724,-6883.915261,995.924147
1267.201601,6291.750507,-7179.997637,1455.581446
1267.201931,6513.812290,-7105.977043,1225.752797
1267.202260,6365.771101,-6883.915261,919.314598
1267.202589,6217.729913,-6883.915261,383.047749
1267.202918,7031.956449,-7031.956449,766.095498
1267.203247,7031.956449,-6587.832884,459.657299
1267.203577,6661.853478,-6809.894666,1072.533697
1267.203906,7105.977043,-6587.832884,1149.143247
1267.204235,7476.080014,-6143.709319,1378.971896
1267.204564,7179.997637,-5921.647536,1455.581446
1267.204894,7031.956449,-5699.585753,842.705048
1267.205223,7402.059420,-6143.709319,1072.533697
1267.205552,7994.224174,-6217.729913,842.705048
1267.205881,8290.306550,-5773.606348,995.924147
1267.206210,8586.388927,-5847.626942,1225.752797
1267.206540,8808.450710,-5995.668130,1302.362347
1267.206869,7772.162391,-6513.812290,1302.362347
1267.207198,6661.853478,-7105.977043,1762.019645
1267.207527,6143.709319,-7031.956449,1149.143247
1267.207856,6439.791695,-7031.956449,766.095498
1267.208185,5921.647536,-7698.141797,919.314598
1267.208514,5699.585753,-8216.285956,612.876398
1267.208843,5477.523971,-7624.121203,383.047749
1267.209172,5181.441594,-7476.080014,153.219100
1267.209501,5625.565159,-7179.997637,76.609550
1267.209830,6069.688724,-6735.874072,536.266849
1267.210159,6513.812290,-6661.853478,842.705048
1267.210488,6513.812290,-5847.626942,1225.752797
1267.210817,7476.080014,-5625.565159,1762.019645
1267.211146,8808.450710,-5551.544565,2374.896044
1267.211475,9400.615463,-4737.318029,1455.581446
1267.211804,9104.533087,-4811.338623,1302.362347
1267.212133,8364.327145,-5477.523971,1149.143247
1267.212462,8068.244768,-6217.729913,1225.752797
1267.212792,7624.121203,-7105.977043,1608.800546
1267.213121,6587.832884,-6587.832884,1532.190996
1267.213450,5699.585753,-7105.977043,383.047749
1267.213779,4885.359217,-7772.162391,689.485948
1267.214108,4515.256246,-8290.306550,153.219100
1267.214437,4737.318029,-7846.182985,76.609550
1267.214766,5329.482782,-6957.935855,689.485948
1267.215095,6809.894666,-5995.668130,459.657299
1267.215424,7105.977043,-6957.935855,1072.533697
1267.215753,7402.059420,-6587.832884,1455.581446
1267.216082,7550.100608,-6365.771101,1225.752797
1267.216411,8216.285956,-5033.400406,1838.629195
1267.216740,7846.182985,-4737.318029,1072.533697
1267.217069,8438.347739,-5477.523971,1991.848295
1267.217398,8882.471304,-5773.606348,2145.067394
1267.217727,9252.574275,-5551.544565,1838.629195
1267.218056,8586.388927,-5921.647536,1302.362347
1267.218385,7476.080014,-5847.626942,1149.143247
1267.218714,6513.812290,-6957.935855,1072.533697
1267.219043,6291.750507,-7624.121203,1225.752797
1267.219372,5477.523971,-7920.203579,1915.238745
1267.219701,5033.400406,-7920.203579,919.314598
1267.220030,4959.379811,-7624.121203,383.047749
1267.220359,5181.441594,-7328.038826,383.047749
1267.220688,6069.688724,-8068.244768,536.266849
1267.221017,6217.729913,-7846.182985,76.609550
1267.221346,6587.832884,-7105.977043,76.609550
1267.221675,6735.874072,-7179.997637,536.266849
1267.222005,7402.059420,-5995.668130,995.924147
1267.222334,7550.100608,-6439.791695,1225.752797
1267.222663,6957.935855,-6291.750507,1608.800546
1267.222992,7772.162391,-5773.606348,1685.410096
1267.223321,8734.430116,-4959.379811,1762.019645
1267.223650,8808.450710,-4811.338623,1532.190996
1267.223979,8216.285956,-4737.318029,1608.800546
1267.224308,7920.203579,-5255.462188,1225.752797
1267.224637,7031.956449,-6143.709319,766.095498
1267.224966,6661.853478,-6513.812290,1302.362347
1267.225295,6513.812290,-7105.977043,1149.143247
1267.225624,6069.688724,-7105.977043,1762.019645
1267.225953,5329.482782,-7994.224174,689.485948
1267.226282,5033.400406,-8068.244768,0.000000
1267.226611,4737.318029,-7624.121203,842.705048
1267.226940,5847.626942,-7624.121203,-383.047749
1267.227269,5995.668130,-7402.059420,459.657299
1267.227598,6587.832884,-6957.935855,689.485948
1267.227927,7402.059420,-6809.894666,1149.143247
1267.228256,7624.121203,-6217.729913,1608.800546
1267.228585,8512.368333,-5921.647536,1608.800546
1267.228914,8364.327145,-5625.565159,1532.190996
1267.229243,8808.450710,-4737.318029,1378.971896
1267.229572,9030.512492,-4737.318029,1072.533697
1267.229901,8512.368333,-5477.523971,1762.019645
1267.230230,7920.203579,-5773.606348,1455.581446
1267.230559,7994.224174,-6735.874072,919.314598
1267.230889,7179.997637,-6883.915261,1378.971896
1267.231218,5995.668130,-7254.018232,919.314598
1267.231547,5181.441594,-7476.080014,1072.533697
1267.231876,5329.482782,-7624.121203,1378.971896
1267.232205,5625.565159,-7624.121203,766.095498
1267.232534,5773.606348,-7105.977043,919.314598
1267.232863,6143.709319,-7179.997637,1302.362347
1267.233192,6217.729913,-7105.977043,689.485948
1267.233521,6513.812290,-6883.915261,229.828649
1267.233850,5847.626942,-6439.791695,536.266849
1267.234179,6735.874072,-6439.791695,842.705048
1267.234508,7328.038826,-6735.874072,1072.533697
1267.234837,7624.121203,-5773.606348,2145.067394
1267.235166,7994.224174,-5625.565159,1378.971896
1267.235495,8438.347739,-4811.338623,1685.410096
1267.235824,8364.327145,-5329.482782,612.876398
1267.236153,8512.368333,-6291.750507,995.924147
1267.236482,8142.265362,-5625.565159,1455.581446
1267.236811,7846.182985,-6143.709319,919.314598
1267.237140,7105.977043,-6513.812290,1532.190996
1267.237469,6661.853478,-6513.812290,1532.190996
1267.237798,6365.771101,-7254.018232,919.314598
1267.238127,5921.647536,-6883.915261,919.314598
1267.238456,5255.462188,-7254.018232,229.828649
1267.238785,5551.544565,-7476.080014,153.219100
1267.239114,5773.606348,-7698.141797,919.314598
1267.239443,6291.750507,-7254.018232,689.485948
1267.239772,6957.935855,-6735.874072,766.095498
1267.240102,7254.018232,-6883.915261,1302.362347
1267.240431,7328.038826,-6513.812290,1302.362347
1267.240760,7328.038826,-5847.626942,1149.143247
1267.241089,7179.997637,-5477.523971,842.705048
1267.241418,7994.224174,-5329.482782,766.095498
1267.241747,8216.285956,-5773.606348,1149.143247
1267.242076,8808.450710,-5995.668130,1302.362347
1267.242405,9030.512492,-6217.729913,1225.752797
1267.242734,8364.327145,-6291.750507,1302.362347
1267.243063,7476.080014,-6661.853478,995.924147
1267.243392,6735.874072,-7698.141797,1455.581446
1267.243721,6069.688724,-6957.935855,1225.752797
1267.244050,6069.688724,-6735.874072,842.705048
1267.244379,5773.606348,-7105.977043,842.705048
1267.244708,5995.668130,-7105.977043,766.095498
1267.245037,6217.729913,-7994.224174,919.314598
1267.245366,6143.709319,-7254.018232,536.266849
1267.245695,5995.668130,-7105.977043,0.000000
1267.246024,5921.647536,-6735.874072,459.657299
1267.246353,6365.771101,-6883.915261,842.705048
1267.246682,6439.791695,-6809.894666,1225.752797
1267.247011,7105.977043,-6143.709319,1532.190996
1267.247340,7624.121203,-5551.544565,1991.848295
1267.247669,8512.368333,-5329.482782,1685.410096
1267.247998,8290.306550,-5477.523971,2068.457845
1267.248327,8068.244768,-5773.606348,1378.971896
1267.248656,7920.203579,-6439.791695,842.705048
1267.248986,7254.018232,-6587.832884,1302.362347
1267.249315,6661.853478,-6291.750507,1149.143247
1267.249644,6661.853478,-6513.812290,842.705048
1267.249973,5921.647536,-6587.832884,995.924147
1267.250302,5255.462188,-7550.100608,536.266849
1267.250631,4959.379811,-7920.203579,689.485948
1267.250960,4885.359217,-7402.059420,153.219100
1267.251289,5625.565159,-7105.977043,-153.219100
1267.251618,6217.729913,-6735.874072,0.000000
1267.251947,7402.059420,-7105.977043,1378.971896
1267.252276,8290.306550,-6069.688724,1685.410096
1267.252605,7772.162391,-5255.462188,2221.676944
1267.252934,7846.182985,-4293.194464,1455.581446
1267.253263,8290.306550,-4663.297435,1532.190996
1267.253592,9030.512492,-5107.421000,1685.410096
1267.253921,9104.533087,-5107.421000,1991.848295
1267.254250,8734.430116,-5847.626942,1455.581446
1267.254579,7772.162391,-5847.626942,1378.971896
1267.254908,7254.018232,-6883.915261,1225.752797
1267.255237,6439.791695,-7698.141797,1378.971896
1267.255566,5847.626942,-8142.265362,1149.143247
1267.255895,5551.544565,-7920.203579,689.485948
1267.256224,5107.421000,-7698.141797,689.485948
1267.256553,5181.441594,-7550.100608,0.000000
1267.256882,5329.482782,-8068.244768,153.219100
1267.257211,6291.750507,-7920.203579,229.828649
1267.257540,5921.647536,-8142.265362,0.000000
1267.257870,6217.729913,-8068.244768,536.266849
1267.258199,6587.832884,-7031.956449,919.314598
1267.258528,7031.956449,-6587.832884,1532.190996
1267.258857,6883.915261,-5921.647536,1225.752797
1267.259186,6513.812290,-5181.441594,1072.533697
1267.259515,8290.306550,-4811.338623,1455.581446
1267.259844,9104.533087,-4589.276840,1838.629195
1267.260173,9326.594869,-4145.153275,919.314598
1267.260502,8956.491898,-4737.318029,919.314598
1267.260831,8068.244768,-5551.544565,1455.581446
1267.261160,7624.121203,-6735.874072,1532.190996
1267.261489,6957.935855,-6809.894666,1302.362347
1267.261818,6365.771101,-6587.832884,1455.581446
1267.262147,5699.585753,-7402.059420,1072.533697
1267.262476,4959.379811,-8142.265362,459.657299
1267.262805,4589.276840,-7698.141797,229.828649
1267.263134,5403.503377,-7920.203579,-306.438199
1267.263463,6365.771101,-7624.121203,229.828649
1267.263792,6513.812290,-6439.791695,612.876398
1267.264121,7179.997637,-6439.791695,766.095498
1267.264450,7624.121203,-5921.647536,1378.971896
1267.264779,8068.244768,-5255.462188,1149.143247
1267.265108,8364.327145,-5107.421000,1915.238745
1267.265437,8438.347739,-4663.297435,1608.800546
1267.265766,8882.471304,-5033.400406,1378.971896
1267.266095,8364.327145,-5033.400406,995.924147
1267.266424,8216.285956,-6291.750507,1149.143247
1267.266753,7772.162391,-7402.059420,1225.752797
1267.267083,7179.997637,-6883.915261,995.924147
1267.267412,6143.709319,-7328.038826,1149.143247
1267.267741,5551.544565,-8068.244768,919.314598
1267.268070,5625.565159,-7254.018232,919.314598
1267.268399,5847.626942,-7254.018232,995.924147
1267.268728,5921.647536,-7550.100608,919.314598
1267.269057,6069.688724,-7105.977043,383.047749
1267.269386,5995.668130,-6365.771101,0.000000
1267.269715,5847.626942,-6809.894666,0.000000
1267.270044,6143.709319,-7624.121203,612.876398
1267.270373,6661.853478,-7105.977043,919.314598
1267.270702,7179.997637,-6513.812290,1302.362347
1267.271031,7254.018232,-6069.688724,919.314598
1267.271360,7772.162391,-5773.606348,1838.629195
1267.271689,8586.388927,-5921.647536,1608.800546
1267.272018,8660.409521,-5625.565159,1685.410096
1267.272347,8364.327145,-5699.585753,1455.581446
1267.272676,8512.368333,-4589.276840,1225.752797
1267.273005,8068.244768,-5921.647536,842.705048
1267.273334,7179.997637,-6439.791695,1532.190996
1267.273663,6217.729913,-6587.832884,842.705048
1267.273992,6439.791695,-6883.915261,919.314598
1267.274321,5403.503377,-6883.915261,536.266849
1267.274650,4441.235652,-7846.182985,229.828649
1267.274979,5181.441594,-7550.100608,536.266849
1267.275308,6143.709319,-8068.244768,995.924147
1267.275637,6587.832884,-7624.121203,689.485948
1267.275967,7105.977043,-7179.997637,919.314598
1267.276296,7105.977043,-6957.935855,995.924147
1267.276625,7254.018232,-6439.791695,1225.752797
1267.276954,7920.203579,-6069.688724,766.095498
1267.277283,7994.224174,-5033.400406,1149.143247
1267.277612,8364.327145,-5181.441594,1302.362347
1267.277941,8660.409521,-5921.647536,1149.143247
1267.278270,8512.368333,-5033.400406,766.095498
1267.278599,7994.224174,-5699.585753,766.095498
1267.278928,8068.244768,-5921.647536,1149.143247
1267.279257,7550.100608,-6661.853478,919.314598
1267.279586,6735.874072,-7328.038826,1072.533697
1267.279915,6069.688724,-7772.162391,1225.752797
1267.280244,5699.585753,-7105.977043,919.314598
1267.280573,5551.544565,-7328.038826,689.485948
1267.280902,5699.585753,-8068.244768,842.705048
1267.281231,6365.771101,-7772.162391,1225.752797
1267.281560,6291.750507,-7179.997637,0.000000
1267.281889,6217.729913,-6883.915261,229.828649
1267.282218,6513.812290,-7105.977043,842.705048
1267.282547,6735.874072,-6735.874072,1149.143247
1267.282876,6809.894666,-5403.503377,1072.533697
1267.283205,6365.771101,-5847.626942,1225.752797
1267.283534,7254.018232,-5847.626942,1455.581446
1267.283863,7624.121203,-5625.565159,1149.143247
1267.284192,7920.203579,-5699.585753,1532.190996
1267.284521,8438.347739,-5995.668130,842.705048
1267.284851,8068.244768,-5921.647536,842.705048
1267.285180,7624.121203,-7179.997637,1225.752797
1267.285509,6513.812290,-7031.956449,1762.019645
1267.285838,6365.771101,-6883.915261,919.314598
1267.286167,5773.606348,-7402.059420,689.485948
1267.286496,5773.606348,-7254.018232,842.705048
1267.286825,5847.626942,-7624.121203,612.876398
1267.287154,6365.771101,-6661.853478,536.266849
1267.287483,6291.750507,-6587.832884,459.657299
1267.287812,6439.791695,-6587.832884,383.047749
1267.288141,6809.894666,-5995.668130,1225.752797
1267.288470,7772.162391,-6661.853478,1225.752797
1267.288799,7698.141797,-5995.668130,1378.971896
1267.289128,7105.977043,-5181.441594,1149.143247
1267.289457,7846.182985,-5329.482782,1072.533697
1267.289786,8364.327145,-5255.462188,1685.410096
1267.290115,8734.430116,-6143.709319,1991.848295
1267.290444,8734.430116,-5773.606348,1532.190996
1267.290773,7994.224174,-5477.523971,1302.362347
1267.291102,7698.141797,-6143.709319,995.924147
1267.291431,7179.997637,-6513.812290,995.924147
1267.291760,6587.832884,-7031.956449,689.485948
1267.292089,6439.791695,-7254.018232,612.876398
1267.292418,6069.688724,-7254.018232,1455.581446
1267.292747,6513.812290,-7105.977043,1378.971896
1267.293076,6069.688724,-7254.018232,306.438199
1267.293405,5847.626942,-7476.080014,383.047749
1267.293734,5699.585753,-7402.059420,-612.876398
1267.294064,5551.544565,-7994.224174,153.219100
1267.294393,6439.791695,-7698.141797,995.924147
1267.294722,6513.812290,-7179.997637,1072.533697
1267.295051,5921.647536,-6513.812290,1378.971896
1267.295380,6513.812290,-5921.647536,1302.362347
1267.295709,7698.141797,-5995.668130,1762.019645
1267.296038,8882.471304,-5107.421000,1838.629195
1267.296367,8734.430116,-4885.359217,1915.238745
1267.296696,8438.347739,-4737.318029,1149.143247
1267.297025,8586.388927,-4737.318029,1302.362347
1267.297354,8216.285956,-5625.565159,919.314598
1267.297683,7624.121203,-6883.915261,1762.019645
1267.298012,6365.771101,-6809.894666,1915.238745
1267.298341,5773.606348,-6883.915261,459.657299
1267.298670,4885.359217,-7772.162391,153.219100
1267.298999,4441.235652,-8216.285956,153.219100
1267.299328,5033.400406,-8882.471304,536.266849
1267.299657,5995.668130,-7772.162391,459.657299
1267.299986,6365.771101,-6883.915261,612.876398
1267.300315,7402.059420,-6291.750507,995.924147
1267.300644,8216.285956,-5847.626942,1532.190996
1267.300973,7920.203579,-5403.503377,1532.190996
1267.301302,7772.162391,-5033.400406,1378.971896
1267.301631,8438.347739,-4589.276840,1225.752797
1267.301960,8882.471304,-4737.318029,1378.971896
1267.302289,8586.388927,-5477.523971,1608.800546
1267.302618,8808.450710,-5995.668130,1302.362347
1267.302948,8142.265362,-6365.771101,1072.533697
1267.303277,7624.121203,-6957.935855,1225.752797
1267.303606,7105.977043,-6883.915261,1378.971896
1267.303935,6365.771101,-7179.997637,1302.362347
1267.304264,5625.565159,-7328.038826,1608.800546
1267.304593,5403.503377,-7179.997637,995.924147
1267.304922,5551.544565,-7179.997637,919.314598
1267.305251,5921.647536,-7031.956449,383.047749
1267.305580,6069.688724,-7550.100608,689.485948
1267.305909,6217.729913,-7698.141797,383.047749
1267.306238,6217.729913,-7402.059420,306.438199
1267.306567,6291.750507,-7105.977043,459.657299
1267.306896,6735.874072,-6661.853478,1072.533697
1267.307225,6809.894666,-6735.874072,1225.752797
1267.307554,7179.997637,-6661.853478,1225.752797
1267.307883,8068.244768,-6143.709319,1685.410096
1267.308212,8364.327145,-5773.606348,1685.410096
1267.308541,8364.327145,-5329.482782,2068.457845
1267.308870,8290.306550,-5255.462188,1072.533697
1267.309199,8586.388927,-4737.318029,919.314598
1267.309528,7476.080014,-5847.626942,1072.533697
1267.309857,6883.915261,-6291.750507,1455.581446
1267.310186,6143.709319,-7105.977043,1608.800546
1267.310515,5551.544565,-7105.977043,689.485948
1267.310844,4885.359217,-7550.100608,612.876398
1267.311173,5255.462188,-8142.265362,1302.362347
1267.311502,5255.462188,-8438.347739,919.314598
1267.311831,5847.626942,-7476.080014,612.876398
1267.312159,6513.812290,-7105.977043,383.047749
1267.312488,6957.935855,-6883.915261,1225.752797
1267.312817,7179.997637,-6809.894666,1225.752797
1267.313146,7179.997637,-5921.647536,766.095498
1267.313475,6735.874072,-5033.400406,536.266849
1267.313804,7772.162391,-5255.462188,1072.533697
1267.314133,8734.430116,-5255.462188,1685.410096
1267.314462,8956.491898,-5551.544565,1532.190996
1267.314791,9030.512492,-5921.647536,2068.457845
1267.315120,8290.306550,-5181.441594,1302.362347
1267.315449,7624.121203,-6217.729913,689.485948
1267.315778,6809.894666,-6883.915261,1149.143247
1267.316107,6661.853478,-7476.080014,536.266849
1267.316436,5847.626942,-7624.121203,1072.533697
1267.316764,5181.441594,-7254.018232,1455.581446
1267.317093,5477.523971,-7624.121203,919.314598
1267.317422,5995.668130,-7550.100608,919.314598
1267.317751,6291.750507,-7920.203579,842.705048
1267.318080,5773.606348,-7402.059420,153.219100
1267.318409,6143.709319,-6587.832884,306.438199
1267.318738,6735.874072,-6143.709319,766.095498
1267.319067,7254.018232,-6513.812290,919.314598
1267.319396,7254.018232,-6069.688724,1302.362347
1267.319725,7698.141797,-5699.585753,2145.067394
1267.320054,8438.347739,-5847.626942,1838.629195
1267.320383,8512.368333,-5847.626942,1532.190996
1267.320712,8068.244768,-5625.565159,1608.800546
1267.321041,7772.162391,-6217.729913,1225.752797
1267.321369,7772.162391,-5921.647536,1149.143247
1267.321698,7254.018232,-5847.626942,766.095498
1267.322027,6809.894666,-6587.832884,1225.752797
1267.322356,5847.626942,-6661.853478,842.705048
1267.322685,5625.565159,-7846.182985,383.047749
1267.323014,5033.400406,-8586.388927,536.266849
1267.323343,5181.441594,-7772.162391,306.438199
1267.323672,5625.565159,-7846.182985,76.609550
1267.324001,6069.688724,-7328.038826,153.219100
1267.324330,6439.791695,-6735.874072,383.047749
1267.324659,7624.121203,-6513.812290,1225.752797
1267.324988,8142.265362,-5921.647536,1532.190996
1267.325317,7698.141797,-4959.379811,1072.533697
1267.325646,7698.141797,-5181.441594,1378.971896
1267.325975,8068.244768,-5107.421000,1608.800546
1267.326303,8438.347739,-5329.482782,1838.629195
1267.326632,8734.430116,-5921.647536,2145.067394
1267.326961,8734.430116,-5921.647536,1608.800546
1267.327290,8512.368333,-5847.626942,1072.533697
1267.327619,7328.038826,-6439.791695,766.095498
1267.327948,6587.832884,-6809.894666,689.485948
1267.328277,5625.565159,-6661.853478,459.657299
1267.328606,5847.626942,-7402.059420,995.924147
1267.328935,6365.771101,-6957.935855,995.924147
1267.329264,6661.853478,-7476.080014,1608.800546
1267.329593,5921.647536,-6883.915261,1455.581446
1267.329922,6735.874072,-7476.080014,536.266849
1267.330251,6143.709319,-7328.038826,153.219100
1267.330580,6217.729913,-6661.853478,306.438199
1267.330908,6735.874072,-6217.729913,229.828649
1267.331237,6809.894666,-5847.626942,1608.800546
1267.331566,7105.977043,-5625.565159,1302.362347
1267.331895,8142.265362,-5995.668130,1378.971896
1267.332224,8660.409521,-5255.462188,2145.067394
1267.332553,8586.388927,-5477.523971,1685.410096
1267.332882,8586.388927,-5625.565159,1455.581446
1267.333211,7846.182985,-6439.791695,1072.533697
1267.333540,7105.977043,-5995.668130,842.705048
1267.333869,6439.791695,-6809.894666,842.705048
1267.334198,6365.771101,-6735.874072,1378.971896
1267.334527,5551.544565,-7031.956449,459.657299
1267.334856,5181.441594,-7920.203579,919.314598
1267.335185,5107.421000,-8290.306550,689.485948
1267.335513,5625.565159,-8660.409521,689.485948
1267.335842,5107.421000,-8290.306550,766.095498
1267.336171,5773.606348,-7105.977043,76.609550
1267.336500,7031.956449,-7031.956449,76.609550
1267.336829,7402.059420,-6735.874072,1302.362347
1267.337158,7920.203579,-5699.585753,919.314598
1267.337487,7328.038826,-5699.585753,842.705048
1267.337816,7550.100608,-5033.400406,1072.533697
1267.338145,7698.141797,-5329.482782,995.924147
1267.338474,7920.203579,-5699.585753,1685.410096
1267.338803,8216.285956,-5921.647536,2451.505594
1267.339132,9104.533087,-5921.647536,1608.800546
1267.339461,8364.327145,-5551.544565,1532.190996
1267.339790,7328.038826,-5921.647536,1378.971896
1267.340118,6735.874072,-6957.935855,2221.676944
1267.340447,6291.750507,-7179.997637,1302.362347
1267.340776,5329.482782,-7179.997637,1455.581446
1267.341105,6069.688724,-6883.915261,1072.533697
1267.341434,6439.791695,-7105.977043,1455.581446
1267.341763,5625.565159,-7179.997637,612.876398
1267.342092,5625.565159,-7550.100608,459.657299
1267.342421,6069.688724,-7698.141797,459.657299
1267.342750,6735.874072,-7105.977043,383.047749
1267.343079,6513.812290,-6217.729913,1149.143247
1267.343408,7179.997637,-6217.729913,1149.143247
1267.343737,7624.121203,-5921.647536,1149.143247
1267.344066,8068.244768,-6069.688724,1915.238745
1267.344395,8364.327145,-5773.606348,1532.190996
1267.344723,9104.533087,-5477.523971,1455.581446
1267.345052,8438.347739,-5699.585753,766.095498
1267.345381,8068.244768,-6143.709319,919.314598
1267.345710,7179.997637,-6513.812290,1225.752797
1267.346039,7105.977043,-6365.771101,1149.143247
1267.346368,6587.832884,-6439.791695,1685.410096
1267.346697,5995.668130,-6957.935855,1072.533697
1267.347026,5255.462188,-7402.059420,612.876398
1267.347355,4811.338623,-7772.162391,919.314598
1267.347684,5255.462188,-8364.327145,612.876398
1267.348013,5255.462188,-6883.915261,306.438199
1267.348342,6217.729913,-6957.935855,459.657299
1267.348671,7031.956449,-6143.709319,842.705048
1267.349000,7105.977043,-5995.668130,1072.533697
1267.349329,6809.894666,-6217.729913,1378.971896
1267.349657,7105.977043,-5255.462188,1149.143247
1267.349986,7624.121203,-5847.626942,919.314598
1267.350315,7920.203579,-5921.647536,1455.581446
1267.350644,8586.388927,-5921.647536,1302.362347
1267.350973,8808.450710,-6069.688724,2145.067394
1267.351302,8364.327145,-6069.688724,1378.971896
1267.351631,8290.306550,-6365.771101,689.485948
1267.351960,7476.080014,-6587.832884,1072.533697
1267.352289,6957.935855,-6513.812290,842.705048
1267.352618,5995.668130,-7031.956449,766.095498
1267.352947,5551.544565,-7328.038826,842.705048
1267.353276,6291.750507,-7328.038826,612.876398
1267.353605,6513.812290,-7105.977043,1149.143247
1267.353934,6587.832884,-7031.956449,842.705048
1267.354262,5921.647536,-7328.038826,306.438199
1267.354591,6069.688724,-7476.080014,459.657299
1267.354920,6143.709319,-7031.956449,612.876398
1267.355249,6513.812290,-6365.771101,536.266849
1267.355578,6513.812290,-6365.771101,919.314598
1267.355907,7179.997637,-6735.874072,1838.629195
1267.356236,7772.162391,-6291.750507,1608.800546
1267.356565,8512.368333,-5773.606348,1838.629195
1267.356894,8290.306550,-5699.585753,995.924147
1267.357223,8364.327145,-5699.585753,1072.533697
1267.357552,8290.306550,-5403.503377,1915.238745
1267.357881,7994.224174,-6069.688724,1225.752797
1267.358210,7105.977043,-6069.688724,1149.143247
1267.358539,6513.812290,-6735.874072,612.876398
1267.358867,5551.544565,-6957.935855,229.828649
1267.359196,4811.338623,-7402.059420,689.485948
1267.359525,5329.482782,-7624.121203,766.095498
1267.359854,5551.544565,-7328.038826,1149.143247
1267.360183,6365.771101,-6883.915261,536.266849
1267.360512,6439.791695,-6809.894666,612.876398
1267.360841,7254.018232,-6513.812290,1149.143247
1267.361170,7476.080014,-6217.729913,1915.238745
1267.361499,7698.141797,-5477.523971,1302.362347
1267.361828,7550.100608,-5625.565159,1302.362347
1267.362157,8142.265362,-5403.503377,1455.581446
1267.362486,8216.285956,-5255.462188,1532.190996
1267.362815,8216.285956,-5847.626942,1225.752797
1267.363144,7624.121203,-5699.585753,1608.800546
1267.363472,7846.182985,-6365.771101,1149.143247
1267.363801,7105.977043,-6365.771101,766.095498
1267.364130,6513.812290,-7105.977043,919.314598
1267.364459,6291.750507,-7402.059420,306.438199
1267.364788,5477.523971,-7624.121203,1149.143247
1267.365117,5033.400406,-7698.141797,842.705048
1267.365446,6513.812290,-7550.100608,1072.533697
1267.365775,6587.832884,-7550.100608,1149.143247
1267.366104,6143.709319,-7254.018232,1072.533697
1267.366433,5847.626942,-7254.018232,0.000000
1267.366762,6365.771101,-6809.894666,536.266849
1267.367091,7179.997637,-6513.812290,229.828649
1267.367420,7031.956449,-6069.688724,919.314598
1267.367749,7254.018232,-6291.750507,1149.143247
1267.368077,7698.141797,-5847.626942,1685.410096
1267.368406,8142.265362,-5699.585753,1608.800546
1267.368735,7846.182985,-5477.523971,1838.629195
1267.369064,8068.244768,-5255.462188,2221.676944
1267.369393,8290.306550,-5107.421000,1455.581446
1267.369722,7698.141797,-5921.647536,1225.752797
1267.370051,7476.080014,-6439.791695,1225.752797
1267.370380,7328.038826,-7105.977043,1762.019645
1267.370709,6735.874072,-7624.121203,995.924147
1267.371038,5181.441594,-7476.080014,766.095498
1267.371367,4589.276840,-8142.265362,612.876398
1267.371696,4885.359217,-8068.244768,229.828649
1267.372025,4811.338623,-7105.977043,153.219100
1267.372354,5995.668130,-7476.080014,842.705048
1267.372683,7031.956449,-7624.121203,383.047749
1267.373011,7402.059420,-7105.977043,1302.362347
1267.373340,7328.038826,-6587.832884,1072.533697
1267.373669,7624.121203,-6587.832884,1455.581446
1267.373998,7402.059420,-5551.544565,842.705048
1267.374327,7624.121203,-4811.338623,766.095498
1267.374656,7624.121203,-5329.482782,1608.800546
1267.374985,8882.471304,-4959.379811,1532.190996
1267.375314,8882.471304,-5847.626942,1378.971896
1267.375643,8364.327145,-5847.626942,1455.581446
1267.375972,7550.100608,-6217.729913,1225.752797
1267.376301,7328.038826,-6661.853478,1149.143247
1267.376630,7254.018232,-7105.977043,2068.457845
1267.376959,6143.709319,-7254.018232,1838.629195
1267.377288,5995.668130,-7031.956449,1302.362347
1267.377616,5699.585753,-7105.977043,995.924147
1267.377945,5255.462188,-7846.182985,229.828649
1267.378274,4885.359217,-8438.347739,306.438199
1267.378603,5329.482782,-7698.141797,383.047749
1267.378932,5995.668130,-7476.080014,383.047749
1267.379261,6365.771101,-6439.791695,995.924147
1267.379590,6809.894666,-6365.771101,1608.800546
1267.379919,7179.997637,-6069.688724,842.705048
1267.380248,8068.244768,-4885.359217,1762.019645
1267.380577,8956.491898,-4959.379811,1455.581446
1267.380906,9030.512492,-4441.235652,1685.410096
1267.381235,9252.574275,-5033.400406,1455.581446
1267.381564,8660.409521,-5773.606348,919.314598
1267.381893,8290.306550,-5921.647536,1225.752797
1267.382221,7328.038826,-6809.894666,1302.362347
1267.382550,6809.894666,-6809.894666,2604.724693
1267.382879,5625.565159,-8068.244768,766.095498
1267.383208,4589.276840,-7846.182985,383.047749
1267.383537,3997.112087,-8438.347739,383.047749
1267.383866,4145.153275,-7846.182985,76.609550
1267.384195,4811.338623,-7476.080014,842.705048
1267.384524,6143.709319,-7698.141797,383.047749
1267.384853,7105.977043,-6883.915261,995.924147
1267.385182,7920.203579,-6735.874072,1455.581446
1267.385511,7994.224174,-6439.791695,1149.143247
1267.385840,7920.203579,-5329.482782,1225.752797
1267.386169,7994.224174,-5181.441594,1149.143247
1267.386498,7994.224174,-4515.256246,1378.971896
1267.386826,8660.409521,-5847.626942,1532.190996
1267.387155,9178.553681,-5995.668130,1149.143247
1267.387484,8586.388927,-6217.729913,842.705048
1267.387813,7920.203579,-6809.894666,459.657299
1267.388142,7254.018232,-6587.832884,766.095498
1267.388471,6883.915261,-7254.018232,1225.752797
1267.388800,5995.668130,-6661.853478,612.876398
1267.389129,5255.462188,-7254.018232,842.705048
1267.389458,5625.565159,-6809.894666,1072.533697
1267.389787,6661.853478,-7254.018232,995.924147
1267.390116,6735.874072,-7402.059420,1149.143247
1267.390445,5921.647536,-6735.874072,459.657299
1267.390774,6143.709319,-7402.059420,536.266849
1267.391103,6883.915261,-6957.935855,306.438199
1267.391431,6957.935855,-6439.791695,919.314598
1267.391760,6809.894666,-6217.729913,766.095498
1267.392089,7328.038826,-6143.709319,1685.410096
1267.392418,7105.977043,-6291.750507,1378.971896
1267.392747,7402.059420,-5403.503377,1455.581446
1267.393076,7698.141797,-5255.462188,1149.143247
1267.393405,8586.388927,-5773.606348,842.705048
1267.393734,8586.388927,-6069.688724,1608.800546
1267.394063,8364.327145,-6513.812290,1608.800546
1267.394392,7550.100608,-6217.729913,1149.143247
1267.394721,6587.832884,-6883.915261,1149.143247
1267.395050,5625.565159,-7550.100608,383.047749
1267.395379,5551.544565,-7624.121203,842.705048
1267.395708,5625.565159,-7920.203579,612.876398
1267.396037,5773.606348,-7994.224174,536.266849
1267.396365,5995.668130,-7328.038826,766.095498
1267.396694,6217.729913,-7402.059420,536.266849
1267.397023,6809.894666,-7179.997637,842.705048
1267.397352,6957.935855,-6439.791695,1072.533697
1267.397681,6587.832884,-6069.688724,612.876398
1267.398010,6957.935855,-6143.709319,1149.143247
1267.398339,7179.997637,-5551.544565,1455.581446
1267.398668,7698.141797,-5329.482782,1608.800546
1267.398997,7846.182985,-5403.503377,1532.190996
1267.399326,8512.368333,-5625.565159,1685.410096
1267.399655,8142.265362,-6217.729913,1072.533697
1267.399984,7550.100608,-5995.668130,1378.971896
1267.400313,7624.121203,-6513.812290,1302.362347
1267.400642,7402.059420,-6809.894666,1302.362347
1267.400970,5921.647536,-6661.853478,1072.533697
1267.401299,5773.606348,-7550.100608,919.314598
1267.401628,6143.709319,-7179.997637,1072.533697
1267.401957,6291.750507,-7772.162391,1302.362347
1267.402286,5699.585753,-7179.997637,229.828649
1267.402615,5773.606348,-7476.080014,536.266849
1267.402944,6069.688724,-7476.080014,153.219100
1267.403273,6587.832884,-7031.956449,306.438199
1267.403602,6143.709319,-6291.750507,1302.362347
1267.403931,6291.750507,-5773.606348,766.095498
1267.404260,7179.997637,-5477.523971,1378.971896
1267.404589,8068.244768,-5847.626942,1915.238745
1267.404918,8290.306550,-5477.523971,1838.629195
1267.405247,8882.471304,-4589.276840,1302.362347
1267.405575,8512.368333,-5107.421000,1302.362347
1267.405904,8364.327145,-4885.359217,1455.581446
1267.406233,8438.347739,-6291.750507,1762.019645
1267.406562,7476.080014,-6291.750507,1685.410096
1267.406891,6809.894666,-7402.059420,766.095498
1267.407220,4959.379811,-7328.038826,612.876398
1267.407549,4663.297435,-7698.141797,536.266849
1267.407878,4663.297435,-8956.491898,229.828649
1267.408207,4515.256246,-7698.141797,536.266849
1267.408536,5477.523971,-7698.141797,0.000000
1267.408865,6883.915261,-7105.977043,306.438199
1267.409194,7624.121203,-6809.894666,1225.752797
1267.409523,7624.121203,-6217.729913,995.924147
1267.409852,7920.203579,-5921.647536,1608.800546
1267.410181,7920.203579,-4885.359217,1455.581446
1267.410510,8216.285956,-4663.297435,1378.971896
1267.410839,8364.327145,-4811.338623,1762.019645
1267.411168,8512.368333,-4885.359217,1455.581446
1267.411497,8438.347739,-5625.565159,1378.971896
1267.411826,7920.203579,-6217.729913,842.705048
1267.412155,6735.874072,-6439.791695,766.095498
1267.412484,6513.812290,-7179.997637,995.924147
1267.412813,6069.688724,-7179.997637,1455.581446
1267.413142,5847.626942,-7846.182985,1072.533697
1267.413471,5329.482782,-7772.162391,1378.971896
1267.413800,5921.647536,-7550.100608,1532.190996
1267.414129,6069.688724,-7846.182985,919.314598
1267.414458,5699.585753,-7179.997637,612.876398
1267.414787,5625.565159,-7772.162391,459.657299
1267.415116,6661.853478,-7698.141797,536.266849
1267.415445,6809.894666,-6809.894666,1072.533697
1267.415774,6883.915261,-5921.647536,1378.971896
1267.416103,7698.141797,-5329.482782,842.705048
1267.416432,7994.224174,-5551.544565,1302.362347
1267.416761,8216.285956,-5403.503377,1378.971896
1267.417090,8512.368333,-5403.503377,1685.410096
1267.417419,9326.594869,-5107.421000,2068.457845
1267.417748,8660.409521,-4885.359217,1302.362347
1267.418077,8438.347739,-5477.523971,1378.971896
1267.418406,8216.285956,-5921.647536,1225.752797
1267.418735,7179.997637,-6883.915261,1072.533697
1267.419064,6291.750507,-6291.750507,1072.533697
1267.419392,5181.441594,-7402.059420,612.876398
1267.419721,5477.523971,-7698.141797,919.314598
1267.420050,5255.462188,-7476.080014,612.876398
1267.420379,4959.379811,-7624.121203,612.876398
1267.420708,5847.626942,-7846.182985,229.828649
1267.421037,6513.812290,-7179.997637,842.705048
1267.421366,7105.977043,-7105.977043,766.095498
1267.421695,6809.894666,-6587.832884,995.924147
1267.422024,7031.956449,-6217.729913,1149.143247
1267.422353,7550.100608,-5699.585753,1149.143247
1267.422682,7328.038826,-4959.379811,1762.019645
1267.423011,8068.244768,-5033.400406,1608.800546
1267.423340,7846.182985,-4959.379811,1378.971896
1267.423669,7846.182985,-5921.647536,766.095498
1267.423998,7476.080014,-6735.874072,689.485948
1267.424327,7550.100608,-6957.935855,1072.533697
1267.424656,7328.038826,-7254.018232,1149.143247
1267.424985,7402.059420,-7476.080014,1991.848295
1267.425314,6217.729913,-6513.812290,1455.581446
1267.425643,5921.647536,-6957.935855,995.924147
1267.425972,5995.668130,-7179.997637,1149.143247
1267.426301,6439.791695,-7105.977043,995.924147
1267.426630,6143.709319,-7179.997637,689.485948
1267.426959,6439.791695,-7105.977043,766.095498
1267.427288,6439.791695,-7402.059420,1225.752797
1267.427617,6291.750507,-6883.915261,1225.752797
1267.427946,6217.729913,-6661.853478,1378.971896
1267.428275,6513.812290,-6143.709319,1225.752797
1267.428604,7105.977043,-5107.421000,1455.581446
1267.428933,7698.141797,-5921.647536,1225.752797
1267.429262,8290.306550,-5329.482782,1378.971896
1267.429591,8586.388927,-5773.606348,995.924147
1267.429920,8512.368333,-5699.585753,1532.190996
1267.430249,8438.347739,-5847.626942,1225.752797
1267.430578,7920.203579,-6587.832884,1225.752797
1267.430907,6883.915261,-6217.729913,1991.848295
1267.431236,6143.709319,-7328.038826,842.705048
1267.431565,5551.544565,-7550.100608,919.314598
1267.431894,5403.503377,-7476.080014,153.219100
1267.432223,5107.421000,-7550.100608,153.219100
1267.432552,5403.503377,-7402.059420,1072.533697
1267.432881,6069.688724,-8216.285956,1225.752797
1267.433210,6957.935855,-7179.997637,766.095498
1267.433539,6809.894666,-6143.709319,612.876398
1267.433868,6883.915261,-6661.853478,995.924147
1267.434197,7846.182985,-5329.482782,1532.190996
1267.434526,7402.059420,-5329.482782,1608.800546
1267.434855,7846.182985,-5107.421000,1378.971896
1267.435184,8290.306550,-5181.441594,1838.629195
1267.435513,8512.368333,-5551.544565,1762.019645
1267.435842,8068.244768,-6365.771101,1378.971896
1267.436171,7254.018232,-6217.729913,1149.143247
1267.436500,7105.977043,-6365.771101,689.485948
1267.436829,6883.915261,-6883.915261,995.924147
1267.437158,6809.894666,-6809.894666,1378.971896
1267.437487,6513.812290,-7179.997637,1302.362347
1267.437816,6513.812290,-7402.059420,842.705048
1267.438145,6143.709319,-7328.038826,919.314598
1267.438474,5699.585753,-7846.182985,383.047749
1267.438803,5625.565159,-7846.182985,229.828649
1267.439132,5921.647536,-7402.059420,0.000000
1267.439461,5995.668130,-8068.244768,536.266849
1267.439790,6217.729913,-6661.853478,689.485948
1267.440119,7105.977043,-6217.729913,1532.190996
1267.440448,7254.018232,-5699.585753,1225.752797
1267.440776,7476.080014,-4885.359217,1455.581446
1267.441105,7920.203579,-5699.585753,1762.019645
1267.441434,7994.224174,-4663.297435,1225.752797
1267.441763,8216.285956,-5403.503377,1225.752797
1267.442092,8586.388927,-5847.626942,1225.752797
1267.442421,8142.265362,-5625.565159,1378.971896
1267.442750,8142.265362,-6439.791695,1532.190996
1267.443079,7179.997637,-5625.565159,919.314598
1267.443408,5773.606348,-7031.956449,536.266849
1267.443737,5403.503377,-7105.977043,766.095498
1267.444066,5329.482782,-7846.182985,612.876398
1267.444395,5255.462188,-8142.265362,919.314598
1267.444724,5181.441594,-7105.977043,612.876398
1267.445053,5995.668130,-7624.121203,0.000000
1267.445382,6439.791695,-7254.018232,689.485948
1267.445711,7105.977043,-6661.853478,766.095498
1267.446040,7476.080014,-5921.647536,995.924147
1267.446369,7772.162391,-5921.647536,995.924147
1267.446698,7698.141797,-5921.647536,1378.971896
1267.447027,7846.182985,-5181.441594,1608.800546
1267.447356,8290.306550,-4885.359217,1532.190996
1267.447685,8586.388927,-4737.318029,1685.410096
1267.448014,8512.368333,-5403.503377,1302.362347
1267.448343,8216.285956,-6069.688724,1225.752797
1267.448672,7550.100608,-6069.688724,766.095498
1267.449001,7105.977043,-7031.956449,1532.190996
1267.449330,6513.812290,-7550.100608,1378.971896
1267.449659,5921.647536,-7698.141797,1149.143247
1267.449988,5329.482782,-7328.038826,1378.971896
1267.450317,4959.379811,-7920.203579,689.485948
1267.450646,5477.523971,-7920.203579,1149.143247
1267.450975,5921.647536,-7846.182985,383.047749
1267.451304,6291.750507,-7624.121203,153.219100
1267.451633,6809.894666,-7105.977043,919.314598
1267.451962,6957.935855,-6365.771101,612.876398
1267.452291,7328.038826,-6217.729913,1455.581446
1267.452620,7624.121203,-5551.544565,1378.971896
1267.452949,7476.080014,-5477.523971,1225.752797
1267.453278,8068.244768,-5329.482782,1915.238745
1267.453607,8512.368333,-4589.276840,1225.752797
1267.453936,8660.409521,-5477.523971,1072.533697
1267.454265,8364.327145,-5255.462188,1455.581446
1267.454594,8586.388927,-6365.771101,1532.190996
1267.454923,8142.265362,-6735.874072,1608.800546
1267.455252,6439.791695,-6809.894666,1991.848295
1267.455581,5403.503377,-7402.059420,1149.143247
1267.455910,5255.462188,-7179.997637,842.705048
1267.456239,4959.379811,-7698.141797,536.266849
1267.456568,5329.482782,-7624.121203,459.657299
1267.456897,6143.709319,-7846.182985,689.485948
1267.457226,6587.832884,-7698.141797,612.876398
1267.457555,6513.812290,-6809.894666,0.000000
1267.457884,6143.709319,-6661.853478,459.657299
1267.458213,7179.997637,-6883.915261,919.314598
1267.458542,7624.121203,-6661.853478,1072.533697
1267.458871,7698.141797,-5255.462188,1608.800546
1267.459200,8438.347739,-5033.400406,1455.581446
1267.459529,8734.430116,-5403.503377,2068.457845
1267.459858,8364.327145,-4959.379811,2221.676944
1267.460187,8068.244768,-6365.771101,689.485948
1267.460516,7920.203579,-6143.709319,1149.143247
1267.460845,7105.977043,-5773.606348,689.485948
1267.461174,6809.894666,-6661.853478,1225.752797
1267.461503,6365.771101,-7105.977043,1532.190996
1267.461832,6217.729913,-7254.018232,1149.143247
1267.462161,6069.688724,-7254.018232,1149.143247
1267.462489,5699.585753,-7328.038826,919.314598
1267.462818,5551.544565,-7846.182985,76.609550
1267.463147,5477.523971,-8216.285956,459.657299
1267.463476,5995.668130,-7846.182985,766.095498
1267.463805,6069.688724,-7105.977043,306.438199
1267.464134,6587.832884,-6809.894666,1072.533697
1267.464463,7402.059420,-7031.956449,1302.362347
1267.464792,7402.059420,-5329.482782,1225.752797
1267.465121,7179.997637,-5329.482782,1225.752797
1267.465450,7698.141797,-5329.482782,1225.752797
1267.465779,8586.388927,-5107.421000,1225.752797
1267.466108,8808.450710,-5329.482782,1608.800546
1267.466437,8808.450710,-5551.544565,1532.190996
1267.466766,8438.347739,-5995.668130,1225.752797
1267.467095,7179.997637,-6291.750507,383.047749
1267.467424,5921.647536,-6883.915261,76.609550
1267.467753,5551.544565,-7624.121203,842.705048
1267.468082,5625.565159,-7402.059420,459.657299
1267.468411,5033.400406,-7994.224174,536.266849
1267.468740,5403.503377,-7624.121203,842.705048
1267.469069,6069.688724,-7698.141797,459.657299
1267.469398,6735.874072,-7031.956449,766.095498
1267.469727,7179.997637,-6143.709319,612.876398
1267.470056,7105.977043,-6439.791695,612.876398
1267.470385,7476.080014,-5995.668130,1072.533697
1267.470714,7254.018232,-5847.626942,1455.581446
1267.471043,7698.141797,-5625.565159,1532.190996
1267.471372,7920.203579,-5773.606348,1532.190996
1267.471701,8290.306550,-6069.688724,2221.676944
1267.472030,7550.100608,-6735.874072,612.876398
1267.472359,7402.059420,-6587.832884,842.705048
1267.472688,7476.080014,-6809.894666,689.485948
1267.473017,7105.977043,-6587.832884,612.876398
1267.473346,6661.853478,-6513.812290,1532.190996
1267.473675,6587.832884,-7105.977043,1532.190996
1267.474004,6365.771101,-6587.832884,1225.752797
1267.474333,5995.668130,-7179.997637,1072.533697
1267.474662,5995.668130,-7031.956449,766.095498
1267.474991,6069.688724,-7105.977043,1455.581446
1267.475320,6069.688724,-7328.038826,229.828649
1267.475649,5995.668130,-7179.997637,306.438199
1267.475978,6291.750507,-7105.977043,459.657299
1267.476307,7328.038826,-6661.853478,995.924147
1267.476636,6661.853478,-6439.791695,1072.533697
1267.476965,6809.894666,-5995.668130,1072.533697
1267.477294,7328.038826,-5625.565159,1378.971896
1267.477623,8290.306550,-5477.523971,1685.410096
1267.477952,9104.533087,-4811.338623,2145.067394
1267.478281,9548.656652,-4811.338623,1991.848295
1267.478610,9400.615463,-4663.297435,1915.238745
1267.478939,7920.203579,-5107.421000,1685.410096
1267.479268,7105.977043,-5625.565159,919.314598
1267.479597,6439.791695,-5921.647536,383.047749
1267.479926,5477.523971,-7179.997637,766.095498
1267.480255,5255.462188,-7550.100608,842.705048
1267.480584,5329.482782,-7772.162391,919.314598
1267.480913,5699.585753,-7698.141797,1149.143247
1267.481242,6143.709319,-8068.244768,995.924147
1267.481571,6513.812290,-7402.059420,612.876398
1267.481900,6661.853478,-7105.977043,229.828649
1267.482229,6809.894666,-7105.977043,995.924147
1267.482558,7476.080014,-6217.729913,1072.533697
1267.482887,7328.038826,-5921.647536,1225.752797
1267.483216,7550.100608,-5329.482782,1302.362347
1267.483545,8216.285956,-5699.585753,1532.190996
1267.483873,8882.471304,-5329.482782,2145.067394
1267.484202,8512.368333,-5921.647536,1149.143247
1267.484531,8142.265362,-6291.750507,1225.752797
1267.484860,7179.997637,-6661.853478,842.705048
1267.485189,6809.894666,-7254.018232,766.095498
1267.485518,6513.812290,-7550.100608,919.314598
1267.485847,5477.523971,-8142.265362,919.314598
1267.486176,5551.544565,-7846.182985,1225.752797
1267.486505,5625.565159,-8216.285956,842.705048
1267.486834,6143.709319,-7254.018232,766.095498
1267.487163,5625.565159,-7550.100608,229.828649
1267.487492,5847.626942,-7698.141797,76.609550
1267.487821,6143.709319,-6883.915261,689.485948
1267.488150,6661.853478,-6513.812290,536.266849
1267.488479,7328.038826,-4885.359217,612.876398
1267.488808,7550.100608,-5477.523971,1149.143247
1267.489137,7624.121203,-5181.441594,1455.581446
1267.489466,8364.327145,-5255.462188,1915.238745
1267.489795,8956.491898,-5033.400406,1762.019645
1267.490124,8808.450710,-5181.441594,1685.410096
1267.490453,8586.388927,-5625.565159,1455.581446
1267.490782,8512.368333,-5995.668130,1532.190996
1267.491111,7698.141797,-6217.729913,1455.581446
1267.491440,7476.080014,-5625.565159,1302.362347
1267.491769,6143.709319,-5921.647536,842.705048
1267.492098,4959.379811,-6957.935855,536.266849
1267.492427,4885.359217,-7550.100608,689.485948
1267.492756,4959.379811,-8290.306550,842.705048
1267.493085,5699.585753,-8216.285956,689.485948
1267.493414,5847.626942,-8068.244768,842.705048
1267.493743,6513.812290,-7476.080014,229.828649
1267.494072,6513.812290,-7031.956449,459.657299
1267.494401,7031.956449,-6439.791695,919.314598
1267.494730,7624.121203,-6365.771101,919.314598
1267.495059,8142.265362,-5625.565159,1302.362347
1267.495388,7772.162391,-5329.482782,1378.971896
1267.495717,8290.306550,-5329.482782,1532.190996
1267.496046,8364.327145,-5255.462188,1838.629195
1267.496375,8512.368333,-6069.688724,1072.533697
1267.496704,8142.265362,-5773.606348,1302.362347
1267.497033,7402.059420,-5995.668130,842.705048
1267.497362,7328.038826,-7105.977043,1378.971896
1267.497691,6809.894666,-7031.956449,1455.581446
1267.498020,6143.709319,-7772.162391,1378.971896
1267.498349,5921.647536,-7402.059420,1302.362347
1267.498678,5773.606348,-7772.162391,1072.533697
1267.499007,4811.338623,-7846.182985,1072.533697
1267.499336,5477.523971,-7846.182985,383.047749
1267.499665,5847.626942,-7772.162391,536.266849
1267.499994,5921.647536,-7698.141797,536.266849
1267.500323,6365.771101,-6957.935855,842.705048
1267.500652,6661.853478,-5995.668130,842.705048
1267.500981,6735.874072,-5921.647536,0.000000
1267.501310,6809.894666,-5329.482782,1072.533697
1267.501639,7550.100608,-5107.421000,1149.143247
1267.501968,8956.491898,-5773.606348,1762.019645
1267.502297,9178.553681,-4959.379811,2145.067394
1267.502626,9030.512492,-5107.421000,1532.190996
1267.502955,8882.471304,-5329.482782,1302.362347
1267.503284,8216.285956,-5921.647536,1378.971896
1267.503613,7179.997637,-6365.771101,536.266849
1267.503942,6217.729913,-6735.874072,919.314598
1267.504271,5847.626942,-6957.935855,1225.752797
1267.504600,5181.441594,-7846.182985,612.876398
1267.504929,4885.359217,-8068.244768,842.705048
1267.505257,5107.421000,-7698.141797,383.047749
1267.505586,5551.544565,-7476.080014,0.000000
1267.505915,5921.647536,-6513.812290,0.000000
1267.506244,6735.874072,-6661.853478,689.485948
1267.506573,7846.182985,-6735.874072,2145.067394
1267.506902,7920.203579,-5847.626942,1608.800546
1267.507231,7179.997637,-5477.523971,1302.362347
1267.507560,7476.080014,-5181.441594,1149.143247
1267.507889,8142.265362,-5625.565159,1685.410096
1267.508218,8438.347739,-5477.523971,1225.752797
1267.508547,8586.388927,-5625.565159,1225.752797
1267.508876,8438.347739,-5921.647536,1378.971896
1267.509205,8068.244768,-6217.729913,1072.533697
1267.509534,7031.956449,-6587.832884,842.705048
1267.509863,5847.626942,-7550.100608,766.095498
1267.510193,5625.565159,-8068.244768,459.657299
1267.510522,4959.379811,-7846.182985,919.314598
1267.510851,5181.441594,-7698.141797,612.876398
1267.511180,5625.565159,-8068.244768,306.438199
1267.511509,6291.750507,-7550.100608,919.314598
1267.511838,6735.874072,-7476.080014,1149.143247
1267.512167,6735.874072,-6365.771101,689.485948
1267.512496,6587.832884,-6957.935855,612.876398
1267.512825,6439.791695,-7105.977043,536.266849
1267.513154,6513.812290,-5847.626942,919.314598
1267.513484,7179.997637,-5699.585753,1225.752797
1267.513813,8660.409521,-5329.482782,2221.676944
1267.514142,9622.677246,-5181.441594,2145.067394
1267.514471,8956.491898,-5847.626942,1455.581446
1267.514800,8808.450710,-4811.338623,1838.629195
1267.515129,8808.450710,-5847.626942,1378.971896
1267.515458,7550.100608,-6217.729913,766.095498
1267.515787,5995.668130,-5773.606348,1532.190996
1267.516116,5477.523971,-7402.059420,383.047749
1267.516445,5699.585753,-6513.812290,383.047749
1267.516775,5329.482782,-7846.182985,1072.533697
1267.517104,6143.709319,-7476.080014,995.924147
1267.517433,6439.791695,-7328.038826,229.828649
1267.517762,6143.709319,-6661.853478,229.828649
1267.518091,6587.832884,-6291.750507,153.219100
1267.518420,7179.997637,-6439.791695,842.705048
1267.518749,8290.306550,-6513.812290,766.095498
1267.519078,7402.059420,-6217.729913,1838.629195
1267.519407,7846.182985,-4737.318029,1608.800546
1267.519737,8512.368333,-5107.421000,1455.581446
1267.520066,8512.368333,-6069.688724,2145.067394
1267.520395,8586.388927,-6217.729913,1302.362347
1267.520724,7994.224174,-6143.709319,766.095498
1267.521053,7624.121203,-5995.668130,612.876398
1267.521382,7105.977043,-7105.977043,1532.190996
1267.521711,6069.688724,-7402.059420,1915.238745
1267.522040,5921.647536,-7624.121203,1532.190996
1267.522369,5773.606348,-7772.162391,1378.971896
1267.522698,5329.482782,-7476.080014,689.485948
1267.523028,4219.173869,-7624.121203,306.438199
1267.523357,5181.441594,-8068.244768,842.705048
1267.523686,5847.626942,-8216.285956,229.828649
1267.524015,6069.688724,-7402.059420,689.485948
1267.524344,6809.894666,-7624.121203,766.095498
1267.524673,7179.997637,-7031.956449,1225.752797
1267.525002,7105.977043,-6957.935855,1072.533697
1267.525331,6735.874072,-6217.729913,766.095498
1267.525660,7624.121203,-5551.544565,1608.800546
1267.525989,8142.265362,-5403.503377,1532.190996
1267.526319,8660.409521,-5551.544565,1455.581446
1267.526648,8586.388927,-5181.441594,1991.848295
1267.526977,9104.533087,-5181.441594,1072.533697
1267.527306,8438.347739,-5329.482782,1225.752797
1267.527635,6513.812290,-5551.544565,1532.190996
1267.527964,5921.647536,-6217.729913,612.876398
1267.528293,6069.688724,-6883.915261,536.266849
1267.528622,5773.606348,-6735.874072,1225.752797
1267.528951,5329.482782,-7624.121203,842.705048
1267.529281,5625.565159,-7476.080014,2068.457845
1267.529610,5995.668130,-7772.162391,842.705048
1267.529939,5921.647536,-7994.224174,229.828649
1267.530268,6365.771101,-7179.997637,459.657299
1267.530597,6957.935855,-7105.977043,536.266849
1267.530926,7402.059420,-6809.894666,1762.019645
1267.531255,7402.059420,-6069.688724,1455.581446
1267.531584,7550.100608,-5181.441594,995.924147
1267.531913,8512.368333,-5033.400406,1225.752797
1267.532242,8438.347739,-4959.379811,1762.019645
1267.532572,8586.388927,-5625.565159,1225.752797
1267.532901,8290.306550,-5773.606348,919.314598
1267.533230,8364.327145,-5699.585753,689.485948
1267.533559,7550.100608,-6957.935855,1149.143247
1267.533888,7254.018232,-7105.977043,1455.581446
1267.534217,6217.729913,-7698.141797,1225.752797
1267.534546,5921.647536,-7550.100608,919.314598
1267.534875,5625.565159,-7772.162391,842.705048
1267.535204,5477.523971,-8142.265362,842.705048
1267.535534,5033.400406,-7846.182985,612.876398
1267.535863,4959.379811,-7550.100608,0.000000
1267.536192,5847.626942,-7624.121203,383.047749
1267.536521,6735.874072,-7550.100608,1072.533697
1267.536850,7328.038826,-6957.935855,1302.362347
1267.537179,7105.977043,-5699.585753,612.876398
1267.537508,6513.812290,-5107.421000,842.705048
1267.537837,7254.018232,-5773.606348,1225.752797
1267.538166,8068.244768,-5625.565159,1225.752797
1267.538495,8290.306550,-5107.421000,1762.019645
1267.538825,8882.471304,-5033.400406,995.924147
1267.539154,9104.533087,-6069.688724,1915.238745
1267.539483,8512.368333,-6439.791695,1838.629195
1267.539812,7328.038826,-7105.977043,919.314598
1267.540141,6143.709319,-6439.791695,842.705048
1267.540470,5773.606348,-6513.812290,536.266849
1267.540799,5477.523971,-6957.935855,689.485948
1267.541128,5329.482782,-7179.997637,536.266849
1267.541457,5699.585753,-7698.141797,76.609550
1267.541786,5921.647536,-7550.100608,0.000000
1267.542116,6143.709319,-7105.977043,536.266849
1267.542445,7105.977043,-7031.956449,995.924147
1267.542774,8068.244768,-6513.812290,2068.457845
1267.543103,7624.121203,-5847.626942,1762.019645
1267.543432,7402.059420,-5847.626942,1302.362347
1267.543761,7772.162391,-5107.421000,1838.629195
1267.544090,8364.327145,-5033.400406,1915.238745
1267.544419,8364.327145,-5107.421000,2145.067394
1267.544748,7846.182985,-5403.503377,1225.752797
1267.545078,7328.038826,-5625.565159,689.485948
1267.545407,7476.080014,-6513.812290,919.314598
1267.545736,7402.059420,-6661.853478,1302.362347
1267.546065,7179.997637,-7031.956449,1225.752797
1267.546394,5995.668130,-7105.977043,766.095498
1267.546723,5107.421000,-7920.203579,383.047749
1267.547052,5033.400406,-8364.327145,459.657299
1267.547381,5847.626942,-7624.121203,536.266849
1267.547710,6143.709319,-8216.285956,383.047749
1267.548039,5921.647536,-7550.100608,536.266849
1267.548369,5699.585753,-7846.182985,612.876398
1267.548698,6439.791695,-7105.977043,919.314598
1267.549027,7031.956449,-6439.791695,766.095498
1267.549356,6883.915261,-6069.688724,842.705048
1267.549685,6809.894666,-5773.606348,1149.143247
1267.550014,7476.080014,-5773.606348,1685.410096
1267.550343,8364.327145,-4441.235652,1838.629195
1267.550672,8216.285956,-4811.338623,1378.971896
1267.551001,8734.430116,-4885.359217,1302.362347
1267.551331,8882.471304,-5403.503377,1455.581446
1267.551660,8512.368333,-6069.688724,1455.581446
1267.551989,7698.141797,-6217.729913,2298.286494
1267.552318,6291.750507,-7105.977043,766.095498
1267.552647,5773.606348,-7105.977043,612.876398
1267.552976,5329.482782,-7254.018232,1455.581446
1267.553305,5699.585753,-7920.203579,153.219100
1267.553634,6217.729913,-6957.935855,689.485948
1267.553963,5773.606348,-7698.141797,153.219100
1267.554292,6365.771101,-7624.121203,229.828649
1267.554622,6883.915261,-7105.977043,536.266849
1267.554951,7254.018232,-6809.894666,842.705048
1267.555280,7105.977043,-5773.606348,1149.143247
1267.555609,7624.121203,-5477.523971,1225.752797
1267.555938,8364.327145,-4885.359217,1532.190996
1267.556267,8660.409521,-4811.338623,1685.410096
1267.556596,8586.388927,-4737.318029,2221.676944
1267.556925,8364.327145,-5181.441594,1302.362347
1267.557254,8216.285956,-5625.565159,1532.190996
1267.557583,7624.121203,-6809.894666,1532.190996
1267.557913,7105.977043,-7105.977043,1455.581446
1267.558242,6587.832884,-7254.018232,1225.752797
1267.558571,5773.606348,-8068.244768,1302.362347
1267.558900,5107.421000,-7550.100608,766.095498
1267.559229,4737.318029,-7402.059420,153.219100
1267.559558,4737.318029,-8290.306550,995.924147
1267.559887,5181.441594,-8882.471304,229.828649
1267.560216,5625.565159,-8290.306550,306.438199
1267.560545,6217.729913,-7846.182985,612.876398
1267.560875,6883.915261,-7698.141797,383.047749
1267.561204,7105.977043,-6365.771101,689.485948
1267.561533,7402.059420,-6735.874072,766.095498
1267.561862,7994.224174,-5773.606348,1838.629195
1267.562191,8808.450710,-4885.359217,1455.581446
1267.562520,8734.430116,-4959.379811,1685.410096
1267.562849,7994.224174,-3923.091493,1455.581446
1267.563178,8660.409521,-5107.421000,1302.362347
1267.563507,9326.594869,-5773.606348,2221.676944
1267.563836,8586.388927,-5847.626942,1915.238745
1267.564166,7328.038826,-5847.626942,1455.581446
1267.564495,5921.647536,-6365.771101,842.705048
1267.564824,5033.400406,-7031.956449,842.705048
1267.565153,4885.359217,-8364.327145,766.095498
1267.565482,5181.441594,-8216.285956,1072.533697
1267.565811,5255.462188,-7772.162391,459.657299
1267.566140,5773.606348,-7476.080014,0.000000
1267.566469,6587.832884,-6883.915261,459.657299
1267.566798,7179.997637,-6883.915261,842.705048
1267.567128,7994.224174,-6809.894666,1838.629195
1267.567457,7994.224174,-5847.626942,1608.800546
1267.567786,8216.285956,-5477.523971,1685.410096
1267.568115,8364.327145,-4515.256246,1532.190996
1267.568444,8438.347739,-4589.276840,1762.019645
1267.568773,8364.327145,-5477.523971,1608.800546
1267.569102,8882.471304,-5329.482782,1378.971896
1267.569431,8364.327145,-5329.482782,919.314598
1267.569760,7550.100608,-5995.668130,689.485948
1267.570089,6661.853478,-6291.750507,1455.581446
1267.570419,6439.791695,-7920.203579,842.705048
1267.570748,5255.462188,-7402.059420,919.314598
1267.571077,5329.482782,-7105.977043,766.095498
1267.571406,5403.503377,-7624.121203,919.314598
1267.571735,6291.750507,-7772.162391,995.924147
1267.572064,5625.565159,-8512.368333,766.095498
1267.572393,5699.585753,-8068.244768,229.828649
1267.572722,5847.626942,-7550.100608,612.876398
1267.573051,6365.771101,-7105.977043,1455.581446
1267.573380,6587.832884,-7031.956449,766.095498
1267.573710,6587.832884,-5995.668130,1762.019645
1267.574039,7328.038826,-5995.668130,1302.362347
1267.574368,8142.265362,-5477.523971,1762.019645
1267.574697,8882.471304,-3849.070898,1608.800546
1267.575026,8808.450710,-4737.318029,1455.581446
1267.575355,8586.388927,-4441.235652,1072.533697
1267.575684,8364.327145,-5403.503377,919.314598
1267.576013,7994.224174,-6365.771101,1302.362347
1267.576342,6439.791695,-6587.832884,1915.238745
1267.576672,6069.688724,-7402.059420,689.485948
1267.577001,5477.523971,-7179.997637,842.705048
1267.577330,4811.338623,-8438.347739,612.876398
1267.577659,5181.441594,-8290.306550,306.438199
1267.577988,5847.626942,-8068.244768,153.219100
1267.578317,5995.668130,-7105.977043,0.000000
1267.578646,6809.894666,-7105.977043,459.657299
1267.578975,7254.018232,-7254.018232,1149.143247
1267.579304,7105.977043,-6513.812290,1455.581446
1267.579633,7105.977043,-6661.853478,1225.752797
1267.579963,7179.997637,-5477.523971,1685.410096
1267.580292,7846.182985,-4885.359217,1378.971896
1267.580621,8512.368333,-4737.318029,1149.143247
1267.580950,8364.327145,-4737.318029,1455.581446
1267.581279,8660.409521,-5773.606348,1149.143247
1267.581608,8734.430116,-5181.441594,1149.143247
1267.581937,7846.182985,-5773.606348,1225.752797
1267.582266,7476.080014,-6883.915261,1762.019645
1267.582595,7105.977043,-7105.977043,1378.971896
1267.582925,6217.729913,-7105.977043,919.314598
1267.583254,5699.585753,-7476.080014,842.705048
1267.583583,5625.565159,-7105.977043,1149.143247
1267.583912,5625.565159,-7254.018232,306.438199
1267.584241,5329.482782,-9104.533087,229.828649
1267.584570,5773.606348,-7402.059420,536.266849
1267.584899,6143.709319,-8068.244768,459.657299
1267.585228,6735.874072,-7328.038826,536.266849
1267.585557,6513.812290,-6587.832884,995.924147
1267.585886,6735.874072,-6661.853478,1225.752797
1267.586216,7179.997637,-5551.544565,1149.143247
1267.586545,7179.997637,-6069.688724,1455.581446
1267.586874,7994.224174,-5477.523971,1762.019645
1267.587203,8586.388927,-5329.482782,1608.800546
1267.587532,8660.409521,-5181.441594,1838.629195
1267.587861,8290.306550,-5107.421000,1608.800546
1267.588190,7772.162391,-4885.359217,1225.752797
1267.588519,7179.997637,-5773.606348,1225.752797
1267.588848,6365.771101,-6883.915261,1455.581446
1267.589177,5773.606348,-7254.018232,995.924147
1267.589507,4589.276840,-7476.080014,76.609550
1267.589836,3997.112087,-8364.327145,0.000000
1267.590165,4293.194464,-8882.471304,0.000000
1267.590494,5477.523971,-8660.409521,0.000000
1267.590823,7031.956449,-7846.182985,919.314598
1267.591152,7550.100608,-7105.977043,2145.067394
1267.591481,8142.265362,-6217.729913,1762.019645
1267.591810,8438.347739,-5181.441594,1685.410096
1267.592139,8882.471304,-4737.318029,1991.848295
1267.592469,8956.491898,-3923.091493,1991.848295
1267.592798,9696.697840,-4293.194464,1608.800546
1267.593127,8808.450710,-4515.256246,1225.752797
1267.593456,8512.368333,-5625.565159,1225.752797
1267.593785,8216.285956,-5921.647536,1225.752797
1267.594114,7179.997637,-7105.977043,995.924147
1267.594443,6069.688724,-7254.018232,1072.533697
1267.594772,5329.482782,-7328.038826,459.657299
1267.595101,4589.276840,-8142.265362,229.828649
1267.595430,4885.359217,-7624.121203,459.657299
1267.595760,5403.503377,-8216.285956,689.485948
1267.596089,5773.606348,-8364.327145,1378.971896
1267.596418,6365.771101,-7105.977043,919.314598
1267.596747,6587.832884,-7476.080014,612.876398
1267.597076,7254.018232,-6439.791695,383.047749
1267.597405,7402.059420,-5847.626942,383.047749
1267.597734,7105.977043,-6513.812290,842.705048
1267.598063,7031.956449,-5699.585753,1149.143247
1267.598392,7698.141797,-6217.729913,1225.752797
1267.598721,7624.121203,-5329.482782,1838.629195
1267.599051,8068.244768,-5625.565159,1302.362347
1267.599380,7994.224174,-6143.709319,919.314598
1267.599709,7698.141797,-5773.606348,1149.143247
1267.600038,7476.080014,-5921.647536,766.095498
1267.600367,7254.018232,-5107.421000,1608.800546
1267.600696,6883.915261,-6735.874072,1378.971896
1267.601025,5921.647536,-7328.038826,1149.143247
1267.601354,5477.523971,-7179.997637,919.314598
1267.601683,5181.441594,-7772.162391,1072.533697
1267.602013,5551.544565,-7105.977043,689.485948
1267.602342,5921.647536,-7772.162391,383.047749
1267.602671,6365.771101,-7254.018232,536.266849
1267.603000,7328.038826,-6883.915261,536.266849
1267.603329,7328.038826,-7031.956449,1072.533697
1267.603658,7624.121203,-5995.668130,1149.143247
1267.603987,7698.141797,-6069.688724,1225.752797
1267.604316,7698.141797,-5181.441594,1225.752797
1267.604645,8142.265362,-5403.503377,1378.971896
1267.604974,8512.368333,-5995.668130,1532.190996
1267.605304,8364.327145,-5403.503377,1608.800546
1267.605633,8142.265362,-5107.421000,842.705048
1267.605962,7550.100608,-5699.585753,1072.533697
1267.606291,7254.018232,-6069.688724,1532.190996
1267.606620,7254.018232,-7105.977043,1608.800546
1267.606949,5847.626942,-7105.977043,1149.143247
1267.607278,5107.421000,-7031.956449,689.485948
1267.607607,5477.523971,-7179.997637,919.314598
1267.607936,6365.771101,-7624.121203,1378.971896
1267.608266,5625.565159,-7846.182985,766.095498
1267.608595,5773.606348,-7994.224174,459.657299
1267.608924,5995.668130,-7550.100608,536.266849
1267.609253,6883.915261,-7254.018232,612.876398
1267.609582,6661.853478,-7328.038826,1225.752797
1267.609911,6439.791695,-6883.915261,1302.362347
1267.610240,6513.812290,-6809.894666,766.095498
1267.610569,6735.874072,-6069.688724,1378.971896
1267.610898,7994.224174,-4959.379811,995.924147
1267.611227,8882.471304,-5329.482782,1532.190996
1267.611557,8882.471304,-4959.379811,1532.190996
1267.611886,8290.306550,-4737.318029,1225.752797
1267.612215,8142.265362,-5773.606348,995.924147
1267.612544,7624.121203,-6069.688724,1455.581446
1267.612873,6809.894666,-7105.977043,1072.533697
1267.613202,5847.626942,-7105.977043,383.047749
1267.613531,4737.318029,-8586.388927,612.876398
1267.613860,4737.318029,-8068.244768,536.266849
1267.614189,5551.544565,-7698.141797,306.438199
1267.614518,5847.626942,-7772.162391,459.657299
1267.614848,6661.853478,-6809.894666,229.828649
1267.615177,7105.977043,-7402.059420,1225.752797
1267.615506,7476.080014,-6291.750507,1455.581446
1267.615835,7328.038826,-6143.709319,1225.752797
1267.616164,7402.059420,-5107.421000,1915.238745
1267.616493,7698.141797,-4737.318029,842.705048
1267.616822,7920.203579,-5403.503377,1149.143247
1267.617151,8290.306550,-5625.565159,1532.190996
1267.617480,8142.265362,-6513.812290,919.314598
1267.617809,7920.203579,-6217.729913,995.924147
1267.618138,7328.038826,-6661.853478,1072.533697
1267.618468,7550.100608,-7105.977043,1762.019645
1267.618797,7105.977043,-7031.956449,1685.410096
1267.619126,6143.709319,-7105.977043,995.924147
1267.619455,6069.688724,-6439.791695,919.314598
1267.619784,6365.771101,-6365.771101,1225.752797
1267.620113,6365.771101,-5921.647536,842.705048
1267.620442,5847.626942,-7105.977043,995.924147
1267.620771,5995.668130,-7254.018232,536.266849
1267.621100,6587.832884,-7328.038826,536.266849
1267.621429,6513.812290,-7328.038826,766.095498
1267.621759,6069.688724,-7179.997637,766.095498
1267.622088,5995.668130,-6957.935855,612.876398
1267.622417,6513.812290,-6661.853478,1072.533697
1267.622746,7179.997637,-6587.832884,1532.190996
1267.623075,7994.224174,-5403.503377,1532.190996
1267.623404,8660.409521,-5181.441594,1762.019645
1267.623733,8586.388927,-5329.482782,1225.752797
1267.624062,7698.141797,-5699.585753,766.095498
1267.624391,7476.080014,-6143.709319,689.485948
1267.624720,6957.935855,-6587.832884,1532.190996
1267.625049,6143.709319,-7550.100608,919.314598
1267.625379,5625.565159,-7031.956449,1149.143247
1267.625708,5329.482782,-7476.080014,612.876398
1267.626037,5477.523971,-7698.141797,766.095498
1267.626366,5625.565159,-7550.100608,0.000000
1267.626695,5995.668130,-7698.141797,0.000000
1267.627024,6735.874072,-6809.894666,229.828649
1267.627353,7698.141797,-7031.956449,919.314598
1267.627682,7328.038826,-6587.832884,2068.457845
1267.628011,7328.038826,-5847.626942,1455.581446
1267.628340,7698.141797,-5255.462188,1302.362347
1267.628670,8364.327145,-4367.215058,1532.190996
1267.628999,8290.306550,-3849.070898,1838.629195
1267.629328,9030.512492,-4441.235652,1378.971896
1267.629657,9030.512492,-5477.523971,1685.410096
1267.629986,8808.450710,-5625.565159,1608.800546
1267.630315,7624.121203,-6291.750507,1225.752797
1267.630644,6661.853478,-6217.729913,2298.286494
1267.630973,6365.771101,-6809.894666,842.705048
1267.631302,5847.626942,-6957.935855,689.485948
1267.631631,5699.585753,-7179.997637,919.314598
1267.631960,5995.668130,-7994.224174,842.705048
1267.632290,5699.585753,-7994.224174,1149.143247
1267.632619,5477.523971,-7624.121203,229.828649
1267.632948,5625.565159,-7994.224174,0.000000
1267.633277,6661.853478,-7772.162391,689.485948
1267.633606,6365.771101,-7550.100608,766.095498
1267.633935,6957.935855,-7031.956449,1072.533697
1267.634264,7402.059420,-5921.647536,1072.533697
1267.634593,7624.121203,-5255.462188,842.705048
1267.634922,7624.121203,-5329.482782,1608.800546
1267.635251,8068.244768,-4441.235652,1915.238745
1267.635581,8734.430116,-5551.544565,1455.581446
1267.635910,8808.450710,-5477.523971,1838.629195
1267.636239,8290.306550,-5995.668130,1532.190996
1267.636568,7254.018232,-6069.688724,1072.533697
1267.636897,6365.771101,-6587.832884,995.924147
1267.637226,5329.482782,-7179.997637,536.266849
1267.637555,4737.318029,-7994.224174,842.705048
1267.637884,4959.379811,-8438.347739,919.314598
1267.638213,5699.585753,-8068.244768,459.657299
1267.638542,5551.544565,-7624.121203,459.657299
1267.638871,5847.626942,-7624.121203,536.266849
1267.639201,6365.771101,-7105.977043,306.438199
1267.639530,7031.956449,-6587.832884,459.657299
1267.639859,7105.977043,-5995.668130,1455.581446
1267.640188,7772.162391,-5551.544565,1149.143247
1267.640517,8512.368333,-4737.318029,1915.238745
1267.640846,8364.327145,-4811.338623,1378.971896
1267.641175,8142.265362,-5995.668130,2298.286494
1267.641504,8512.368333,-5625.565159,1225.752797
1267.641833,8142.265362,-5995.668130,1072.533697
1267.642162,7920.203579,-6069.688724,1378.971896
1267.642492,7550.100608,-6513.812290,1302.362347
1267.642821,7476.080014,-6883.915261,1072.533697
1267.643150,6513.812290,-6661.853478,1532.190996
1267.643479,6365.771101,-6661.853478,1149.143247
1267.643808,6365.771101,-6291.750507,1302.362347
1267.644137,6587.832884,-6735.874072,1838.629195
1267.644466,6069.688724,-6957.935855,1225.752797
1267.644795,5921.647536,-7402.059420,612.876398
1267.645124,6069.688724,-7772.162391,766.095498
1267.645453,6069.688724,-7476.080014,459.657299
1267.645782,6365.771101,-6957.935855,689.485948
1267.646112,6365.771101,-6809.894666,689.485948
1267.646441,6365.771101,-7179.997637,689.485948
1267.646770,6661.853478,-6513.812290,1225.752797
1267.647099,7624.121203,-6069.688724,1072.533697
1267.647428,7994.224174,-6365.771101,1378.971896
1267.647757,8290.306550,-6217.729913,1225.752797
1267.648086,8216.285956,-6513.812290,1302.362347
1267.648415,8216.285956,-6513.812290,1149.143247
1267.648744,7772.162391,-6439.791695,1838.629195
1267.649073,6957.935855,-6291.750507,919.314598
1267.649403,5477.523971,-6439.791695,1072.533697
1267.649732,5107.421000,-7105.977043,766.095498
1267.650061,5107.421000,-7550.100608,306.438199
1267.650390,5107.421000,-7624.121203,0.000000
1267.650719,5329.482782,-7698.141797,229.828649
1267.651048,5921.647536,-7698.141797,612.876398
1267.651377,7031.956449,-7402.059420,1072.533697
1267.651706,7402.059420,-6883.915261,919.314598
1267.652035,7402.059420,-6217.729913,1378.971896
1267.652364,7031.956449,-5699.585753,1149.143247
1267.652693,7254.018232,-5255.462188,689.485948
1267.653023,7550.100608,-5625.565159,1225.752797
1267.653352,8068.244768,-5255.462188,1378.971896
1267.653681,8364.327145,-5699.585753,1455.581446
1267.654010,8660.409521,-5773.606348,1302.362347
1267.654339,8216.285956,-5255.462188,1302.362347
