#time,accel_x,accel_y,accel_z
1472.455184,7105.977043,-6661.853478,842.705048
1472.455514,7624.121203,-6439.791695,842.705048
1472.455844,7254.018232,-6513.812290,995.924147
1472.456174,7105.977043,-6587.832884,1378.971896
1472.456504,7179.997637,-6217.729913,1302.362347
1472.456834,7179.997637,-6439.791695,689.485948
1472.457164,7328.038826,-6513.812290,1149.143247
1472.457494,6513.812290,-6513.812290,1225.752797
1472.457824,7031.956449,-6143.709319,842.705048
1472.458154,6883.915261,-6513.812290,1225.752797
1472.458484,7179.997637,-6143.709319,1378.971896
1472.458814,6957.935855,-6587.832884,306.438199
1472.459144,6809.894666,-6957.935855,1225.752797
1472.459474,6735.874072,-6809.894666,1378.971896
1472.459804,6883.915261,-6513.812290,1149.143247
1472.460134,6513.812290,-6735.874072,1915.238745
1472.460464,6587.832884,-6957.935855,1072.533697
1472.460794,6957.935855,-7105.977043,766.095498
1472.461124,6587.832884,-7105.977043,995.924147
1472.461454,6291.750507,-6957.935855,1302.362347
1472.461784,6957.935855,-6661.853478,842.705048
1472.462114,6957.935855,-6735.874072,842.705048
1472.462444,6809.894666,-6661.853478,995.924147
1472.462774,7105.977043,-6587.832884,1225.752797
1472.463104,7402.059420,-6587.832884,1455.581446
1472.463434,7179.997637,-6439.791695,1072.533697
1472.463765,7179.997637,-6291.750507,919.314598
1472.464095,7328.038826,-6587.832884,919.314598
1472.464425,7402.059420,-6513.812290,1072.533697
1472.464755,7031.956449,-6143.709319,1149.143247
1472.465085,7105.977043,-6439.791695,842.705048
1472.465415,6957.935855,-6439.791695,995.924147
1472.465745,7105.977043,-6587.832884,1455.581446
1472.466075,6735.874072,-6587.832884,1149.143247
1472.466405,6809.894666,-6217.729913,766.095498
1472.466735,6957.935855,-6587.832884,1302.362347
1472.467065,6883.915261,-6809.894666,1302.362347
1472.467395,7031.956449,-6587.832884,919.314598
1472.467725,7105.977043,-6217.729913,689.485948
1472.468055,7031.956449,-6587.832884,842.705048
1472.468385,7179.997637,-6735.874072,995.924147
1472.468715,6883.915261,-6957.935855,1149.143247
1472.469045,7105.977043,-6957.935855,919.314598
1472.469375,7476.080014,-6069.688724,995.924147
1472.469705,7031.956449,-6069.688724,766.095498
1472.470035,7105.977043,-6365.771101,842.705048
1472.470365,7402.059420,-6069.688724,1072.533697
1472.470695,7254.018232,-6439.791695,229.828649
1472.471025,7179.997637,-6217.729913,919.314598
1472.471355,7105.977043,-6291.750507,1072.533697
1472.471685,7254.018232,-6365.771101,1378.971896
1472.472015,7031.956449,-6069.688724,1455.581446
1472.472345,6957.935855,-6513.812290,1302.362347
1472.472675,7105.977043,-6587.832884,842.705048
1472.473005,6957.935855,-6809.894666,1225.752797
1472.473335,6957.935855,-6809.894666,1378.971896
1472.473666,6957.935855,-6069.688724,1685.410096
1472.473996,6957.935855,-6957.935855,1225.752797
1472.474326,6809.894666,-6957.935855,1225.752797
1472.474656,6513.812290,-6883.915261,995.924147
1472.474986,6735.874072,-6735.874072,995.924147
1472.475316,6883.915261,-7179.997637,1072.533697
1472.475646,6587.832884,-7105.977043,995.924147
1472.475976,6439.791695,-6883.915261,766.095498
1472.476306,6661.853478,-7105.977043,842.705048
1472.476636,6809.894666,-6513.812290,842.705048
1472.476966,7105.977043,-6661.853478,1225.752797
1472.477296,7105.977043,-6661.853478,995.924147
1472.477626,7105.977043,-6587.832884,1072.533697
1472.477956,7105.977043,-6217.729913,919.314598
1472.478286,6957.935855,-6439.791695,1149.143247
1472.478616,6957.935855,-5921.647536,1072.533697
1472.478946,7105.977043,-6217.729913,995.924147
1472.479276,6957.935855,-6735.874072,1072.533697
1472.479606,6957.935855,-6217.729913,1225.752797
1472.479936,6735.874072,-5773.606348,1072.533697
1472.480266,7105.977043,-6439.791695,689.485948
1472.480596,6883.915261,-6439.791695,1149.143247
1472.480926,7105.977043,-6365.771101,919.314598
1472.481256,7328.038826,-6809.894666,1608.800546
1472.481586,6957.935855,-6513.812290,1149.143247
1472.481916,7031.956449,-6587.832884,689.485948
1472.482246,7105.977043,-6587.832884,1149.143247
1472.482576,6957.935855,-6291.750507,1225.752797
1472.482906,6883.915261,-6587.832884,766.095498
1472.483236,6883.915261,-6513.812290,995.924147
1472.483567,6883.915261,-7105.977043,1149.143247
1472.483897,7254.018232,-7031.956449,842.705048
1472.484227,7254.018232,-6365.771101,1532.190996
1472.484557,7105.977043,-6809.894666,919.314598
1472.484887,7105.977043,-6587.832884,842.705048
1472.485217,7328.038826,-6883.915261,1149.143247
1472.485547,7254.018232,-6661.853478,1225.752797
1472.485877,7031.956449,-6217.729913,1685.410096
1472.486207,7254.018232,-6143.709319,919.314598
1472.486537,7105.977043,-6143.709319,842.705048
1472.486867,7031.956449,-6143.709319,1149.143247
1472.487197,7105.977043,-6957.935855,1532.190996
1472.487527,7105.977043,-6069.688724,995.924147
1472.487857,6513.812290,-6365.771101,1302.362347
1472.488187,6735.874072,-6439.791695,919.314598
1472.488517,6661.853478,-6735.874072,842.705048
1472.488847,6513.812290,-6587.832884,1072.533697
1472.489177,6513.812290,-7105.977043,1072.533697
1472.489507,6883.915261,-7105.977043,995.924147
1472.489837,6809.894666,-6957.935855,1302.362347
1472.490167,6809.894666,-7031.956449,1072.533697
1472.490497,7328.038826,-7624.121203,766.095498
1472.490827,6587.832884,-6809.894666,1149.143247
1472.491157,6809.894666,-6883.915261,842.705048
1472.491487,6957.935855,-6587.832884,1225.752797
1472.491817,7105.977043,-6217.729913,842.705048
1472.492147,7105.977043,-6735.874072,1149.143247
1472.492477,7328.038826,-6439.791695,1072.533697
1472.492807,7105.977043,-7031.956449,612.876398
1472.493138,7105.977043,-6069.688724,689.485948
1472.493468,7476.080014,-6587.832884,1072.533697
1472.493798,7105.977043,-6661.853478,1072.533697
1472.494128,7031.956449,-6069.688724,1149.143247
1472.494458,7105.977043,-6513.812290,1072.533697
1472.494788,7254.018232,-6513.812290,1455.581446
1472.495118,6809.894666,-6735.874072,689.485948
1472.495448,6809.894666,-6143.709319,766.095498
1472.495778,6735.874072,-5921.647536,689.485948
1472.496108,6883.915261,-6513.812290,1378.971896
1472.496438,6883.915261,-5921.647536,1302.362347
1472.496768,6809.894666,-6439.791695,995.924147
1472.497098,6735.874072,-6439.791695,1072.533697
1472.497428,6883.915261,-6513.812290,1149.143247
1472.497758,6883.915261,-7105.977043,612.876398
1472.498088,7031.956449,-6365.771101,1302.362347
1472.498418,6883.915261,-6883.915261,842.705048
1472.498748,7105.977043,-6735.874072,459.657299
1472.499078,7105.977043,-6365.771101,1149.143247
1472.499408,7994.224174,-6957.935855,689.485948
1472.499738,7476.080014,-6439.791695,1072.533697
1472.500068,7328.038826,-6513.812290,919.314598
1472.500398,7105.977043,-6365.771101,995.924147
1472.500728,7179.997637,-6365.771101,919.314598
1472.501058,7550.100608,-6143.709319,383.047749
1472.501388,7254.018232,-5773.606348,1072.533697
1472.501718,6883.915261,-6291.750507,1302.362347
1472.502048,7105.977043,-6291.750507,1149.143247
1472.502378,6883.915261,-6069.688724,842.705048
1472.502708,6809.894666,-6069.688724,1455.581446
1472.503039,6883.915261,-6439.791695,995.924147
1472.503369,6809.894666,-7031.956449,919.314598
1472.503699,6661.853478,-6883.915261,1225.752797
1472.504029,7105.977043,-7031.956449,995.924147
1472.504359,6957.935855,-7105.977043,842.705048
1472.504689,6587.832884,-7254.018232,1608.800546
1472.505019,6513.812290,-6809.894666,766.095498
1472.505349,6587.832884,-6957.935855,1072.533697
1472.505679,6513.812290,-7105.977043,1302.362347
1472.506009,6883.915261,-7105.977043,689.485948
1472.506339,7031.956449,-6439.791695,1149.143247
1472.506669,7105.977043,-6957.935855,842.705048
1472.506999,7179.997637,-6439.791695,842.705048
1472.507329,7105.977043,-6291.750507,1302.362347
1472.507659,7105.977043,-6735.874072,919.314598
1472.507989,7105.977043,-6513.812290,919.314598
1472.508319,7105.977043,-6365.771101,1149.143247
1472.508649,7402.059420,-6217.729913,1072.533697
1472.508979,7179.997637,-5995.668130,1455.581446
1472.509309,6883.915261,-6513.812290,1149.143247
1472.509639,7105.977043,-6143.709319,612.876398
1472.509969,7328.038826,-6587.832884,1072.533697
1472.510299,6957.935855,-6587.832884,1072.533697
1472.510629,6957.935855,-6587.832884,842.705048
1472.510959,6809.894666,-6661.853478,995.924147
1472.511289,6661.853478,-6587.832884,1225.752797
1472.511619,6883.915261,-6661.853478,1225.752797
1472.511949,6957.935855,-6513.812290,1149.143247
1472.512279,7105.977043,-6883.915261,1532.190996
1472.512609,7105.977043,-6587.832884,689.485948
1472.512940,6587.832884,-6735.874072,995.924147
1472.513270,6513.812290,-7031.956449,1149.143247
1472.513600,7105.977043,-6513.812290,919.314598
1472.513930,7105.977043,-6365.771101,1225.752797
1472.514260,7179.997637,-6513.812290,1149.143247
1472.514590,7698.141797,-6809.894666,919.314598
1472.514920,7105.977043,-6883.915261,1225.752797
1472.515250,6957.935855,-6587.832884,1225.752797
1472.515580,6957.935855,-6143.709319,1149.143247
1472.515910,6883.915261,-6661.853478,1302.362347
1472.516240,7179.997637,-5921.647536,229.828649
1472.516570,6957.935855,-6587.832884,1072.533697
1472.516900,7031.956449,-6069.688724,842.705048
1472.517230,7105.977043,-6513.812290,842.705048
1472.517560,6587.832884,-6513.812290,1608.800546
1472.517890,7031.956449,-6439.791695,842.705048
1472.518220,6661.853478,-6661.853478,1072.533697
1472.518550,6661.853478,-6883.915261,1378.971896
1472.518880,6661.853478,-6661.853478,1149.143247
1472.519210,6513.812290,-6365.771101,1302.362347
1472.519540,6439.791695,-6883.915261,1072.533697
1472.519870,5921.647536,-7105.977043,919.314598
1472.520200,6661.853478,-7031.956449,1225.752797
1472.520529,6513.812290,-7031.956449,995.924147
1472.520859,7031.956449,-6661.853478,919.314598
1472.521188,7254.018232,-6291.750507,1072.533697
1472.521518,7105.977043,-6735.874072,919.314598
1472.521847,7328.038826,-7105.977043,1302.362347
1472.522177,7402.059420,-6217.729913,842.705048
1472.522506,7105.977043,-6661.853478,919.314598
1472.522836,7105.977043,-6291.750507,995.924147
1472.523165,7179.997637,-6217.729913,1072.533697
1472.523495,7254.018232,-6291.750507,1149.143247
1472.523824,7105.977043,-6513.812290,1225.752797
1472.524154,6957.935855,-6143.709319,1072.533697
1472.524483,7105.977043,-6069.688724,612.876398
1472.524813,7031.956449,-6661.853478,1149.143247
1472.525142,6809.894666,-6587.832884,1072.533697
1472.525472,7031.956449,-6439.791695,995.924147
1472.525801,6957.935855,-6809.894666,1225.752797
1472.526131,7031.956449,-6883.915261,1225.752797
1472.526460,6809.894666,-6883.915261,919.314598
1472.526790,7105.977043,-6439.791695,1455.581446
1472.527119,6957.935855,-6587.832884,919.314598
1472.527449,6587.832884,-6661.853478,766.095498
1472.527778,6587.832884,-6661.853478,995.924147
1472.528108,7031.956449,-6809.894666,842.705048
1472.528437,7624.121203,-6513.812290,1225.752797
1472.528767,7179.997637,-6365.771101,1225.752797
1472.529096,7328.038826,-6439.791695,919.314598
1472.529426,7476.080014,-5995.668130,1149.143247
1472.529755,7179.997637,-6439.791695,1149.143247
1472.530085,7328.038826,-6217.729913,766.095498
1472.530414,7328.038826,-6291.750507,995.924147
1472.530744,7179.997637,-6587.832884,1072.533697
1472.531073,7105.977043,-6365.771101,1149.143247
1472.531403,6957.935855,-6069.688724,919.314598
1472.531732,6957.935855,-6365.771101,842.705048
1472.532062,6587.832884,-6365.771101,1072.533697
1472.532391,6735.874072,-6291.750507,842.705048
1472.532721,6957.935855,-6439.791695,459.657299
1472.533050,6587.832884,-6957.935855,1072.533697
1472.533380,6661.853478,-6661.853478,995.924147
1472.533709,6883.915261,-6883.915261,919.314598
1472.534039,6587.832884,-6883.915261,1378.971896
1472.534368,6661.853478,-6883.915261,1072.533697
1472.534698,6809.894666,-7550.100608,1149.143247
1472.535027,6809.894666,-6883.915261,766.095498
1472.535357,6957.935855,-7624.121203,842.705048
1472.535686,6957.935855,-6957.935855,1072.533697
1472.536016,7105.977043,-6365.771101,1072.533697
1472.536345,7105.977043,-7031.956449,995.924147
1472.536675,7105.977043,-6513.812290,1072.533697
1472.537004,7031.956449,-6661.853478,919.314598
1472.537334,7550.100608,-6513.812290,383.047749
1472.537663,7105.977043,-5995.668130,1149.143247
1472.537993,7550.100608,-6143.709319,612.876398
1472.538322,7328.038826,-6143.709319,1149.143247
1472.538652,7179.997637,-6069.688724,1225.752797
1472.538982,7254.018232,-6365.771101,995.924147
1472.539311,7105.977043,-6587.832884,919.314598
1472.539641,6883.915261,-6661.853478,1225.752797
1472.539970,6883.915261,-6587.832884,842.705048
1472.540300,6661.853478,-6883.915261,1302.362347
1472.540629,7031.956449,-6365.771101,1378.971896
1472.540959,6883.915261,-6513.812290,766.095498
1472.541288,6809.894666,-6735.874072,1455.581446
1472.541618,6809.894666,-6661.853478,1378.971896
1472.541947,7179.997637,-6957.935855,842.705048
1472.542277,6957.935855,-6735.874072,766.095498
1472.542606,6809.894666,-6513.812290,842.705048
1472.542936,7105.977043,-6809.894666,919.314598
1472.543265,7254.018232,-6439.791695,1455.581446
1472.543595,7105.977043,-6513.812290,1149.143247
1472.543924,7328.038826,-7105.977043,919.314598
1472.544254,7105.977043,-6661.853478,1149.143247
1472.544583,7031.956449,-6661.853478,919.314598
1472.544913,7105.977043,-6291.750507,1149.143247
1472.545242,7179.997637,-6217.729913,1225.752797
1472.545572,7105.977043,-6291.750507,919.314598
1472.545901,6439.791695,-5847.626942,842.705048
1472.546231,7031.956449,-6217.729913,1225.752797
1472.546560,7105.977043,-6291.750507,1225.752797
1472.546890,7031.956449,-6587.832884,1378.971896
1472.547219,6587.832884,-6513.812290,1149.143247
1472.547549,6809.894666,-6661.853478,766.095498
1472.547878,6661.853478,-7254.018232,1072.533697
1472.548208,6735.874072,-6735.874072,1225.752797
1472.548537,6809.894666,-6957.935855,919.314598
1472.548867,6883.915261,-7105.977043,1072.533697
1472.549196,6661.853478,-7105.977043,1149.143247
1472.549526,6883.915261,-6661.853478,612.876398
1472.549855,6661.853478,-6809.894666,153.219100
1472.550185,6809.894666,-6809.894666,842.705048
1472.550514,7105.977043,-6513.812290,1072.533697
1472.550844,6809.894666,-6439.791695,919.314598
1472.551173,7402.059420,-6661.853478,1149.143247
1472.551503,7105.977043,-6069.688724,1225.752797
1472.551832,6883.915261,-6809.894666,919.314598
1472.552162,7105.977043,-6513.812290,919.314598
1472.552491,7920.203579,-6587.832884,1072.533697
1472.552821,7550.100608,-6513.812290,1225.752797
1472.553150,7254.018232,-6291.750507,1225.752797
1472.553480,7105.977043,-6365.771101,995.924147
1472.553809,7105.977043,-6291.750507,842.705048
1472.554139,6735.874072,-6217.729913,842.705048
1472.554468,7031.956449,-6143.709319,1149.143247
1472.554798,6883.915261,-6587.832884,536.266849
1472.555127,6735.874072,-6661.853478,995.924147
1472.555457,7105.977043,-6661.853478,1608.800546
1472.555786,6883.915261,-6513.812290,995.924147
1472.556116,6735.874072,-6661.853478,1149.143247
1472.556445,6809.894666,-6957.935855,1225.752797
1472.556775,7031.956449,-6809.894666,842.705048
1472.557104,7328.038826,-6587.832884,459.657299
1472.557434,6809.894666,-7179.997637,919.314598
1472.557763,7105.977043,-6661.853478,842.705048
1472.558093,7031.956449,-6291.750507,612.876398
1472.558422,7105.977043,-6587.832884,842.705048
1472.558752,6957.935855,-5995.668130,1072.533697
1472.559081,7105.977043,-6439.791695,1149.143247
1472.559411,7105.977043,-6735.874072,1149.143247
1472.559740,7031.956449,-6143.709319,1302.362347
1472.560070,7179.997637,-6069.688724,842.705048
1472.560399,7105.977043,-6217.729913,1302.362347
1472.560729,7105.977043,-6439.791695,995.924147
1472.561058,6957.935855,-6365.771101,995.924147
1472.561388,6661.853478,-6587.832884,1762.019645
1472.561717,7328.038826,-6957.935855,1149.143247
1472.562047,6587.832884,-6883.915261,1149.143247
1472.562376,6439.791695,-6883.915261,995.924147
1472.562706,6365.771101,-6513.812290,842.705048
1472.563035,6883.915261,-6069.688724,919.314598
1472.563365,6661.853478,-7105.977043,1149.143247
1472.563694,6735.874072,-6513.812290,1302.362347
1472.564024,6809.894666,-6809.894666,612.876398
1472.564353,6513.812290,-6957.935855,842.705048
1472.564683,6365.771101,-6957.935855,1455.581446
1472.565012,7105.977043,-7179.997637,995.924147
1472.565342,7105.977043,-6735.874072,1455.581446
1472.565671,7105.977043,-6439.791695,995.924147
1472.566001,7328.038826,-6883.915261,1149.143247
1472.566330,6957.935855,-6587.832884,1072.533697
1472.566660,7031.956449,-6735.874072,995.924147
1472.566989,7105.977043,-6217.729913,842.705048
1472.567319,7105.977043,-6291.750507,1149.143247
1472.567648,7550.100608,-5921.647536,1378.971896
1472.567978,7254.018232,-5921.647536,1378.971896
1472.568307,7105.977043,-6217.729913,689.485948
1472.568637,7179.997637,-5773.606348,1072.533697
1472.568966,6957.935855,-6217.729913,919.314598
1472.569296,7254.018232,-6143.709319,1149.143247
1472.569625,7105.977043,-5551.544565,919.314598
1472.569955,7328.038826,-5699.585753,1072.533697
1472.570284,8142.265362,-5625.565159,1378.971896
1472.570614,8660.409521,-5551.544565,1455.581446
1472.570943,8142.265362,-6513.812290,1302.362347
1472.571273,7179.997637,-6735.874072,459.657299
1472.571602,6143.709319,-7846.182985,153.219100
1472.571932,5773.606348,-7031.956449,0.000000
1472.572261,6365.771101,-7476.080014,689.485948
1472.572591,7846.182985,-6661.853478,1072.533697
1472.572920,8216.285956,-5995.668130,1608.800546
1472.573250,8512.368333,-4959.379811,1302.362347
1472.573579,8586.388927,-4071.132681,1072.533697
1472.573909,8068.244768,-4737.318029,1149.143247
1472.574238,8438.347739,-4441.235652,766.095498
1472.574568,8808.450710,-4293.194464,1378.971896
1472.574897,9104.533087,-4737.318029,1302.362347
1472.575227,8512.368333,-4145.153275,689.485948
1472.575557,7698.141797,-5995.668130,689.485948
1472.575886,8142.265362,-4811.338623,536.266849
1472.576216,8142.265362,-5995.668130,612.876398
1472.576545,8216.285956,-6143.709319,1302.362347
1472.576875,7994.224174,-5773.606348,612.876398
1472.577204,7772.162391,-6439.791695,536.266849
1472.577534,7698.141797,-5255.462188,1532.190996
1472.577863,7624.121203,-5551.544565,1072.533697
1472.578193,8586.388927,-4663.297435,842.705048
1472.578522,8142.265362,-4219.173869,1302.362347
1472.578852,8586.388927,-4441.235652,1072.533697
1472.579181,9030.512492,-3108.864956,1225.752797
1472.579511,9400.615463,-3627.009116,1608.800546
1472.579840,10436.903782,-3182.885551,1455.581446
1472.580170,9992.780217,-2442.679609,1685.410096
1472.580499,10066.800811,-3330.926739,1532.190996
1472.580829,10362.883188,-3627.009116,1302.362347
1472.581158,10288.862594,-4663.297435,1762.019645
1472.581488,9770.718434,-4737.318029,1072.533697
1472.581817,8808.450710,-5033.400406,1072.533697
1472.582147,8808.450710,-5033.400406,919.314598
1472.582476,8068.244768,-5551.544565,612.876398
1472.582806,7846.182985,-5403.503377,1915.238745
1472.583135,7846.182985,-4811.338623,1072.533697
1472.583465,8438.347739,-4885.359217,919.314598
1472.583794,8364.327145,-4589.276840,1072.533697
1472.584124,8734.430116,-5255.462188,459.657299
1472.584453,8512.368333,-5255.462188,1072.533697
1472.584783,8512.368333,-4145.153275,153.219100
1472.585112,9030.512492,-4737.318029,536.266849
1472.585442,9992.780217,-4219.173869,689.485948
1472.585771,10214.842000,-4589.276840,306.438199
1472.586101,9992.780217,-4811.338623,689.485948
1472.586430,9474.636058,-4219.173869,536.266849
1472.586760,8882.471304,-4367.215058,383.047749
1472.587089,8734.430116,-4589.276840,766.095498
1472.587419,8882.471304,-5699.585753,1149.143247
1472.587748,9178.553681,-4219.173869,1532.190996
1472.588078,8512.368333,-4367.215058,1685.410096
1472.588407,8512.368333,-4737.318029,1838.629195
1472.588737,9104.533087,-3775.050304,1991.848295
1472.589066,9326.594869,-3627.009116,2145.067394
1472.589396,9696.697840,-3182.885551,1838.629195
1472.589725,9548.656652,-2812.782580,1149.143247
1472.590055,9252.574275,-2960.823768,919.314598
1472.590384,8956.491898,-3701.029710,229.828649
1472.590714,9030.512492,-4293.194464,229.828649
1472.591043,9104.533087,-4663.297435,153.219100
1472.591373,9030.512492,-5329.482782,153.219100
1472.591702,9178.553681,-5329.482782,306.438199
1472.592032,9252.574275,-6365.771101,689.485948
1472.592361,8586.388927,-6439.791695,1455.581446
1472.592691,8290.306550,-6291.750507,1455.581446
1472.593020,7772.162391,-6291.750507,1838.629195
1472.593350,7846.182985,-5403.503377,2528.115143
1472.593679,8660.409521,-4811.338623,1915.238745
1472.594009,8808.450710,-3849.070898,2221.676944
1472.594338,9474.636058,-3552.988522,1915.238745
1472.594668,9918.759623,-2146.597232,995.924147
1472.594997,10510.924376,-814.226536,612.876398
1472.595327,10288.862594,-1480.411884,0.000000
1472.595656,10362.883188,-2072.576638,0.000000
1472.595986,10584.944971,-3256.906145,229.828649
1472.596315,10510.924376,-4737.318029,153.219100
1472.596645,9178.553681,-5921.647536,536.266849
1472.596974,8586.388927,-6883.915261,536.266849
1472.597304,7772.162391,-8586.388927,919.314598
1472.597633,6661.853478,-8660.409521,1072.533697
1472.597963,5995.668130,-7328.038826,1455.581446
1472.598292,6365.771101,-6587.832884,153.219100
1472.598622,6957.935855,-5107.421000,1072.533697
1472.598951,8068.244768,-3627.009116,1378.971896
1472.599281,9474.636058,-3034.844362,2221.676944
1472.599610,10288.862594,-1850.514855,2145.067394
1472.599940,10362.883188,-74.020594,1225.752797
1472.600269,10807.006753,0.000000,1225.752797
1472.600599,11621.233289,148.041188,1225.752797
1472.600928,12657.521608,-296.082377,612.876398
1472.601258,12361.439231,-1776.494261,1302.362347
1472.601587,11843.295072,-2294.638420,1455.581446
1472.601917,10955.047942,-5033.400406,2374.896044
1472.602246,9178.553681,-7105.977043,2221.676944
1472.602576,7031.956449,-8364.327145,1225.752797
1472.602905,4737.318029,-9770.718434,-229.828649
1472.603235,3034.844362,-9326.594869,-1149.143247
1472.603564,3182.885551,-9104.533087,-1302.362347
1472.603894,5403.503377,-8068.244768,-536.266849
1472.604223,7550.100608,-6661.853478,536.266849
1472.604553,9622.677246,-4663.297435,1532.190996
1472.604882,10807.006753,-2368.659014,1838.629195
1472.605212,11029.068536,-1850.514855,1762.019645
1472.605541,11399.171507,-444.123565,1762.019645
1472.605871,11325.150913,148.041188,919.314598
1472.606200,11843.295072,370.102971,919.314598
1472.606530,13027.624579,-518.144159,1762.019645
1472.606859,13323.706956,-2664.741391,2911.162892
1472.607189,13027.624579,-3034.844362,2681.334243
1472.607518,10658.965565,-4367.215058,2298.286494
1472.607848,7920.203579,-4737.318029,1072.533697
1472.608177,5847.626942,-6883.915261,76.609550
1472.608507,5107.421000,-8956.491898,0.000000
1472.608836,3997.112087,-8512.368333,0.000000
1472.609166,4071.132681,-8586.388927,-1378.971896
1472.609495,4959.379811,-6291.750507,-995.924147
1472.609825,7698.141797,-3997.112087,-612.876398
1472.610154,10955.047942,-2516.700203,76.609550
1472.610484,12953.603985,-2442.679609,1455.581446
1472.610813,12953.603985,-2516.700203,2451.505594
1472.611143,12583.501014,-1998.556043,1838.629195
1472.611472,10807.006753,-2516.700203,1532.190996
1472.611802,9474.636058,-3552.988522,612.876398
1472.612132,8512.368333,-6291.750507,1149.143247
1472.612461,7476.080014,-8290.306550,1685.410096
1472.612791,7846.182985,-8142.265362,2298.286494
1472.613120,8142.265362,-6661.853478,2451.505594
1472.613450,7994.224174,-3256.906145,1225.752797
1472.613779,7328.038826,-2368.659014,-536.266849
1472.614109,7476.080014,-2664.741391,153.219100
1472.614438,8364.327145,-3182.885551,459.657299
1472.614768,9252.574275,-1554.432478,766.095498
1472.615097,10732.986159,-1110.308913,919.314598
1472.615427,11769.274478,-1258.350101,1378.971896
1472.615756,12065.356855,-3478.967927,1838.629195
1472.616086,11325.150913,-5477.523971,2451.505594
1472.616415,9696.697840,-6513.812290,2145.067394
1472.616745,8216.285956,-5847.626942,459.657299
1472.617074,6735.874072,-5847.626942,0.000000
1472.617404,6439.791695,-5329.482782,-995.924147
1472.617733,7550.100608,-8808.450710,766.095498
1472.618063,7846.182985,-9474.636058,2298.286494
1472.618392,8216.285956,-5403.503377,919.314598
1472.618722,7402.059420,-5551.544565,689.485948
1472.619051,7254.018232,-3182.885551,0.000000
1472.619380,7031.956449,-5625.565159,383.047749
1472.619710,8734.430116,-4737.318029,1685.410096
1472.620039,9696.697840,-2590.720797,1149.143247
1472.620368,11325.150913,-222.061783,1225.752797
1472.620698,11991.336260,-444.123565,2221.676944
1472.621027,11103.089130,-2368.659014,1302.362347
1472.621357,10214.842000,-4071.132681,1225.752797
1472.621686,8734.430116,-5477.523971,919.314598
1472.622015,9474.636058,-4737.318029,1532.190996
1472.622345,9400.615463,-5699.585753,1991.848295
1472.622674,9622.677246,-5033.400406,2298.286494
1472.623004,8660.409521,-4663.297435,919.314598
1472.623333,8290.306550,-4589.276840,919.314598
1472.623662,9178.553681,-3775.050304,766.095498
1472.623992,9992.780217,-4737.318029,1991.848295
1472.624321,9326.594869,-4219.173869,1072.533697
1472.624650,7105.977043,-3849.070898,-612.876398
1472.624980,6439.791695,-5477.523971,-766.095498
1472.625309,7994.224174,-5921.647536,842.705048
1472.625639,9696.697840,-5921.647536,1302.362347
1472.625968,10214.842000,-3775.050304,612.876398
1472.626297,9474.636058,-3849.070898,689.485948
1472.626627,9326.594869,-5995.668130,1225.752797
1472.626956,8956.491898,-6957.935855,1838.629195
1472.627285,8512.368333,-4663.297435,1149.143247
1472.627615,8142.265362,-2812.782580,229.828649
1472.627944,9696.697840,-2220.617826,1378.971896
1472.628274,10510.924376,-3552.988522,2757.943793
1472.628603,11103.089130,-1998.556043,2374.896044
1472.628932,10807.006753,-1702.473667,2221.676944
1472.629262,10362.883188,-1554.432478,1225.752797
1472.629591,8364.327145,-3478.967927,1072.533697
1472.629920,6809.894666,-3923.091493,1302.362347
1472.630250,7328.038826,-5033.400406,536.266849
1472.630579,8216.285956,-4737.318029,0.000000
1472.630909,8808.450710,-6143.709319,1072.533697
1472.631238,9474.636058,-5403.503377,1762.019645
1472.631567,9770.718434,-5329.482782,459.657299
1472.631897,8142.265362,-6661.853478,459.657299
1472.632226,6883.915261,-6217.729913,459.657299
1472.632555,7550.100608,-5329.482782,0.000000
1472.632885,8808.450710,-6143.709319,459.657299
1472.633214,8438.347739,-4589.276840,842.705048
1472.633544,9030.512492,-3701.029710,536.266849
1472.633873,9474.636058,-4219.173869,1455.581446
1472.634202,8216.285956,-5995.668130,919.314598
1472.634532,7624.121203,-5477.523971,1072.533697
1472.634861,7846.182985,-4367.215058,0.000000
1472.635190,8586.388927,-6883.915261,1225.752797
1472.635520,9474.636058,-5181.441594,2298.286494
1472.635849,9548.656652,-5551.544565,1455.581446
1472.636179,8512.368333,-4885.359217,1225.752797
1472.636508,7476.080014,-4515.256246,536.266849
1472.636837,6809.894666,-5625.565159,306.438199
1472.637167,7624.121203,-5107.421000,383.047749
1472.637496,8956.491898,-3997.112087,1838.629195
1472.637826,10807.006753,-3478.967927,1532.190996
1472.638155,10436.903782,-3478.967927,1991.848295
1472.638484,9104.533087,-3552.988522,1915.238745
1472.638814,8734.430116,-3552.988522,0.000000
1472.639143,7920.203579,-4589.276840,0.000000
1472.639472,7624.121203,-6661.853478,1072.533697
1472.639802,8364.327145,-7698.141797,1149.143247
1472.640131,8660.409521,-7328.038826,766.095498
1472.640461,7624.121203,-7920.203579,306.438199
1472.640790,6291.750507,-8660.409521,766.095498
1472.641119,5477.523971,-9622.677246,-612.876398
1472.641449,4441.235652,-8438.347739,0.000000
1472.641778,4885.359217,-8438.347739,1072.533697
1472.642107,6143.709319,-7031.956449,0.000000
1472.642437,6439.791695,-6069.688724,76.609550
1472.642766,6439.791695,-6365.771101,995.924147
1472.643096,7254.018232,-5625.565159,306.438199
1472.643425,6957.935855,-6365.771101,0.000000
1472.643754,6217.729913,-7031.956449,1685.410096
1472.644084,7476.080014,-6883.915261,1762.019645
1472.644413,9400.615463,-6069.688724,2604.724693
1472.644742,7994.224174,-5773.606348,3447.429741
1472.645072,7328.038826,-5329.482782,3217.601092
1472.645401,8216.285956,-2368.659014,2068.457845
1472.645731,7476.080014,-1850.514855,1225.752797
1472.646060,7772.162391,-2516.700203,1225.752797
1472.646389,8364.327145,-4885.359217,995.924147
1472.646719,7920.203579,-4515.256246,612.876398
1472.647048,7105.977043,-5255.462188,383.047749
1472.647377,6291.750507,-9030.512492,1608.800546
1472.647707,6809.894666,-6513.812290,766.095498
1472.648036,7624.121203,-7031.956449,1302.362347
1472.648366,8216.285956,-6069.688724,1455.581446
1472.648695,9326.594869,-5625.565159,1838.629195
1472.649024,9252.574275,-6957.935855,2451.505594
1472.649354,7105.977043,-7179.997637,1838.629195
1472.649683,5773.606348,-6069.688724,-383.047749
1472.650012,4737.318029,-8586.388927,383.047749
1472.650342,4737.318029,-8956.491898,76.609550
1472.650671,5625.565159,-8808.450710,383.047749
1472.651001,6439.791695,-8364.327145,1225.752797
1472.651330,5847.626942,-8956.491898,919.314598
1472.651659,5033.400406,-8882.471304,-229.828649
1472.651989,4515.256246,-7846.182985,0.000000
1472.652318,5033.400406,-10214.842000,689.485948
1472.652648,7550.100608,-7772.162391,2068.457845
1472.652977,7698.141797,-5995.668130,2221.676944
1472.653306,7105.977043,-6587.832884,2298.286494
1472.653636,7994.224174,-4663.297435,2451.505594
1472.653965,8438.347739,-3997.112087,1225.752797
1472.654294,7254.018232,-3552.988522,1225.752797
1472.654624,7624.121203,-4515.256246,2068.457845
1472.654953,8216.285956,-5255.462188,459.657299
1472.655283,7105.977043,-5033.400406,1072.533697
1472.655612,6957.935855,-6069.688724,2374.896044
1472.655941,7772.162391,-4663.297435,76.609550
1472.656271,6439.791695,-6809.894666,1225.752797
1472.656600,6365.771101,-8512.368333,2451.505594
1472.656929,8142.265362,-7402.059420,2145.067394
1472.657259,8068.244768,-6957.935855,1838.629195
1472.657588,4663.297435,-6291.750507,153.219100
1472.657918,3627.009116,-7698.141797,612.876398
1472.658247,5181.441594,-5255.462188,-766.095498
1472.658576,7624.121203,-5181.441594,1685.410096
1472.658906,9030.512492,-4737.318029,1991.848295
1472.659235,9474.636058,-4885.359217,1915.238745
1472.659564,8216.285956,-5625.565159,1838.629195
1472.659894,7476.080014,-7254.018232,689.485948
1472.660223,7105.977043,-7772.162391,766.095498
1472.660553,5699.585753,-8956.491898,0.000000
1472.660882,5181.441594,-9992.780217,459.657299
1472.661211,5699.585753,-8734.430116,153.219100
1472.661541,5773.606348,-7328.038826,229.828649
1472.661870,5995.668130,-8290.306550,383.047749
1472.662199,6217.729913,-7179.997637,306.438199
1472.662529,5255.462188,-7105.977043,76.609550
1472.662858,5773.606348,-6069.688724,383.047749
1472.663188,7328.038826,-4811.338623,612.876398
1472.663517,8068.244768,-5847.626942,229.828649
1472.663846,8512.368333,-5625.565159,2298.286494
1472.664176,9474.636058,-5403.503377,1532.190996
1472.664505,9400.615463,-5477.523971,1072.533697
1472.664834,7920.203579,-6513.812290,1838.629195
1472.665164,8068.244768,-7402.059420,1608.800546
1472.665493,7994.224174,-6883.915261,0.000000
1472.665823,6143.709319,-6883.915261,612.876398
1472.666152,5847.626942,-6143.709319,383.047749
1472.666481,6587.832884,-5773.606348,536.266849
1472.666811,6809.894666,-6513.812290,1991.848295
1472.667140,7031.956449,-5033.400406,1378.971896
1472.667470,7624.121203,-4885.359217,1225.752797
1472.667799,7402.059420,-2738.761985,229.828649
1472.668128,6587.832884,-5329.482782,1149.143247
1472.668458,7846.182985,-6735.874072,1149.143247
1472.668787,8290.306550,-5255.462188,689.485948
1472.669116,7772.162391,-5995.668130,459.657299
1472.669446,8290.306550,-8068.244768,1225.752797
1472.669775,7920.203579,-8808.450710,1378.971896
1472.670105,6809.894666,-8808.450710,1149.143247
1472.670434,5625.565159,-7624.121203,153.219100
1472.670763,5255.462188,-7846.182985,689.485948
1472.671093,5033.400406,-6143.709319,459.657299
1472.671422,6735.874072,-6439.791695,1072.533697
1472.671751,7476.080014,-5551.544565,842.705048
1472.672081,6513.812290,-5773.606348,1455.581446
1472.672410,5995.668130,-7254.018232,1225.752797
1472.672740,6439.791695,-5699.585753,612.876398
1472.673069,7105.977043,-7328.038826,842.705048
1472.673398,7550.100608,-7328.038826,1685.410096
1472.673728,8586.388927,-7179.997637,1608.800546
1472.674057,7846.182985,-7476.080014,919.314598
1472.674386,7254.018232,-6513.812290,1915.238745
1472.674716,7105.977043,-9030.512492,1455.581446
1472.675045,6661.853478,-7920.203579,1149.143247
1472.675375,5403.503377,-6957.935855,612.876398
1472.675704,5921.647536,-6587.832884,842.705048
1472.676033,7105.977043,-5181.441594,842.705048
1472.676363,6439.791695,-4959.379811,1455.581446
1472.676692,5995.668130,-4663.297435,1838.629195
1472.677021,5847.626942,-5403.503377,842.705048
1472.677351,6587.832884,-4959.379811,612.876398
1472.677680,7772.162391,-5995.668130,1762.019645
1472.678010,9474.636058,-6217.729913,2298.286494
1472.678339,9770.718434,-5921.647536,2374.896044
1472.678668,9178.553681,-6513.812290,2528.115143
1472.678998,8512.368333,-5181.441594,1302.362347
1472.679327,7846.182985,-5699.585753,1302.362347
1472.679657,7550.100608,-6143.709319,2528.115143
1472.679986,7772.162391,-6809.894666,1915.238745
1472.680315,5995.668130,-7476.080014,1072.533697
1472.680645,3478.967927,-7624.121203,842.705048
1472.680974,2368.659014,-8734.430116,0.000000
1472.681303,2664.741391,-6365.771101,153.219100
1472.681633,3997.112087,-7105.977043,536.266849
1472.681962,6957.935855,-7772.162391,1532.190996
1472.682292,8142.265362,-7402.059420,1532.190996
1472.682621,7402.059420,-7402.059420,2451.505594
1472.682950,7772.162391,-7031.956449,919.314598
1472.683280,8586.388927,-5625.565159,766.095498
1472.683609,7550.100608,-6291.750507,1302.362347
1472.683938,8586.388927,-7698.141797,1915.238745
1472.684268,9400.615463,-7476.080014,995.924147
1472.684597,7254.018232,-7105.977043,1378.971896
1472.684927,5255.462188,-7846.182985,536.266849
1472.685256,4589.276840,-6439.791695,-306.438199
1472.685585,3627.009116,-7772.162391,-306.438199
1472.685915,4219.173869,-8882.471304,689.485948
1472.686244,6217.729913,-5773.606348,766.095498
1472.686573,7328.038826,-6735.874072,1225.752797
1472.686903,7105.977043,-6217.729913,842.705048
1472.687232,7179.997637,-5477.523971,689.485948
1472.687562,7772.162391,-6661.853478,1149.143247
1472.687891,8808.450710,-4737.318029,2145.067394
1472.688220,10140.821405,-4737.318029,2681.334243
1472.688550,10881.027347,-4811.338623,2528.115143
1472.688879,9992.780217,-2738.761985,2451.505594
1472.689208,7476.080014,-6069.688724,689.485948
1472.689538,5181.441594,-6069.688724,76.609550
1472.689867,4219.173869,-5995.668130,0.000000
1472.690197,5477.523971,-8438.347739,612.876398
1472.690526,7772.162391,-6365.771101,1225.752797
1472.690855,7105.977043,-6957.935855,1608.800546
1472.691185,6217.729913,-6513.812290,153.219100
1472.691514,5477.523971,-6513.812290,0.000000
1472.691843,6439.791695,-6143.709319,0.000000
1472.692173,8142.265362,-5551.544565,306.438199
1472.692502,8290.306550,-6957.935855,995.924147
1472.692832,8586.388927,-7846.182985,1838.629195
1472.693161,8290.306550,-6957.935855,1072.533697
1472.693490,7772.162391,-6957.935855,1838.629195
1472.693820,7402.059420,-6735.874072,995.924147
1472.694149,6513.812290,-7994.224174,1302.362347
1472.694479,6069.688724,-7772.162391,0.000000
1472.694808,5921.647536,-7105.977043,306.438199
1472.695137,5477.523971,-7105.977043,536.266849
1472.695467,5773.606348,-6513.812290,-229.828649
1472.695796,6069.688724,-7772.162391,383.047749
1472.696125,6143.709319,-5847.626942,612.876398
1472.696455,7328.038826,-6439.791695,689.485948
1472.696784,7328.038826,-6957.935855,459.657299
1472.697114,6957.935855,-5477.523971,919.314598
1472.697443,7698.141797,-7254.018232,1532.190996
1472.697772,8586.388927,-6439.791695,1838.629195
1472.698102,8068.244768,-5625.565159,1455.581446
1472.698431,7624.121203,-6439.791695,1455.581446
1472.698760,8142.265362,-6513.812290,1149.143247
1472.699090,7402.059420,-6957.935855,1149.143247
1472.699419,6809.894666,-5403.503377,1225.752797
1472.699749,6365.771101,-6069.688724,383.047749
1472.700078,6365.771101,-5403.503377,612.876398
1472.700407,7031.956449,-5033.400406,1149.143247
1472.700737,8660.409521,-5773.606348,1225.752797
1472.701066,9992.780217,-3627.009116,1378.971896
1472.701395,7920.203579,-5329.482782,1838.629195
1472.701725,7254.018232,-5773.606348,689.485948
1472.702054,6143.709319,-6883.915261,383.047749
1472.702384,5921.647536,-6809.894666,1149.143247
1472.702713,6735.874072,-7846.182985,919.314598
1472.703042,6809.894666,-7402.059420,1149.143247
1472.703372,7179.997637,-8364.327145,1838.629195
1472.703701,6809.894666,-8142.265362,1838.629195
1472.704030,5329.482782,-7402.059420,995.924147
1472.704360,4737.318029,-6735.874072,383.047749
1472.704689,5699.585753,-5477.523971,0.000000
1472.705019,6587.832884,-7031.956449,0.000000
1472.705348,6587.832884,-6735.874072,1149.143247
1472.705677,7105.977043,-6365.771101,1915.238745
1472.706007,7920.203579,-5921.647536,536.266849
1472.706336,7920.203579,-5403.503377,1532.190996
1472.706665,7698.141797,-7476.080014,1532.190996
1472.706995,8438.347739,-7698.141797,1378.971896
1472.707324,7105.977043,-6735.874072,919.314598
1472.707654,5921.647536,-7772.162391,1302.362347
1472.707983,6587.832884,-7105.977043,612.876398
1472.708312,6217.729913,-6883.915261,536.266849
1472.708642,6217.729913,-6365.771101,1608.800546
1472.708971,7698.141797,-6587.832884,1838.629195
1472.709301,8512.368333,-5477.523971,1378.971896
1472.709630,6883.915261,-3627.009116,1149.143247
1472.709959,6143.709319,-6217.729913,1455.581446
1472.710289,6735.874072,-5625.565159,536.266849
1472.710618,6587.832884,-6587.832884,1225.752797
1472.710947,7698.141797,-7031.956449,2451.505594
1472.711277,8734.430116,-6291.750507,2145.067394
1472.711606,7846.182985,-6661.853478,919.314598
1472.711936,6069.688724,-7254.018232,1302.362347
1472.712265,5625.565159,-7624.121203,229.828649
1472.712594,6217.729913,-7105.977043,536.266849
1472.712924,6883.915261,-6069.688724,1762.019645
1472.713253,7624.121203,-6661.853478,1225.752797
1472.713582,7179.997637,-6365.771101,1302.362347
1472.713912,6291.750507,-6439.791695,1608.800546
1472.714241,5699.585753,-7328.038826,459.657299
1472.714571,5181.441594,-5477.523971,766.095498
1472.714900,5995.668130,-6143.709319,459.657299
1472.715229,7994.224174,-8142.265362,1455.581446
1472.715559,8882.471304,-7105.977043,2068.457845
1472.715888,7550.100608,-6587.832884,1455.581446
1472.716217,6365.771101,-7031.956449,1149.143247
1472.716547,6809.894666,-5181.441594,536.266849
1472.716876,6809.894666,-6365.771101,536.266849
1472.717206,7179.997637,-6365.771101,689.485948
1472.717535,7994.224174,-6291.750507,1762.019645
1472.717864,7105.977043,-7179.997637,1149.143247
1472.718194,6143.709319,-6365.771101,1149.143247
1472.718523,5551.544565,-6957.935855,1072.533697
1472.718852,5699.585753,-6735.874072,153.219100
1472.719182,6587.832884,-6735.874072,842.705048
1472.719511,7698.141797,-8142.265362,1685.410096
1472.719841,8734.430116,-5329.482782,2374.896044
1472.720170,8364.327145,-5033.400406,1302.362347
1472.720499,7698.141797,-6143.709319,1685.410096
1472.720829,7624.121203,-5403.503377,153.219100
1472.721158,7624.121203,-5403.503377,919.314598
1472.721487,8438.347739,-6069.688724,1378.971896
1472.721817,8660.409521,-6439.791695,1532.190996
1472.722146,7846.182985,-5107.421000,1225.752797
1472.722476,6439.791695,-6217.729913,766.095498
1472.722805,6143.709319,-7772.162391,612.876398
1472.723134,5921.647536,-6957.935855,919.314598
1472.723464,6439.791695,-8438.347739,842.705048
1472.723793,7105.977043,-8512.368333,689.485948
1472.724123,5329.482782,-6809.894666,689.485948
1472.724452,5255.462188,-7846.182985,229.828649
1472.724781,6513.812290,-8142.265362,842.705048
1472.725110,7476.080014,-6291.750507,1072.533697
1472.725439,8290.306550,-5107.421000,1455.581446
1472.725769,8808.450710,-6439.791695,1608.800546
1472.726098,7328.038826,-5995.668130,766.095498
1472.726427,5773.606348,-6661.853478,383.047749
1472.726756,4959.379811,-7920.203579,689.485948
1472.727085,4737.318029,-7624.121203,76.609550
1472.727415,4885.359217,-7994.224174,1302.362347
1472.727744,6513.812290,-8216.285956,1072.533697
1472.728073,7550.100608,-7105.977043,995.924147
1472.728402,7105.977043,-6957.935855,2145.067394
1472.728732,7920.203579,-7031.956449,2068.457845
1472.729061,7550.100608,-5921.647536,459.657299
1472.729390,6365.771101,-5329.482782,536.266849
1472.729719,7179.997637,-5699.585753,1685.410096
1472.730048,8512.368333,-6143.709319,919.314598
1472.730378,8882.471304,-5181.441594,2145.067394
1472.730707,7550.100608,-5477.523971,2451.505594
1472.731036,8068.244768,-5699.585753,995.924147
1472.731365,7550.100608,-2960.823768,919.314598
1472.731695,6439.791695,-7105.977043,1762.019645
1472.732024,6587.832884,-7846.182985,229.828649
1472.732353,6143.709319,-6587.832884,919.314598
1472.732682,4811.338623,-8364.327145,1455.581446
1472.733011,6143.709319,-7254.018232,1762.019645
1472.733341,7624.121203,-6587.832884,1149.143247
1472.733670,7920.203579,-5847.626942,1762.019645
1472.733999,8660.409521,-6069.688724,842.705048
1472.734328,8586.388927,-6143.709319,1762.019645
1472.734657,6809.894666,-4737.318029,689.485948
1472.734987,5995.668130,-6661.853478,612.876398
1472.735316,6735.874072,-6957.935855,0.000000
1472.735645,6439.791695,-7254.018232,0.000000
1472.735974,6661.853478,-9474.636058,2451.505594
1472.736304,7105.977043,-7254.018232,76.609550
1472.736633,5181.441594,-7476.080014,689.485948
1472.736962,5477.523971,-7105.977043,612.876398
1472.737291,7105.977043,-7624.121203,306.438199
1472.737620,7328.038826,-6291.750507,919.314598
1472.737950,6365.771101,-5551.544565,1072.533697
1472.738279,7920.203579,-6661.853478,1072.533697
1472.738608,8290.306550,-4737.318029,1302.362347
1472.738937,7031.956449,-6069.688724,1149.143247
1472.739267,7105.977043,-6957.935855,1685.410096
1472.739596,7254.018232,-6069.688724,1302.362347
1472.739925,6809.894666,-6735.874072,995.924147
1472.740254,7254.018232,-6513.812290,2451.505594
1472.740583,7846.182985,-5921.647536,1532.190996
1472.740913,6439.791695,-6587.832884,842.705048
1472.741242,5699.585753,-7179.997637,536.266849
1472.741571,5847.626942,-6587.832884,229.828649
1472.741900,7328.038826,-6291.750507,1302.362347
1472.742229,8142.265362,-6069.688724,2528.115143
1472.742559,8290.306550,-5995.668130,1455.581446
1472.742888,6957.935855,-5329.482782,1149.143247
1472.743217,5255.462188,-4959.379811,153.219100
1472.743546,5551.544565,-7105.977043,-229.828649
1472.743876,6291.750507,-5847.626942,842.705048
1472.744205,7994.224174,-7846.182985,2068.457845
1472.744534,9548.656652,-7698.141797,1838.629195
1472.744863,8808.450710,-6513.812290,2528.115143
1472.745192,6883.915261,-7402.059420,2068.457845
1472.745522,6661.853478,-6365.771101,0.000000
1472.745851,5403.503377,-6661.853478,229.828649
1472.746180,5403.503377,-6735.874072,1225.752797
1472.746509,7772.162391,-6809.894666,995.924147
1472.746839,7772.162391,-7994.224174,1838.629195
1472.747168,4737.318029,-7179.997637,1072.533697
1472.747497,4959.379811,-6587.832884,383.047749
1472.747826,6365.771101,-5107.421000,76.609550
1472.748155,6587.832884,-5403.503377,995.924147
1472.748485,7846.182985,-8438.347739,2221.676944
1472.748814,9178.553681,-6291.750507,1991.848295
1472.749143,7254.018232,-6661.853478,1532.190996
1472.749472,6439.791695,-7105.977043,1072.533697
1472.749802,7105.977043,-5477.523971,689.485948
1472.750131,7105.977043,-6587.832884,995.924147
1472.750460,7254.018232,-6661.853478,2221.676944
1472.750789,8364.327145,-5699.585753,2374.896044
1472.751118,7624.121203,-5033.400406,689.485948
1472.751448,5551.544565,-5551.544565,919.314598
1472.751777,4737.318029,-5921.647536,-919.314598
1472.752106,5403.503377,-6217.729913,0.000000
1472.752435,7105.977043,-7179.997637,1991.848295
1472.752764,9400.615463,-7031.956449,2604.724693
1472.753094,9696.697840,-5921.647536,2298.286494
1472.753423,7698.141797,-6439.791695,1915.238745
1472.753752,6143.709319,-6587.832884,689.485948
1472.754081,4959.379811,-6439.791695,0.000000
1472.754411,5995.668130,-7105.977043,1225.752797
1472.754740,7846.182985,-6809.894666,1608.800546
1472.755069,8660.409521,-6661.853478,1991.848295
1472.755398,7031.956449,-6587.832884,842.705048
1472.755727,6365.771101,-6439.791695,842.705048
1472.756057,6291.750507,-7179.997637,0.000000
1472.756386,5403.503377,-7105.977043,306.438199
1472.756715,5995.668130,-7846.182985,919.314598
1472.757044,7846.182985,-7328.038826,1072.533697
1472.757374,7105.977043,-7698.141797,766.095498
1472.757703,7031.956449,-7846.182985,1991.848295
1472.758032,7254.018232,-6587.832884,536.266849
1472.758361,7402.059420,-4811.338623,0.000000
1472.758690,6513.812290,-6143.709319,1149.143247
1472.759020,8438.347739,-5921.647536,1225.752797
1472.759349,8364.327145,-6291.750507,919.314598
1472.759678,7105.977043,-6365.771101,2145.067394
1472.760007,6809.894666,-5403.503377,1378.971896
1472.760336,7105.977043,-5403.503377,842.705048
1472.760666,6217.729913,-6143.709319,1378.971896
1472.760995,6217.729913,-7105.977043,1455.581446
1472.761324,6957.935855,-6661.853478,536.266849
1472.761653,7328.038826,-6365.771101,1378.971896
1472.761983,6957.935855,-6587.832884,2145.067394
1472.762312,7402.059420,-5921.647536,689.485948
1472.762641,6587.832884,-5403.503377,1302.362347
1472.762970,7328.038826,-4441.235652,995.924147
1472.763299,8216.285956,-5921.647536,689.485948
1472.763629,8142.265362,-5477.523971,1991.848295
1472.763958,7179.997637,-6069.688724,1685.410096
1472.764287,7105.977043,-5995.668130,842.705048
1472.764616,6365.771101,-7031.956449,0.000000
1472.764946,5329.482782,-8808.450710,536.266849
1472.765275,6143.709319,-9326.594869,919.314598
1472.765604,5921.647536,-9326.594869,229.828649
1472.765933,6291.750507,-8660.409521,766.095498
1472.766262,5773.606348,-7920.203579,536.266849
1472.766592,6513.812290,-7698.141797,536.266849
1472.766921,6587.832884,-5847.626942,1072.533697
1472.767250,7328.038826,-6143.709319,995.924147
1472.767579,8586.388927,-6365.771101,1072.533697
1472.767908,7105.977043,-5921.647536,1149.143247
1472.768238,6883.915261,-6661.853478,1455.581446
1472.768567,7328.038826,-5847.626942,995.924147
1472.768896,6587.832884,-6217.729913,919.314598
1472.769225,6661.853478,-6735.874072,1302.362347
1472.769555,7624.121203,-7105.977043,1762.019645
1472.769884,7179.997637,-7105.977043,1915.238745
1472.770213,6513.812290,-6439.791695,1378.971896
1472.770542,6143.709319,-7105.977043,689.485948
1472.770871,5847.626942,-6069.688724,919.314598
1472.771201,6661.853478,-4737.318029,1302.362347
1472.771530,8660.409521,-6365.771101,1378.971896
1472.771859,8882.471304,-4441.235652,2834.553343
1472.772188,8216.285956,-4811.338623,2145.067394
1472.772518,8290.306550,-4515.256246,1302.362347
1472.772847,6883.915261,-4959.379811,995.924147
1472.773176,5255.462188,-7476.080014,1455.581446
1472.773505,5847.626942,-8068.244768,842.705048
1472.773834,5625.565159,-7624.121203,536.266849
1472.774164,5329.482782,-7550.100608,1378.971896
1472.774493,6217.729913,-7402.059420,1608.800546
1472.774822,7846.182985,-6291.750507,842.705048
1472.775151,7624.121203,-5477.523971,1608.800546
1472.775480,7698.141797,-5847.626942,2374.896044
1472.775810,9104.533087,-5921.647536,1455.581446
1472.776139,7105.977043,-5773.606348,612.876398
1472.776468,5477.523971,-7179.997637,1455.581446
1472.776797,5625.565159,-8438.347739,229.828649
1472.777127,5699.585753,-7698.141797,459.657299
1472.777456,5995.668130,-6809.894666,995.924147
1472.777785,7772.162391,-8290.306550,1378.971896
1472.778114,8068.244768,-6883.915261,1532.190996
1472.778443,5551.544565,-7328.038826,536.266849
1472.778773,5403.503377,-7994.224174,0.000000
1472.779102,5699.585753,-6661.853478,0.000000
1472.779431,6735.874072,-6587.832884,842.705048
1472.779760,8660.409521,-6957.935855,1455.581446
1472.780090,8808.450710,-6365.771101,1608.800546
1472.780419,7920.203579,-6069.688724,1302.362347
1472.780748,7105.977043,-6217.729913,919.314598
1472.781077,7846.182985,-5033.400406,459.657299
1472.781406,6735.874072,-5699.585753,383.047749
1472.781736,7105.977043,-6587.832884,1378.971896
1472.782065,7624.121203,-7402.059420,919.314598
1472.782394,7402.059420,-6143.709319,1685.410096
1472.782723,7254.018232,-6439.791695,1991.848295
1472.783053,7550.100608,-5699.585753,1072.533697
1472.783382,7031.956449,-5921.647536,1455.581446
1472.783711,7105.977043,-5625.565159,1685.410096
1472.784040,8216.285956,-5773.606348,1225.752797
1472.784369,7402.059420,-4589.276840,689.485948
1472.784699,6513.812290,-5033.400406,1378.971896
1472.785028,7328.038826,-5995.668130,1149.143247
1472.785357,7105.977043,-6365.771101,612.876398
1472.785686,6217.729913,-6661.853478,2374.896044
1472.786015,7920.203579,-7402.059420,1378.971896
1472.786345,9104.533087,-6217.729913,1149.143247
1472.786674,6809.894666,-6513.812290,1455.581446
1472.787003,5921.647536,-5995.668130,689.485948
1472.787332,6143.709319,-6291.750507,0.000000
1472.787662,5847.626942,-6587.832884,459.657299
1472.787991,7179.997637,-5995.668130,1149.143247
1472.788320,8882.471304,-7254.018232,1608.800546
1472.788649,7772.162391,-6513.812290,1838.629195
1472.788978,5181.441594,-7031.956449,842.705048
1472.789308,4737.318029,-7105.977043,-612.876398
1472.789637,4885.359217,-7624.121203,-612.876398
1472.789966,5477.523971,-8512.368333,995.924147
1472.790295,8068.244768,-8734.430116,1302.362347
1472.790625,8216.285956,-7402.059420,689.485948
1472.790954,6957.935855,-7105.977043,1378.971896
1472.791283,6735.874072,-6661.853478,766.095498
1472.791612,7254.018232,-5033.400406,306.438199
1472.791941,7105.977043,-4959.379811,612.876398
1472.792271,7698.141797,-4737.318029,689.485948
1472.792600,8956.491898,-6439.791695,1685.410096
1472.792929,7846.182985,-5107.421000,2145.067394
1472.793258,6957.935855,-5477.523971,1149.143247
1472.793587,6513.812290,-6291.750507,229.828649
1472.793917,5551.544565,-6439.791695,383.047749
1472.794246,5921.647536,-7698.141797,995.924147
1472.794575,8068.244768,-7476.080014,1149.143247
1472.794904,8438.347739,-7624.121203,1991.848295
1472.795234,6513.812290,-6809.894666,766.095498
1472.795563,5847.626942,-6365.771101,153.219100
1472.795892,6439.791695,-5625.565159,459.657299
1472.796221,8216.285956,-4589.276840,1378.971896
1472.796550,9400.615463,-5625.565159,2681.334243
1472.796880,9178.553681,-5847.626942,2145.067394
1472.797209,6735.874072,-4515.256246,1838.629195
1472.797538,4811.338623,-6513.812290,76.609550
1472.797867,4737.318029,-6587.832884,-229.828649
1472.798197,4959.379811,-7105.977043,1455.581446
1472.798526,7402.059420,-9400.615463,2221.676944
1472.798855,7624.121203,-8364.327145,1915.238745
1472.799184,7105.977043,-7772.162391,2298.286494
1472.799513,5921.647536,-7179.997637,689.485948
1472.799843,5847.626942,-7105.977043,-306.438199
1472.800172,5995.668130,-6587.832884,1072.533697
1472.800501,7550.100608,-5921.647536,1991.848295
1472.800830,9178.553681,-6217.729913,1532.190996
1472.801159,7624.121203,-4589.276840,1762.019645
1472.801489,5995.668130,-5107.421000,919.314598
1472.801818,6365.771101,-6587.832884,76.609550
1472.802147,5847.626942,-5699.585753,459.657299
1472.802476,5625.565159,-6957.935855,1072.533697
1472.802806,7698.141797,-7550.100608,919.314598
1472.803135,8364.327145,-6957.935855,1072.533697
1472.803464,6809.894666,-7624.121203,1455.581446
1472.803793,7031.956449,-6809.894666,0.000000
1472.804122,6587.832884,-7031.956449,306.438199
1472.804452,6661.853478,-6513.812290,1225.752797
1472.804781,8142.265362,-6365.771101,1762.019645
1472.805110,8882.471304,-5995.668130,1302.362347
1472.805439,7624.121203,-5699.585753,1532.190996
1472.805769,6735.874072,-5921.647536,1072.533697
1472.806098,7105.977043,-5995.668130,306.438199
1472.806427,6143.709319,-6365.771101,689.485948
1472.806756,5847.626942,-5995.668130,995.924147
1472.807085,7476.080014,-7846.182985,995.924147
1472.807415,7698.141797,-7920.203579,1685.410096
1472.807744,7402.059420,-7105.977043,1685.410096
1472.808073,6661.853478,-7328.038826,459.657299
1472.808402,5921.647536,-5773.606348,536.266849
1472.808732,7031.956449,-5995.668130,1225.752797
1472.809061,8882.471304,-6587.832884,1149.143247
1472.809390,8734.430116,-6291.750507,1608.800546
1472.809719,7624.121203,-5773.606348,1915.238745
1472.810048,7624.121203,-5921.647536,1455.581446
1472.810378,6365.771101,-4959.379811,-306.438199
1472.810707,5181.441594,-5995.668130,612.876398
1472.811036,6735.874072,-7476.080014,1149.143247
1472.811365,7179.997637,-7846.182985,1072.533697
1472.811694,5847.626942,-7846.182985,1762.019645
1472.812024,5921.647536,-7179.997637,842.705048
1472.812353,6513.812290,-6513.812290,0.000000
1472.812682,6513.812290,-5551.544565,842.705048
1472.813011,7105.977043,-5551.544565,1378.971896
1472.813341,9400.615463,-6217.729913,1838.629195
1472.813670,8734.430116,-4219.173869,1149.143247
1472.813999,7105.977043,-5625.565159,2221.676944
1472.814328,7179.997637,-5625.565159,1149.143247
1472.814657,6587.832884,-6291.750507,383.047749
1472.814987,5551.544565,-7624.121203,1378.971896
1472.815316,6883.915261,-7254.018232,1072.533697
1472.815645,7328.038826,-7846.182985,1149.143247
1472.815974,6217.729913,-7550.100608,1532.190996
1472.816304,4811.338623,-7624.121203,0.000000
1472.816633,5477.523971,-7328.038826,0.000000
1472.816962,6809.894666,-6587.832884,919.314598
1472.817291,8586.388927,-6809.894666,689.485948
1472.817620,8734.430116,-5847.626942,1915.238745
1472.817950,8364.327145,-5625.565159,1762.019645
1472.818279,7402.059420,-7328.038826,1225.752797
1472.818608,6735.874072,-7105.977043,1149.143247
1472.818937,6069.688724,-7105.977043,1302.362347
1472.819266,6291.750507,-7846.182985,1225.752797
1472.819596,7031.956449,-7624.121203,1072.533697
1472.819925,6143.709319,-8068.244768,1225.752797
1472.820254,6291.750507,-7994.224174,1762.019645
1472.820583,6439.791695,-6661.853478,689.485948
1472.820912,5995.668130,-6439.791695,76.609550
1472.821241,5995.668130,-5921.647536,919.314598
1472.821570,7105.977043,-6291.750507,1149.143247
1472.821899,8660.409521,-6069.688724,1608.800546
1472.822228,7031.956449,-5699.585753,2298.286494
1472.822557,6809.894666,-4737.318029,1378.971896
1472.822886,6957.935855,-5033.400406,229.828649
1472.823215,6735.874072,-5773.606348,1991.848295
1472.823544,8142.265362,-6957.935855,1838.629195
1472.823873,8512.368333,-6957.935855,1455.581446
1472.824203,7105.977043,-6291.750507,1762.019645
1472.824532,6291.750507,-7031.956449,995.924147
1472.824861,6809.894666,-6217.729913,-383.047749
1472.825190,6291.750507,-5255.462188,383.047749
1472.825519,7179.997637,-6809.894666,1302.362347
1472.825848,8142.265362,-6217.729913,995.924147
1472.826177,6587.832884,-5921.647536,1072.533697
1472.826506,6069.688724,-6439.791695,689.485948
1472.826835,6217.729913,-6217.729913,229.828649
1472.827164,6439.791695,-6365.771101,536.266849
1472.827493,6809.894666,-7254.018232,1991.848295
1472.827822,7994.224174,-7772.162391,1532.190996
1472.828151,7994.224174,-7105.977043,1685.410096
1472.828480,5995.668130,-8068.244768,1685.410096
1472.828809,5255.462188,-7698.141797,459.657299
1472.829138,6143.709319,-7328.038826,-153.219100
1472.829467,5699.585753,-7624.121203,536.266849
1472.829797,6513.812290,-7254.018232,842.705048
1472.830126,8882.471304,-6365.771101,1149.143247
1472.830455,8290.306550,-6513.812290,1838.629195
1472.830784,6661.853478,-5551.544565,459.657299
1472.831113,6587.832884,-6587.832884,229.828649
1472.831442,6143.709319,-5921.647536,383.047749
1472.831771,7328.038826,-6587.832884,1225.752797
1472.832100,8142.265362,-7328.038826,995.924147
1472.832429,7920.203579,-6365.771101,1532.190996
1472.832758,8364.327145,-6883.915261,1608.800546
1472.833087,7624.121203,-6809.894666,1149.143247
1472.833416,7772.162391,-5033.400406,1149.143247
1472.833745,8586.388927,-4071.132681,1608.800546
1472.834074,8808.450710,-5699.585753,1225.752797
1472.834403,8512.368333,-5403.503377,995.924147
1472.834732,6143.709319,-5551.544565,1225.752797
1472.835061,5921.647536,-6883.915261,0.000000
1472.835390,5329.482782,-6661.853478,0.000000
1472.835720,4959.379811,-6513.812290,1532.190996
1472.836049,7031.956449,-7846.182985,1072.533697
1472.836378,7402.059420,-7698.141797,919.314598
1472.836707,6587.832884,-7550.100608,1455.581446
1472.837036,7105.977043,-5551.544565,1455.581446
1472.837365,7402.059420,-5921.647536,-306.438199
1472.837694,6661.853478,-5551.544565,1762.019645
1472.838023,7624.121203,-5995.668130,1378.971896
1472.838352,8882.471304,-7179.997637,995.924147
1472.838681,7254.018232,-5403.503377,1072.533697
1472.839010,6291.750507,-6069.688724,995.924147
1472.839339,7105.977043,-6439.791695,0.000000
1472.839668,6365.771101,-6143.709319,383.047749
1472.839997,5773.606348,-7994.224174,1378.971896
1472.840326,7328.038826,-7476.080014,459.657299
1472.840655,7105.977043,-7105.977043,229.828649
1472.840984,6809.894666,-7031.956449,1532.190996
1472.841314,7698.141797,-7105.977043,1149.143247
1472.841643,8068.244768,-6957.935855,919.314598
1472.841972,6883.915261,-5699.585753,1762.019645
1472.842301,8364.327145,-5921.647536,1532.190996
1472.842630,9104.533087,-5699.585753,1378.971896
1472.842959,6957.935855,-5329.482782,1762.019645
1472.843288,5033.400406,-6883.915261,689.485948
1472.843617,5625.565159,-6661.853478,-383.047749
1472.843946,4811.338623,-7105.977043,76.609550
1472.844275,5625.565159,-7105.977043,1378.971896
1472.844604,7402.059420,-7550.100608,1455.581446
1472.844933,7254.018232,-7624.121203,919.314598
1472.845262,5625.565159,-7105.977043,842.705048
1472.845591,5847.626942,-7402.059420,229.828649
1472.845920,7550.100608,-4737.318029,229.828649
1472.846249,8142.265362,-5477.523971,1532.190996
1472.846578,9252.574275,-6957.935855,2451.505594
1472.846908,8808.450710,-5477.523971,1455.581446
1472.847237,6735.874072,-5921.647536,1302.362347
1472.847566,5699.585753,-6365.771101,536.266849
1472.847895,5995.668130,-5995.668130,0.000000
1472.848224,5403.503377,-6661.853478,919.314598
1472.848553,6217.729913,-8216.285956,1455.581446
1472.848882,6661.853478,-7846.182985,1762.019645
1472.849211,6439.791695,-6365.771101,2145.067394
1472.849540,5551.544565,-7328.038826,459.657299
1472.849869,6661.853478,-7328.038826,995.924147
1472.850198,7105.977043,-6069.688724,1072.533697
1472.850527,7920.203579,-6439.791695,1838.629195
1472.850856,8882.471304,-5403.503377,2068.457845
1472.851185,7920.203579,-5329.482782,1532.190996
1472.851514,6809.894666,-6735.874072,1302.362347
1472.851843,6661.853478,-5699.585753,0.000000
1472.852172,6291.750507,-7105.977043,1149.143247
1472.852502,6513.812290,-8512.368333,1838.629195
1472.852831,7476.080014,-6069.688724,1455.581446
1472.853160,7550.100608,-7254.018232,1378.971896
1472.853489,6661.853478,-6217.729913,1302.362347
1472.853818,6661.853478,-6587.832884,383.047749
1472.854147,6143.709319,-5847.626942,766.095498
1472.854476,6661.853478,-5477.523971,1608.800546
1472.854805,8216.285956,-5773.606348,1149.143247
1472.855134,8364.327145,-5847.626942,1072.533697
1472.855463,6957.935855,-5699.585753,2374.896044
1472.855792,7402.059420,-6291.750507,1608.800546
1472.856121,7476.080014,-4885.359217,689.485948
1472.856450,6587.832884,-5107.421000,1072.533697
1472.856779,6957.935855,-5107.421000,1685.410096
1472.857108,7772.162391,-7105.977043,459.657299
1472.857437,7105.977043,-7254.018232,1455.581446
1472.857766,5329.482782,-7624.121203,919.314598
1472.858096,5329.482782,-8660.409521,383.047749
1472.858425,6439.791695,-6809.894666,1072.533697
1472.858754,5995.668130,-7105.977043,1149.143247
1472.859083,7105.977043,-6513.812290,919.314598
1472.859412,7476.080014,-7476.080014,1455.581446
1472.859741,7105.977043,-5773.606348,536.266849
1472.860070,6291.750507,-5699.585753,0.000000
1472.860399,6291.750507,-6587.832884,0.000000
1472.860728,6957.935855,-6365.771101,1225.752797
1472.861057,7994.224174,-8512.368333,1532.190996
1472.861386,8882.471304,-6439.791695,2298.286494
1472.861715,7550.100608,-6069.688724,1378.971896
1472.862044,7105.977043,-6513.812290,383.047749
1472.862373,6809.894666,-4885.359217,-229.828649
1472.862702,6439.791695,-6661.853478,1149.143247
1472.863031,7254.018232,-6217.729913,1225.752797
1472.863360,7476.080014,-7402.059420,459.657299
1472.863690,6957.935855,-7328.038826,1838.629195
1472.864019,6365.771101,-6809.894666,995.924147
1472.864348,6217.729913,-8142.265362,1225.752797
1472.864677,5847.626942,-5699.585753,766.095498
1472.865006,7031.956449,-6291.750507,1149.143247
1472.865335,8660.409521,-7179.997637,2068.457845
1472.865664,8438.347739,-6291.750507,2068.457845
1472.865993,7105.977043,-7254.018232,2451.505594
1472.866322,6365.771101,-5699.585753,306.438199
1472.866651,6217.729913,-6439.791695,842.705048
1472.866980,6069.688724,-6513.812290,1225.752797
1472.867309,8068.244768,-4589.276840,1455.581446
1472.867638,8438.347739,-6217.729913,1455.581446
1472.867967,7179.997637,-4589.276840,1072.533697
1472.868296,6069.688724,-5181.441594,536.266849
1472.868625,6365.771101,-6513.812290,76.609550
1472.868954,5625.565159,-6883.915261,0.000000
1472.869284,5847.626942,-8438.347739,1225.752797
1472.869613,6365.771101,-7846.182985,536.266849
1472.869942,5921.647536,-7550.100608,1378.971896
1472.870271,6809.894666,-6661.853478,2068.457845
1472.870600,7476.080014,-6587.832884,689.485948
1472.870929,7550.100608,-6661.853478,1685.410096
1472.871258,7846.182985,-4737.318029,1225.752797
1472.871587,8512.368333,-5477.523971,1225.752797
1472.871916,7994.224174,-6661.853478,1991.848295
1472.872245,6957.935855,-6439.791695,1149.143247
1472.872574,5921.647536,-7328.038826,306.438199
1472.872903,5403.503377,-7476.080014,0.000000
1472.873232,5551.544565,-7920.203579,1225.752797
1472.873561,6735.874072,-8216.285956,306.438199
1472.873890,6439.791695,-7772.162391,76.609550
1472.874219,5699.585753,-7550.100608,1149.143247
1472.874548,6809.894666,-7772.162391,1149.143247
1472.874877,6957.935855,-7254.018232,1072.533697
1472.875207,6957.935855,-6069.688724,1149.143247
1472.875536,8290.306550,-5995.668130,1915.238745
1472.875865,8660.409521,-6217.729913,689.485948
1472.876194,7179.997637,-6587.832884,1991.848295
1472.876523,6883.915261,-5551.544565,919.314598
1472.876852,7254.018232,-4811.338623,689.485948
1472.877181,7105.977043,-5329.482782,383.047749
1472.877510,6513.812290,-6069.688724,1685.410096
1472.877839,7994.224174,-7105.977043,1455.581446
1472.878168,8068.244768,-6883.915261,919.314598
1472.878497,6143.709319,-5477.523971,1455.581446
1472.878826,6587.832884,-6069.688724,153.219100
1472.879155,7105.977043,-5477.523971,229.828649
1472.879484,7031.956449,-5699.585753,2374.896044
1472.879813,9104.533087,-5403.503377,1991.848295
1472.880142,9844.739029,-5329.482782,1838.629195
1472.880471,7772.162391,-5921.647536,1762.019645
1472.880801,5921.647536,-7476.080014,459.657299
1472.881130,5033.400406,-7254.018232,-459.657299
1472.881459,3627.009116,-7846.182985,-842.705048
1472.881788,3849.070898,-10362.883188,-383.047749
1472.882117,5625.565159,-9844.739029,383.047749
1472.882446,6439.791695,-9696.697840,919.314598
1472.882775,6365.771101,-9030.512492,1608.800546
1472.883104,6143.709319,-7105.977043,0.000000
1472.883433,6365.771101,-6069.688724,0.000000
1472.883762,7254.018232,-5255.462188,919.314598
1472.884091,9326.594869,-5107.421000,1455.581446
1472.884420,9400.615463,-4515.256246,2221.676944
1472.884749,7994.224174,-5107.421000,2374.896044
1472.885078,7772.162391,-8068.244768,2374.896044
1472.885407,7402.059420,-5477.523971,2068.457845
1472.885736,6217.729913,-6439.791695,1991.848295
1472.886065,6143.709319,-7624.121203,689.485948
1472.886395,5773.606348,-6735.874072,229.828649
1472.886724,5107.421000,-8068.244768,1149.143247
1472.887053,5403.503377,-9252.574275,306.438199
1472.887382,4885.359217,-9622.677246,76.609550
1472.887711,4071.132681,-8438.347739,689.485948
1472.888040,3849.070898,-10362.883188,76.609550
1472.888369,5921.647536,-10140.821405,842.705048
1472.888698,5033.400406,-8586.388927,1072.533697
1472.889027,4441.235652,-9844.739029,1532.190996
1472.889356,4441.235652,-8512.368333,1225.752797
1472.889685,4219.173869,-6809.894666,1072.533697
1472.890014,6217.729913,-6439.791695,3064.381992
1472.890343,7920.203579,-6217.729913,2757.943793
1472.890672,7624.121203,-5403.503377,2834.553343
1472.891001,5477.523971,-6365.771101,2374.896044
1472.891330,5773.606348,-5995.668130,919.314598
1472.891659,5255.462188,-5255.462188,-1149.143247
1472.891989,2886.803174,-9178.553681,0.000000
1472.892318,4589.276840,-11251.130318,1838.629195
1472.892647,5847.626942,-10955.047942,766.095498
1472.892976,4663.297435,-10214.842000,995.924147
1472.893305,3182.885551,-10658.965565,1225.752797
1472.893634,3108.864956,-9918.759623,-689.485948
1472.893963,1998.556043,-11251.130318,536.266849
1472.894292,2368.659014,-10807.006753,1762.019645
1472.894621,5403.503377,-9770.718434,1378.971896
1472.894950,4885.359217,-8364.327145,2298.286494
1472.895279,4515.256246,-8290.306550,1915.238745
1472.895608,5699.585753,-7772.162391,1302.362347
1472.895937,5551.544565,-5921.647536,995.924147
1472.896266,4293.194464,-8438.347739,1149.143247
1472.896595,5995.668130,-7698.141797,2451.505594
1472.896924,6957.935855,-7476.080014,1455.581446
1472.897253,5551.544565,-8364.327145,536.266849
1472.897583,5107.421000,-9178.553681,1149.143247
1472.897912,4959.379811,-10214.842000,1302.362347
1472.898241,4293.194464,-10288.862594,459.657299
1472.898570,3849.070898,-9474.636058,229.828649
1472.898899,4145.153275,-9178.553681,689.485948
1472.899228,4589.276840,-9252.574275,383.047749
1472.899557,4737.318029,-9326.594869,1532.190996
1472.899886,5625.565159,-7624.121203,919.314598
1472.900215,6217.729913,-6291.750507,689.485948
1472.900544,6809.894666,-5773.606348,1302.362347
1472.900873,7105.977043,-7402.059420,1149.143247
1472.901202,7624.121203,-7105.977043,1991.848295
1472.901531,7105.977043,-6735.874072,1838.629195
1472.901860,6587.832884,-7698.141797,1072.533697
1472.902189,4959.379811,-6587.832884,1608.800546
1472.902518,4441.235652,-7772.162391,0.000000
1472.902847,4293.194464,-9770.718434,-536.266849
1472.903177,3923.091493,-11029.068536,1149.143247
1472.903506,3701.029710,-12213.398043,1149.143247
1472.903835,2738.761985,-10881.027347,-689.485948
1472.904164,1998.556043,-11103.089130,0.000000
1472.904493,2886.803174,-10584.944971,0.000000
1472.904822,4959.379811,-9178.553681,1532.190996
1472.905151,6365.771101,-7624.121203,1532.190996
1472.905480,7179.997637,-5329.482782,2451.505594
1472.905809,8512.368333,-4515.256246,2068.457845
1472.906138,7846.182985,-5329.482782,2068.457845
1472.906467,4885.359217,-6883.915261,919.314598
1472.906796,3552.988522,-7624.121203,229.828649
1472.907125,4145.153275,-8734.430116,-153.219100
1472.907454,4663.297435,-11177.109724,1072.533697
1472.907783,3997.112087,-10584.944971,1532.190996
1472.908112,4589.276840,-9770.718434,612.876398
1472.908441,4663.297435,-10288.862594,76.609550
1472.908771,4293.194464,-9918.759623,842.705048
1472.909100,4071.132681,-11177.109724,1455.581446
1472.909429,3997.112087,-11325.150913,1149.143247
1472.909758,3182.885551,-9326.594869,1455.581446
1472.910087,4145.153275,-9474.636058,1608.800546
1472.910416,4515.256246,-9252.574275,2298.286494
1472.910745,4885.359217,-7179.997637,2451.505594
1472.911074,4367.215058,-5995.668130,229.828649
1472.911403,4737.318029,-5033.400406,-383.047749
1472.911732,5477.523971,-7550.100608,995.924147
1472.912061,5625.565159,-10732.986159,2451.505594
1472.912390,4737.318029,-9844.739029,1608.800546
1472.912719,2960.823768,-9474.636058,0.000000
1472.913048,3256.906145,-10881.027347,0.000000
1472.913377,4145.153275,-11029.068536,842.705048
1472.913706,5995.668130,-11843.295072,2681.334243
1472.914035,6587.832884,-8068.244768,1225.752797
1472.914364,6809.894666,-5033.400406,1225.752797
1472.914694,6513.812290,-5107.421000,995.924147
1472.915023,6735.874072,-7031.956449,1532.190996
1472.915352,5921.647536,-7772.162391,2911.162892
1472.915681,4293.194464,-7698.141797,766.095498
1472.916010,2368.659014,-7772.162391,-306.438199
1472.916339,1998.556043,-8808.450710,-383.047749
1472.916668,3182.885551,-10807.006753,306.438199
1472.916997,5329.482782,-11251.130318,919.314598
1472.917326,6069.688724,-10066.800811,766.095498
1472.917655,5329.482782,-8956.491898,612.876398
1472.917984,5773.606348,-8068.244768,1072.533697
1472.918313,7105.977043,-7402.059420,1302.362347
1472.918642,7179.997637,-6513.812290,459.657299
1472.918971,6661.853478,-6883.915261,1608.800546
1472.919300,6291.750507,-8068.244768,1991.848295
1472.919629,6143.709319,-7772.162391,1838.629195
1472.919958,5255.462188,-7476.080014,383.047749
1472.920288,3997.112087,-8364.327145,229.828649
1472.920617,2886.803174,-10140.821405,0.000000
1472.920946,3330.926739,-11029.068536,1302.362347
1472.921275,4293.194464,-9770.718434,1378.971896
1472.921604,4589.276840,-7402.059420,842.705048
1472.921933,4737.318029,-6291.750507,383.047749
1472.922262,5477.523971,-7624.121203,1532.190996
1472.922591,6883.915261,-7476.080014,2145.067394
1472.922920,7550.100608,-6735.874072,2298.286494
1472.923249,7402.059420,-5699.585753,2528.115143
1472.923578,6883.915261,-6365.771101,2145.067394
1472.923907,4959.379811,-8956.491898,1302.362347
1472.924236,3330.926739,-10584.944971,995.924147
1472.924565,2368.659014,-10584.944971,153.219100
1472.924894,2442.679609,-10881.027347,-995.924147
1472.925223,2294.638420,-11103.089130,0.000000
1472.925552,2886.803174,-13101.645173,459.657299
1472.925882,3256.906145,-13915.871710,995.924147
1472.926211,3034.844362,-11029.068536,1455.581446
1472.926540,3478.967927,-8956.491898,995.924147
1472.926869,5033.400406,-7105.977043,1838.629195
1472.927198,6883.915261,-5699.585753,2221.676944
1472.927527,7254.018232,-5255.462188,2068.457845
1472.927856,6809.894666,-4811.338623,2145.067394
1472.928185,6365.771101,-5625.565159,1455.581446
1472.928514,5921.647536,-7105.977043,842.705048
1472.928843,4367.215058,-8956.491898,1149.143247
1472.929172,3552.988522,-11251.130318,842.705048
1472.929501,3034.844362,-12287.418637,383.047749
1472.929830,3034.844362,-12879.583391,76.609550
1472.930159,3404.947333,-11991.336260,-689.485948
1472.930488,4515.256246,-10881.027347,76.609550
1472.930817,4885.359217,-10436.903782,1532.190996
1472.931146,4145.153275,-9474.636058,1225.752797
1472.931476,3404.947333,-8142.265362,1532.190996
1472.931805,4885.359217,-6809.894666,1915.238745
1472.932134,6661.853478,-5551.544565,2451.505594
1472.932463,7179.997637,-4367.215058,3370.820191
1472.932792,7402.059420,-4145.153275,2528.115143
1472.933121,6957.935855,-4515.256246,1532.190996
1472.933450,6069.688724,-5699.585753,766.095498
1472.933779,5255.462188,-7105.977043,229.828649
1472.934108,4441.235652,-9770.718434,0.000000
1472.934437,4367.215058,-11621.233289,459.657299
1472.934766,5033.400406,-12879.583391,1532.190996
1472.935095,5773.606348,-12139.377449,1991.848295
1472.935424,5551.544565,-9918.759623,1608.800546
1472.935753,4441.235652,-9400.615463,306.438199
1472.936082,3404.947333,-9104.533087,76.609550
1472.936411,2960.823768,-9104.533087,689.485948
1472.936740,3478.967927,-8586.388927,536.266849
1472.937069,4663.297435,-6883.915261,1072.533697
1472.937399,5107.421000,-6365.771101,842.705048
1472.937728,5847.626942,-6735.874072,1072.533697
1472.938057,6069.688724,-5995.668130,1149.143247
1472.938386,6217.729913,-6143.709319,2145.067394
1472.938715,6883.915261,-7550.100608,1378.971896
1472.939044,6513.812290,-9696.697840,1915.238745
1472.939373,5625.565159,-11103.089130,2145.067394
1472.939702,5255.462188,-10955.047942,1608.800546
1472.940031,5107.421000,-10436.903782,2221.676944
1472.940360,4515.256246,-9474.636058,1302.362347
1472.940689,4441.235652,-8290.306550,1685.410096
1472.941018,3923.091493,-7476.080014,919.314598
1472.941347,2960.823768,-7254.018232,306.438199
1472.941676,3108.864956,-6809.894666,-612.876398
1472.942005,3478.967927,-6587.832884,-1302.362347
1472.942334,4663.297435,-7402.059420,-689.485948
1472.942663,6365.771101,-7698.141797,842.705048
1472.942993,7031.956449,-9770.718434,1838.629195
1472.943322,6365.771101,-10214.842000,1378.971896
1472.943651,5329.482782,-10955.047942,1225.752797
1472.943980,4959.379811,-11029.068536,1762.019645
1472.944309,5255.462188,-10362.883188,2068.457845
1472.944638,5107.421000,-9992.780217,2757.943793
1472.944967,5033.400406,-8142.265362,2604.724693
1472.945296,4737.318029,-7550.100608,2834.553343
1472.945625,5107.421000,-5773.606348,3064.381992
1472.945954,5477.523971,-5551.544565,3217.601092
1472.946283,4885.359217,-6661.853478,2834.553343
1472.946612,4589.276840,-6069.688724,1455.581446
1472.946941,4515.256246,-7328.038826,842.705048
1472.947270,4071.132681,-8364.327145,383.047749
1472.947599,5181.441594,-9918.759623,1455.581446
1472.947928,4737.318029,-11621.233289,1915.238745
1472.948257,4737.318029,-12361.439231,2604.724693
1472.948587,4515.256246,-11695.253884,2451.505594
1472.948916,4663.297435,-9992.780217,2757.943793
1472.949245,5995.668130,-9104.533087,3983.696590
1472.949574,6587.832884,-6883.915261,4060.306139
1472.949903,6439.791695,-5107.421000,3830.477490
1472.950232,6957.935855,-3701.029710,3753.867940
1472.950561,8142.265362,-3478.967927,4060.306139
1472.950890,7698.141797,-4293.194464,2987.772442
1472.951219,6735.874072,-5921.647536,2834.553343
1472.951548,5995.668130,-7031.956449,2451.505594
1472.951877,6069.688724,-7994.224174,2374.896044
1472.952206,5921.647536,-8956.491898,2911.162892
1472.952535,6143.709319,-8734.430116,3677.258390
1472.952864,6291.750507,-8586.388927,3370.820191
1472.953193,5255.462188,-7846.182985,3370.820191
1472.953522,5551.544565,-7846.182985,3907.087040
1472.953851,5847.626942,-6291.750507,4290.134789
1472.954180,6957.935855,-5403.503377,4213.525239
1472.954510,7179.997637,-4737.318029,4290.134789
1472.954839,7698.141797,-3849.070898,4903.011187
1472.955168,8882.471304,-3701.029710,4596.572988
1472.955497,9104.533087,-3775.050304,5056.230287
1472.955826,8512.368333,-3627.009116,4443.353888
1472.956155,8364.327145,-5255.462188,4060.306139
1472.956484,8068.244768,-6809.894666,3907.087040
1472.956813,6735.874072,-8808.450710,3600.648841
1472.957142,5995.668130,-9474.636058,3370.820191
1472.957471,5033.400406,-9770.718434,3140.991542
1472.957800,4441.235652,-10658.965565,3677.258390
1472.958129,4293.194464,-10584.944971,3370.820191
1472.958458,3775.050304,-10140.821405,4366.744339
1472.958787,4441.235652,-8660.409521,4136.915689
1472.959116,5181.441594,-7105.977043,4596.572988
1472.959445,6365.771101,-5551.544565,4903.011187
1472.959774,8512.368333,-4737.318029,5898.935335
1472.960104,9770.718434,-4737.318029,6052.154434
1472.960433,9770.718434,-3330.926739,6205.373534
1472.960762,9844.739029,-2960.823768,5515.887586
1472.961091,9474.636058,-3478.967927,5592.497135
1472.961420,9474.636058,-4071.132681,4903.011187
1472.961749,8438.347739,-5625.565159,4749.792088
1472.962078,7550.100608,-5921.647536,4290.134789
1472.962407,6439.791695,-7846.182985,3753.867940
1472.962736,5773.606348,-9252.574275,3983.696590
1472.963065,4959.379811,-9474.636058,4060.306139
1472.963394,4515.256246,-10140.821405,3217.601092
1472.963723,2886.803174,-10214.842000,3370.820191
1472.964052,2220.617826,-9622.677246,3140.991542
1472.964381,2738.761985,-8956.491898,2911.162892
1472.964710,4441.235652,-7179.997637,3370.820191
1472.965039,6957.935855,-6439.791695,4443.353888
1472.965368,9326.594869,-4737.318029,5745.716235
1472.965698,10732.986159,-3256.906145,6741.640382
1472.966027,10807.006753,-1776.494261,6971.469032
1472.966356,10807.006753,-1406.391290,5515.887586
1472.966685,9400.615463,-2146.597232,3983.696590
1472.967014,7920.203579,-4367.215058,3370.820191
1472.967343,6883.915261,-7698.141797,3753.867940
1472.967672,5921.647536,-8734.430116,3140.991542
1472.968001,5181.441594,-9696.697840,2451.505594
1472.968330,4515.256246,-10584.944971,2681.334243
1472.968659,4589.276840,-10807.006753,2911.162892
1472.968988,4811.338623,-9474.636058,3524.039291
1472.969317,5551.544565,-7476.080014,3677.258390
1472.969646,6735.874072,-5847.626942,4060.306139
1472.969975,8660.409521,-4145.153275,4826.401637
1472.970304,9992.780217,-3256.906145,4979.620737
1472.970633,10288.862594,-3701.029710,4290.134789
1472.970962,9252.574275,-4515.256246,3447.429741
1472.971291,7476.080014,-5551.544565,2987.772442
1472.971621,6069.688724,-7105.977043,3370.820191
1472.971950,5773.606348,-7772.162391,2757.943793
1472.972279,5699.585753,-8512.368333,2911.162892
1472.972608,6069.688724,-8142.265362,2834.553343
1472.972937,6513.812290,-8068.244768,4366.744339
1472.973266,7698.141797,-7402.059420,4903.011187
1472.973595,8068.244768,-7254.018232,4366.744339
1472.973924,7402.059420,-5551.544565,4136.915689
1472.974253,7105.977043,-4441.235652,3294.210641
1472.974582,7624.121203,-4145.153275,3524.039291
1472.974911,8290.306550,-2738.761985,3217.601092
1472.975240,8512.368333,-3034.844362,3983.696590
1472.975569,8734.430116,-4515.256246,3983.696590
1472.975898,7624.121203,-5995.668130,4213.525239
1472.976227,5847.626942,-8660.409521,2987.772442
1472.976556,4441.235652,-11325.150913,2834.553343
1472.976885,4219.173869,-11473.192101,3294.210641
1472.977215,4145.153275,-10584.944971,2911.162892
1472.977544,4515.256246,-9030.512492,2911.162892
1472.977873,5699.585753,-7031.956449,2681.334243
1472.978202,6291.750507,-5329.482782,2987.772442
1472.978531,7254.018232,-4737.318029,3524.039291
1472.978860,7920.203579,-5033.400406,4979.620737
1472.979189,9400.615463,-4219.173869,5439.278036
1472.979518,9992.780217,-2590.720797,5822.325785
1472.979847,10140.821405,-2738.761985,5439.278036
1472.980176,10362.883188,-2960.823768,5056.230287
1472.980505,9178.553681,-4145.153275,4213.525239
1472.980834,7920.203579,-6661.853478,3830.477490
1472.981163,6365.771101,-8290.306550,2911.162892
1472.981492,4737.318029,-10732.986159,3140.991542
1472.981821,3627.009116,-12509.480420,3447.429741
1472.982150,2738.761985,-11917.315666,3600.648841
1472.982479,3182.885551,-10288.862594,3064.381992
1472.982809,3552.988522,-7105.977043,2451.505594
1472.983138,5551.544565,-5107.421000,3907.087040
1472.983467,8290.306550,-4145.153275,5515.887586
1472.983796,9844.739029,-2960.823768,5975.544884
1472.984125,10066.800811,-2664.741391,5898.935335
1472.984454,9474.636058,-1998.556043,5515.887586
1472.984783,9326.594869,-3034.844362,5286.058936
1472.985112,8142.265362,-4663.297435,4979.620737
1472.985441,7624.121203,-7624.121203,4903.011187
1472.985770,7550.100608,-9252.574275,3983.696590
1472.986099,7179.997637,-9474.636058,3983.696590
1472.986428,5551.544565,-9844.739029,3217.601092
1472.986757,4737.318029,-9622.677246,3217.601092
1472.987086,4367.215058,-7994.224174,3447.429741
1472.987415,4367.215058,-6809.894666,3140.991542
1472.987744,6069.688724,-5847.626942,4519.963438
1472.988073,8512.368333,-4737.318029,5439.278036
1472.988402,9252.574275,-4515.256246,5592.497135
1472.988732,7846.182985,-4071.132681,4903.011187
1472.989061,7031.956449,-4959.379811,4596.572988
1472.989390,7624.121203,-5699.585753,4826.401637
1472.989719,7254.018232,-5181.441594,4596.572988
1472.990048,7402.059420,-5255.462188,4060.306139
1472.990377,7254.018232,-6513.812290,3983.696590
1472.990706,7105.977043,-8734.430116,4136.915689
1472.991035,6513.812290,-9474.636058,4519.963438
1472.991364,6513.812290,-8364.327145,4596.572988
1472.991693,5773.606348,-8068.244768,3600.648841
1472.992022,5033.400406,-7772.162391,2987.772442
1472.992351,4663.297435,-8068.244768,3600.648841
1472.992680,6291.750507,-6957.935855,4366.744339
1472.993009,8290.306550,-4145.153275,4826.401637
1472.993338,7772.162391,-2812.782580,4443.353888
1472.993667,7105.977043,-3330.926739,2911.162892
1472.993996,6957.935855,-4515.256246,3064.381992
1472.994326,7920.203579,-6069.688724,4519.963438
1472.994655,8882.471304,-7254.018232,4903.011187
1472.994984,8956.491898,-6883.915261,4979.620737
1472.995313,7179.997637,-9400.615463,4519.963438
1472.995642,5921.647536,-8808.450710,3830.477490
1472.995971,5847.626942,-7846.182985,3830.477490
1472.996300,6291.750507,-6217.729913,3600.648841
1472.996629,7402.059420,-5625.565159,2911.162892
1472.996958,7179.997637,-6365.771101,4596.572988
1472.997287,7402.059420,-5329.482782,4519.963438
1472.997616,7402.059420,-5477.523971,4213.525239
1472.997945,6587.832884,-6513.812290,4366.744339
1472.998274,6439.791695,-6883.915261,3370.820191
1472.998603,6661.853478,-6143.709319,2987.772442
1472.998932,6735.874072,-4589.276840,2681.334243
1472.999261,6957.935855,-7179.997637,2834.553343
1472.999590,6809.894666,-8068.244768,3447.429741
1472.999919,5995.668130,-7920.203579,3524.039291
1473.000249,5403.503377,-7031.956449,3447.429741
1473.000578,5181.441594,-7994.224174,3524.039291
1473.000907,5551.544565,-9696.697840,4903.011187
1473.001236,6661.853478,-8216.285956,5286.058936
1473.001565,8512.368333,-5329.482782,5132.839837
1473.001894,9696.697840,-3478.967927,4749.792088
1473.002223,8882.471304,-2590.720797,4366.744339
1473.002552,7179.997637,-3182.885551,3140.991542
1473.002881,6291.750507,-3256.906145,3064.381992
1473.003210,7179.997637,-3775.050304,2374.896044
1473.003539,8512.368333,-4811.338623,2528.115143
1473.003868,8216.285956,-7105.977043,3983.696590
1473.004197,8882.471304,-9992.780217,4979.620737
1473.004526,8438.347739,-9252.574275,4290.134789
1473.004855,6439.791695,-8068.244768,3600.648841
1473.005184,4737.318029,-8364.327145,2681.334243
1473.005513,4071.132681,-9400.615463,3447.429741
1473.005843,3330.926739,-9474.636058,3140.991542
1473.006172,4145.153275,-6513.812290,2987.772442
1473.006501,6513.812290,-5181.441594,4366.744339
1473.006830,9104.533087,-7105.977043,6052.154434
1473.007159,8956.491898,-5477.523971,6818.249932
1473.007488,8290.306550,-2886.803174,4673.182538
1473.007817,8438.347739,-1776.494261,2604.724693
1473.008146,8438.347739,-2220.617826,2451.505594
1473.008475,7994.224174,-4737.318029,2451.505594
1473.008804,8512.368333,-5773.606348,2604.724693
1473.009133,8290.306550,-5625.565159,1608.800546
1473.009462,6957.935855,-9104.533087,766.095498
1473.009791,5033.400406,-11621.233289,2374.896044
1473.010120,4737.318029,-12953.603985,3677.258390
1473.010449,4737.318029,-11547.212695,2604.724693
1473.010778,4293.194464,-7846.182985,2068.457845
1473.011107,4737.318029,-5995.668130,3830.477490
1473.011437,7550.100608,-6143.709319,4749.792088
1473.011766,8512.368333,-3330.926739,4596.572988
1473.012095,7772.162391,-1998.556043,3524.039291
1473.012424,7994.224174,-1776.494261,3447.429741
1473.012753,8808.450710,-1850.514855,3140.991542
1473.013082,8734.430116,-4219.173869,2987.772442
1473.013411,8364.327145,-5181.441594,2451.505594
1473.013740,7402.059420,-6883.915261,1302.362347
1473.014069,5995.668130,-8808.450710,-766.095498
1473.014398,4219.173869,-10436.903782,306.438199
1473.014727,4589.276840,-11843.295072,919.314598
1473.015056,4811.338623,-12065.356855,306.438199
1473.015385,4145.153275,-10658.965565,1302.362347
1473.015714,5107.421000,-8734.430116,2374.896044
1473.016043,7920.203579,-6735.874072,2374.896044
1473.016372,7920.203579,-4145.153275,2451.505594
1473.016701,7254.018232,-2960.823768,2451.505594
1473.017030,8734.430116,-1480.411884,3907.087040
1473.017360,10288.862594,-2072.576638,2911.162892
1473.017689,9474.636058,-1332.370696,1991.848295
1473.018018,7994.224174,-1998.556043,612.876398
1473.018347,7105.977043,-4885.359217,-766.095498
1473.018676,6439.791695,-7031.956449,-612.876398
1473.019005,6069.688724,-10362.883188,689.485948
1473.019334,6365.771101,-11177.109724,612.876398
1473.019663,5033.400406,-12287.418637,0.000000
1473.019992,4071.132681,-10955.047942,689.485948
1473.020321,5255.462188,-10214.842000,919.314598
1473.020650,6291.750507,-9326.594869,995.924147
1473.020979,6217.729913,-4885.359217,1685.410096
1473.021308,7698.141797,-2738.761985,1072.533697
1473.021637,10140.821405,-2960.823768,2221.676944
1473.021966,10881.027347,-2368.659014,3064.381992
1473.022295,10362.883188,-2442.679609,2528.115143
1473.022624,7920.203579,-3256.906145,-306.438199
1473.022954,5625.565159,-5921.647536,0.000000
1473.023283,5625.565159,-8068.244768,76.609550
1473.023612,6735.874072,-9030.512492,0.000000
1473.023941,6439.791695,-9770.718434,536.266849
1473.024270,5255.462188,-9696.697840,995.924147
1473.024599,5255.462188,-11695.253884,612.876398
1473.024928,4663.297435,-8956.491898,0.000000
1473.025257,4515.256246,-7105.977043,766.095498
1473.025586,7105.977043,-6143.709319,766.095498
1473.025915,8734.430116,-3997.112087,1762.019645
1473.026244,8586.388927,-2516.700203,2451.505594
1473.026573,9400.615463,-2146.597232,2298.286494
1473.026902,9400.615463,-2664.741391,1302.362347
1473.027231,6365.771101,-4441.235652,612.876398
1473.027560,5255.462188,-5921.647536,76.609550
1473.027889,6957.935855,-9474.636058,383.047749
1473.028218,7105.977043,-8216.285956,995.924147
1473.028548,5551.544565,-9104.533087,612.876398
1473.028877,5773.606348,-9622.677246,229.828649
1473.029206,5329.482782,-8438.347739,-919.314598
1473.029535,4663.297435,-8734.430116,76.609550
1473.029864,6587.832884,-6809.894666,842.705048
1473.030193,7846.182985,-5699.585753,1149.143247
1473.030522,8142.265362,-4367.215058,1225.752797
1473.030851,8438.347739,-3997.112087,2221.676944
1473.031180,9178.553681,-4293.194464,1838.629195
1473.031509,8068.244768,-3997.112087,1685.410096
1473.031838,6809.894666,-5329.482782,1378.971896
1473.032167,7698.141797,-7476.080014,1685.410096
1473.032496,7698.141797,-6661.853478,1302.362347
1473.032825,6513.812290,-7328.038826,1225.752797
1473.033154,5033.400406,-8068.244768,0.000000
1473.033483,4737.318029,-7550.100608,0.000000
1473.033812,5477.523971,-8586.388927,766.095498
1473.034142,7698.141797,-9992.780217,1378.971896
1473.034471,8808.450710,-7402.059420,2451.505594
1473.034800,8142.265362,-6365.771101,2068.457845
1473.035129,7550.100608,-6365.771101,919.314598
1473.035458,5921.647536,-3182.885551,-76.609550
1473.035787,6439.791695,-3997.112087,306.438199
1473.036116,8438.347739,-6365.771101,1149.143247
1473.036445,9400.615463,-7254.018232,2451.505594
1473.036774,7550.100608,-6143.709319,1762.019645
1473.037103,6809.894666,-8216.285956,1378.971896
1473.037432,6143.709319,-7254.018232,766.095498
1473.037761,4959.379811,-6365.771101,229.828649
1473.038090,6291.750507,-7402.059420,306.438199
1473.038419,8586.388927,-5995.668130,766.095498
1473.038748,8438.347739,-6217.729913,1378.971896
1473.039077,7476.080014,-7402.059420,2145.067394
1473.039406,7476.080014,-6809.894666,1762.019645
1473.039736,6217.729913,-5329.482782,1149.143247
1473.040065,3849.070898,-4737.318029,0.000000
1473.040394,5921.647536,-6957.935855,1455.581446
1473.040723,8364.327145,-5995.668130,2451.505594
1473.041052,7698.141797,-5699.585753,1685.410096
1473.041381,6661.853478,-6883.915261,2221.676944
1473.041710,6957.935855,-6291.750507,2068.457845
1473.042039,6661.853478,-5847.626942,383.047749
1473.042368,6069.688724,-6513.812290,383.047749
1473.042697,7031.956449,-7624.121203,1302.362347
1473.043026,7476.080014,-6735.874072,995.924147
1473.043355,6217.729913,-7328.038826,383.047749
1473.043684,5477.523971,-7476.080014,229.828649
1473.044013,5773.606348,-6809.894666,306.438199
1473.044342,6587.832884,-7772.162391,689.485948
1473.044671,6587.832884,-7550.100608,1838.629195
1473.045000,7105.977043,-6661.853478,2221.676944
1473.045330,7624.121203,-5847.626942,1762.019645
1473.045659,7254.018232,-5255.462188,1149.143247
1473.045988,6809.894666,-4145.153275,1072.533697
1473.046317,7402.059420,-5403.503377,995.924147
1473.046646,9178.553681,-6069.688724,1685.410096
1473.046975,8660.409521,-5699.585753,1838.629195
1473.047304,7105.977043,-6217.729913,1915.238745
1473.047633,6291.750507,-7105.977043,0.000000
1473.047962,6217.729913,-7772.162391,536.266849
1473.048291,5255.462188,-8586.388927,842.705048
1473.048620,6883.915261,-9030.512492,1378.971896
1473.048949,7846.182985,-8216.285956,1532.190996
1473.049278,6217.729913,-6069.688724,1225.752797
1473.049607,5255.462188,-6291.750507,536.266849
1473.049936,5773.606348,-5921.647536,612.876398
1473.050265,5995.668130,-4071.132681,612.876398
1473.050594,7698.141797,-4737.318029,842.705048
1473.050924,10066.800811,-6291.750507,2987.772442
1473.051253,10510.924376,-5033.400406,2681.334243
1473.051582,8290.306550,-5699.585753,842.705048
1473.051911,6809.894666,-5255.462188,306.438199
1473.052240,5921.647536,-6809.894666,-919.314598
1473.052569,5403.503377,-7476.080014,-383.047749
1473.052898,5625.565159,-8512.368333,0.000000
1473.053227,6957.935855,-9252.574275,1302.362347
1473.053556,7550.100608,-7624.121203,919.314598
1473.053885,6439.791695,-8438.347739,919.314598
1473.054214,6217.729913,-6587.832884,1072.533697
1473.054543,6957.935855,-5255.462188,1149.143247
1473.054872,7920.203579,-5995.668130,995.924147
1473.055201,8068.244768,-3923.091493,1455.581446
1473.055530,7550.100608,-4367.215058,1455.581446
1473.055859,6957.935855,-4515.256246,919.314598
1473.056188,6809.894666,-5403.503377,306.438199
1473.056517,6587.832884,-7179.997637,1149.143247
1473.056847,7254.018232,-8290.306550,1685.410096
1473.057176,6883.915261,-8216.285956,536.266849
1473.057505,5107.421000,-7920.203579,76.609550
1473.057834,4737.318029,-8660.409521,612.876398
1473.058163,6513.812290,-8956.491898,995.924147
1473.058492,6291.750507,-7105.977043,689.485948
1473.058821,5551.544565,-6735.874072,1072.533697
1473.059150,7920.203579,-7105.977043,1685.410096
1473.059479,9844.739029,-4885.359217,2068.457845
1473.059808,7328.038826,-5255.462188,1455.581446
1473.060137,6439.791695,-5107.421000,612.876398
1473.060466,7105.977043,-4145.153275,689.485948
1473.060795,6661.853478,-4737.318029,842.705048
1473.061124,6513.812290,-5773.606348,1532.190996
1473.061453,7772.162391,-7179.997637,2221.676944
1473.061782,7994.224174,-6957.935855,1378.971896
1473.062111,6291.750507,-8068.244768,1149.143247
1473.062441,5921.647536,-8512.368333,1685.410096
1473.062770,6143.709319,-6809.894666,383.047749
1473.063099,6365.771101,-7698.141797,306.438199
1473.063428,7328.038826,-6957.935855,1225.752797
1473.063757,8438.347739,-6513.812290,1455.581446
1473.064086,8512.368333,-6291.750507,2298.286494
1473.064415,6957.935855,-5477.523971,1149.143247
1473.064744,5551.544565,-4663.297435,153.219100
1473.065073,5921.647536,-4441.235652,306.438199
1473.065402,7105.977043,-6661.853478,0.000000
1473.065731,7624.121203,-6587.832884,1762.019645
1473.066060,8142.265362,-5699.585753,1685.410096
1473.066389,7772.162391,-7254.018232,689.485948
1473.066718,6587.832884,-6587.832884,306.438199
1473.067047,5995.668130,-8216.285956,383.047749
1473.067376,7772.162391,-8364.327145,229.828649
1473.067705,8364.327145,-6809.894666,689.485948
1473.068035,7624.121203,-7031.956449,1302.362347
1473.068364,8068.244768,-5255.462188,689.485948
1473.068693,7328.038826,-5329.482782,306.438199
1473.069022,6513.812290,-5255.462188,76.609550
1473.069351,7105.977043,-5477.523971,919.314598
1473.069680,8882.471304,-7179.997637,2298.286494
1473.070009,8734.430116,-5847.626942,2451.505594
1473.070338,7105.977043,-5847.626942,1072.533697
1473.070667,5847.626942,-5847.626942,0.000000
1473.070996,4885.359217,-4737.318029,-1455.581446
1473.071325,5329.482782,-7402.059420,-612.876398
1473.071654,7772.162391,-8364.327145,459.657299
1473.071983,7254.018232,-7031.956449,459.657299
1473.072312,7476.080014,-7624.121203,383.047749
1473.072641,6587.832884,-7846.182985,0.000000
1473.072970,6069.688724,-7402.059420,306.438199
1473.073299,5995.668130,-6735.874072,689.485948
1473.073629,6587.832884,-5773.606348,612.876398
1473.073958,7476.080014,-5625.565159,1149.143247
1473.074287,7846.182985,-5699.585753,2374.896044
1473.074616,8586.388927,-7105.977043,2068.457845
1473.074945,6661.853478,-6143.709319,689.485948
1473.075274,5181.441594,-5477.523971,-612.876398
1473.075603,5403.503377,-7031.956449,0.000000
1473.075932,7772.162391,-7105.977043,995.924147
1473.076261,8216.285956,-7772.162391,1072.533697
1473.076590,7105.977043,-7994.224174,1532.190996
1473.076919,5921.647536,-6957.935855,1225.752797
1473.077248,5181.441594,-6883.915261,306.438199
1473.077577,5181.441594,-5773.606348,1072.533697
1473.077906,6883.915261,-7476.080014,1762.019645
1473.078235,8216.285956,-6069.688724,2298.286494
1473.078564,7698.141797,-5329.482782,1685.410096
1473.078893,7105.977043,-6439.791695,1685.410096
1473.079223,7624.121203,-5255.462188,1838.629195
1473.079552,7031.956449,-5847.626942,1225.752797
1473.079881,6957.935855,-6587.832884,1225.752797
1473.080210,6883.915261,-7550.100608,766.095498
1473.080539,7105.977043,-7402.059420,612.876398
1473.080868,6291.750507,-7772.162391,0.000000
1473.081197,6439.791695,-8216.285956,1149.143247
1473.081526,6883.915261,-6809.894666,1378.971896
1473.081855,6809.894666,-7254.018232,1685.410096
1473.082184,6217.729913,-5551.544565,1991.848295
1473.082513,7254.018232,-4663.297435,1532.190996
1473.082842,8438.347739,-4589.276840,2757.943793
1473.083171,8438.347739,-4589.276840,1838.629195
1473.083500,7105.977043,-5255.462188,2374.896044
1473.083829,8290.306550,-6365.771101,2145.067394
1473.084158,9030.512492,-6957.935855,2068.457845
1473.084487,7402.059420,-5699.585753,766.095498
1473.084817,6439.791695,-7254.018232,306.438199
1473.085146,6365.771101,-7772.162391,766.095498
1473.085475,5625.565159,-6143.709319,-919.314598
1473.085804,4737.318029,-8438.347739,306.438199
1473.086133,6661.853478,-8512.368333,1838.629195
1473.086462,7994.224174,-8216.285956,1685.410096
1473.086791,7402.059420,-7846.182985,2451.505594
1473.087120,7328.038826,-6661.853478,2911.162892
1473.087449,7476.080014,-4811.338623,1378.971896
1473.087778,6661.853478,-3478.967927,153.219100
1473.088107,6587.832884,-3108.864956,689.485948
1473.088436,8068.244768,-4367.215058,76.609550
1473.088765,8364.327145,-4811.338623,919.314598
1473.089094,7031.956449,-8216.285956,995.924147
1473.089423,7031.956449,-10288.862594,1838.629195
1473.089752,6661.853478,-9622.677246,1378.971896
1473.090081,5329.482782,-8364.327145,-229.828649
1473.090411,4811.338623,-8438.347739,536.266849
1473.090740,6439.791695,-7105.977043,1149.143247
1473.091069,7476.080014,-6587.832884,2068.457845
1473.091398,7550.100608,-5551.544565,1915.238745
1473.091727,6439.791695,-2368.659014,842.705048
1473.092056,6809.894666,-4441.235652,1302.362347
1473.092385,8290.306550,-6291.750507,2145.067394
1473.092714,8290.306550,-5403.503377,2528.115143
1473.093043,7550.100608,-5551.544565,995.924147
1473.093372,7179.997637,-6661.853478,919.314598
1473.093701,6439.791695,-7476.080014,306.438199
1473.094030,5329.482782,-9474.636058,1072.533697
1473.094359,5181.441594,-8438.347739,76.609550
1473.094688,5181.441594,-9252.574275,-612.876398
1473.095017,5847.626942,-8956.491898,1225.752797
1473.095346,6883.915261,-6957.935855,1608.800546
1473.095675,7402.059420,-6291.750507,1838.629195
1473.096005,7550.100608,-5403.503377,2068.457845
1473.096334,8216.285956,-4367.215058,1225.752797
1473.096663,9178.553681,-5255.462188,1991.848295
1473.096992,8586.388927,-3997.112087,1532.190996
1473.097321,6957.935855,-5699.585753,0.000000
1473.097650,5921.647536,-6069.688724,-689.485948
1473.097979,5403.503377,-7031.956449,-995.924147
1473.098308,5773.606348,-9474.636058,153.219100
1473.098637,8216.285956,-9400.615463,1762.019645
1473.098966,8512.368333,-9178.553681,2221.676944
1473.099295,7772.162391,-7846.182985,1762.019645
1473.099624,6217.729913,-7105.977043,1455.581446
1473.099953,5033.400406,-6291.750507,153.219100
1473.100282,5921.647536,-4071.132681,76.609550
1473.100611,7254.018232,-5255.462188,842.705048
1473.100940,9252.574275,-4737.318029,1991.848295
1473.101269,8512.368333,-5551.544565,2068.457845
1473.101599,6439.791695,-6365.771101,766.095498
1473.101928,4737.318029,-5255.462188,-689.485948
1473.102257,4515.256246,-6365.771101,-1685.410096
1473.102586,5847.626942,-7179.997637,1072.533697
1473.102915,8216.285956,-8808.450710,1915.238745
1473.103244,9622.677246,-8956.491898,2451.505594
1473.103573,7476.080014,-7105.977043,2374.896044
1473.103902,6143.709319,-7179.997637,1302.362347
1473.104231,5625.565159,-4737.318029,-306.438199
1473.104560,6291.750507,-5921.647536,0.000000
1473.104889,9474.636058,-5329.482782,1838.629195
1473.105218,9770.718434,-4145.153275,1685.410096
1473.105547,7179.997637,-5699.585753,1532.190996
1473.105876,6069.688724,-4293.194464,306.438199
1473.106205,6217.729913,-6883.915261,76.609550
1473.106534,5403.503377,-7624.121203,689.485948
1473.106863,5773.606348,-8586.388927,1378.971896
1473.107193,7476.080014,-9474.636058,2221.676944
1473.107522,8660.409521,-6957.935855,1991.848295
1473.107851,7254.018232,-5995.668130,1532.190996
1473.108180,7179.997637,-6957.935855,2145.067394
1473.108509,7105.977043,-5995.668130,1302.362347
1473.108838,6217.729913,-4441.235652,0.000000
1473.109167,6661.853478,-6217.729913,0.000000
1473.109496,7772.162391,-6587.832884,1455.581446
1473.109825,7846.182985,-5921.647536,842.705048
1473.110154,6513.812290,-7772.162391,383.047749
1473.110483,5477.523971,-7031.956449,306.438199
1473.110812,5625.565159,-7105.977043,306.438199
1473.111141,6513.812290,-8586.388927,612.876398
1473.111470,7476.080014,-7550.100608,1762.019645
1473.111799,8216.285956,-6809.894666,1915.238745
1473.112128,8364.327145,-7402.059420,2374.896044
1473.112457,6957.935855,-4589.276840,1225.752797
1473.112786,6735.874072,-3552.988522,919.314598
1473.113116,8882.471304,-5551.544565,2221.676944
1473.113445,9548.656652,-4959.379811,2374.896044
1473.113774,7105.977043,-5625.565159,1455.581446
1473.114103,4737.318029,-5403.503377,0.000000
1473.114432,4589.276840,-6439.791695,-1991.848295
1473.114761,5181.441594,-7624.121203,-383.047749
1473.115090,5921.647536,-8882.471304,1072.533697
1473.115419,7624.121203,-9474.636058,1378.971896
1473.115748,8290.306550,-9178.553681,1991.848295
1473.116077,7328.038826,-7550.100608,2221.676944
1473.116406,7179.997637,-6439.791695,1532.190996
1473.116735,7031.956449,-4589.276840,1455.581446
1473.117064,7254.018232,-4071.132681,1302.362347
1473.117393,7476.080014,-4293.194464,766.095498
1473.117722,8364.327145,-4145.153275,842.705048
1473.118051,7846.182985,-4145.153275,766.095498
1473.118380,7031.956449,-6217.729913,459.657299
1473.118710,5847.626942,-6883.915261,0.000000
1473.119039,4811.338623,-8512.368333,-612.876398
1473.119368,5181.441594,-9252.574275,76.609550
1473.119697,7031.956449,-9622.677246,1072.533697
1473.120026,8290.306550,-8438.347739,1915.238745
1473.120355,8882.471304,-7105.977043,1762.019645
1473.120684,8142.265362,-7328.038826,1302.362347
1473.121013,7476.080014,-3997.112087,842.705048
1473.121342,7254.018232,-5033.400406,1072.533697
1473.121671,9326.594869,-5403.503377,2221.676944
1473.122000,8216.285956,-4367.215058,1991.848295
1473.122329,6365.771101,-5995.668130,1072.533697
1473.122658,5329.482782,-5033.400406,229.828649
1473.122987,5255.462188,-6587.832884,153.219100
1473.123316,5255.462188,-8142.265362,-229.828649
1473.123645,5921.647536,-8290.306550,536.266849
1473.123974,7476.080014,-9918.759623,1225.752797
1473.124304,8068.244768,-8290.306550,1302.362347
1473.124633,7105.977043,-7476.080014,1225.752797
1473.124962,6661.853478,-6735.874072,919.314598
1473.125291,7105.977043,-4589.276840,766.095498
1473.125620,7920.203579,-5107.421000,1762.019645
1473.125949,9104.533087,-4737.318029,2068.457845
1473.126278,8364.327145,-6069.688724,1915.238745
1473.126607,6809.894666,-6217.729913,995.924147
1473.126936,4811.338623,-4589.276840,-1225.752797
1473.127265,4589.276840,-6883.915261,76.609550
1473.127594,6143.709319,-7254.018232,1455.581446
1473.127923,6957.935855,-7476.080014,689.485948
1473.128252,7328.038826,-7846.182985,1991.848295
1473.128581,7550.100608,-6957.935855,2451.505594
1473.128910,7698.141797,-7772.162391,1378.971896
1473.129239,6883.915261,-5403.503377,1532.190996
1473.129568,6217.729913,-5329.482782,995.924147
1473.129897,8660.409521,-6069.688724,1225.752797
1473.130226,9178.553681,-4885.359217,1991.848295
1473.130555,6439.791695,-6143.709319,766.095498
1473.130884,5625.565159,-6365.771101,306.438199
1473.131213,4737.318029,-6143.709319,-766.095498
1473.131542,4219.173869,-7476.080014,-459.657299
1473.131871,5625.565159,-8734.430116,1685.410096
1473.132201,8142.265362,-10288.862594,2604.724693
1473.132530,8734.430116,-8290.306550,2451.505594
1473.132859,7105.977043,-6661.853478,1915.238745
1473.133188,7105.977043,-6291.750507,1378.971896
1473.133517,7550.100608,-4219.173869,766.095498
1473.133846,6735.874072,-5255.462188,1685.410096
1473.134175,7328.038826,-3701.029710,536.266849
1473.134504,7920.203579,-3775.050304,766.095498
1473.134833,7402.059420,-5625.565159,1302.362347
1473.135162,7105.977043,-7772.162391,842.705048
1473.135491,5625.565159,-8290.306550,1225.752797
1473.135820,5255.462188,-7624.121203,153.219100
1473.136149,6069.688724,-8808.450710,229.828649
1473.136478,7031.956449,-8290.306550,2221.676944
1473.136807,7920.203579,-7476.080014,1915.238745
1473.137136,7550.100608,-6291.750507,995.924147
1473.137465,6809.894666,-5921.647536,919.314598
1473.137794,7328.038826,-5551.544565,1532.190996
1473.138123,9326.594869,-5699.585753,2451.505594
1473.138452,9770.718434,-6809.894666,3064.381992
1473.138781,7550.100608,-4737.318029,1838.629195
1473.139110,5847.626942,-5181.441594,0.000000
1473.139439,4663.297435,-5255.462188,-919.314598
1473.139768,4071.132681,-4959.379811,-1149.143247
1473.140097,5847.626942,-7772.162391,229.828649
1473.140426,7846.182985,-8734.430116,1532.190996
1473.140755,7402.059420,-9474.636058,2068.457845
1473.141085,7179.997637,-8364.327145,2911.162892
1473.141414,7550.100608,-7476.080014,1532.190996
1473.141743,7031.956449,-5995.668130,1225.752797
1473.142072,6957.935855,-5181.441594,1991.848295
1473.142401,7994.224174,-5181.441594,1915.238745
1473.142730,9548.656652,-4441.235652,1685.410096
1473.143059,7846.182985,-4145.153275,1991.848295
1473.143388,5551.544565,-3552.988522,-536.266849
1473.143717,4589.276840,-6143.709319,-1225.752797
1473.144046,5551.544565,-8142.265362,995.924147
1473.144375,6809.894666,-8512.368333,1302.362347
1473.144704,7772.162391,-9326.594869,1302.362347
1473.145033,7328.038826,-8512.368333,2604.724693
1473.145362,7105.977043,-8586.388927,1378.971896
1473.145691,5995.668130,-7105.977043,383.047749
1473.146020,5107.421000,-5033.400406,229.828649
1473.146349,6957.935855,-6661.853478,383.047749
1473.146678,9548.656652,-5329.482782,1991.848295
1473.147007,8364.327145,-4293.194464,995.924147
1473.147336,7254.018232,-5255.462188,2145.067394
1473.147665,6957.935855,-4959.379811,919.314598
1473.147994,5551.544565,-4737.318029,-689.485948
1473.148323,5033.400406,-7105.977043,612.876398
1473.148652,7624.121203,-7920.203579,919.314598
1473.148981,8808.450710,-8216.285956,1225.752797
1473.149310,7105.977043,-8216.285956,1762.019645
1473.149639,6439.791695,-7994.224174,842.705048
1473.149969,7179.997637,-6365.771101,229.828649
1473.150298,7031.956449,-6217.729913,995.924147
1473.150627,7476.080014,-6217.729913,1685.410096
1473.150956,8956.491898,-5551.544565,2221.676944
1473.151285,7994.224174,-5403.503377,1225.752797
1473.151614,5995.668130,-4811.338623,1225.752797
1473.151943,5995.668130,-4885.359217,-229.828649
1473.152272,5551.544565,-5847.626942,0.000000
1473.152601,5847.626942,-7772.162391,689.485948
1473.152930,6957.935855,-8808.450710,1072.533697
1473.153259,7994.224174,-6957.935855,1455.581446
1473.153588,7179.997637,-7846.182985,1532.190996
1473.153917,6661.853478,-7846.182985,1149.143247
1473.154246,6735.874072,-6365.771101,766.095498
1473.154575,7476.080014,-6661.853478,689.485948
1473.154904,9104.533087,-5995.668130,1991.848295
1473.155233,8882.471304,-5181.441594,1838.629195
1473.155562,7772.162391,-5403.503377,1149.143247
1473.155891,6143.709319,-5551.544565,306.438199
1473.156220,5403.503377,-5181.441594,383.047749
1473.156549,4663.297435,-6069.688724,306.438199
1473.156878,5625.565159,-7328.038826,612.876398
1473.157207,7550.100608,-7624.121203,1762.019645
1473.157536,7920.203579,-7476.080014,2221.676944
1473.157865,7550.100608,-7328.038826,2681.334243
1473.158194,7105.977043,-6883.915261,1072.533697
1473.158523,6069.688724,-5329.482782,459.657299
1473.158853,6069.688724,-6587.832884,766.095498
1473.159182,7550.100608,-5255.462188,1225.752797
1473.159511,7179.997637,-6735.874072,1762.019645
1473.159840,7105.977043,-7031.956449,2068.457845
1473.160169,6439.791695,-6069.688724,536.266849
1473.160498,5551.544565,-6735.874072,919.314598
1473.160827,5995.668130,-7624.121203,1608.800546
1473.161156,6735.874072,-7105.977043,536.266849
1473.161485,6439.791695,-7550.100608,689.485948
1473.161814,6439.791695,-7105.977043,1455.581446
1473.162143,7402.059420,-6365.771101,1685.410096
1473.162472,7698.141797,-6291.750507,1302.362347
1473.162801,6735.874072,-6587.832884,2068.457845
1473.163130,8512.368333,-7550.100608,2604.724693
1473.163459,9104.533087,-6513.812290,2298.286494
1473.163788,6883.915261,-4441.235652,1455.581446
1473.164117,5995.668130,-5107.421000,306.438199
1473.164446,6069.688724,-5551.544565,306.438199
1473.164775,5107.421000,-5107.421000,0.000000
1473.165104,5773.606348,-6513.812290,536.266849
1473.165433,7846.182985,-8068.244768,1302.362347
1473.165762,8364.327145,-7402.059420,2681.334243
1473.166091,7698.141797,-8216.285956,2987.772442
1473.166420,6365.771101,-7402.059420,1455.581446
1473.166749,5995.668130,-5403.503377,766.095498
1473.167078,7920.203579,-6587.832884,689.485948
1473.167407,8734.430116,-6513.812290,1149.143247
1473.167737,7624.121203,-6957.935855,1378.971896
1473.168066,6809.894666,-6809.894666,459.657299
1473.168395,5847.626942,-5107.421000,0.000000
1473.168724,5107.421000,-5625.565159,-612.876398
1473.169053,5699.585753,-6217.729913,995.924147
1473.169382,7994.224174,-7179.997637,2068.457845
1473.169711,9696.697840,-7550.100608,2221.676944
1473.170040,8142.265362,-5699.585753,2451.505594
1473.170369,6957.935855,-7031.956449,1225.752797
1473.170698,6735.874072,-6143.709319,229.828649
1473.171027,6217.729913,-5181.441594,0.000000
1473.171356,7105.977043,-6513.812290,612.876398
1473.171685,8808.450710,-7179.997637,1838.629195
1473.172014,8956.491898,-6069.688724,1685.410096
1473.172343,7328.038826,-6735.874072,1762.019645
1473.172672,5847.626942,-5773.606348,-229.828649
1473.173001,4071.132681,-5847.626942,-229.828649
1473.173330,4441.235652,-7550.100608,766.095498
1473.173659,6439.791695,-7254.018232,1225.752797
1473.173988,7846.182985,-7031.956449,2298.286494
1473.174317,7031.956449,-5921.647536,1838.629195
1473.174646,6883.915261,-6513.812290,1685.410096
1473.174975,6217.729913,-5921.647536,1072.533697
1473.175304,6291.750507,-6291.750507,842.705048
1473.175633,7698.141797,-7254.018232,1378.971896
1473.175962,8808.450710,-7031.956449,1532.190996
1473.176291,7402.059420,-6217.729913,689.485948
1473.176621,6143.709319,-7402.059420,612.876398
1473.176950,5477.523971,-7105.977043,-536.266849
1473.177279,4811.338623,-5699.585753,-842.705048
1473.177608,5403.503377,-7179.997637,153.219100
1473.177937,7550.100608,-7846.182985,2528.115143
1473.178266,8808.450710,-8068.244768,2987.772442
1473.178595,8142.265362,-7031.956449,3447.429741
1473.178924,6735.874072,-4737.318029,1072.533697
1473.179253,5773.606348,-3552.988522,536.266849
1473.179582,6735.874072,-5551.544565,842.705048
1473.179911,8216.285956,-5699.585753,612.876398
1473.180240,8068.244768,-5625.565159,1302.362347
1473.180569,7254.018232,-6735.874072,2068.457845
1473.180898,5847.626942,-7402.059420,766.095498
1473.181227,4959.379811,-7105.977043,0.000000
1473.181556,5329.482782,-8216.285956,766.095498
1473.181885,6883.915261,-8290.306550,1225.752797
1473.182214,7328.038826,-9252.574275,2145.067394
1473.182543,6809.894666,-7105.977043,1072.533697
1473.182872,6513.812290,-5699.585753,383.047749
1473.183201,7105.977043,-6217.729913,995.924147
1473.183530,6957.935855,-4663.297435,842.705048
1473.183859,6883.915261,-5921.647536,1685.410096
1473.184188,8290.306550,-6143.709319,1072.533697
1473.184517,8290.306550,-5847.626942,1838.629195
1473.184846,7920.203579,-6217.729913,1838.629195
1473.185175,7846.182985,-7328.038826,842.705048
1473.185505,6143.709319,-6439.791695,0.000000
1473.185834,5847.626942,-7402.059420,229.828649
1473.186163,7328.038826,-7179.997637,1072.533697
1473.186492,8142.265362,-6587.832884,1455.581446
1473.186821,7994.224174,-6809.894666,1838.629195
1473.187150,7105.977043,-7624.121203,1685.410096
1473.187479,6439.791695,-5255.462188,1072.533697
1473.187808,6587.832884,-5625.565159,1149.143247
1473.188137,8216.285956,-5921.647536,1685.410096
1473.188466,8660.409521,-5921.647536,1838.629195
1473.188795,7550.100608,-6217.729913,1149.143247
1473.189124,5773.606348,-5403.503377,766.095498
1473.189453,5255.462188,-4959.379811,0.000000
1473.189782,4885.359217,-6957.935855,383.047749
1473.190111,6661.853478,-8364.327145,1302.362347
1473.190440,7846.182985,-8438.347739,1915.238745
1473.190769,7476.080014,-7698.141797,1991.848295
1473.191098,7105.977043,-6735.874072,2145.067394
1473.191427,7402.059420,-6661.853478,1072.533697
1473.191756,6735.874072,-5403.503377,842.705048
1473.192085,5995.668130,-5995.668130,1149.143247
1473.192414,7624.121203,-5921.647536,919.314598
1473.192743,7550.100608,-6291.750507,1378.971896
1473.193072,6439.791695,-6587.832884,1532.190996
1473.193401,5403.503377,-6883.915261,536.266849
1473.193730,4959.379811,-6587.832884,76.609550
1473.194059,5107.421000,-5625.565159,1149.143247
1473.194389,7254.018232,-8734.430116,1838.629195
1473.194718,9400.615463,-7772.162391,3600.648841
1473.195047,7328.038826,-5033.400406,1608.800546
1473.195376,5477.523971,-7402.059420,919.314598
1473.195705,6217.729913,-6587.832884,1149.143247
1473.196034,5699.585753,-5107.421000,229.828649
1473.196363,6957.935855,-6735.874072,689.485948
1473.196692,8142.265362,-6809.894666,2221.676944
1473.197021,9622.677246,-7402.059420,2528.115143
1473.197350,8290.306550,-7698.141797,1225.752797
1473.197679,4589.276840,-6439.791695,-229.828649
1473.198008,4219.173869,-6365.771101,-1762.019645
1473.198337,5551.544565,-7328.038826,-459.657299
1473.198666,7402.059420,-7105.977043,919.314598
1473.198995,8290.306550,-7402.059420,1991.848295
1473.199324,9252.574275,-6217.729913,3140.991542
1473.199653,8512.368333,-5033.400406,1378.971896
1473.199982,7179.997637,-5699.585753,1149.143247
1473.200311,7179.997637,-5255.462188,1915.238745
1473.200640,8586.388927,-5329.482782,919.314598
1473.200969,8808.450710,-5551.544565,1072.533697
1473.201298,7179.997637,-5329.482782,995.924147
1473.201627,6883.915261,-5625.565159,-1072.533697
1473.201956,5625.565159,-5995.668130,-1302.362347
1473.202285,5181.441594,-7254.018232,229.828649
1473.202614,6957.935855,-9252.574275,689.485948
1473.202943,8956.491898,-10288.862594,2451.505594
1473.203273,8438.347739,-7772.162391,2987.772442
1473.203602,7105.977043,-6883.915261,2145.067394
1473.203931,7328.038826,-5033.400406,919.314598
1473.204260,5551.544565,-3849.070898,-76.609550
1473.204589,5699.585753,-5995.668130,0.000000
1473.204918,8364.327145,-4515.256246,1225.752797
1473.205247,8216.285956,-5699.585753,1225.752797
1473.205576,6883.915261,-6957.935855,459.657299
1473.205905,5625.565159,-6883.915261,919.314598
1473.206234,5921.647536,-7476.080014,306.438199
1473.206563,5551.544565,-7105.977043,0.000000
1473.206892,5699.585753,-7328.038826,919.314598
1473.207221,7550.100608,-8660.409521,689.485948
1473.207550,8142.265362,-6883.915261,383.047749
1473.207879,7624.121203,-6217.729913,1762.019645
1473.208208,7105.977043,-5329.482782,536.266849
1473.208537,7105.977043,-4219.173869,536.266849
1473.208866,7624.121203,-6217.729913,1838.629195
1473.209195,8142.265362,-6069.688724,1685.410096
1473.209524,7624.121203,-5477.523971,1455.581446
1473.209853,6217.729913,-6439.791695,842.705048
1473.210182,5329.482782,-7105.977043,-1072.533697
1473.210511,5033.400406,-5995.668130,-612.876398
1473.210840,4959.379811,-7846.182985,-306.438199
1473.211169,6439.791695,-8068.244768,306.438199
1473.211498,7550.100608,-6439.791695,1532.190996
1473.211827,7698.141797,-8142.265362,1149.143247
1473.212157,8068.244768,-6217.729913,1991.848295
1473.212486,7772.162391,-5329.482782,2298.286494
1473.212815,7402.059420,-5551.544565,689.485948
1473.213144,7994.224174,-4071.132681,1149.143247
1473.213473,8438.347739,-6143.709319,689.485948
1473.213802,7994.224174,-6439.791695,0.000000
1473.214131,6735.874072,-4663.297435,0.000000
1473.214460,5921.647536,-7920.203579,-1455.581446
1473.214789,5773.606348,-7402.059420,153.219100
1473.215118,6217.729913,-7846.182985,1072.533697
1473.215447,7772.162391,-10955.047942,1915.238745
1473.215776,7476.080014,-8512.368333,2374.896044
1473.216105,7328.038826,-7254.018232,2145.067394
1473.216434,7698.141797,-7031.956449,1608.800546
1473.216763,7550.100608,-3627.009116,1685.410096
1473.217092,7105.977043,-4737.318029,1455.581446
1473.217421,7698.141797,-4071.132681,995.924147
1473.217750,7105.977043,-3478.967927,1225.752797
1473.218079,6439.791695,-5477.523971,919.314598
1473.218408,6143.709319,-7105.977043,0.000000
1473.218737,5773.606348,-6957.935855,536.266849
1473.219066,5847.626942,-8808.450710,919.314598
1473.219395,6809.894666,-9696.697840,1455.581446
1473.219724,7105.977043,-9326.594869,1762.019645
1473.220053,6957.935855,-7772.162391,1532.190996
1473.220382,6365.771101,-6513.812290,0.000000
1473.220711,6587.832884,-5773.606348,536.266849
1473.221041,6587.832884,-5033.400406,1455.581446
1473.221370,8364.327145,-4515.256246,2068.457845
1473.221699,10066.800811,-4367.215058,2604.724693
1473.222028,9548.656652,-4811.338623,2987.772442
1473.222357,7698.141797,-5625.565159,2221.676944
1473.222686,5255.462188,-6143.709319,536.266849
1473.223015,4737.318029,-5699.585753,-766.095498
1473.223344,4811.338623,-7402.059420,0.000000
1473.223673,7105.977043,-8956.491898,1532.190996
1473.224002,8364.327145,-9178.553681,3064.381992
1473.224331,7994.224174,-7994.224174,3294.210641
1473.224660,7031.956449,-6883.915261,1532.190996
1473.224989,5921.647536,-5773.606348,842.705048
1473.225318,5625.565159,-5033.400406,1455.581446
1473.225647,7920.203579,-6143.709319,2298.286494
1473.225976,9400.615463,-5921.647536,3217.601092
1473.226305,8142.265362,-4293.194464,1685.410096
1473.226634,5773.606348,-5329.482782,-919.314598
1473.226963,4145.153275,-6587.832884,153.219100
1473.227292,4737.318029,-6735.874072,-459.657299
1473.227621,5329.482782,-8956.491898,76.609550
1473.227950,6957.935855,-8512.368333,1378.971896
1473.228280,8364.327145,-8512.368333,2451.505594
1473.228609,9178.553681,-8364.327145,2681.334243
1473.228938,7550.100608,-7105.977043,1685.410096
1473.229267,6365.771101,-5477.523971,229.828649
1473.229596,7105.977043,-3923.091493,1072.533697
1473.229925,7698.141797,-5033.400406,995.924147
1473.230255,8142.265362,-4737.318029,1608.800546
1473.230584,6957.935855,-4737.318029,995.924147
1473.230913,6143.709319,-5921.647536,-689.485948
1473.231242,5181.441594,-6143.709319,0.000000
1473.231571,5403.503377,-6883.915261,306.438199
1473.231901,7476.080014,-9548.656652,1149.143247
1473.232230,8512.368333,-8882.471304,2298.286494
1473.232559,7846.182985,-7254.018232,2145.067394
1473.232888,7476.080014,-7105.977043,383.047749
1473.233217,7550.100608,-6217.729913,1378.971896
1473.233546,6883.915261,-5033.400406,1072.533697
1473.233876,7402.059420,-5773.606348,612.876398
1473.234205,7254.018232,-4589.276840,995.924147
1473.234534,7105.977043,-5329.482782,229.828649
1473.234863,7254.018232,-6217.729913,229.828649
1473.235192,6439.791695,-5625.565159,383.047749
1473.235521,5033.400406,-7105.977043,-383.047749
1473.235851,5773.606348,-7031.956449,0.000000
1473.236180,7254.018232,-9252.574275,1149.143247
1473.236509,7698.141797,-8364.327145,383.047749
1473.236838,6957.935855,-7476.080014,1302.362347
1473.237167,7254.018232,-7105.977043,1072.533697
1473.237496,8142.265362,-5699.585753,689.485948
1473.237826,7994.224174,-5551.544565,2451.505594
1473.238155,8290.306550,-5551.544565,2145.067394
1473.238484,8882.471304,-5255.462188,1532.190996
1473.238813,6957.935855,-5255.462188,1149.143247
1473.239142,5181.441594,-5329.482782,-459.657299
1473.239471,4737.318029,-7105.977043,-153.219100
1473.239801,4811.338623,-6587.832884,-459.657299
1473.240130,5773.606348,-7846.182985,306.438199
1473.240459,7105.977043,-9178.553681,459.657299
1473.240788,7846.182985,-8290.306550,1685.410096
1473.241117,7624.121203,-8364.327145,1149.143247
1473.241446,7328.038826,-7105.977043,1685.410096
1473.241776,7031.956449,-6365.771101,1455.581446
1473.242105,8216.285956,-6587.832884,1685.410096
1473.242434,8660.409521,-4367.215058,2451.505594
1473.242763,8586.388927,-5255.462188,1302.362347
1473.243092,7105.977043,-6661.853478,1685.410096
1473.243422,5477.523971,-4811.338623,1072.533697
1473.243751,4663.297435,-4959.379811,-689.485948
1473.244080,4737.318029,-5329.482782,0.000000
1473.244409,6069.688724,-7179.997637,1455.581446
1473.244738,7994.224174,-9104.533087,1378.971896
1473.245067,7550.100608,-8216.285956,1685.410096
1473.245397,7328.038826,-7328.038826,2451.505594
1473.245726,7550.100608,-7624.121203,2145.067394
1473.246055,7179.997637,-5847.626942,766.095498
1473.246384,7179.997637,-5699.585753,2298.286494
1473.246713,8216.285956,-5551.544565,2604.724693
1473.247042,8808.450710,-4219.173869,2298.286494
1473.247372,6069.688724,-5181.441594,2374.896044
1473.247701,4959.379811,-5181.441594,1378.971896
1473.248030,4959.379811,-5477.523971,-306.438199
1473.248359,4515.256246,-6439.791695,459.657299
1473.248688,5625.565159,-7105.977043,1225.752797
1473.249017,7994.224174,-7994.224174,2221.676944
1473.249347,8438.347739,-8290.306550,2604.724693
1473.249676,6883.915261,-7698.141797,1225.752797
1473.250005,6513.812290,-6957.935855,536.266849
1473.250334,7031.956449,-5847.626942,0.000000
1473.250663,7994.224174,-7328.038826,1455.581446
1473.250992,9696.697840,-6661.853478,2987.772442
1473.251322,9326.594869,-5773.606348,2145.067394
1473.251651,6735.874072,-3997.112087,0.000000
1473.251980,4737.318029,-5329.482782,76.609550
1473.252309,4441.235652,-6291.750507,0.000000
1473.252638,5625.565159,-6809.894666,0.000000
1473.252968,8068.244768,-6957.935855,1762.019645
1473.253297,9252.574275,-6661.853478,2298.286494
1473.253626,9474.636058,-7550.100608,2221.676944
1473.253955,7772.162391,-8808.450710,919.314598
1473.254284,5773.606348,-7179.997637,0.000000
1473.254613,6587.832884,-6587.832884,-76.609550
1473.254943,7772.162391,-7105.977043,0.000000
1473.255272,7254.018232,-7105.977043,612.876398
1473.255601,6809.894666,-7105.977043,1072.533697
1473.255930,6439.791695,-5255.462188,-612.876398
1473.256259,4663.297435,-6069.688724,-1149.143247
1473.256588,4737.318029,-5699.585753,-842.705048
1473.256918,6587.832884,-6809.894666,-766.095498
1473.257247,7994.224174,-7402.059420,536.266849
1473.257576,7920.203579,-7254.018232,1378.971896
1473.257905,7402.059420,-6957.935855,-383.047749
1473.258234,6735.874072,-6143.709319,-1225.752797
1473.258563,6143.709319,-6143.709319,-995.924147
1473.258893,7105.977043,-6809.894666,0.000000
1473.259222,8882.471304,-7254.018232,229.828649
1473.259551,8882.471304,-7105.977043,229.828649
1473.259880,7550.100608,-6069.688724,-1838.629195
1473.260209,6883.915261,-6365.771101,-1762.019645
1473.260538,5403.503377,-5477.523971,-842.705048
1473.260868,5107.421000,-4367.215058,-2374.896044
1473.261197,5329.482782,-5181.441594,-2528.115143
1473.261526,6883.915261,-5699.585753,-919.314598
1473.261855,8216.285956,-7698.141797,0.000000
1473.262184,8734.430116,-7920.203579,842.705048
1473.262514,7402.059420,-7031.956449,0.000000
1473.262843,6735.874072,-6661.853478,-766.095498
1473.263172,6809.894666,-6365.771101,-1149.143247
1473.263501,6883.915261,-5403.503377,-1685.410096
1473.263830,7031.956449,-5699.585753,-1225.752797
1473.264159,7920.203579,-6735.874072,-1455.581446
1473.264489,6809.894666,-5699.585753,-2604.724693
1473.264818,5699.585753,-5921.647536,-2145.067394
1473.265147,6809.894666,-7920.203579,-2298.286494
1473.265476,7402.059420,-7846.182985,-2145.067394
1473.265805,6365.771101,-7476.080014,-1685.410096
1473.266134,7105.977043,-7846.182985,-1762.019645
1473.266464,8734.430116,-6661.853478,-1072.533697
1473.266793,7328.038826,-6143.709319,-2221.676944
1473.267122,5921.647536,-6587.832884,-2068.457845
1473.267451,6735.874072,-7254.018232,-1302.362347
1473.267780,7402.059420,-6291.750507,-2298.286494
