#time,accel_x,accel_y,accel_z
1306.507332,6957.935855,-7254.018232,1378.971896
1306.507662,6957.935855,-7031.956449,995.924147
1306.507992,6513.812290,-6513.812290,1149.143247
1306.508322,6439.791695,-6809.894666,995.924147
1306.508652,6587.832884,-6735.874072,459.657299
1306.508982,6883.915261,-7105.977043,1225.752797
1306.509312,6809.894666,-6809.894666,1072.533697
1306.509641,7328.038826,-6661.853478,1455.581446
1306.509971,7254.018232,-6365.771101,1302.362347
1306.510301,7179.997637,-6439.791695,919.314598
1306.510631,6809.894666,-6291.750507,1378.971896
1306.510961,7031.956449,-6439.791695,919.314598
1306.511291,6735.874072,-6587.832884,919.314598
1306.511620,6809.894666,-6587.832884,1149.143247
1306.511950,7105.977043,-6661.853478,1149.143247
1306.512280,7105.977043,-6513.812290,995.924147
1306.512610,6883.915261,-6365.771101,1302.362347
1306.512940,6809.894666,-6587.832884,842.705048
1306.513270,6365.771101,-6883.915261,1149.143247
1306.513600,6513.812290,-7105.977043,1302.362347
1306.513929,6661.853478,-6809.894666,919.314598
1306.514259,7105.977043,-6957.935855,1302.362347
1306.514589,7105.977043,-7179.997637,1072.533697
1306.514919,7105.977043,-6439.791695,766.095498
1306.515249,6957.935855,-6883.915261,689.485948
1306.515579,6513.812290,-6957.935855,1072.533697
1306.515908,7105.977043,-6809.894666,1072.533697
1306.516238,7105.977043,-6735.874072,766.095498
1306.516568,7328.038826,-6143.709319,766.095498
1306.516898,7402.059420,-6439.791695,919.314598
1306.517228,7328.038826,-6291.750507,919.314598
1306.517558,7254.018232,-6217.729913,995.924147
1306.517887,7179.997637,-6217.729913,1378.971896
1306.518217,7550.100608,-5699.585753,1225.752797
1306.518547,7105.977043,-6439.791695,995.924147
1306.518877,7105.977043,-6661.853478,995.924147
1306.519207,7105.977043,-6291.750507,1225.752797
1306.519537,7772.162391,-5847.626942,536.266849
1306.519867,7254.018232,-5921.647536,1072.533697
1306.520196,7031.956449,-6513.812290,1225.752797
1306.520526,6883.915261,-6513.812290,919.314598
1306.520856,6661.853478,-6587.832884,995.924147
1306.521186,6587.832884,-6809.894666,842.705048
1306.521516,6735.874072,-6513.812290,995.924147
1306.521846,6883.915261,-6809.894666,1225.752797
1306.522175,6735.874072,-6809.894666,689.485948
1306.522505,6809.894666,-7105.977043,1685.410096
1306.522835,7031.956449,-6735.874072,919.314598
1306.523165,7031.956449,-7031.956449,995.924147
1306.523495,6957.935855,-6809.894666,1378.971896
1306.523825,6957.935855,-6513.812290,995.924147
1306.524155,6957.935855,-7105.977043,1532.190996
1306.524484,7179.997637,-6439.791695,1302.362347
1306.524814,7105.977043,-6513.812290,1149.143247
1306.525144,7254.018232,-6661.853478,1225.752797
1306.525474,6513.812290,-6069.688724,1378.971896
1306.525804,7031.956449,-6587.832884,842.705048
1306.526134,6661.853478,-6661.853478,1149.143247
1306.526463,6661.853478,-6365.771101,1225.752797
1306.526793,7105.977043,-6439.791695,1072.533697
1306.527123,6883.915261,-6069.688724,1149.143247
1306.527453,7031.956449,-6439.791695,689.485948
1306.527783,6883.915261,-6809.894666,1072.533697
1306.528113,6513.812290,-6883.915261,1225.752797
1306.528442,6513.812290,-6661.853478,842.705048
1306.528772,6809.894666,-6513.812290,1532.190996
1306.529102,6587.832884,-6587.832884,1149.143247
1306.529432,7031.956449,-7402.059420,1149.143247
1306.529762,7031.956449,-6587.832884,919.314598
1306.530092,7179.997637,-6809.894666,919.314598
1306.530422,7105.977043,-6809.894666,536.266849
1306.530751,7031.956449,-6735.874072,919.314598
1306.531081,7254.018232,-6735.874072,995.924147
1306.531411,7402.059420,-6661.853478,536.266849
1306.531741,7698.141797,-6291.750507,1149.143247
1306.532071,7254.018232,-6143.709319,1072.533697
1306.532401,7254.018232,-6069.688724,919.314598
1306.532730,7476.080014,-6069.688724,1225.752797
1306.533060,7402.059420,-6587.832884,766.095498
1306.533390,7105.977043,-6217.729913,612.876398
1306.533720,6957.935855,-6587.832884,919.314598
1306.534050,7328.038826,-6217.729913,842.705048
1306.534380,7105.977043,-5995.668130,1072.533697
1306.534709,7105.977043,-5847.626942,1072.533697
1306.535039,6735.874072,-6513.812290,459.657299
1306.535369,6957.935855,-6957.935855,1455.581446
1306.535699,6439.791695,-6883.915261,995.924147
1306.536029,6513.812290,-6513.812290,1072.533697
1306.536359,6883.915261,-6291.750507,1838.629195
1306.536689,6957.935855,-7179.997637,995.924147
1306.537018,6661.853478,-6661.853478,766.095498
1306.537348,6513.812290,-6513.812290,689.485948
1306.537678,6661.853478,-6365.771101,612.876398
1306.538008,7105.977043,-6291.750507,1072.533697
1306.538338,7328.038826,-6217.729913,1072.533697
1306.538668,7254.018232,-7105.977043,919.314598
1306.538997,7254.018232,-6365.771101,766.095498
1306.539327,7624.121203,-6883.915261,1225.752797
1306.539657,7179.997637,-6587.832884,1149.143247
1306.539987,7105.977043,-6513.812290,1225.752797
1306.540317,6883.915261,-6661.853478,919.314598
1306.540647,6217.729913,-6883.915261,1762.019645
1306.540977,6513.812290,-7031.956449,1072.533697
1306.541306,7105.977043,-6439.791695,1225.752797
1306.541636,6883.915261,-6217.729913,1225.752797
1306.541966,7031.956449,-6143.709319,919.314598
1306.542296,6587.832884,-6735.874072,1072.533697
1306.542626,7031.956449,-6661.853478,1455.581446
1306.542956,6513.812290,-6661.853478,842.705048
1306.543285,6439.791695,-6809.894666,766.095498
1306.543615,6735.874072,-7254.018232,1225.752797
1306.543945,7105.977043,-7179.997637,612.876398
1306.544275,6809.894666,-7031.956449,842.705048
1306.544605,6735.874072,-7105.977043,1149.143247
1306.544935,6883.915261,-6735.874072,919.314598
1306.545264,7031.956449,-6587.832884,689.485948
1306.545594,6883.915261,-6291.750507,1149.143247
1306.545924,7105.977043,-6513.812290,1225.752797
1306.546254,7328.038826,-5921.647536,1072.533697
1306.546584,7031.956449,-5847.626942,1149.143247
1306.546914,7105.977043,-5847.626942,1838.629195
1306.547244,7328.038826,-6217.729913,1149.143247
1306.547573,7254.018232,-6291.750507,536.266849
1306.547903,6883.915261,-6365.771101,919.314598
1306.548233,7254.018232,-6883.915261,1072.533697
1306.548563,7328.038826,-6217.729913,919.314598
1306.548893,7476.080014,-6439.791695,1149.143247
1306.549223,7179.997637,-6069.688724,1149.143247
1306.549552,7105.977043,-6365.771101,766.095498
1306.549882,7105.977043,-6587.832884,1072.533697
1306.550212,6883.915261,-6513.812290,1149.143247
1306.550542,6883.915261,-6661.853478,1072.533697
1306.550872,6809.894666,-6513.812290,1072.533697
1306.551202,6809.894666,-7550.100608,1225.752797
1306.551532,6957.935855,-6957.935855,689.485948
1306.551861,6587.832884,-6957.935855,689.485948
1306.552191,6809.894666,-7031.956449,1072.533697
1306.552521,7031.956449,-6883.915261,1072.533697
1306.552851,7105.977043,-6587.832884,1302.362347
1306.553181,7328.038826,-6883.915261,689.485948
1306.553511,7920.203579,-6809.894666,995.924147
1306.553840,7179.997637,-6439.791695,995.924147
1306.554170,7031.956449,-6661.853478,1149.143247
1306.554500,6883.915261,-5699.585753,919.314598
1306.554830,7031.956449,-6513.812290,919.314598
1306.555160,6957.935855,-6735.874072,1455.581446
1306.555490,6735.874072,-6587.832884,995.924147
1306.555819,7179.997637,-6513.812290,612.876398
1306.556149,6735.874072,-6587.832884,1072.533697
1306.556479,6661.853478,-6291.750507,1225.752797
1306.556809,6809.894666,-6809.894666,1072.533697
1306.557139,6809.894666,-6661.853478,1302.362347
1306.557469,7031.956449,-6809.894666,1149.143247
1306.557799,6365.771101,-6439.791695,1149.143247
1306.558128,6365.771101,-6513.812290,1149.143247
1306.558458,6513.812290,-6661.853478,995.924147
1306.558788,7031.956449,-6957.935855,1532.190996
1306.559118,7105.977043,-7105.977043,1149.143247
1306.559448,6661.853478,-6587.832884,919.314598
1306.559778,7105.977043,-6957.935855,919.314598
1306.560107,7031.956449,-6735.874072,919.314598
1306.560437,7179.997637,-6365.771101,1302.362347
1306.560767,7105.977043,-6513.812290,995.924147
1306.561097,7550.100608,-5921.647536,995.924147
1306.561427,7402.059420,-6291.750507,766.095498
1306.561757,7254.018232,-6143.709319,1455.581446
1306.562086,7550.100608,-6143.709319,919.314598
1306.562416,7179.997637,-6069.688724,1072.533697
1306.562746,7031.956449,-6365.771101,1072.533697
1306.563076,6735.874072,-6439.791695,842.705048
1306.563406,7179.997637,-5773.606348,919.314598
1306.563736,7105.977043,-6217.729913,842.705048
1306.564066,6883.915261,-6587.832884,1149.143247
1306.564395,7105.977043,-6365.771101,1149.143247
1306.564725,6957.935855,-6735.874072,1225.752797
1306.565055,6587.832884,-6217.729913,995.924147
1306.565385,6513.812290,-6661.853478,1072.533697
1306.565715,6809.894666,-6957.935855,1149.143247
1306.566045,6957.935855,-6735.874072,842.705048
1306.566374,6809.894666,-6661.853478,459.657299
1306.566704,6809.894666,-7179.997637,1149.143247
1306.567034,7031.956449,-6883.915261,995.924147
1306.567364,7031.956449,-6513.812290,995.924147
1306.567694,6957.935855,-6809.894666,919.314598
1306.568024,7328.038826,-6661.853478,766.095498
1306.568354,7328.038826,-6587.832884,995.924147
1306.568683,7105.977043,-6513.812290,689.485948
1306.569013,6587.832884,-6069.688724,1149.143247
1306.569343,7254.018232,-5773.606348,1225.752797
1306.569673,6957.935855,-5847.626942,1455.581446
1306.570003,6883.915261,-6513.812290,995.924147
1306.570333,6809.894666,-6809.894666,1072.533697
1306.570662,7105.977043,-6365.771101,919.314598
1306.570992,7031.956449,-6439.791695,1149.143247
1306.571322,6809.894666,-6661.853478,689.485948
1306.571652,6735.874072,-7031.956449,612.876398
1306.571982,6439.791695,-6957.935855,1225.752797
1306.572312,6809.894666,-6661.853478,1072.533697
1306.572641,6809.894666,-6809.894666,536.266849
1306.572971,6661.853478,-6587.832884,1225.752797
1306.573301,6883.915261,-7105.977043,919.314598
1306.573631,6809.894666,-6809.894666,689.485948
1306.573961,6513.812290,-6587.832884,1225.752797
1306.574291,6735.874072,-6587.832884,383.047749
1306.574621,6809.894666,-6661.853478,1149.143247
1306.574950,6957.935855,-6587.832884,842.705048
1306.575280,7105.977043,-6735.874072,1225.752797
1306.575610,7476.080014,-6069.688724,766.095498
1306.575940,7179.997637,-6291.750507,612.876398
1306.576270,7105.977043,-6439.791695,1149.143247
1306.576599,7328.038826,-6143.709319,995.924147
1306.576929,7179.997637,-5995.668130,1072.533697
1306.577258,6587.832884,-6069.688724,1685.410096
1306.577588,6957.935855,-6439.791695,1378.971896
1306.577917,7031.956449,-5995.668130,919.314598
1306.578247,7105.977043,-6069.688724,1149.143247
1306.578576,7105.977043,-6439.791695,536.266849
1306.578906,7105.977043,-6513.812290,919.314598
1306.579235,7105.977043,-6661.853478,919.314598
1306.579565,7031.956449,-6957.935855,919.314598
1306.579894,6735.874072,-6365.771101,919.314598
1306.580224,7105.977043,-6587.832884,1608.800546
1306.580553,6883.915261,-6735.874072,766.095498
1306.580883,6957.935855,-7031.956449,766.095498
1306.581212,6661.853478,-6735.874072,842.705048
1306.581542,7476.080014,-7031.956449,536.266849
1306.581871,6809.894666,-6439.791695,995.924147
1306.582201,6957.935855,-6513.812290,919.314598
1306.582530,7179.997637,-7031.956449,1149.143247
1306.582860,7254.018232,-6439.791695,1455.581446
1306.583189,7105.977043,-6661.853478,612.876398
1306.583519,6957.935855,-6217.729913,1685.410096
1306.583848,7105.977043,-6291.750507,1302.362347
1306.584178,7328.038826,-6587.832884,842.705048
1306.584507,6883.915261,-6587.832884,1149.143247
1306.584837,6883.915261,-7105.977043,842.705048
1306.585166,6809.894666,-6587.832884,842.705048
1306.585496,7105.977043,-6217.729913,995.924147
1306.585825,6587.832884,-6957.935855,1225.752797
1306.586155,6365.771101,-6883.915261,1762.019645
1306.586484,6809.894666,-6883.915261,1149.143247
1306.586814,6661.853478,-6661.853478,1072.533697
1306.587143,6291.750507,-6809.894666,842.705048
1306.587473,7031.956449,-6587.832884,1072.533697
1306.587802,7179.997637,-6735.874072,1072.533697
1306.588132,6883.915261,-7031.956449,766.095498
1306.588461,6957.935855,-6439.791695,1149.143247
1306.588791,7031.956449,-7031.956449,766.095498
1306.589120,7031.956449,-6735.874072,1072.533697
1306.589450,6883.915261,-6439.791695,1072.533697
1306.589779,7105.977043,-6735.874072,612.876398
1306.590109,7254.018232,-6439.791695,1149.143247
1306.590438,7105.977043,-6513.812290,766.095498
1306.590767,7920.203579,-6513.812290,1072.533697
1306.591097,7179.997637,-5847.626942,1378.971896
1306.591426,7476.080014,-6291.750507,766.095498
1306.591756,7105.977043,-6291.750507,1072.533697
1306.592085,6883.915261,-6439.791695,1225.752797
1306.592415,7105.977043,-6291.750507,689.485948
1306.592744,6735.874072,-6513.812290,1149.143247
1306.593074,6883.915261,-6439.791695,1072.533697
1306.593403,6809.894666,-6587.832884,842.705048
1306.593733,6809.894666,-6365.771101,2068.457845
1306.594062,6735.874072,-6513.812290,1302.362347
1306.594392,6735.874072,-6735.874072,995.924147
1306.594721,6735.874072,-6661.853478,1149.143247
1306.595051,6661.853478,-6883.915261,842.705048
1306.595380,7031.956449,-6291.750507,1149.143247
1306.595710,6809.894666,-6587.832884,1072.533697
1306.596039,6809.894666,-6587.832884,919.314598
1306.596369,7105.977043,-6809.894666,766.095498
1306.596698,7550.100608,-6957.935855,612.876398
1306.597028,7179.997637,-6587.832884,842.705048
1306.597357,7105.977043,-6661.853478,1302.362347
1306.597687,7031.956449,-6587.832884,995.924147
1306.598016,7105.977043,-6513.812290,919.314598
1306.598346,7179.997637,-5477.523971,1685.410096
1306.598675,7105.977043,-6513.812290,919.314598
1306.599005,6809.894666,-6439.791695,919.314598
1306.599334,6735.874072,-6439.791695,1225.752797
1306.599664,7105.977043,-6291.750507,766.095498
1306.599993,7105.977043,-5921.647536,1532.190996
1306.600323,6735.874072,-6069.688724,995.924147
1306.600652,6809.894666,-6661.853478,842.705048
1306.600982,6809.894666,-6735.874072,919.314598
1306.601311,6735.874072,-7105.977043,459.657299
1306.601641,6957.935855,-6883.915261,919.314598
1306.601970,6735.874072,-6365.771101,1149.143247
1306.602300,6661.853478,-7031.956449,1455.581446
1306.602629,6735.874072,-7031.956449,995.924147
1306.602959,6513.812290,-7031.956449,919.314598
1306.603288,6957.935855,-6809.894666,995.924147
1306.603618,7179.997637,-6513.812290,1072.533697
1306.603947,6957.935855,-6291.750507,1225.752797
1306.604277,6809.894666,-6587.832884,1455.581446
1306.604606,7105.977043,-6291.750507,1302.362347
1306.604936,7328.038826,-6439.791695,1149.143247
1306.605265,7105.977043,-6661.853478,1225.752797
1306.605595,7476.080014,-5847.626942,1685.410096
1306.605924,7920.203579,-6217.729913,1608.800546
1306.606254,7105.977043,-6513.812290,1225.752797
1306.606583,6957.935855,-6291.750507,1149.143247
1306.606913,7105.977043,-6217.729913,842.705048
1306.607242,7031.956449,-6809.894666,766.095498
1306.607572,6513.812290,-5551.544565,1225.752797
1306.607901,6735.874072,-7105.977043,919.314598
1306.608231,6883.915261,-6661.853478,1149.143247
1306.608560,6809.894666,-6661.853478,1149.143247
1306.608890,6809.894666,-7179.997637,766.095498
1306.609219,6883.915261,-6883.915261,919.314598
1306.609549,7105.977043,-6883.915261,1149.143247
1306.609878,7031.956449,-7031.956449,1149.143247
1306.610208,6513.812290,-6587.832884,995.924147
1306.610537,6957.935855,-6587.832884,612.876398
1306.610867,7105.977043,-6735.874072,919.314598
1306.611196,6957.935855,-6587.832884,1302.362347
1306.611526,7254.018232,-6439.791695,842.705048
1306.611855,7402.059420,-6217.729913,1378.971896
1306.612185,7105.977043,-6291.750507,842.705048
1306.612514,6957.935855,-6365.771101,689.485948
1306.612844,7105.977043,-6069.688724,842.705048
1306.613173,7179.997637,-6291.750507,919.314598
1306.613503,7772.162391,-6069.688724,1532.190996
1306.613832,6957.935855,-6735.874072,1072.533697
1306.614162,7031.956449,-6661.853478,766.095498
1306.614491,7105.977043,-6661.853478,995.924147
1306.614821,7031.956449,-6809.894666,1608.800546
1306.615150,7031.956449,-6587.832884,919.314598
1306.615480,6883.915261,-6957.935855,842.705048
1306.615809,6661.853478,-7031.956449,1455.581446
1306.616139,6513.812290,-6809.894666,1072.533697
1306.616468,6291.750507,-6143.709319,1072.533697
1306.616798,6661.853478,-6735.874072,1149.143247
1306.617127,6809.894666,-6587.832884,612.876398
1306.617457,6513.812290,-7031.956449,842.705048
1306.617786,6661.853478,-7105.977043,766.095498
1306.618116,6883.915261,-6217.729913,689.485948
1306.618445,7105.977043,-6439.791695,1072.533697
1306.618774,7254.018232,-6809.894666,766.095498
1306.619104,7328.038826,-6513.812290,1072.533697
1306.619433,7698.141797,-6365.771101,1149.143247
1306.619763,7105.977043,-6735.874072,766.095498
1306.620092,7105.977043,-6291.750507,1072.533697
1306.620422,7105.977043,-6143.709319,689.485948
1306.620751,7105.977043,-6439.791695,995.924147
1306.621081,6809.894666,-6069.688724,1302.362347
1306.621410,6957.935855,-6291.750507,1149.143247
1306.621740,7328.038826,-6143.709319,1455.581446
1306.622069,6957.935855,-6143.709319,995.924147
1306.622399,6513.812290,-5995.668130,1149.143247
1306.622728,6957.935855,-6883.915261,1455.581446
1306.623058,7031.956449,-6883.915261,1149.143247
1306.623387,7105.977043,-6513.812290,766.095498
1306.623717,6735.874072,-6587.832884,995.924147
1306.624046,7105.977043,-6587.832884,1762.019645
1306.624376,6957.935855,-7105.977043,1072.533697
1306.624705,6587.832884,-7105.977043,766.095498
1306.625035,6513.812290,-6809.894666,1225.752797
1306.625364,7105.977043,-5921.647536,919.314598
1306.625694,7772.162391,-5847.626942,612.876398
1306.626023,8068.244768,-5477.523971,995.924147
1306.626353,8438.347739,-5773.606348,1302.362347
1306.626682,8290.306550,-5625.565159,1149.143247
1306.627012,7402.059420,-5625.565159,919.314598
1306.627341,6365.771101,-7550.100608,153.219100
1306.627671,6365.771101,-7105.977043,536.266849
1306.628000,7105.977043,-6883.915261,766.095498
1306.628330,7920.203579,-6365.771101,1455.581446
1306.628659,7846.182985,-5699.585753,2374.896044
1306.628989,8512.368333,-4811.338623,1455.581446
1306.629318,7920.203579,-3627.009116,1072.533697
1306.629648,7772.162391,-4515.256246,1455.581446
1306.629977,7772.162391,-4293.194464,1532.190996
1306.630307,8364.327145,-4737.318029,1608.800546
1306.630636,8586.388927,-4589.276840,1608.800546
1306.630966,7994.224174,-4441.235652,766.095498
1306.631295,7772.162391,-5551.544565,995.924147
1306.631625,8364.327145,-4219.173869,536.266849
1306.631954,8364.327145,-5995.668130,766.095498
1306.632284,8364.327145,-6291.750507,1532.190996
1306.632613,8290.306550,-5551.544565,383.047749
1306.632943,7624.121203,-5699.585753,306.438199
1306.633272,7772.162391,-5033.400406,995.924147
1306.633602,8068.244768,-5995.668130,919.314598
1306.633931,8586.388927,-5181.441594,1455.581446
1306.634261,8438.347739,-4885.359217,1072.533697
1306.634590,8216.285956,-4441.235652,1455.581446
1306.634920,9178.553681,-3552.988522,1455.581446
1306.635249,9474.636058,-3701.029710,1455.581446
1306.635579,9918.759623,-2590.720797,1072.533697
1306.635908,9770.718434,-3256.906145,1532.190996
1306.636238,10214.842000,-3404.947333,2145.067394
1306.636567,10066.800811,-3404.947333,1532.190996
1306.636897,9474.636058,-5033.400406,1455.581446
1306.637226,8734.430116,-4959.379811,842.705048
1306.637556,9104.533087,-5921.647536,1608.800546
1306.637885,8882.471304,-5181.441594,1532.190996
1306.638215,8216.285956,-5329.482782,1149.143247
1306.638544,7402.059420,-5181.441594,1225.752797
1306.638874,7772.162391,-4515.256246,689.485948
1306.639203,8216.285956,-4293.194464,76.609550
1306.639533,7994.224174,-4219.173869,612.876398
1306.639862,8438.347739,-4663.297435,153.219100
1306.640192,8734.430116,-4441.235652,612.876398
1306.640521,9400.615463,-4737.318029,306.438199
1306.640851,9696.697840,-5921.647536,766.095498
1306.641180,9252.574275,-4959.379811,76.609550
1306.641510,8882.471304,-5995.668130,76.609550
1306.641839,8882.471304,-5181.441594,0.000000
1306.642169,9696.697840,-4145.153275,1225.752797
1306.642498,10140.821405,-4515.256246,766.095498
1306.642828,10436.903782,-3552.988522,1685.410096
1306.643157,9770.718434,-3404.947333,1838.629195
1306.643487,9622.677246,-2368.659014,1608.800546
1306.643816,9030.512492,-2738.761985,2145.067394
1306.644146,9178.553681,-2886.803174,1915.238745
1306.644475,9178.553681,-3330.926739,1608.800546
1306.644805,9252.574275,-3627.009116,1915.238745
1306.645134,9400.615463,-3552.988522,1532.190996
1306.645464,9030.512492,-3849.070898,1608.800546
1306.645793,9178.553681,-4145.153275,689.485948
1306.646122,8586.388927,-4737.318029,76.609550
1306.646452,8216.285956,-5403.503377,-459.657299
1306.646781,7994.224174,-5477.523971,-536.266849
1306.647111,8438.347739,-6365.771101,0.000000
1306.647440,9252.574275,-5847.626942,383.047749
1306.647770,9770.718434,-5107.421000,1149.143247
1306.648099,9178.553681,-5699.585753,1378.971896
1306.648429,9622.677246,-5329.482782,2298.286494
1306.648758,8882.471304,-5329.482782,1991.848295
1306.649088,8290.306550,-4219.173869,1685.410096
1306.649417,8364.327145,-3923.091493,1991.848295
1306.649747,9030.512492,-3034.844362,1685.410096
1306.650076,9548.656652,-2220.617826,1378.971896
1306.650406,9696.697840,-2368.659014,1149.143247
1306.650735,10066.800811,-1998.556043,612.876398
1306.651065,10214.842000,-2664.741391,383.047749
1306.651394,10214.842000,-3478.967927,383.047749
1306.651724,9178.553681,-4071.132681,0.000000
1306.652053,8364.327145,-6365.771101,0.000000
1306.652383,8068.244768,-7179.997637,229.828649
1306.652712,8290.306550,-8290.306550,1378.971896
1306.653042,7624.121203,-8660.409521,1762.019645
1306.653371,7105.977043,-8882.471304,1762.019645
1306.653701,6587.832884,-8586.388927,689.485948
1306.654030,5255.462188,-7179.997637,-306.438199
1306.654360,5329.482782,-6291.750507,536.266849
1306.654689,6883.915261,-5551.544565,229.828649
1306.655019,8364.327145,-4071.132681,1149.143247
1306.655348,9252.574275,-3034.844362,1685.410096
1306.655678,9844.739029,-1998.556043,1378.971896
1306.656007,9918.759623,-2220.617826,1072.533697
1306.656337,10436.903782,-1850.514855,919.314598
1306.656666,11621.233289,-2146.597232,1302.362347
1306.656996,11843.295072,-2368.659014,1302.362347
1306.657325,11103.089130,-3034.844362,1608.800546
1306.657655,9770.718434,-4663.297435,2221.676944
1306.657984,8808.450710,-6365.771101,1838.629195
1306.658314,7254.018232,-7328.038826,1532.190996
1306.658643,5551.544565,-7402.059420,1302.362347
1306.658973,4663.297435,-7994.224174,383.047749
1306.659302,3997.112087,-8956.491898,76.609550
1306.659632,4663.297435,-8734.430116,459.657299
1306.659961,5107.421000,-8216.285956,0.000000
1306.660291,5921.647536,-6957.935855,-229.828649
1306.660620,6439.791695,-7105.977043,842.705048
1306.660950,7624.121203,-6661.853478,689.485948
1306.661279,7698.141797,-5033.400406,995.924147
1306.661609,8216.285956,-4737.318029,689.485948
1306.661938,9474.636058,-3478.967927,1072.533697
1306.662268,10955.047942,-3404.947333,1838.629195
1306.662597,11103.089130,-3997.112087,2298.286494
1306.662927,10362.883188,-4515.256246,2298.286494
1306.663256,9252.574275,-5181.441594,1838.629195
1306.663586,7402.059420,-6069.688724,1762.019645
1306.663915,6365.771101,-7402.059420,1225.752797
1306.664245,4811.338623,-7105.977043,229.828649
1306.664574,4071.132681,-7550.100608,-76.609550
1306.664904,4219.173869,-8290.306550,612.876398
1306.665233,4885.359217,-7920.203579,229.828649
1306.665563,5995.668130,-7476.080014,459.657299
1306.665892,6883.915261,-5847.626942,689.485948
1306.666222,7179.997637,-5477.523971,383.047749
1306.666551,7994.224174,-5181.441594,612.876398
1306.666881,8364.327145,-5329.482782,1225.752797
1306.667210,8808.450710,-5033.400406,1608.800546
1306.667540,9548.656652,-4515.256246,1915.238745
1306.667869,10288.862594,-4885.359217,2451.505594
1306.668199,9548.656652,-6217.729913,2757.943793
1306.668528,8290.306550,-6587.832884,2987.772442
1306.668858,6735.874072,-7031.956449,1838.629195
1306.669187,5107.421000,-7105.977043,459.657299
1306.669517,4071.132681,-8660.409521,536.266849
1306.669846,3256.906145,-9918.759623,0.000000
1306.670176,3108.864956,-9696.697840,76.609550
1306.670505,3849.070898,-8586.388927,153.219100
1306.670835,4885.359217,-6883.915261,153.219100
1306.671164,6809.894666,-5107.421000,1072.533697
1306.671494,8142.265362,-4219.173869,1225.752797
1306.671823,9400.615463,-3923.091493,995.924147
1306.672153,9770.718434,-3627.009116,1302.362347
1306.672482,10214.842000,-4219.173869,1838.629195
1306.672812,10288.862594,-5255.462188,1915.238745
1306.673141,9474.636058,-7031.956449,2451.505594
1306.673470,7772.162391,-7772.162391,2298.286494
1306.673800,6143.709319,-8956.491898,1991.848295
1306.674129,5033.400406,-8956.491898,612.876398
1306.674459,4071.132681,-9474.636058,0.000000
1306.674788,4293.194464,-9474.636058,-229.828649
1306.675118,3701.029710,-9104.533087,-919.314598
1306.675447,3627.009116,-8068.244768,-383.047749
1306.675777,4071.132681,-7254.018232,306.438199
1306.676106,5477.523971,-5921.647536,229.828649
1306.676436,7105.977043,-5255.462188,689.485948
1306.676765,8734.430116,-3404.947333,995.924147
1306.677095,9992.780217,-3627.009116,2068.457845
1306.677424,10955.047942,-4515.256246,2681.334243
1306.677754,10584.944971,-4367.215058,2987.772442
1306.678083,9770.718434,-5773.606348,2145.067394
1306.678413,8142.265362,-5773.606348,1302.362347
1306.678742,6735.874072,-8068.244768,1378.971896
1306.679072,5847.626942,-9622.677246,1072.533697
1306.679401,4737.318029,-9992.780217,689.485948
1306.679730,4367.215058,-9622.677246,76.609550
1306.680060,4219.173869,-7920.203579,76.609550
1306.680389,4219.173869,-7254.018232,-229.828649
1306.680718,4071.132681,-6365.771101,0.000000
1306.681048,5255.462188,-4737.318029,153.219100
1306.681377,7402.059420,-3923.091493,536.266849
1306.681706,9696.697840,-2294.638420,1455.581446
1306.682035,10658.965565,-3404.947333,2451.505594
1306.682365,10732.986159,-3849.070898,2681.334243
1306.682694,10066.800811,-5181.441594,2451.505594
1306.683023,9400.615463,-6143.709319,2221.676944
1306.683353,8438.347739,-7994.224174,2068.457845
1306.683682,7698.141797,-8290.306550,1838.629195
1306.684011,6587.832884,-8438.347739,919.314598
1306.684341,5255.462188,-8734.430116,459.657299
1306.684670,4515.256246,-8734.430116,0.000000
1306.684999,4219.173869,-8142.265362,0.000000
1306.685329,3997.112087,-7476.080014,-383.047749
1306.685658,4515.256246,-5625.565159,-919.314598
1306.685987,4885.359217,-5107.421000,-306.438199
1306.686317,6513.812290,-5403.503377,-383.047749
1306.686646,8660.409521,-4959.379811,766.095498
1306.686975,10584.944971,-4367.215058,2757.943793
1306.687305,11991.336260,-4219.173869,3064.381992
1306.687634,10955.047942,-5181.441594,3064.381992
1306.687963,9178.553681,-6439.791695,3140.991542
1306.688293,7105.977043,-8216.285956,1685.410096
1306.688622,5995.668130,-8586.388927,766.095498
1306.688951,4737.318029,-9474.636058,536.266849
1306.689281,4441.235652,-9770.718434,536.266849
1306.689610,4219.173869,-9104.533087,995.924147
1306.689939,4219.173869,-7920.203579,306.438199
1306.690269,4071.132681,-6365.771101,-459.657299
1306.690598,3627.009116,-4959.379811,0.000000
1306.690927,5699.585753,-4959.379811,76.609550
1306.691257,7550.100608,-4219.173869,306.438199
1306.691586,9326.594869,-3108.864956,1532.190996
1306.691915,11769.274478,-3330.926739,2451.505594
1306.692245,12805.562797,-4811.338623,3524.039291
1306.692574,11695.253884,-6439.791695,3524.039291
1306.692903,8956.491898,-8068.244768,2528.115143
1306.693233,7105.977043,-8364.327145,1838.629195
1306.693562,5773.606348,-8512.368333,383.047749
1306.693891,5255.462188,-9400.615463,612.876398
1306.694220,4589.276840,-8290.306550,689.485948
1306.694550,4441.235652,-7772.162391,0.000000
1306.694879,4367.215058,-6217.729913,0.000000
1306.695208,3701.029710,-4737.318029,-842.705048
1306.695538,3775.050304,-5107.421000,-1149.143247
1306.695867,5551.544565,-4959.379811,-536.266849
1306.696196,8142.265362,-3997.112087,1225.752797
1306.696526,10584.944971,-3701.029710,2221.676944
1306.696855,12139.377449,-3997.112087,3600.648841
1306.697184,11621.233289,-4811.338623,3217.601092
1306.697514,9252.574275,-7105.977043,2528.115143
1306.697843,6809.894666,-9326.594869,1455.581446
1306.698172,5255.462188,-10214.842000,1685.410096
1306.698502,4589.276840,-10881.027347,383.047749
1306.698831,4219.173869,-10140.821405,383.047749
1306.699160,4367.215058,-9844.739029,306.438199
1306.699490,4737.318029,-7994.224174,383.047749
1306.699819,4663.297435,-5477.523971,0.000000
1306.700148,4663.297435,-4737.318029,-1149.143247
1306.700478,6143.709319,-3182.885551,-383.047749
1306.700807,7624.121203,-2738.761985,0.000000
1306.701136,9326.594869,-2960.823768,689.485948
1306.701466,10732.986159,-3923.091493,2528.115143
1306.701795,11695.253884,-4737.318029,2987.772442
1306.702124,10732.986159,-6735.874072,2987.772442
1306.702454,8734.430116,-8512.368333,2528.115143
1306.702783,6809.894666,-9992.780217,1991.848295
1306.703112,5551.544565,-10584.944971,842.705048
1306.703442,4811.338623,-10362.883188,306.438199
1306.703771,4145.153275,-9178.553681,0.000000
1306.704100,4145.153275,-7846.182985,153.219100
1306.704430,5181.441594,-6883.915261,0.000000
1306.704759,4441.235652,-6069.688724,0.000000
1306.705088,4737.318029,-4145.153275,-383.047749
1306.705418,6143.709319,-3182.885551,-153.219100
1306.705747,8512.368333,-2368.659014,229.828649
1306.706076,10732.986159,-2664.741391,2298.286494
1306.706406,12509.480420,-3330.926739,3294.210641
1306.706735,11917.315666,-4737.318029,3140.991542
1306.707064,9548.656652,-7105.977043,2451.505594
1306.707393,6735.874072,-8734.430116,1685.410096
1306.707723,5403.503377,-10658.965565,689.485948
1306.708052,4737.318029,-11399.171507,612.876398
1306.708381,4589.276840,-11325.150913,995.924147
1306.708711,4737.318029,-9326.594869,842.705048
1306.709040,4885.359217,-7402.059420,459.657299
1306.709369,4589.276840,-6217.729913,0.000000
1306.709699,4663.297435,-4959.379811,-383.047749
1306.710028,5033.400406,-3256.906145,-842.705048
1306.710357,6661.853478,-2664.741391,459.657299
1306.710687,9178.553681,-2442.679609,1302.362347
1306.711016,11325.150913,-2812.782580,2451.505594
1306.711345,11843.295072,-3849.070898,2987.772442
1306.711675,11177.109724,-6217.729913,4136.915689
1306.712004,9400.615463,-7772.162391,2681.334243
1306.712333,6809.894666,-9178.553681,1302.362347
1306.712663,4515.256246,-11177.109724,0.000000
1306.712992,4071.132681,-11473.192101,153.219100
1306.713321,4441.235652,-10066.800811,0.000000
1306.713651,4663.297435,-8660.409521,306.438199
1306.713980,5181.441594,-6513.812290,229.828649
1306.714309,5551.544565,-4885.359217,153.219100
1306.714639,6069.688724,-4145.153275,0.000000
1306.714968,6809.894666,-3256.906145,-459.657299
1306.715297,7550.100608,-1702.473667,229.828649
1306.715627,9548.656652,-2294.638420,1149.143247
1306.715956,11399.171507,-3923.091493,2451.505594
1306.716285,11843.295072,-5255.462188,3830.477490
1306.716615,10140.821405,-7994.224174,2911.162892
1306.716944,8438.347739,-8216.285956,2145.067394
1306.717273,6513.812290,-11251.130318,1915.238745
1306.717603,5107.421000,-11917.315666,919.314598
1306.717932,4071.132681,-11103.089130,919.314598
1306.718261,3182.885551,-10140.821405,0.000000
1306.718591,3256.906145,-7846.182985,-306.438199
1306.718920,3552.988522,-6143.709319,689.485948
1306.719249,4959.379811,-4441.235652,536.266849
1306.719578,6883.915261,-1998.556043,459.657299
1306.719908,8068.244768,-1258.350101,383.047749
1306.720237,9104.533087,-1998.556043,919.314598
1306.720566,10436.903782,-2294.638420,1685.410096
1306.720896,10140.821405,-4145.153275,2528.115143
1306.721225,10066.800811,-6439.791695,1915.238745
1306.721554,8068.244768,-9400.615463,2145.067394
1306.721884,6809.894666,-11547.212695,1838.629195
1306.722213,6365.771101,-11991.336260,1608.800546
1306.722542,5995.668130,-11325.150913,995.924147
1306.722872,4589.276840,-10584.944971,459.657299
1306.723201,4071.132681,-8216.285956,76.609550
1306.723530,3701.029710,-6957.935855,-459.657299
1306.723860,4367.215058,-6365.771101,-612.876398
1306.724189,4737.318029,-4367.215058,229.828649
1306.724518,6069.688724,-2738.761985,-689.485948
1306.724848,7254.018232,-2368.659014,995.924147
1306.725177,9992.780217,-2220.617826,1915.238745
1306.725506,12583.501014,-3182.885551,3447.429741
1306.725836,11843.295072,-3997.112087,3447.429741
1306.726165,9178.553681,-7179.997637,2757.943793
1306.726494,6735.874072,-9178.553681,1302.362347
1306.726824,5625.565159,-11621.233289,612.876398
1306.727153,4737.318029,-13323.706956,1838.629195
1306.727482,4367.215058,-12139.377449,919.314598
1306.727812,4515.256246,-9770.718434,919.314598
1306.728141,4441.235652,-7624.121203,229.828649
1306.728470,4959.379811,-5403.503377,76.609550
1306.728800,5329.482782,-4071.132681,306.438199
1306.729129,5921.647536,-2442.679609,-76.609550
1306.729458,7328.038826,-592.164754,-612.876398
1306.729788,8882.471304,-296.082377,0.000000
1306.730117,11547.212695,-2368.659014,2221.676944
1306.730446,11917.315666,-5255.462188,3677.258390
1306.730776,10658.965565,-6735.874072,3370.820191
1306.731105,9252.574275,-7328.038826,1991.848295
1306.731434,7624.121203,-9400.615463,2221.676944
1306.731764,6735.874072,-10732.986159,1762.019645
1306.732093,5921.647536,-11769.274478,919.314598
1306.732422,4737.318029,-9400.615463,306.438199
1306.732751,3997.112087,-8586.388927,0.000000
1306.733081,3701.029710,-6143.709319,153.219100
1306.733410,4145.153275,-5107.421000,76.609550
1306.733739,5329.482782,-4885.359217,-612.876398
1306.734069,6587.832884,-3404.947333,-306.438199
1306.734398,7328.038826,-3034.844362,995.924147
1306.734727,9548.656652,-2294.638420,1532.190996
1306.735057,11399.171507,-2812.782580,2604.724693
1306.735386,11103.089130,-4515.256246,2374.896044
1306.735715,9030.512492,-7254.018232,1838.629195
1306.736045,7402.059420,-9770.718434,1838.629195
1306.736374,6439.791695,-12139.377449,1302.362347
1306.736703,5107.421000,-13249.686362,689.485948
1306.737033,4663.297435,-11103.089130,536.266849
1306.737362,3997.112087,-9696.697840,0.000000
1306.737691,5255.462188,-7846.182985,689.485948
1306.738021,5551.544565,-6069.688724,766.095498
1306.738350,6143.709319,-4663.297435,76.609550
1306.738679,5699.585753,-2220.617826,-459.657299
1306.739009,5921.647536,-1554.432478,-689.485948
1306.739338,7179.997637,-2442.679609,383.047749
1306.739667,9918.759623,-3627.009116,2221.676944
1306.739997,11473.192101,-4959.379811,3677.258390
1306.740326,10362.883188,-5625.565159,3370.820191
1306.740655,8660.409521,-7031.956449,2374.896044
1306.740985,7105.977043,-9252.574275,1762.019645
1306.741314,6365.771101,-11177.109724,919.314598
1306.741643,5255.462188,-10584.944971,842.705048
1306.741973,4959.379811,-9178.553681,383.047749
1306.742302,5773.606348,-8364.327145,536.266849
1306.742631,5995.668130,-6809.894666,459.657299
1306.742961,5773.606348,-5699.585753,612.876398
1306.743290,5625.565159,-3923.091493,229.828649
1306.743619,5921.647536,-2442.679609,-306.438199
1306.743949,6957.935855,-1776.494261,76.609550
1306.744278,8882.471304,-1850.514855,1378.971896
1306.744607,10658.965565,-3330.926739,2604.724693
1306.744936,10584.944971,-5033.400406,2911.162892
1306.745266,8734.430116,-7476.080014,2528.115143
1306.745595,7402.059420,-9178.553681,1378.971896
1306.745924,6735.874072,-11917.315666,1685.410096
1306.746254,6143.709319,-12435.459826,1608.800546
1306.746583,4885.359217,-11325.150913,919.314598
1306.746912,4145.153275,-9918.759623,0.000000
1306.747242,3997.112087,-8512.368333,-153.219100
1306.747571,4293.194464,-7105.977043,306.438199
1306.747900,4811.338623,-4515.256246,306.438199
1306.748230,5329.482782,-2886.803174,306.438199
1306.748559,6587.832884,-1702.473667,0.000000
1306.748888,8290.306550,-1036.288319,919.314598
1306.749218,10362.883188,-2146.597232,1991.848295
1306.749547,11547.212695,-3923.091493,2757.943793
1306.749876,9918.759623,-5847.626942,2528.115143
1306.750206,7550.100608,-8808.450710,1149.143247
1306.750535,6513.812290,-10955.047942,1608.800546
1306.750864,6365.771101,-12805.562797,766.095498
1306.751194,5847.626942,-11769.274478,1225.752797
1306.751523,5033.400406,-10510.924376,766.095498
1306.751852,4737.318029,-8734.430116,0.000000
1306.752182,5107.421000,-6957.935855,229.828649
1306.752511,5181.441594,-5847.626942,766.095498
1306.752840,6069.688724,-3627.009116,-766.095498
1306.753170,5921.647536,-1702.473667,0.000000
1306.753499,7624.121203,-962.267725,536.266849
1306.753828,9474.636058,-1480.411884,1225.752797
1306.754158,11547.212695,-3034.844362,3294.210641
1306.754487,11251.130318,-5403.503377,2987.772442
1306.754816,8956.491898,-8142.265362,2528.115143
1306.755146,6587.832884,-10214.842000,1532.190996
1306.755475,5773.606348,-12065.356855,1302.362347
1306.755804,5699.585753,-12509.480420,1378.971896
1306.756134,4737.318029,-11251.130318,383.047749
1306.756463,4293.194464,-9770.718434,153.219100
1306.756792,3923.091493,-7179.997637,229.828649
1306.757122,5255.462188,-5403.503377,459.657299
1306.757451,5625.565159,-3997.112087,842.705048
1306.757780,6365.771101,-1628.453072,0.000000
1306.758109,7402.059420,-370.102971,-153.219100
1306.758439,9474.636058,-518.144159,383.047749
1306.758768,11399.171507,-2516.700203,2834.553343
1306.759097,11547.212695,-4589.276840,2451.505594
1306.759427,9992.780217,-6069.688724,2374.896044
1306.759756,8364.327145,-9030.512492,1302.362347
1306.760085,7031.956449,-11621.233289,1225.752797
1306.760415,6439.791695,-12361.439231,1838.629195
1306.760744,5847.626942,-11399.171507,1072.533697
1306.761073,5033.400406,-9326.594869,383.047749
1306.761403,4145.153275,-8882.471304,459.657299
1306.761732,4071.132681,-6513.812290,229.828649
1306.762061,3775.050304,-6439.791695,0.000000
1306.762391,4145.153275,-3627.009116,-1225.752797
1306.762720,5477.523971,-1998.556043,-919.314598
1306.763049,8068.244768,-2294.638420,995.924147
1306.763379,11251.130318,-1998.556043,2145.067394
1306.763708,12435.459826,-3552.988522,3370.820191
1306.764037,11325.150913,-4219.173869,2757.943793
1306.764367,8808.450710,-7105.977043,2145.067394
1306.764696,7105.977043,-9844.739029,1378.971896
1306.765025,6735.874072,-12657.521608,1762.019645
1306.765355,5403.503377,-12805.562797,842.705048
1306.765684,4589.276840,-11325.150913,459.657299
1306.766013,4367.215058,-10066.800811,766.095498
1306.766343,4071.132681,-7698.141797,995.924147
1306.766672,4737.318029,-6069.688724,76.609550
1306.767001,4737.318029,-3923.091493,-383.047749
1306.767331,4811.338623,-2516.700203,-1302.362347
1306.767660,6143.709319,-2146.597232,-76.609550
1306.767989,9030.512492,-2294.638420,612.876398
1306.768319,11695.253884,-3034.844362,2451.505594
1306.768648,12583.501014,-4515.256246,3524.039291
1306.768977,11473.192101,-6439.791695,3370.820191
1306.769307,9326.594869,-8216.285956,2834.553343
1306.769636,7476.080014,-9770.718434,1685.410096
1306.769965,6069.688724,-11251.130318,1072.533697
1306.770294,4515.256246,-10362.883188,0.000000
1306.770624,3701.029710,-9844.739029,76.609550
1306.770953,4441.235652,-8808.450710,766.095498
1306.771282,4885.359217,-7031.956449,536.266849
1306.771612,5403.503377,-4737.318029,536.266849
1306.771941,5921.647536,-2960.823768,0.000000
1306.772270,6661.853478,-1628.453072,-842.705048
1306.772600,7698.141797,-2368.659014,-153.219100
1306.772929,9326.594869,-3330.926739,995.924147
1306.773258,10510.924376,-4589.276840,2451.505594
1306.773588,10214.842000,-5403.503377,1915.238745
1306.773917,8068.244768,-7920.203579,2757.943793
1306.774246,7179.997637,-10510.924376,2221.676944
1306.774576,7105.977043,-12879.583391,2145.067394
1306.774905,5995.668130,-11991.336260,1532.190996
1306.775234,4293.194464,-10584.944971,766.095498
1306.775564,3182.885551,-8808.450710,-306.438199
1306.775893,3108.864956,-7105.977043,-153.219100
1306.776222,3997.112087,-6365.771101,536.266849
1306.776552,5477.523971,-4071.132681,459.657299
1306.776881,7031.956449,-888.247130,689.485948
1306.777210,8512.368333,-148.041188,995.924147
1306.777540,9844.739029,-1036.288319,1225.752797
1306.777869,10658.965565,-3404.947333,2068.457845
1306.778198,10510.924376,-4737.318029,2298.286494
1306.778528,9400.615463,-6217.729913,1762.019645
1306.778857,7402.059420,-8660.409521,1532.190996
1306.779186,6661.853478,-10066.800811,1455.581446
1306.779516,6291.750507,-13175.665768,1608.800546
1306.779845,5551.544565,-11029.068536,919.314598
1306.780174,4219.173869,-9770.718434,229.828649
1306.780504,4071.132681,-7920.203579,76.609550
1306.780833,4885.359217,-5773.606348,-383.047749
1306.781162,5255.462188,-6069.688724,0.000000
1306.781491,5699.585753,-4293.194464,-306.438199
1306.781820,6439.791695,-3478.967927,-306.438199
1306.782149,8290.306550,-2368.659014,689.485948
1306.782479,10140.821405,-2368.659014,1838.629195
1306.782808,11473.192101,-4441.235652,2834.553343
1306.783137,10732.986159,-4515.256246,2145.067394
1306.783466,8364.327145,-8068.244768,2298.286494
1306.783795,6661.853478,-9178.553681,1532.190996
1306.784124,6735.874072,-10436.903782,1608.800546
1306.784453,5847.626942,-11991.336260,1455.581446
1306.784783,4737.318029,-9770.718434,459.657299
1306.785112,4145.153275,-8586.388927,76.609550
1306.785441,4737.318029,-7254.018232,919.314598
1306.785770,5995.668130,-5625.565159,459.657299
1306.786099,7031.956449,-3701.029710,459.657299
1306.786428,7031.956449,-1924.535449,0.000000
1306.786758,8290.306550,-1628.453072,0.000000
1306.787087,9252.574275,-1998.556043,842.705048
1306.787416,10066.800811,-3182.885551,1991.848295
1306.787745,10362.883188,-5033.400406,2145.067394
1306.788074,9474.636058,-6069.688724,1991.848295
1306.788403,7254.018232,-9548.656652,1991.848295
1306.788733,6439.791695,-10732.986159,1378.971896
1306.789062,6143.709319,-11251.130318,919.314598
1306.789391,6291.750507,-10881.027347,612.876398
1306.789720,5921.647536,-9326.594869,1378.971896
1306.790049,4959.379811,-7772.162391,536.266849
1306.790378,5107.421000,-6513.812290,0.000000
1306.790708,4811.338623,-4959.379811,306.438199
1306.791037,5255.462188,-4219.173869,-383.047749
1306.791366,6439.791695,-3330.926739,0.000000
1306.791695,8216.285956,-2146.597232,612.876398
1306.792024,9474.636058,-2368.659014,1838.629195
1306.792353,9622.677246,-3478.967927,2374.896044
1306.792682,8734.430116,-5551.544565,2145.067394
1306.793012,6735.874072,-8586.388927,842.705048
1306.793341,5255.462188,-11103.089130,1149.143247
1306.793670,5403.503377,-12065.356855,1302.362347
1306.793999,5847.626942,-12435.459826,1072.533697
1306.794328,5921.647536,-10732.986159,995.924147
1306.794657,5329.482782,-9400.615463,919.314598
1306.794987,5773.606348,-6957.935855,229.828649
1306.795316,5329.482782,-4737.318029,153.219100
1306.795645,5995.668130,-3701.029710,612.876398
1306.795974,6661.853478,-1332.370696,0.000000
1306.796303,7179.997637,-1332.370696,459.657299
1306.796632,8734.430116,-370.102971,1991.848295
1306.796962,10807.006753,-2146.597232,2221.676944
1306.797291,10732.986159,-3923.091493,2987.772442
1306.797620,8660.409521,-7254.018232,2451.505594
1306.797949,6883.915261,-9918.759623,1455.581446
1306.798278,5995.668130,-10658.965565,1225.752797
1306.798607,5847.626942,-13101.645173,1225.752797
1306.798937,5773.606348,-12065.356855,1455.581446
1306.799266,5329.482782,-9844.739029,995.924147
1306.799595,4737.318029,-7698.141797,0.000000
1306.799924,4885.359217,-6217.729913,0.000000
1306.800253,5403.503377,-5329.482782,153.219100
1306.800582,5773.606348,-4367.215058,-229.828649
1306.800912,6069.688724,-1628.453072,-383.047749
1306.801241,7476.080014,-814.226536,-229.828649
1306.801570,9252.574275,-2368.659014,1455.581446
1306.801899,10066.800811,-3701.029710,2681.334243
1306.802228,9622.677246,-6069.688724,2374.896044
1306.802557,8142.265362,-7624.121203,2145.067394
1306.802886,6587.832884,-10288.862594,1838.629195
1306.803216,6587.832884,-12361.439231,1685.410096
1306.803545,6069.688724,-12213.398043,1455.581446
1306.803874,5625.565159,-10881.027347,689.485948
1306.804203,5403.503377,-9326.594869,229.828649
1306.804532,5329.482782,-6883.915261,612.876398
1306.804861,5107.421000,-4441.235652,0.000000
1306.805191,5403.503377,-3182.885551,-459.657299
1306.805520,5847.626942,-1776.494261,-459.657299
1306.805849,6883.915261,-666.185348,-383.047749
1306.806178,8364.327145,-1554.432478,1378.971896
1306.806507,10288.862594,-2738.761985,2757.943793
1306.806836,11029.068536,-4589.276840,2681.334243
1306.807166,9548.656652,-5921.647536,2681.334243
1306.807495,8290.306550,-8808.450710,2145.067394
1306.807824,7994.224174,-10955.047942,2221.676944
1306.808153,6883.915261,-11547.212695,1838.629195
1306.808482,5477.523971,-10214.842000,459.657299
1306.808811,4811.338623,-9326.594869,153.219100
1306.809141,4737.318029,-7994.224174,306.438199
1306.809470,4885.359217,-6809.894666,76.609550
1306.809799,4737.318029,-5033.400406,536.266849
1306.810128,5181.441594,-2738.761985,-306.438199
1306.810457,6217.729913,-2146.597232,-919.314598
1306.810786,7476.080014,-2590.720797,689.485948
1306.811115,9696.697840,-3182.885551,2298.286494
1306.811445,11103.089130,-4441.235652,2528.115143
1306.811774,10140.821405,-5773.606348,2834.553343
1306.812103,8438.347739,-8882.471304,2374.896044
1306.812432,7476.080014,-10807.006753,2145.067394
1306.812761,6513.812290,-12731.542202,1608.800546
1306.813090,4737.318029,-12213.398043,1225.752797
1306.813420,3478.967927,-10288.862594,306.438199
1306.813749,3775.050304,-8660.409521,-229.828649
1306.814078,4071.132681,-7254.018232,0.000000
1306.814407,4441.235652,-5477.523971,229.828649
1306.814736,4959.379811,-3627.009116,-612.876398
1306.815065,6439.791695,-2072.576638,-536.266849
1306.815395,7772.162391,-1406.391290,536.266849
1306.815724,9474.636058,-2072.576638,1838.629195
1306.816053,12139.377449,-2812.782580,2374.896044
1306.816382,12213.398043,-4663.297435,3830.477490
1306.816711,9918.759623,-6069.688724,2068.457845
1306.817040,8216.285956,-8364.327145,1991.848295
1306.817370,7105.977043,-9992.780217,1378.971896
1306.817699,6365.771101,-10584.944971,1378.971896
1306.818028,5403.503377,-10066.800811,1225.752797
1306.818357,4515.256246,-9326.594869,689.485948
1306.818686,4441.235652,-7994.224174,0.000000
1306.819015,4219.173869,-6365.771101,0.000000
1306.819344,4367.215058,-4811.338623,0.000000
1306.819674,4589.276840,-3997.112087,-306.438199
1306.820003,6217.729913,-3256.906145,76.609550
1306.820332,8290.306550,-3108.864956,689.485948
1306.820661,10362.883188,-3256.906145,2374.896044
1306.820990,11547.212695,-4367.215058,3677.258390
1306.821319,10881.027347,-6291.750507,2834.553343
1306.821649,8216.285956,-8364.327145,2068.457845
1306.821978,5847.626942,-10140.821405,1072.533697
1306.822307,5625.565159,-11695.253884,612.876398
1306.822636,4811.338623,-11917.315666,995.924147
1306.822965,3997.112087,-10436.903782,76.609550
1306.823294,3923.091493,-9400.615463,76.609550
1306.823624,4145.153275,-7105.977043,766.095498
1306.823953,4589.276840,-4885.359217,0.000000
1306.824282,5477.523971,-3182.885551,306.438199
1306.824611,7254.018232,-518.144159,306.438199
1306.824940,9104.533087,-592.164754,306.438199
1306.825269,10584.944971,-592.164754,1608.800546
1306.825599,11029.068536,-3775.050304,2681.334243
1306.825928,11251.130318,-5403.503377,3217.601092
1306.826257,9770.718434,-6735.874072,2298.286494
1306.826586,7328.038826,-9696.697840,2145.067394
1306.826915,6439.791695,-10288.862594,2145.067394
1306.827244,6217.729913,-12213.398043,1532.190996
1306.827574,5551.544565,-10436.903782,1072.533697
1306.827903,3849.070898,-9770.718434,842.705048
1306.828232,3627.009116,-7179.997637,-536.266849
1306.828561,2886.803174,-5921.647536,-1072.533697
1306.828890,3627.009116,-6439.791695,-536.266849
1306.829219,5107.421000,-4515.256246,-306.438199
1306.829548,6735.874072,-4145.153275,-76.609550
1306.829878,9252.574275,-2738.761985,842.705048
1306.830207,10732.986159,-2664.741391,2298.286494
1306.830536,11695.253884,-4071.132681,2604.724693
1306.830865,10362.883188,-5255.462188,2528.115143
1306.831194,7994.224174,-7920.203579,1685.410096
1306.831523,7105.977043,-9918.759623,1302.362347
1306.831853,6513.812290,-10881.027347,1378.971896
1306.832182,5699.585753,-11843.295072,1608.800546
1306.832511,5033.400406,-10362.883188,766.095498
1306.832840,4071.132681,-8068.244768,0.000000
1306.833169,4293.194464,-6439.791695,-459.657299
1306.833498,4959.379811,-4737.318029,-306.438199
1306.833828,5847.626942,-2738.761985,-306.438199
1306.834157,7105.977043,-2072.576638,-383.047749
1306.834486,7994.224174,-1628.453072,689.485948
1306.834815,10288.862594,-2368.659014,2068.457845
1306.835144,11917.315666,-3330.926739,3294.210641
1306.835473,12065.356855,-4071.132681,3983.696590
1306.835803,10140.821405,-6883.915261,3370.820191
1306.836132,8364.327145,-8734.430116,1685.410096
1306.836461,6143.709319,-9844.739029,1149.143247
1306.836790,5329.482782,-11029.068536,536.266849
1306.837119,5033.400406,-10510.924376,383.047749
1306.837448,4441.235652,-9252.574275,612.876398
1306.837777,4219.173869,-8364.327145,229.828649
1306.838107,5181.441594,-6883.915261,229.828649
1306.838436,5255.462188,-4737.318029,-383.047749
1306.838765,5403.503377,-3256.906145,-919.314598
1306.839094,5847.626942,-2368.659014,-612.876398
1306.839423,7698.141797,-2516.700203,153.219100
1306.839752,9770.718434,-3404.947333,1532.190996
1306.840082,10584.944971,-5033.400406,3064.381992
1306.840411,9992.780217,-6587.832884,2451.505594
1306.840740,7698.141797,-8956.491898,1685.410096
1306.841069,6069.688724,-10881.027347,1608.800546
1306.841398,5477.523971,-12139.377449,1378.971896
1306.841727,4737.318029,-12213.398043,536.266849
1306.842057,4367.215058,-10955.047942,689.485948
1306.842386,4293.194464,-9474.636058,383.047749
1306.842715,4885.359217,-6587.832884,306.438199
1306.843044,5181.441594,-4885.359217,0.000000
1306.843373,5625.565159,-3775.050304,0.000000
1306.843702,6143.709319,-1776.494261,0.000000
1306.844032,7624.121203,-1850.514855,0.000000
1306.844361,9474.636058,-1480.411884,1608.800546
1306.844690,10658.965565,-2738.761985,2681.334243
1306.845019,11177.109724,-4293.194464,3217.601092
1306.845348,9548.656652,-6957.935855,2451.505594
1306.845677,7550.100608,-9326.594869,2451.505594
1306.846006,6883.915261,-10288.862594,1072.533697
1306.846336,6143.709319,-10955.047942,1378.971896
1306.846665,5921.647536,-9844.739029,1302.362347
1306.846994,6143.709319,-8660.409521,1072.533697
1306.847323,6291.750507,-6661.853478,1072.533697
1306.847652,6735.874072,-5255.462188,689.485948
1306.847981,6513.812290,-3478.967927,76.609550
1306.848311,5773.606348,-2368.659014,-383.047749
1306.848640,5699.585753,-2368.659014,-689.485948
1306.848969,6661.853478,-2368.659014,536.266849
1306.849298,8290.306550,-4145.153275,2145.067394
1306.849627,9400.615463,-5699.585753,3294.210641
1306.849956,8216.285956,-6883.915261,2145.067394
1306.850286,7031.956449,-8586.388927,1532.190996
1306.850615,6291.750507,-11325.150913,1072.533697
1306.850944,5403.503377,-12361.439231,1991.848295
1306.851273,5551.544565,-11621.233289,536.266849
1306.851602,5625.565159,-10510.924376,459.657299
1306.851931,5329.482782,-8660.409521,689.485948
1306.852261,5551.544565,-7105.977043,536.266849
1306.852590,5995.668130,-4367.215058,383.047749
1306.852919,6513.812290,-2738.761985,153.219100
1306.853248,7550.100608,-1332.370696,-459.657299
1306.853577,8512.368333,-1110.308913,536.266849
1306.853906,9252.574275,-1258.350101,1302.362347
1306.854236,9474.636058,-2664.741391,1685.410096
1306.854565,8734.430116,-5477.523971,1915.238745
1306.854894,7624.121203,-7476.080014,1455.581446
1306.855223,6809.894666,-10362.883188,2145.067394
1306.855552,6809.894666,-10732.986159,2145.067394
1306.855881,7105.977043,-11473.192101,1455.581446
1306.856210,6143.709319,-10510.924376,1991.848295
1306.856540,6069.688724,-8734.430116,383.047749
1306.856869,5773.606348,-5921.647536,536.266849
1306.857198,5107.421000,-5551.544565,0.000000
1306.857527,4737.318029,-4663.297435,-766.095498
1306.857856,6143.709319,-2368.659014,-153.219100
1306.858185,7179.997637,-2590.720797,76.609550
1306.858515,9104.533087,-2516.700203,1991.848295
1306.858844,10362.883188,-3478.967927,2451.505594
1306.859173,9548.656652,-3923.091493,2374.896044
1306.859502,7994.224174,-6365.771101,1685.410096
1306.859831,6365.771101,-10362.883188,1302.362347
1306.860160,6439.791695,-11769.274478,766.095498
1306.860490,5477.523971,-13101.645173,919.314598
1306.860819,4737.318029,-13323.706956,842.705048
1306.861148,4737.318029,-9992.780217,229.828649
1306.861477,4811.338623,-9474.636058,842.705048
1306.861806,5699.585753,-6069.688724,1149.143247
1306.862135,6143.709319,-4737.318029,536.266849
1306.862465,6513.812290,-2516.700203,0.000000
1306.862794,6661.853478,-592.164754,-766.095498
1306.863123,7698.141797,0.000000,-383.047749
1306.863452,9326.594869,-2368.659014,1455.581446
1306.863781,10288.862594,-4589.276840,2987.772442
1306.864110,10881.027347,-5033.400406,3370.820191
1306.864439,9474.636058,-7402.059420,2451.505594
1306.864769,8438.347739,-9844.739029,2528.115143
1306.865098,6883.915261,-10732.986159,1149.143247
1306.865427,5403.503377,-11843.295072,1072.533697
1306.865756,4663.297435,-10732.986159,306.438199
1306.866085,4071.132681,-8956.491898,-306.438199
1306.866414,4293.194464,-7920.203579,153.219100
1306.866744,4811.338623,-5551.544565,229.828649
1306.867073,5773.606348,-4663.297435,0.000000
1306.867402,7105.977043,-2368.659014,76.609550
1306.867731,7994.224174,-1850.514855,536.266849
1306.868060,9696.697840,-1850.514855,1302.362347
1306.868389,10066.800811,-2220.617826,2451.505594
1306.868719,9918.759623,-4663.297435,2374.896044
1306.869048,8956.491898,-6661.853478,2451.505594
1306.869377,7920.203579,-9326.594869,2221.676944
1306.869706,6439.791695,-12879.583391,1762.019645
1306.870035,4885.359217,-12953.603985,1149.143247
1306.870364,3701.029710,-12361.439231,76.609550
1306.870694,3701.029710,-10584.944971,-76.609550
1306.871023,3478.967927,-8586.388927,229.828649
1306.871352,4663.297435,-7105.977043,153.219100
1306.871681,5551.544565,-5181.441594,0.000000
1306.872010,6069.688724,-2516.700203,0.000000
1306.872339,6809.894666,-740.205942,153.219100
1306.872668,8808.450710,-1184.329507,842.705048
1306.872998,11177.109724,-2146.597232,2221.676944
1306.873327,11917.315666,-3552.988522,3064.381992
1306.873656,10881.027347,-4367.215058,3600.648841
1306.873985,9326.594869,-6143.709319,1991.848295
1306.874314,7698.141797,-8956.491898,1302.362347
1306.874643,6735.874072,-11177.109724,1302.362347
1306.874973,5329.482782,-11547.212695,612.876398
1306.875302,3849.070898,-10881.027347,842.705048
1306.875631,3923.091493,-9178.553681,76.609550
1306.875960,4441.235652,-7179.997637,0.000000
1306.876289,5107.421000,-5477.523971,76.609550
1306.876618,5847.626942,-4515.256246,76.609550
1306.876948,6513.812290,-2664.741391,0.000000
1306.877277,7254.018232,-2072.576638,0.000000
1306.877606,9178.553681,-2072.576638,1838.629195
1306.877935,11621.233289,-2960.823768,2528.115143
1306.878264,11399.171507,-5255.462188,2987.772442
1306.878593,9622.677246,-6069.688724,2757.943793
1306.878923,7476.080014,-9178.553681,1762.019645
1306.879252,5921.647536,-10955.047942,1685.410096
1306.879581,5181.441594,-11695.253884,766.095498
1306.879910,4441.235652,-11917.315666,306.438199
1306.880239,2960.823768,-10584.944971,229.828649
1306.880568,3034.844362,-9252.574275,-306.438199
1306.880897,3923.091493,-7994.224174,229.828649
1306.881226,5107.421000,-3182.885551,-459.657299
1306.881555,5773.606348,-3997.112087,-383.047749
1306.881885,7328.038826,-2368.659014,0.000000
1306.882214,9104.533087,-1776.494261,229.828649
1306.882543,10955.047942,-3330.926739,2451.505594
1306.882872,11843.295072,-2886.803174,3600.648841
1306.883201,11547.212695,-5033.400406,2528.115143
1306.883530,9548.656652,-7031.956449,2681.334243
1306.883859,7846.182985,-9474.636058,1762.019645
1306.884188,7105.977043,-10732.986159,1991.848295
1306.884517,6291.750507,-10658.965565,919.314598
1306.884846,5033.400406,-9622.677246,229.828649
1306.885176,4071.132681,-8438.347739,76.609550
1306.885505,3627.009116,-8438.347739,76.609550
1306.885834,4441.235652,-6587.832884,229.828649
1306.886163,5329.482782,-4145.153275,-459.657299
1306.886492,6217.729913,-3701.029710,76.609550
1306.886821,7846.182985,-2368.659014,383.047749
1306.887150,9474.636058,-2886.803174,1685.410096
1306.887479,10807.006753,-3478.967927,2145.067394
1306.887808,10066.800811,-4811.338623,2451.505594
1306.888137,8512.368333,-6661.853478,2298.286494
1306.888467,7698.141797,-8512.368333,1838.629195
1306.888796,6143.709319,-10362.883188,1762.019645
1306.889125,5033.400406,-11843.295072,1225.752797
1306.889454,4145.153275,-11325.150913,229.828649
1306.889783,3256.906145,-10214.842000,229.828649
1306.890112,3627.009116,-8438.347739,153.219100
1306.890441,4959.379811,-6439.791695,-306.438199
1306.890770,5181.441594,-4663.297435,-229.828649
1306.891099,6217.729913,-2960.823768,229.828649
1306.891428,7402.059420,-1554.432478,0.000000
1306.891758,8808.450710,-2368.659014,995.924147
1306.892087,9992.780217,-2220.617826,1762.019645
1306.892416,10362.883188,-4071.132681,2451.505594
1306.892745,10214.842000,-5921.647536,2834.553343
1306.893074,8586.388927,-8364.327145,2528.115143
1306.893403,7476.080014,-10140.821405,2145.067394
1306.893732,5847.626942,-10140.821405,995.924147
1306.894061,5921.647536,-10140.821405,1225.752797
1306.894390,5625.565159,-9622.677246,766.095498
1306.894719,4441.235652,-8734.430116,842.705048
1306.895049,3923.091493,-6809.894666,-612.876398
1306.895378,4589.276840,-5107.421000,-612.876398
1306.895707,5995.668130,-4145.153275,229.828649
1306.896036,7328.038826,-3034.844362,229.828649
1306.896365,8808.450710,-2220.617826,1225.752797
1306.896694,9548.656652,-1998.556043,1225.752797
1306.897023,10066.800811,-3552.988522,1685.410096
1306.897352,9474.636058,-4737.318029,2221.676944
1306.897681,8586.388927,-7624.121203,1225.752797
1306.898010,6883.915261,-9696.697840,1302.362347
1306.898340,5773.606348,-11399.171507,1302.362347
1306.898669,6291.750507,-12065.356855,1455.581446
1306.898998,6069.688724,-11029.068536,1225.752797
1306.899327,5181.441594,-10214.842000,766.095498
1306.899656,4293.194464,-7920.203579,-306.438199
1306.899985,3849.070898,-5995.668130,-229.828649
1306.900314,5033.400406,-4441.235652,0.000000
1306.900643,6883.915261,-2960.823768,-153.219100
1306.900972,7994.224174,-1258.350101,153.219100
1306.901301,8586.388927,-1776.494261,995.924147
1306.901631,9474.636058,-2590.720797,1838.629195
1306.901960,9696.697840,-4737.318029,2145.067394
1306.902289,9104.533087,-6587.832884,2451.505594
1306.902618,8660.409521,-8068.244768,1149.143247
1306.902947,7550.100608,-9696.697840,1532.190996
1306.903276,7179.997637,-10955.047942,1455.581446
1306.903605,7031.956449,-11177.109724,1762.019645
1306.903934,6069.688724,-9104.533087,1302.362347
1306.904263,4737.318029,-7624.121203,153.219100
1306.904592,3923.091493,-6661.853478,-229.828649
1306.904922,4663.297435,-5033.400406,-689.485948
1306.905251,5699.585753,-4367.215058,-153.219100
1306.905580,6735.874072,-2590.720797,842.705048
1306.905909,7920.203579,-2516.700203,1149.143247
1306.906238,9474.636058,-2368.659014,1762.019645
1306.906567,10214.842000,-3256.906145,2221.676944
1306.906896,10066.800811,-4885.359217,2374.896044
1306.907225,8438.347739,-7179.997637,1991.848295
1306.907554,7624.121203,-9918.759623,1685.410096
1306.907883,6661.853478,-11695.253884,1762.019645
1306.908213,6069.688724,-12213.398043,1225.752797
1306.908542,4515.256246,-11843.295072,766.095498
1306.908871,3404.947333,-10362.883188,76.609550
1306.909200,3256.906145,-8734.430116,0.000000
1306.909529,3849.070898,-6883.915261,153.219100
1306.909858,4959.379811,-4515.256246,0.000000
1306.910187,6439.791695,-2368.659014,0.000000
1306.910516,7402.059420,-1332.370696,-306.438199
1306.910845,9326.594869,-1702.473667,766.095498
1306.911174,10732.986159,-2368.659014,2374.896044
1306.911504,11251.130318,-4293.194464,2374.896044
1306.911833,9474.636058,-5995.668130,2528.115143
1306.912162,8142.265362,-8216.285956,1838.629195
1306.912491,7624.121203,-10658.965565,1762.019645
1306.912820,7179.997637,-11695.253884,2298.286494
1306.913149,6365.771101,-10066.800811,1838.629195
1306.913478,5551.544565,-9474.636058,536.266849
1306.913807,4959.379811,-7772.162391,536.266849
1306.914136,4441.235652,-6513.812290,76.609550
1306.914466,4811.338623,-5107.421000,-536.266849
1306.914795,5847.626942,-3701.029710,229.828649
1306.915124,6513.812290,-2664.741391,0.000000
1306.915453,8142.265362,-1998.556043,766.095498
1306.915782,9474.636058,-2146.597232,2145.067394
1306.916111,11029.068536,-3108.864956,2068.457845
1306.916440,10510.924376,-5329.482782,2298.286494
1306.916769,8290.306550,-7698.141797,1762.019645
1306.917098,6957.935855,-10584.944971,1149.143247
1306.917427,6217.729913,-12139.377449,1378.971896
1306.917757,5107.421000,-11917.315666,1532.190996
1306.918086,4071.132681,-12213.398043,229.828649
1306.918415,3627.009116,-10584.944971,0.000000
1306.918744,3701.029710,-8290.306550,229.828649
1306.919073,4737.318029,-6069.688724,0.000000
1306.919402,5921.647536,-3701.029710,766.095498
1306.919731,5847.626942,-962.267725,-842.705048
1306.920060,7772.162391,-666.185348,76.609550
1306.920389,9548.656652,-666.185348,1302.362347
1306.920718,11029.068536,-2220.617826,2068.457845
1306.921048,10807.006753,-4071.132681,2451.505594
1306.921377,9178.553681,-6365.771101,2145.067394
1306.921706,7624.121203,-10066.800811,2068.457845
1306.922035,6513.812290,-10362.883188,2145.067394
1306.922364,6291.750507,-12583.501014,1991.848295
1306.922693,5255.462188,-11843.295072,919.314598
1306.923022,4811.338623,-9474.636058,689.485948
1306.923351,4367.215058,-7994.224174,0.000000
1306.923680,4071.132681,-6291.750507,0.000000
1306.924009,5033.400406,-4959.379811,536.266849
1306.924339,5551.544565,-3256.906145,-536.266849
1306.924668,6217.729913,-1332.370696,-919.314598
1306.924997,8438.347739,-1036.288319,383.047749
1306.925326,11029.068536,-1924.535449,1685.410096
1306.925655,11991.336260,-3182.885551,2911.162892
1306.925984,10807.006753,-4811.338623,2604.724693
1306.926313,8882.471304,-7105.977043,1532.190996
1306.926642,7550.100608,-9474.636058,1072.533697
1306.926971,6217.729913,-12213.398043,1685.410096
1306.927300,5329.482782,-13397.727550,1685.410096
1306.927630,4663.297435,-11251.130318,459.657299
1306.927959,4071.132681,-10140.821405,76.609550
1306.928288,3997.112087,-7994.224174,-229.828649
1306.928617,4663.297435,-5551.544565,-229.828649
1306.928946,5181.441594,-4071.132681,-842.705048
1306.929275,5847.626942,-3034.844362,-459.657299
1306.929604,7105.977043,-1184.329507,153.219100
1306.929933,9844.739029,-2368.659014,1455.581446
1306.930262,11325.150913,-3330.926739,2451.505594
1306.930591,11177.109724,-4071.132681,2757.943793
1306.930921,9770.718434,-5625.565159,1991.848295
1306.931250,8290.306550,-7772.162391,2221.676944
1306.931579,7105.977043,-10066.800811,1685.410096
1306.931908,6513.812290,-12287.418637,1685.410096
1306.932237,5403.503377,-10732.986159,689.485948
1306.932566,4441.235652,-10214.842000,229.828649
1306.932895,3997.112087,-8734.430116,153.219100
1306.933224,4071.132681,-7254.018232,383.047749
1306.933553,4811.338623,-5255.462188,0.000000
1306.933882,5699.585753,-3256.906145,-306.438199
1306.934212,6809.894666,-1184.329507,-919.314598
1306.934541,8660.409521,-2368.659014,536.266849
1306.934870,10510.924376,-3182.885551,1915.238745
1306.935199,11621.233289,-3108.864956,2834.553343
1306.935528,10584.944971,-5033.400406,3140.991542
1306.935857,9326.594869,-6661.853478,2451.505594
1306.936186,7105.977043,-9548.656652,2068.457845
1306.936515,5625.565159,-12435.459826,1608.800546
1306.936844,4441.235652,-12361.439231,919.314598
1306.937173,3552.988522,-11029.068536,0.000000
1306.937503,2590.720797,-10732.986159,842.705048
1306.937832,3182.885551,-8586.388927,-383.047749
1306.938161,3849.070898,-6365.771101,0.000000
1306.938490,5107.421000,-4441.235652,229.828649
1306.938819,6735.874072,-2812.782580,0.000000
1306.939148,7994.224174,-1776.494261,689.485948
1306.939477,10881.027347,-296.082377,1455.581446
1306.939806,12583.501014,-2072.576638,2451.505594
1306.940135,12213.398043,-3775.050304,2681.334243
1306.940464,9992.780217,-4811.338623,2604.724693
1306.940794,7994.224174,-8364.327145,1455.581446
1306.941123,6143.709319,-10436.903782,1532.190996
1306.941452,5699.585753,-11547.212695,1302.362347
1306.941781,5699.585753,-11251.130318,1225.752797
1306.942110,4811.338623,-9992.780217,842.705048
1306.942439,4737.318029,-8142.265362,766.095498
1306.942768,4885.359217,-5625.565159,0.000000
1306.943097,4959.379811,-4663.297435,-689.485948
1306.943426,4737.318029,-3701.029710,-995.924147
1306.943755,5625.565159,-4219.173869,-229.828649
1306.944085,7994.224174,-2886.803174,1072.533697
1306.944414,10658.965565,-3182.885551,2451.505594
1306.944743,12435.459826,-3478.967927,3830.477490
1306.945072,11177.109724,-4367.215058,2834.553343
1306.945401,8068.244768,-6957.935855,1915.238745
1306.945730,5551.544565,-9252.574275,919.314598
1306.946059,5181.441594,-11695.253884,842.705048
1306.946388,4959.379811,-11769.274478,689.485948
1306.946717,4737.318029,-10955.047942,919.314598
1306.947046,4071.132681,-10140.821405,0.000000
1306.947376,4737.318029,-7698.141797,306.438199
1306.947705,5181.441594,-6587.832884,0.000000
1306.948034,6217.729913,-3849.070898,0.000000
1306.948363,7328.038826,-2368.659014,0.000000
1306.948692,7772.162391,-2146.597232,0.000000
1306.949021,8364.327145,-2146.597232,536.266849
1306.949350,9696.697840,-3923.091493,1685.410096
1306.949679,10881.027347,-4589.276840,2068.457845
1306.950008,9548.656652,-6439.791695,3064.381992
1306.950338,8216.285956,-8216.285956,2451.505594
1306.950667,7031.956449,-9400.615463,1762.019645
1306.950996,6809.894666,-10732.986159,1378.971896
1306.951325,5773.606348,-10955.047942,1532.190996
1306.951654,5033.400406,-10140.821405,383.047749
1306.951983,4219.173869,-8290.306550,229.828649
1306.952312,4515.256246,-6661.853478,0.000000
1306.952641,5625.565159,-4959.379811,-306.438199
1306.952970,6587.832884,-4071.132681,76.609550
1306.953299,7254.018232,-2960.823768,229.828649
1306.953629,8734.430116,-2516.700203,1302.362347
1306.953958,10140.821405,-1554.432478,1915.238745
1306.954287,9918.759623,-3404.947333,2451.505594
1306.954616,9178.553681,-5329.482782,2451.505594
1306.954945,7328.038826,-7698.141797,1915.238745
1306.955274,6365.771101,-10807.006753,1302.362347
1306.955603,5921.647536,-11695.253884,1991.848295
1306.955932,6069.688724,-11325.150913,1225.752797
1306.956261,5847.626942,-10510.924376,1072.533697
1306.956590,4959.379811,-9104.533087,919.314598
1306.956920,4737.318029,-7105.977043,76.609550
1306.957249,5107.421000,-4737.318029,-306.438199
1306.957578,5477.523971,-3034.844362,-919.314598
1306.957907,6291.750507,-2664.741391,-689.485948
1306.958236,7402.059420,-2812.782580,459.657299
1306.958565,9104.533087,-3701.029710,1915.238745
1306.958894,10214.842000,-3627.009116,2604.724693
1306.959223,9918.759623,-4515.256246,2528.115143
1306.959552,8734.430116,-5625.565159,2374.896044
1306.959881,7105.977043,-8586.388927,1838.629195
1306.960211,5847.626942,-10584.944971,1225.752797
1306.960540,5773.606348,-11547.212695,995.924147
1306.960869,5699.585753,-11621.233289,995.924147
1306.961198,5329.482782,-9400.615463,1149.143247
1306.961527,5255.462188,-8364.327145,0.000000
1306.961856,4663.297435,-6883.915261,0.000000
1306.962185,4959.379811,-5255.462188,-689.485948
1306.962514,5773.606348,-3404.947333,-689.485948
1306.962843,6661.853478,-3404.947333,153.219100
1306.963172,8364.327145,-1628.453072,995.924147
1306.963502,9770.718434,-2960.823768,1685.410096
1306.963831,10214.842000,-4293.194464,2451.505594
1306.964160,9400.615463,-5773.606348,2451.505594
1306.964489,8660.409521,-7476.080014,2145.067394
1306.964818,7179.997637,-9030.512492,1991.848295
1306.965147,6069.688724,-11029.068536,1149.143247
1306.965476,5181.441594,-11843.295072,1225.752797
1306.965805,4515.256246,-10140.821405,842.705048
1306.966134,4441.235652,-9252.574275,536.266849
1306.966463,5329.482782,-6661.853478,689.485948
1306.966793,5847.626942,-4811.338623,0.000000
1306.967122,6439.791695,-3701.029710,-536.266849
1306.967451,6883.915261,-1406.391290,76.609550
1306.967780,7254.018232,-2812.782580,919.314598
1306.968109,9326.594869,-2220.617826,1378.971896
1306.968438,9992.780217,-3627.009116,1991.848295
1306.968767,9844.739029,-4737.318029,2451.505594
1306.969096,8734.430116,-6883.915261,2604.724693
1306.969425,7402.059420,-10362.883188,1838.629195
1306.969754,6735.874072,-10732.986159,1302.362347
1306.970084,6513.812290,-10955.047942,1455.581446
1306.970413,6513.812290,-9474.636058,995.924147
1306.970742,5403.503377,-9326.594869,459.657299
1306.971071,4441.235652,-8216.285956,459.657299
1306.971400,4441.235652,-6439.791695,306.438199
1306.971729,4959.379811,-4737.318029,-842.705048
1306.972058,5921.647536,-2664.741391,383.047749
1306.972387,6513.812290,-2294.638420,0.000000
1306.972716,8290.306550,-3108.864956,1225.752797
1306.973045,10288.862594,-3108.864956,2757.943793
1306.973375,11177.109724,-4145.153275,3524.039291
1306.973704,10066.800811,-5255.462188,3294.210641
1306.974033,7920.203579,-8068.244768,2374.896044
1306.974362,6661.853478,-10510.924376,1532.190996
1306.974691,6069.688724,-11769.274478,1149.143247
1306.975020,5551.544565,-11843.295072,1072.533697
1306.975349,4885.359217,-10658.965565,536.266849
1306.975678,3849.070898,-9252.574275,0.000000
1306.976007,3775.050304,-6809.894666,0.000000
1306.976336,4219.173869,-4959.379811,-459.657299
1306.976666,5847.626942,-3404.947333,0.000000
1306.976995,7105.977043,-1628.453072,153.219100
1306.977324,8882.471304,-2072.576638,766.095498
1306.977653,10214.842000,-1332.370696,1762.019645
1306.977982,10658.965565,-3478.967927,2604.724693
1306.978311,10732.986159,-5773.606348,2451.505594
1306.978640,8882.471304,-7698.141797,2451.505594
1306.978969,7624.121203,-9844.739029,1455.581446
1306.979298,6957.935855,-10436.903782,1455.581446
1306.979627,5773.606348,-11325.150913,1608.800546
1306.979957,5403.503377,-11251.130318,1149.143247
1306.980286,4071.132681,-9622.677246,383.047749
1306.980615,2812.782580,-8586.388927,-459.657299
1306.980944,3330.926739,-6883.915261,-612.876398
1306.981273,4367.215058,-5107.421000,0.000000
1306.981602,5921.647536,-3627.009116,-459.657299
1306.981931,7402.059420,-2294.638420,229.828649
1306.982260,9474.636058,-2146.597232,1455.581446
1306.982589,11769.274478,-2442.679609,2068.457845
1306.982918,11769.274478,-3627.009116,2987.772442
1306.983247,10362.883188,-4959.379811,2451.505594
1306.983576,8290.306550,-7994.224174,1225.752797
1306.983905,6735.874072,-10362.883188,1455.581446
1306.984234,6661.853478,-12139.377449,1915.238745
1306.984564,5699.585753,-11473.192101,995.924147
1306.984893,4515.256246,-10066.800811,536.266849
1306.985222,4071.132681,-8956.491898,0.000000
1306.985551,4293.194464,-6809.894666,0.000000
1306.985880,5107.421000,-5181.441594,76.609550
1306.986209,6217.729913,-2664.741391,-459.657299
1306.986538,7105.977043,-1998.556043,-612.876398
1306.986867,8068.244768,-1924.535449,306.438199
1306.987196,10066.800811,-2220.617826,2374.896044
1306.987525,11325.150913,-4071.132681,2911.162892
1306.987854,11251.130318,-5181.441594,3447.429741
1306.988183,9400.615463,-7105.977043,2451.505594
1306.988512,7846.182985,-8512.368333,1762.019645
1306.988841,6809.894666,-10510.924376,995.924147
1306.989170,5181.441594,-11621.233289,612.876398
1306.989499,3923.091493,-11029.068536,383.047749
1306.989828,3330.926739,-10214.842000,-459.657299
1306.990157,3404.947333,-8586.388927,0.000000
1306.990487,3849.070898,-6291.750507,0.000000
1306.990816,4959.379811,-5477.523971,-536.266849
1306.991145,6661.853478,-3775.050304,153.219100
1306.991474,7846.182985,-2738.761985,842.705048
1306.991803,10066.800811,-2590.720797,1762.019645
1306.992132,11029.068536,-2664.741391,2528.115143
1306.992461,11177.109724,-3849.070898,2911.162892
1306.992790,9918.759623,-6365.771101,2604.724693
1306.993119,7772.162391,-8142.265362,2298.286494
1306.993448,6957.935855,-9400.615463,1302.362347
1306.993777,6661.853478,-10510.924376,1685.410096
1306.994106,5847.626942,-11251.130318,1608.800546
1306.994435,3552.988522,-10140.821405,383.047749
1306.994764,2886.803174,-9474.636058,536.266849
1306.995093,3182.885551,-7105.977043,-536.266849
1306.995422,4367.215058,-5181.441594,-383.047749
1306.995751,5847.626942,-4071.132681,306.438199
1306.996081,7772.162391,-2368.659014,842.705048
1306.996410,9030.512492,-2664.741391,1149.143247
1306.996739,10436.903782,-2442.679609,2451.505594
1306.997068,11251.130318,-2590.720797,2681.334243
1306.997397,10881.027347,-4737.318029,2221.676944
1306.997726,8364.327145,-6143.709319,1915.238745
1306.998055,6809.894666,-9474.636058,919.314598
1306.998384,6735.874072,-10881.027347,1532.190996
1306.998713,6587.832884,-11473.192101,1149.143247
1306.999042,5625.565159,-11103.089130,766.095498
1306.999371,3923.091493,-9178.553681,689.485948
1306.999700,3034.844362,-9252.574275,-229.828649
1307.000029,3478.967927,-7179.997637,-153.219100
1307.000358,4737.318029,-4811.338623,-536.266849
1307.000687,6439.791695,-3256.906145,-536.266849
1307.001016,8290.306550,-2590.720797,919.314598
1307.001345,9326.594869,-2738.761985,1762.019645
1307.001674,10881.027347,-3034.844362,2298.286494
1307.002004,10955.047942,-3849.070898,2911.162892
1307.002333,10510.924376,-5625.565159,2374.896044
1307.002662,7994.224174,-8290.306550,2374.896044
1307.002991,6513.812290,-9844.739029,1762.019645
1307.003320,6069.688724,-10955.047942,1149.143247
1307.003649,5181.441594,-11547.212695,919.314598
1307.003978,4293.194464,-10436.903782,689.485948
1307.004307,3552.988522,-9104.533087,0.000000
1307.004636,3923.091493,-7402.059420,-229.828649
1307.004965,4663.297435,-5107.421000,0.000000
1307.005294,5847.626942,-2664.741391,-229.828649
1307.005623,7254.018232,-2590.720797,153.219100
1307.005952,8364.327145,-1776.494261,995.924147
1307.006281,9918.759623,-1998.556043,1532.190996
1307.006610,10362.883188,-3923.091493,2834.553343
1307.006939,10140.821405,-4885.359217,3447.429741
1307.007268,8734.430116,-7105.977043,2145.067394
1307.007597,7402.059420,-8956.491898,2145.067394
1307.007927,7179.997637,-9844.739029,1378.971896
1307.008256,6883.915261,-10807.006753,1225.752797
1307.008585,5551.544565,-10140.821405,842.705048
1307.008914,3849.070898,-9474.636058,0.000000
1307.009243,3256.906145,-8438.347739,-383.047749
1307.009572,3552.988522,-7328.038826,0.000000
1307.009901,4737.318029,-5699.585753,-153.219100
1307.010230,5995.668130,-4071.132681,0.000000
1307.010559,7550.100608,-3701.029710,1225.752797
1307.010888,9474.636058,-2812.782580,1838.629195
1307.011217,10140.821405,-2516.700203,2528.115143
1307.011546,9770.718434,-3923.091493,2757.943793
1307.011875,8956.491898,-5847.626942,2145.067394
1307.012204,7105.977043,-8290.306550,1608.800546
1307.012533,6365.771101,-9844.739029,766.095498
1307.012862,6217.729913,-11473.192101,1149.143247
1307.013191,6439.791695,-11251.130318,842.705048
1307.013520,6069.688724,-9844.739029,459.657299
1307.013850,5551.544565,-8660.409521,1072.533697
1307.014179,5995.668130,-5699.585753,842.705048
1307.014508,6291.750507,-3627.009116,-536.266849
1307.014837,5847.626942,-2738.761985,-383.047749
1307.015166,6439.791695,-1850.514855,-229.828649
1307.015495,7772.162391,-2886.803174,766.095498
1307.015824,9326.594869,-3627.009116,2068.457845
1307.016153,10066.800811,-3923.091493,2451.505594
1307.016482,9696.697840,-4959.379811,2451.505594
1307.016811,8586.388927,-7254.018232,2451.505594
1307.017140,7105.977043,-9548.656652,1838.629195
1307.017469,6365.771101,-9548.656652,1455.581446
1307.017798,6143.709319,-10214.842000,919.314598
1307.018127,5477.523971,-11103.089130,459.657299
1307.018456,4737.318029,-9622.677246,383.047749
1307.018785,4293.194464,-8882.471304,612.876398
1307.019114,5107.421000,-7031.956449,-229.828649
1307.019443,5403.503377,-3997.112087,-76.609550
1307.019773,5773.606348,-3701.029710,-229.828649
1307.020102,6661.853478,-3108.864956,0.000000
1307.020431,7179.997637,-2664.741391,842.705048
1307.020760,8734.430116,-3775.050304,1838.629195
1307.021089,9252.574275,-5329.482782,2145.067394
1307.021418,9252.574275,-6365.771101,2451.505594
1307.021747,8068.244768,-8216.285956,2298.286494
1307.022076,7994.224174,-10584.944971,2298.286494
1307.022405,7772.162391,-10140.821405,1532.190996
1307.022734,6883.915261,-9918.759623,1455.581446
1307.023063,5625.565159,-8956.491898,842.705048
1307.023392,5255.462188,-7105.977043,229.828649
1307.023721,5477.523971,-6883.915261,-306.438199
1307.024050,5329.482782,-4959.379811,459.657299
1307.024379,6513.812290,-2664.741391,0.000000
1307.024708,7402.059420,-2146.597232,383.047749
1307.025037,8216.285956,-1480.411884,1838.629195
1307.025366,9030.512492,-2590.720797,1915.238745
1307.025696,9548.656652,-3034.844362,1685.410096
1307.026025,9030.512492,-5699.585753,1915.238745
1307.026354,8290.306550,-7772.162391,1225.752797
1307.026683,7550.100608,-9030.512492,1762.019645
1307.027012,7254.018232,-11843.295072,1455.581446
1307.027341,7031.956449,-11325.150913,1838.629195
1307.027670,6143.709319,-10510.924376,1149.143247
1307.027999,4811.338623,-9104.533087,153.219100
1307.028328,4071.132681,-7772.162391,-383.047749
1307.028657,4145.153275,-6587.832884,-766.095498
1307.028986,5255.462188,-4811.338623,-612.876398
1307.029315,5773.606348,-3627.009116,-383.047749
1307.029644,7031.956449,-3923.091493,383.047749
1307.029973,8290.306550,-3256.906145,1072.533697
1307.030302,9474.636058,-4219.173869,1991.848295
1307.030631,9474.636058,-5329.482782,2374.896044
1307.030960,9178.553681,-7254.018232,2068.457845
1307.031289,7994.224174,-8660.409521,2068.457845
1307.031619,7550.100608,-10732.986159,2374.896044
1307.031948,7031.956449,-11103.089130,1915.238745
1307.032277,5921.647536,-9474.636058,842.705048
1307.032606,4663.297435,-9030.512492,459.657299
1307.032935,4219.173869,-8216.285956,536.266849
1307.033264,4663.297435,-6069.688724,76.609550
1307.033593,5699.585753,-4293.194464,229.828649
1307.033922,6735.874072,-2220.617826,153.219100
1307.034251,7105.977043,-1406.391290,383.047749
1307.034580,8438.347739,-1480.411884,383.047749
1307.034909,9918.759623,-2738.761985,2068.457845
1307.035238,10807.006753,-4441.235652,2451.505594
1307.035567,10066.800811,-6069.688724,2374.896044
1307.035896,7920.203579,-8512.368333,1608.800546
1307.036225,6661.853478,-9548.656652,1455.581446
1307.036554,6143.709319,-11029.068536,1149.143247
1307.036883,6069.688724,-10288.862594,1225.752797
1307.037212,5477.523971,-9474.636058,1072.533697
1307.037542,4737.318029,-9104.533087,459.657299
1307.037871,4145.153275,-7031.956449,0.000000
1307.038200,3849.070898,-6513.812290,-842.705048
1307.038529,4663.297435,-4663.297435,-766.095498
1307.038858,5921.647536,-3701.029710,0.000000
1307.039187,7550.100608,-3478.967927,766.095498
1307.039516,9474.636058,-3108.864956,2145.067394
1307.039845,10066.800811,-3849.070898,2757.943793
1307.040174,9918.759623,-5107.421000,2987.772442
1307.040503,7772.162391,-7105.977043,1991.848295
1307.040832,6735.874072,-9400.615463,1532.190996
1307.041161,6143.709319,-10362.883188,1302.362347
1307.041490,5699.585753,-11325.150913,1608.800546
1307.041819,5551.544565,-10362.883188,1378.971896
1307.042148,5477.523971,-8808.450710,919.314598
1307.042477,5255.462188,-7402.059420,612.876398
1307.042806,5033.400406,-5551.544565,0.000000
1307.043135,6291.750507,-3182.885551,0.000000
1307.043465,7105.977043,-1850.514855,-383.047749
1307.043794,7772.162391,-1332.370696,-383.047749
1307.044123,8660.409521,-2146.597232,995.924147
1307.044452,10732.986159,-2590.720797,2374.896044
1307.044781,11399.171507,-3849.070898,3600.648841
1307.045110,10288.862594,-5995.668130,2834.553343
1307.045439,7994.224174,-7772.162391,1838.629195
1307.045768,6439.791695,-9548.656652,1149.143247
1307.046097,6069.688724,-11399.171507,1072.533697
1307.046426,5329.482782,-11177.109724,919.314598
1307.046755,4589.276840,-10362.883188,459.657299
1307.047084,4071.132681,-9030.512492,76.609550
1307.047413,3923.091493,-7846.182985,-229.828649
1307.047742,4737.318029,-5921.647536,-229.828649
1307.048071,5329.482782,-4885.359217,-612.876398
1307.048400,6439.791695,-3775.050304,-229.828649
1307.048729,7698.141797,-2886.803174,536.266849
1307.049058,9474.636058,-3108.864956,1685.410096
1307.049388,10658.965565,-3256.906145,2145.067394
1307.049717,9474.636058,-5403.503377,2757.943793
1307.050046,8512.368333,-7254.018232,1532.190996
1307.050375,6809.894666,-9326.594869,1608.800546
1307.050704,6217.729913,-11251.130318,1685.410096
1307.051033,6069.688724,-11399.171507,1225.752797
1307.051362,5773.606348,-10732.986159,1608.800546
1307.051691,5625.565159,-9548.656652,995.924147
1307.052020,5329.482782,-7550.100608,689.485948
1307.052349,5699.585753,-4737.318029,229.828649
1307.052678,4811.338623,-3330.926739,-383.047749
1307.053007,5847.626942,-2812.782580,-306.438199
1307.053336,6957.935855,-2294.638420,0.000000
1307.053665,8808.450710,-1850.514855,766.095498
1307.053994,10436.903782,-2738.761985,2528.115143
1307.054323,11325.150913,-3478.967927,3600.648841
1307.054652,10436.903782,-5403.503377,2604.724693
1307.054982,8586.388927,-7031.956449,2298.286494
1307.055311,7179.997637,-9622.677246,2145.067394
1307.055640,6069.688724,-11103.089130,536.266849
1307.055969,4663.297435,-10658.965565,459.657299
1307.056298,4145.153275,-10288.862594,-229.828649
1307.056627,4737.318029,-8882.471304,0.000000
1307.056956,5181.441594,-7624.121203,766.095498
1307.057285,5107.421000,-6513.812290,229.828649
1307.057614,5551.544565,-4441.235652,-459.657299
1307.057943,6143.709319,-3404.947333,-766.095498
1307.058272,6809.894666,-3108.864956,-153.219100
1307.058601,8216.285956,-4219.173869,1225.752797
1307.058930,9696.697840,-4589.276840,2604.724693
1307.059259,9548.656652,-5847.626942,2451.505594
1307.059588,8808.450710,-7402.059420,2834.553343
1307.059917,7698.141797,-8734.430116,2604.724693
1307.060246,7105.977043,-11029.068536,2221.676944
1307.060575,5921.647536,-10658.965565,1455.581446
1307.060905,4367.215058,-10288.862594,459.657299
1307.061234,3849.070898,-9548.656652,76.609550
1307.061563,4811.338623,-7031.956449,229.828649
1307.061892,5773.606348,-6143.709319,229.828649
1307.062221,6957.935855,-3627.009116,612.876398
1307.062550,7624.121203,-2516.700203,0.000000
1307.062879,8142.265362,-2146.597232,0.000000
1307.063208,8586.388927,-1554.432478,1455.581446
1307.063537,9622.677246,-2886.803174,1991.848295
1307.063866,10362.883188,-3552.988522,1991.848295
1307.064195,9474.636058,-5921.647536,2451.505594
1307.064524,8142.265362,-7920.203579,2145.067394
1307.064853,7254.018232,-9474.636058,1762.019645
1307.065182,6587.832884,-10732.986159,1302.362347
1307.065511,6069.688724,-9844.739029,383.047749
1307.065840,5995.668130,-9030.512492,536.266849
1307.066169,5255.462188,-8438.347739,536.266849
1307.066498,5403.503377,-7254.018232,306.438199
1307.066828,5477.523971,-5477.523971,0.000000
1307.067157,5551.544565,-3627.009116,-995.924147
1307.067486,6439.791695,-4441.235652,0.000000
1307.067815,6883.915261,-3849.070898,1072.533697
1307.068144,8586.388927,-4145.153275,1455.581446
1307.068473,8734.430116,-5329.482782,2374.896044
1307.068802,8808.450710,-5625.565159,2681.334243
1307.069131,7476.080014,-7994.224174,1685.410096
1307.069460,6069.688724,-9474.636058,1378.971896
1307.069789,5255.462188,-11399.171507,1072.533697
1307.070118,5551.544565,-11547.212695,536.266849
1307.070447,5403.503377,-10510.924376,1838.629195
1307.070776,5625.565159,-8882.471304,842.705048
1307.071105,6513.812290,-7179.997637,842.705048
1307.071434,6809.894666,-5033.400406,536.266849
1307.071763,7402.059420,-3330.926739,-536.266849
1307.072092,7550.100608,-1036.288319,153.219100
1307.072421,8290.306550,-666.185348,229.828649
1307.072751,9030.512492,-1184.329507,1149.143247
1307.073080,9178.553681,-2960.823768,2068.457845
1307.073409,9252.574275,-4219.173869,1991.848295
1307.073738,8586.388927,-6809.894666,2374.896044
1307.074067,7402.059420,-8882.471304,2145.067394
1307.074396,6809.894666,-9844.739029,1762.019645
1307.074725,6809.894666,-10658.965565,1378.971896
1307.075054,6883.915261,-10955.047942,1532.190996
1307.075383,5921.647536,-9696.697840,995.924147
1307.075712,5921.647536,-7772.162391,536.266849
1307.076041,5477.523971,-6217.729913,0.000000
1307.076370,5403.503377,-5255.462188,0.000000
1307.076699,5847.626942,-4737.318029,-459.657299
1307.077028,6291.750507,-3330.926739,-536.266849
1307.077357,7402.059420,-3256.906145,459.657299
1307.077686,8956.491898,-3404.947333,2145.067394
1307.078015,9104.533087,-4441.235652,2604.724693
1307.078344,8216.285956,-6069.688724,1991.848295
1307.078674,6513.812290,-8364.327145,1455.581446
1307.079003,5551.544565,-10955.047942,689.485948
1307.079332,5773.606348,-12509.480420,1838.629195
1307.079661,6143.709319,-11621.233289,1915.238745
1307.079990,6365.771101,-9770.718434,1149.143247
1307.080319,5403.503377,-9104.533087,459.657299
1307.080648,5329.482782,-6513.812290,229.828649
1307.080977,5773.606348,-5403.503377,383.047749
1307.081306,5995.668130,-3256.906145,0.000000
1307.081635,6291.750507,-1628.453072,-306.438199
1307.081965,7105.977043,-1554.432478,0.000000
1307.082294,9104.533087,-2072.576638,1685.410096
1307.082623,10436.903782,-2442.679609,2528.115143
1307.082952,10732.986159,-4367.215058,3524.039291
1307.083281,9696.697840,-5551.544565,2451.505594
1307.083610,8068.244768,-8142.265362,1762.019645
1307.083939,7254.018232,-9178.553681,842.705048
1307.084268,6217.729913,-12065.356855,1149.143247
1307.084598,5551.544565,-11695.253884,919.314598
1307.084927,5255.462188,-9918.759623,536.266849
1307.085256,5033.400406,-8734.430116,76.609550
1307.085585,4811.338623,-6587.832884,-153.219100
1307.085914,5107.421000,-5403.503377,0.000000
1307.086243,5921.647536,-3701.029710,-766.095498
1307.086572,6513.812290,-2812.782580,-153.219100
1307.086902,7994.224174,-2294.638420,919.314598
1307.087231,9844.739029,-2664.741391,1915.238745
1307.087560,10066.800811,-4737.318029,2528.115143
1307.087889,8734.430116,-6513.812290,2298.286494
1307.088218,7105.977043,-8364.327145,1225.752797
1307.088547,6883.915261,-10214.842000,1225.752797
1307.088876,6365.771101,-11621.233289,1915.238745
1307.089205,6365.771101,-11695.253884,1302.362347
1307.089535,5625.565159,-10140.821405,1149.143247
1307.089864,4441.235652,-9252.574275,229.828649
1307.090193,3701.029710,-7698.141797,229.828649
1307.090522,4663.297435,-5847.626942,153.219100
1307.090851,5995.668130,-3775.050304,0.000000
1307.091180,6883.915261,-1702.473667,-229.828649
1307.091509,8216.285956,-888.247130,306.438199
1307.091838,9992.780217,-1258.350101,1455.581446
1307.092168,11251.130318,-2294.638420,2987.772442
1307.092497,11473.192101,-2960.823768,3294.210641
1307.092826,9770.718434,-5329.482782,2451.505594
1307.093155,7846.182985,-7698.141797,1532.190996
1307.093484,6735.874072,-10288.862594,1149.143247
1307.093813,6735.874072,-12139.377449,1225.752797
1307.094142,6217.729913,-11103.089130,1225.752797
1307.094472,5847.626942,-9548.656652,766.095498
1307.094801,4959.379811,-7994.224174,229.828649
1307.095130,4441.235652,-7105.977043,-383.047749
1307.095459,4959.379811,-5921.647536,-459.657299
1307.095788,5255.462188,-3701.029710,-689.485948
1307.096117,5921.647536,-3330.926739,229.828649
1307.096446,7698.141797,-3108.864956,766.095498
1307.096775,9474.636058,-3923.091493,2221.676944
1307.097105,10288.862594,-4737.318029,3217.601092
1307.097434,9326.594869,-6143.709319,2604.724693
1307.097763,7328.038826,-7994.224174,1915.238745
1307.098092,6957.935855,-9252.574275,1455.581446
1307.098421,6439.791695,-11251.130318,995.924147
1307.098750,5477.523971,-11917.315666,919.314598
1307.099079,4441.235652,-10807.006753,383.047749
1307.099409,3775.050304,-9918.759623,0.000000
1307.099738,4219.173869,-7624.121203,-689.485948
1307.100067,4737.318029,-6661.853478,0.000000
1307.100396,6217.729913,-4589.276840,0.000000
1307.100725,7476.080014,-2146.597232,76.609550
1307.101054,8438.347739,-962.267725,766.095498
1307.101383,10140.821405,-888.247130,1762.019645
1307.101712,11251.130318,-2294.638420,2987.772442
1307.102042,10955.047942,-3849.070898,2987.772442
1307.102371,8882.471304,-5477.523971,2451.505594
1307.102700,7550.100608,-7698.141797,1838.629195
1307.103029,7328.038826,-9326.594869,1685.410096
1307.103358,6883.915261,-10658.965565,1762.019645
1307.103687,5847.626942,-9474.636058,2068.457845
1307.104016,5181.441594,-9030.512492,536.266849
1307.104345,4811.338623,-8142.265362,0.000000
1307.104675,4737.318029,-7179.997637,76.609550
1307.105004,5255.462188,-5995.668130,153.219100
1307.105333,6069.688724,-4145.153275,-536.266849
1307.105662,5625.565159,-3923.091493,-306.438199
1307.105991,6883.915261,-3478.967927,612.876398
1307.106320,8734.430116,-4145.153275,1608.800546
1307.106649,9696.697840,-5107.421000,3447.429741
1307.106979,8290.306550,-5921.647536,2374.896044
1307.107308,6587.832884,-8438.347739,689.485948
1307.107637,5921.647536,-9474.636058,1149.143247
1307.107966,5699.585753,-11991.336260,1302.362347
1307.108295,5625.565159,-11621.233289,919.314598
1307.108624,5477.523971,-9622.677246,306.438199
1307.108953,5699.585753,-9326.594869,612.876398
1307.109282,6143.709319,-7105.977043,536.266849
1307.109612,6143.709319,-5551.544565,689.485948
1307.109941,6735.874072,-3701.029710,153.219100
1307.110270,7031.956449,-1480.411884,0.000000
1307.110599,7328.038826,-1332.370696,229.828649
1307.110928,8734.430116,-1554.432478,1378.971896
1307.111257,9548.656652,-3404.947333,2451.505594
1307.111586,10214.842000,-4737.318029,2911.162892
1307.111916,9104.533087,-5847.626942,2834.553343
1307.112245,7328.038826,-7920.203579,2145.067394
1307.112574,7254.018232,-9030.512492,1762.019645
1307.112903,6735.874072,-9696.697840,689.485948
1307.113232,6217.729913,-10288.862594,1072.533697
1307.113561,5921.647536,-8956.491898,689.485948
1307.113890,6069.688724,-7994.224174,383.047749
1307.114219,5995.668130,-6513.812290,689.485948
1307.114549,5699.585753,-6217.729913,-612.876398
1307.114878,5847.626942,-5181.441594,0.000000
1307.115207,6735.874072,-3256.906145,-153.219100
1307.115536,7698.141797,-3256.906145,612.876398
1307.115865,8364.327145,-3701.029710,1915.238745
1307.116194,8512.368333,-4811.338623,2145.067394
1307.116523,7846.182985,-6957.935855,1762.019645
1307.116852,6957.935855,-8734.430116,1378.971896
1307.117182,5847.626942,-9844.739029,995.924147
1307.117511,6587.832884,-11177.109724,1838.629195
1307.117840,6365.771101,-10807.006753,1302.362347
1307.118169,5403.503377,-9474.636058,612.876398
1307.118498,4811.338623,-8660.409521,229.828649
1307.118827,4811.338623,-7698.141797,229.828649
1307.119156,5477.523971,-6143.709319,0.000000
1307.119486,6735.874072,-3997.112087,0.000000
1307.119815,7550.100608,-1850.514855,842.705048
1307.120144,8364.327145,-1998.556043,995.924147
1307.120473,9696.697840,-1554.432478,1532.190996
1307.120802,9992.780217,-2516.700203,2374.896044
1307.121131,10288.862594,-4293.194464,2911.162892
1307.121460,8956.491898,-5773.606348,2145.067394
1307.121789,7328.038826,-8142.265362,1762.019645
1307.122119,6365.771101,-9844.739029,995.924147
1307.122448,6217.729913,-10807.006753,995.924147
1307.122777,6439.791695,-10066.800811,1072.533697
1307.123106,6365.771101,-8586.388927,919.314598
1307.123435,5921.647536,-7476.080014,1225.752797
1307.123764,5255.462188,-6809.894666,153.219100
1307.124093,5329.482782,-5255.462188,-383.047749
1307.124423,5403.503377,-4145.153275,-536.266849
1307.124752,6809.894666,-3108.864956,0.000000
1307.125081,8142.265362,-3330.926739,842.705048
1307.125410,9178.553681,-3997.112087,2145.067394
1307.125739,9252.574275,-5995.668130,2451.505594
1307.126068,8216.285956,-7254.018232,2451.505594
1307.126397,7550.100608,-9400.615463,1302.362347
1307.126726,5699.585753,-10362.883188,1072.533697
1307.127056,5033.400406,-11621.233289,1149.143247
1307.127385,5033.400406,-11769.274478,536.266849
1307.127714,4737.318029,-10584.944971,306.438199
1307.128043,5181.441594,-9844.739029,76.609550
1307.128372,4737.318029,-8438.347739,153.219100
1307.128701,5625.565159,-5847.626942,306.438199
1307.129030,5995.668130,-2368.659014,0.000000
1307.129359,6291.750507,-2738.761985,-459.657299
1307.129689,8438.347739,-1776.494261,383.047749
1307.130018,10140.821405,-1184.329507,1838.629195
1307.130347,10881.027347,-3552.988522,2681.334243
1307.130676,9918.759623,-4071.132681,2451.505594
1307.131005,7994.224174,-7179.997637,1685.410096
1307.131334,6809.894666,-9326.594869,1378.971896
1307.131663,7105.977043,-8882.471304,1378.971896
1307.131993,7476.080014,-11251.130318,1762.019645
1307.132322,7402.059420,-8808.450710,1762.019645
1307.132651,6661.853478,-7105.977043,766.095498
1307.132980,6661.853478,-6883.915261,536.266849
1307.133309,6661.853478,-5329.482782,612.876398
1307.133638,5847.626942,-5477.523971,766.095498
1307.133967,5847.626942,-3701.029710,-766.095498
1307.134296,5625.565159,-2960.823768,0.000000
1307.134626,6957.935855,-3701.029710,919.314598
1307.134955,8290.306550,-3997.112087,2451.505594
1307.135284,8586.388927,-5255.462188,2681.334243
1307.135613,7920.203579,-6143.709319,1455.581446
1307.135942,6587.832884,-8216.285956,1225.752797
1307.136271,6513.812290,-9770.718434,1072.533697
1307.136600,6365.771101,-11991.336260,1302.362347
1307.136930,6069.688724,-10658.965565,995.924147
1307.137259,5033.400406,-9844.739029,153.219100
1307.137588,5033.400406,-8956.491898,229.828649
1307.137917,5995.668130,-7328.038826,459.657299
1307.138246,6809.894666,-6143.709319,995.924147
1307.138575,7328.038826,-3182.885551,0.000000
1307.138904,6735.874072,-2146.597232,0.000000
1307.139233,7105.977043,-1924.535449,229.828649
1307.139563,7772.162391,-2886.803174,842.705048
1307.139892,7772.162391,-4737.318029,2451.505594
1307.140221,8290.306550,-5625.565159,2298.286494
1307.140550,7772.162391,-7476.080014,2145.067394
1307.140879,7624.121203,-8956.491898,1762.019645
1307.141208,7402.059420,-9844.739029,2145.067394
1307.141537,8290.306550,-10066.800811,1838.629195
1307.141866,7179.997637,-8808.450710,842.705048
1307.142196,6217.729913,-7994.224174,229.828649
1307.142525,5551.544565,-7402.059420,0.000000
1307.142854,5847.626942,-6587.832884,153.219100
1307.143183,6217.729913,-5921.647536,0.000000
1307.143512,5995.668130,-3775.050304,0.000000
1307.143841,6661.853478,-3256.906145,0.000000
1307.144170,7920.203579,-3182.885551,1225.752797
1307.144500,9030.512492,-3701.029710,2145.067394
1307.144829,9178.553681,-4811.338623,1991.848295
1307.145158,7698.141797,-6291.750507,1378.971896
1307.145487,6809.894666,-8660.409521,1072.533697
1307.145816,6883.915261,-10140.821405,1378.971896
1307.146145,6513.812290,-11769.274478,1225.752797
1307.146474,6365.771101,-11251.130318,1532.190996
1307.146803,6291.750507,-9844.739029,1225.752797
1307.147133,5551.544565,-7772.162391,689.485948
1307.147462,5033.400406,-5847.626942,306.438199
1307.147791,5181.441594,-5107.421000,-306.438199
1307.148120,5477.523971,-3997.112087,-306.438199
1307.148449,5995.668130,-3404.947333,-459.657299
1307.148778,7179.997637,-2886.803174,842.705048
1307.149107,8956.491898,-2812.782580,1762.019645
1307.149437,9178.553681,-4737.318029,1915.238745
1307.149766,8364.327145,-5551.544565,2145.067394
1307.150095,7328.038826,-7846.182985,1378.971896
1307.150424,7179.997637,-8956.491898,1532.190996
1307.150753,7328.038826,-9696.697840,1915.238745
1307.151082,7624.121203,-10584.944971,1378.971896
1307.151411,7624.121203,-8956.491898,1608.800546
1307.151740,7254.018232,-8068.244768,1378.971896
1307.152070,7105.977043,-5921.647536,1532.190996
1307.152399,5995.668130,-4737.318029,306.438199
1307.152728,5921.647536,-3701.029710,-229.828649
1307.153057,6217.729913,-2812.782580,-536.266849
1307.153386,6439.791695,-3404.947333,459.657299
1307.153715,7624.121203,-3552.988522,1532.190996
1307.154044,8512.368333,-4441.235652,1915.238745
1307.154373,8290.306550,-5551.544565,2145.067394
1307.154703,7105.977043,-8216.285956,1838.629195
1307.155032,5921.647536,-9992.780217,1838.629195
1307.155361,5847.626942,-11177.109724,1302.362347
1307.155690,5329.482782,-11843.295072,1149.143247
1307.156019,5773.606348,-10732.986159,1532.190996
1307.156348,6217.729913,-8956.491898,1149.143247
1307.156677,5329.482782,-7846.182985,689.485948
1307.157007,4811.338623,-6513.812290,229.828649
1307.157336,5625.565159,-5773.606348,-306.438199
1307.157665,7105.977043,-2960.823768,0.000000
1307.157994,7105.977043,-2220.617826,0.000000
1307.158323,7402.059420,-2516.700203,229.828649
1307.158652,8882.471304,-3182.885551,1072.533697
1307.158981,8734.430116,-5329.482782,1991.848295
1307.159310,8216.285956,-6365.771101,1915.238745
1307.159640,7476.080014,-7328.038826,1915.238745
1307.159969,7476.080014,-9104.533087,1762.019645
1307.160298,7031.956449,-9918.759623,1838.629195
1307.160627,6735.874072,-9474.636058,1685.410096
1307.160956,7105.977043,-7920.203579,1225.752797
1307.161285,7031.956449,-7772.162391,1225.752797
1307.161614,7179.997637,-5107.421000,919.314598
1307.161944,6809.894666,-4737.318029,459.657299
1307.162273,6513.812290,-4737.318029,306.438199
1307.162602,6291.750507,-3997.112087,0.000000
1307.162931,6439.791695,-3108.864956,0.000000
1307.163260,7624.121203,-3256.906145,766.095498
1307.163589,8364.327145,-4959.379811,2298.286494
1307.163918,8364.327145,-5995.668130,2528.115143
1307.164247,7772.162391,-7105.977043,1455.581446
1307.164577,6809.894666,-8882.471304,2068.457845
1307.164906,6661.853478,-9770.718434,1302.362347
1307.165235,6291.750507,-10510.924376,1378.971896
1307.165564,5995.668130,-9696.697840,1685.410096
1307.165893,5181.441594,-9326.594869,842.705048
1307.166222,5403.503377,-7920.203579,459.657299
1307.166551,5403.503377,-5995.668130,-229.828649
1307.166880,6365.771101,-5255.462188,229.828649
1307.167210,7179.997637,-3997.112087,229.828649
1307.167539,7105.977043,-3108.864956,0.000000
1307.167868,7105.977043,-2960.823768,306.438199
1307.168197,8512.368333,-3552.988522,1532.190996
1307.168526,8808.450710,-5625.565159,1455.581446
1307.168855,8734.430116,-6661.853478,2221.676944
1307.169184,7624.121203,-8734.430116,2451.505594
1307.169514,7254.018232,-9770.718434,1838.629195
1307.169843,6957.935855,-9770.718434,1685.410096
1307.170172,6735.874072,-9622.677246,1532.190996
1307.170501,6513.812290,-8586.388927,383.047749
1307.170830,6217.729913,-7105.977043,919.314598
1307.171159,5847.626942,-6291.750507,306.438199
1307.171488,5995.668130,-5181.441594,76.609550
1307.171817,6291.750507,-3627.009116,76.609550
1307.172147,6735.874072,-3330.926739,-383.047749
1307.172476,7550.100608,-2886.803174,383.047749
1307.172805,8808.450710,-2886.803174,1302.362347
1307.173134,9474.636058,-2812.782580,1915.238745
1307.173463,9844.739029,-4589.276840,1915.238745
1307.173792,8438.347739,-7402.059420,1838.629195
1307.174121,7254.018232,-9770.718434,1762.019645
1307.174451,6217.729913,-10510.924376,1608.800546
1307.174780,5995.668130,-11251.130318,1762.019645
1307.175109,5255.462188,-9992.780217,995.924147
1307.175438,5551.544565,-9178.553681,612.876398
1307.175767,6143.709319,-7846.182985,1149.143247
1307.176096,6069.688724,-5995.668130,842.705048
1307.176425,5773.606348,-5329.482782,0.000000
1307.176754,5995.668130,-3923.091493,-842.705048
1307.177084,6365.771101,-3182.885551,-383.047749
1307.177413,7624.121203,-3108.864956,0.000000
1307.177742,8142.265362,-4219.173869,1608.800546
1307.178071,8734.430116,-5255.462188,2298.286494
1307.178400,7994.224174,-6587.832884,2298.286494
1307.178729,7031.956449,-8216.285956,1685.410096
1307.179058,6291.750507,-9474.636058,1762.019645
1307.179387,5847.626942,-10436.903782,2145.067394
1307.179717,5995.668130,-10881.027347,919.314598
1307.180046,5477.523971,-8882.471304,766.095498
1307.180375,5773.606348,-7476.080014,383.047749
1307.180704,7624.121203,-5551.544565,536.266849
1307.181033,7624.121203,-4737.318029,536.266849
1307.181362,7550.100608,-4145.153275,766.095498
1307.181691,7105.977043,-3034.844362,76.609550
1307.182021,7624.121203,-1998.556043,0.000000
1307.182346,8512.368333,-2738.761985,536.266849
1307.182675,8734.430116,-3997.112087,2451.505594
1307.183004,8734.430116,-5477.523971,2298.286494
1307.183333,7476.080014,-7105.977043,2145.067394
1307.183662,7031.956449,-9474.636058,2298.286494
1307.183991,7105.977043,-10066.800811,1762.019645
1307.184321,6291.750507,-11103.089130,1608.800546
1307.184650,5255.462188,-9844.739029,1455.581446
1307.184979,4737.318029,-9252.574275,0.000000
1307.185308,4589.276840,-7772.162391,1072.533697
1307.185637,5625.565159,-6143.709319,0.000000
1307.185966,6217.729913,-5329.482782,306.438199
1307.186295,6735.874072,-2812.782580,-306.438199
1307.186624,6957.935855,-4071.132681,-229.828649
1307.186954,7402.059420,-3701.029710,689.485948
1307.187283,8216.285956,-3552.988522,1225.752797
1307.187612,8586.388927,-5181.441594,1685.410096
1307.187941,7550.100608,-6365.771101,1915.238745
1307.188270,6587.832884,-8438.347739,1455.581446
1307.188599,6957.935855,-9622.677246,1762.019645
1307.188928,7105.977043,-10436.903782,2221.676944
1307.189257,7402.059420,-9770.718434,1915.238745
1307.189587,6809.894666,-8660.409521,1149.143247
1307.189916,6513.812290,-7105.977043,842.705048
1307.190245,6439.791695,-6365.771101,612.876398
1307.190574,6883.915261,-5403.503377,383.047749
1307.190903,6513.812290,-3923.091493,229.828649
1307.191232,6735.874072,-2886.803174,0.000000
1307.191561,7624.121203,-2664.741391,612.876398
1307.191890,8290.306550,-2812.782580,1149.143247
1307.192220,8586.388927,-4515.256246,2298.286494
1307.192549,8660.409521,-5181.441594,2298.286494
1307.192878,7920.203579,-6957.935855,2681.334243
1307.193207,6661.853478,-9104.533087,1838.629195
1307.193536,5921.647536,-10436.903782,1378.971896
1307.193865,5699.585753,-11843.295072,1225.752797
1307.194194,5329.482782,-11325.150913,919.314598
1307.194523,5181.441594,-8882.471304,1149.143247
1307.194853,6365.771101,-7105.977043,536.266849
1307.195182,6809.894666,-5477.523971,229.828649
1307.195511,6143.709319,-4811.338623,0.000000
1307.195840,6587.832884,-4071.132681,-766.095498
1307.196169,7328.038826,-2368.659014,-459.657299
1307.196498,8142.265362,-2516.700203,153.219100
1307.196827,8512.368333,-3849.070898,1455.581446
1307.197156,8882.471304,-5255.462188,1991.848295
1307.197486,8586.388927,-6439.791695,2374.896044
1307.197815,7994.224174,-8512.368333,1991.848295
1307.198144,7624.121203,-9252.574275,2068.457845
1307.198473,7550.100608,-10066.800811,1838.629195
1307.198802,6439.791695,-10436.903782,1378.971896
1307.199131,5403.503377,-8882.471304,1225.752797
1307.199460,5551.544565,-8142.265362,306.438199
1307.199789,5995.668130,-6587.832884,689.485948
1307.200119,5995.668130,-5255.462188,76.609550
1307.200448,6069.688724,-3997.112087,0.000000
1307.200777,6513.812290,-2590.720797,-306.438199
1307.201106,7328.038826,-2516.700203,0.000000
1307.201435,8808.450710,-2960.823768,1378.971896
1307.201764,9622.677246,-3404.947333,2528.115143
1307.202093,9622.677246,-5329.482782,2451.505594
1307.202422,8216.285956,-7031.956449,1991.848295
1307.202752,6587.832884,-9178.553681,1685.410096
1307.203081,5995.668130,-11621.233289,1225.752797
1307.203410,5551.544565,-10732.986159,919.314598
1307.203739,5255.462188,-10584.944971,842.705048
1307.204068,5477.523971,-9474.636058,1072.533697
1307.204397,6291.750507,-7105.977043,842.705048
1307.204726,5995.668130,-6217.729913,536.266849
1307.205055,6217.729913,-4589.276840,153.219100
1307.205385,5921.647536,-2886.803174,-306.438199
1307.205714,6291.750507,-3034.844362,-612.876398
1307.206043,7402.059420,-2516.700203,766.095498
1307.206372,9252.574275,-3627.009116,1915.238745
1307.206701,9622.677246,-5107.421000,2604.724693
1307.207030,8216.285956,-6883.915261,2374.896044
1307.207359,7105.977043,-9030.512492,2451.505594
1307.207688,6143.709319,-9104.533087,919.314598
1307.208018,6143.709319,-9844.739029,1532.190996
1307.208347,5847.626942,-10436.903782,919.314598
1307.208676,5847.626942,-9696.697840,995.924147
1307.209005,5847.626942,-8068.244768,689.485948
1307.209334,5921.647536,-6439.791695,306.438199
1307.209663,6069.688724,-5255.462188,76.609550
1307.209992,6365.771101,-3997.112087,153.219100
1307.210321,6809.894666,-3404.947333,0.000000
1307.210651,7698.141797,-2442.679609,766.095498
1307.210980,9178.553681,-2146.597232,1149.143247
1307.211309,10288.862594,-3701.029710,2374.896044
1307.211638,9474.636058,-4811.338623,2451.505594
1307.211967,8068.244768,-7105.977043,1685.410096
1307.212296,7328.038826,-9252.574275,1838.629195
1307.212625,7254.018232,-10362.883188,2374.896044
1307.212954,6513.812290,-10955.047942,1685.410096
1307.213284,5699.585753,-9548.656652,766.095498
1307.213613,4959.379811,-9104.533087,229.828649
1307.213942,5181.441594,-8142.265362,0.000000
1307.214271,4737.318029,-6365.771101,229.828649
1307.214600,5181.441594,-5699.585753,-306.438199
1307.214929,6587.832884,-3256.906145,-459.657299
1307.215258,7179.997637,-2960.823768,229.828649
1307.215587,7920.203579,-2516.700203,1532.190996
1307.215917,9400.615463,-3923.091493,1302.362347
1307.216246,9104.533087,-4737.318029,2145.067394
1307.216575,8586.388927,-5551.544565,1532.190996
1307.216904,7994.224174,-8290.306550,1991.848295
1307.217233,7402.059420,-10066.800811,2221.676944
1307.217562,6513.812290,-10955.047942,1072.533697
1307.217891,6143.709319,-10436.903782,1378.971896
1307.218220,5921.647536,-9104.533087,536.266849
1307.218550,5847.626942,-8068.244768,229.828649
1307.218879,5181.441594,-6143.709319,306.438199
1307.219208,5477.523971,-5995.668130,0.000000
1307.219537,5995.668130,-4515.256246,-306.438199
1307.219866,6291.750507,-2886.803174,-229.828649
1307.220195,7031.956449,-2294.638420,766.095498
1307.220524,8808.450710,-3478.967927,2068.457845
1307.220853,10066.800811,-4441.235652,2987.772442
1307.221183,9400.615463,-5107.421000,2681.334243
1307.221512,8068.244768,-7105.977043,2374.896044
1307.221841,7031.956449,-9252.574275,1608.800546
1307.222170,6069.688724,-10510.924376,1072.533697
1307.222499,5699.585753,-11547.212695,1225.752797
1307.222828,5403.503377,-10732.986159,919.314598
1307.223157,5699.585753,-9178.553681,995.924147
1307.223486,6217.729913,-6957.935855,536.266849
1307.223815,6587.832884,-5921.647536,153.219100
1307.224145,6513.812290,-4811.338623,-383.047749
1307.224474,6513.812290,-3330.926739,-612.876398
1307.224803,6883.915261,-2664.741391,-689.485948
1307.225132,7846.182985,-3182.885551,459.657299
1307.225461,9104.533087,-4145.153275,1685.410096
1307.225790,9474.636058,-5403.503377,2145.067394
1307.226119,8956.491898,-6587.832884,2528.115143
1307.226448,8512.368333,-7772.162391,1532.190996
1307.226778,7846.182985,-8956.491898,1762.019645
1307.227107,7031.956449,-9770.718434,1608.800546
1307.227436,6513.812290,-9770.718434,1762.019645
1307.227765,5773.606348,-8882.471304,919.314598
1307.228094,5551.544565,-8068.244768,612.876398
1307.228423,5403.503377,-6513.812290,229.828649
1307.228752,5329.482782,-5625.565159,153.219100
1307.229081,6069.688724,-4219.173869,689.485948
1307.229411,6143.709319,-3627.009116,-612.876398
1307.229740,6735.874072,-2812.782580,153.219100
1307.230069,8216.285956,-3627.009116,1608.800546
1307.230398,9030.512492,-5477.523971,1838.629195
1307.230727,8290.306550,-6291.750507,1915.238745
1307.231056,6439.791695,-8586.388927,1532.190996
1307.231385,5329.482782,-10584.944971,995.924147
1307.231714,5551.544565,-11991.336260,1302.362347
1307.232044,5921.647536,-11843.295072,1455.581446
1307.232373,6513.812290,-9918.759623,995.924147
1307.232702,6587.832884,-7920.203579,689.485948
1307.233031,6957.935855,-5699.585753,1072.533697
1307.233360,7698.141797,-4515.256246,1149.143247
1307.233689,7402.059420,-2738.761985,766.095498
1307.234018,7179.997637,-1924.535449,0.000000
1307.234347,7105.977043,-1998.556043,0.000000
1307.234677,7698.141797,-2368.659014,229.828649
1307.235006,8216.285956,-4663.297435,1608.800546
1307.235335,8364.327145,-4959.379811,2221.676944
1307.235664,7698.141797,-8142.265362,2298.286494
1307.235993,6587.832884,-9474.636058,2145.067394
1307.236322,6365.771101,-9992.780217,1838.629195
1307.236651,5921.647536,-10658.965565,1608.800546
1307.236980,6957.935855,-10140.821405,1378.971896
1307.237310,6291.750507,-8808.450710,1149.143247
1307.237639,6809.894666,-7105.977043,76.609550
1307.237968,6883.915261,-5551.544565,1149.143247
1307.238297,6069.688724,-4367.215058,229.828649
1307.238626,5847.626942,-3478.967927,-383.047749
1307.238955,6143.709319,-2590.720797,-306.438199
1307.239284,7254.018232,-2516.700203,153.219100
1307.239613,8512.368333,-3627.009116,1532.190996
1307.239943,9622.677246,-4515.256246,2451.505594
1307.240272,8438.347739,-6735.874072,1838.629195
1307.240601,6957.935855,-8956.491898,1762.019645
1307.240930,6143.709319,-10584.944971,919.314598
1307.241259,6217.729913,-11103.089130,1302.362347
1307.241588,5773.606348,-11843.295072,1532.190996
1307.241917,6365.771101,-10510.924376,1608.800546
1307.242246,6513.812290,-8068.244768,1225.752797
1307.242576,5995.668130,-6661.853478,459.657299
1307.242905,5773.606348,-4367.215058,306.438199
1307.243234,6513.812290,-3775.050304,0.000000
1307.243563,7402.059420,-1998.556043,306.438199
1307.243892,7920.203579,-1850.514855,76.609550
1307.244221,8660.409521,-2442.679609,612.876398
1307.244550,9474.636058,-3627.009116,1991.848295
1307.244879,9030.512492,-6069.688724,2145.067394
1307.245209,8068.244768,-7105.977043,1991.848295
1307.245538,7328.038826,-8808.450710,1225.752797
1307.245867,7254.018232,-10436.903782,689.485948
1307.246196,6957.935855,-10955.047942,1378.971896
1307.246525,6513.812290,-10658.965565,1072.533697
1307.246854,6069.688724,-8586.388927,766.095498
1307.247183,5847.626942,-7550.100608,0.000000
1307.247512,5699.585753,-6809.894666,76.609550
1307.247842,4811.338623,-4959.379811,-153.219100
1307.248171,5551.544565,-3923.091493,-383.047749
1307.248500,6735.874072,-2516.700203,-459.657299
1307.248829,7920.203579,-2368.659014,995.924147
1307.249158,9252.574275,-3034.844362,1685.410096
1307.249487,10066.800811,-4515.256246,2451.505594
1307.249816,8734.430116,-6957.935855,2374.896044
1307.250145,7179.997637,-7846.182985,1532.190996
1307.250475,5921.647536,-9992.780217,1762.019645
1307.250804,5995.668130,-11473.192101,1455.581446
1307.251133,5921.647536,-11547.212695,1608.800546
1307.251462,5403.503377,-10584.944971,1225.752797
1307.251791,4663.297435,-9252.574275,306.438199
1307.252120,4071.132681,-7179.997637,0.000000
1307.252449,4959.379811,-5329.482782,0.000000
1307.252778,5847.626942,-3034.844362,0.000000
1307.253108,7179.997637,-2294.638420,76.609550
1307.253437,8882.471304,-1110.308913,1072.533697
1307.253766,10510.924376,-814.226536,1149.143247
1307.254095,11399.171507,-2442.679609,2298.286494
1307.254424,10584.944971,-4737.318029,2757.943793
1307.254753,9178.553681,-7105.977043,2221.676944
1307.255082,7179.997637,-8660.409521,1608.800546
1307.255411,6143.709319,-9474.636058,919.314598
1307.255741,6365.771101,-11325.150913,1608.800546
1307.256070,6069.688724,-10955.047942,1838.629195
1307.256399,4959.379811,-9696.697840,842.705048
1307.256728,3627.009116,-8734.430116,-383.047749
1307.257057,3182.885551,-7698.141797,-76.609550
1307.257386,4219.173869,-6217.729913,-689.485948
1307.257715,5107.421000,-4959.379811,0.000000
1307.258044,6957.935855,-2442.679609,689.485948
1307.258374,8882.471304,-2664.741391,1378.971896
1307.258703,10584.944971,-3108.864956,2528.115143
1307.259032,10584.944971,-3701.029710,3140.991542
1307.259361,9474.636058,-4959.379811,2451.505594
1307.259690,8216.285956,-7179.997637,1302.362347
1307.260019,6217.729913,-9326.594869,1225.752797
1307.260348,6291.750507,-10955.047942,1455.581446
1307.260677,5995.668130,-11177.109724,1838.629195
1307.261007,5773.606348,-9918.759623,1302.362347
1307.261336,4737.318029,-8808.450710,229.828649
1307.261665,4885.359217,-7550.100608,0.000000
1307.261994,5329.482782,-6069.688724,153.219100
1307.262323,5847.626942,-3627.009116,-842.705048
1307.262652,6365.771101,-2146.597232,-229.828649
1307.262981,7772.162391,-2442.679609,0.000000
1307.263310,9178.553681,-2886.803174,1608.800546
1307.263640,10140.821405,-4515.256246,2987.772442
1307.263969,10140.821405,-4663.297435,2911.162892
1307.264298,9474.636058,-5847.626942,2068.457845
1307.264627,7994.224174,-7624.121203,1838.629195
1307.264956,7476.080014,-8882.471304,1685.410096
1307.265285,6883.915261,-9770.718434,1302.362347
1307.265614,5847.626942,-9696.697840,1149.143247
1307.265943,4737.318029,-9474.636058,0.000000
1307.266272,4293.194464,-8882.471304,229.828649
1307.266602,4293.194464,-7994.224174,0.000000
1307.266931,4737.318029,-6883.915261,76.609550
1307.267260,5551.544565,-4737.318029,-766.095498
1307.267589,6291.750507,-3627.009116,-842.705048
1307.267918,7846.182985,-3478.967927,766.095498
1307.268247,9844.739029,-3627.009116,2298.286494
1307.268576,10140.821405,-4737.318029,2528.115143
1307.268905,9252.574275,-5625.565159,2451.505594
1307.269235,7698.141797,-6735.874072,1532.190996
1307.269564,7105.977043,-8808.450710,1685.410096
1307.269893,6957.935855,-9770.718434,1685.410096
1307.270222,7105.977043,-9474.636058,1072.533697
1307.270551,5995.668130,-9474.636058,766.095498
1307.270880,5033.400406,-8364.327145,842.705048
1307.271209,4367.215058,-7698.141797,0.000000
1307.271538,4367.215058,-5921.647536,0.000000
1307.271868,5181.441594,-4293.194464,-383.047749
1307.272197,6883.915261,-3330.926739,229.828649
1307.272526,8142.265362,-3330.926739,842.705048
1307.272855,9474.636058,-3108.864956,2068.457845
1307.273184,10510.924376,-4219.173869,2298.286494
1307.273513,10066.800811,-3997.112087,2298.286494
1307.273842,8364.327145,-6291.750507,2298.286494
1307.274171,7328.038826,-7994.224174,1378.971896
1307.274501,6439.791695,-8512.368333,1762.019645
1307.274830,6587.832884,-10066.800811,1378.971896
1307.275159,6143.709319,-9844.739029,1455.581446
1307.275488,5181.441594,-9326.594869,689.485948
1307.275817,4293.194464,-8660.409521,612.876398
1307.276146,4145.153275,-6735.874072,153.219100
1307.276475,4737.318029,-5921.647536,-383.047749
1307.276804,5995.668130,-4441.235652,-612.876398
1307.277134,7179.997637,-4515.256246,459.657299
1307.277463,8512.368333,-4589.276840,1225.752797
1307.277792,9326.594869,-3997.112087,2298.286494
1307.278121,9622.677246,-4737.318029,2528.115143
1307.278450,9178.553681,-5107.421000,2298.286494
1307.278779,7772.162391,-7254.018232,2145.067394
1307.279108,6957.935855,-8438.347739,2068.457845
1307.279437,6513.812290,-9918.759623,1455.581446
1307.279767,6069.688724,-10214.842000,1149.143247
1307.280096,5181.441594,-9918.759623,1149.143247
1307.280425,4589.276840,-9326.594869,383.047749
1307.280754,4737.318029,-7698.141797,459.657299
1307.281083,5107.421000,-5995.668130,306.438199
1307.281412,6143.709319,-4367.215058,0.000000
1307.281741,7179.997637,-2368.659014,0.000000
1307.282070,8068.244768,-2368.659014,1149.143247
1307.282400,9252.574275,-2812.782580,1532.190996
1307.282729,9918.759623,-3701.029710,2451.505594
1307.283058,9622.677246,-4737.318029,2374.896044
1307.283387,8364.327145,-6217.729913,2145.067394
1307.283716,7328.038826,-7624.121203,1991.848295
1307.284045,6883.915261,-8956.491898,1378.971896
1307.284374,6661.853478,-9548.656652,1378.971896
1307.284703,5847.626942,-9770.718434,1225.752797
1307.285033,5477.523971,-8512.368333,919.314598
1307.285362,6143.709319,-7402.059420,919.314598
1307.285691,5403.503377,-6587.832884,0.000000
1307.286020,5181.441594,-5107.421000,0.000000
1307.286349,6217.729913,-4441.235652,-306.438199
1307.286678,7179.997637,-4293.194464,153.219100
1307.287007,7698.141797,-4219.173869,1378.971896
1307.287336,8660.409521,-4367.215058,2145.067394
1307.287665,8734.430116,-5403.503377,2068.457845
1307.287995,7772.162391,-6365.771101,1838.629195
1307.288324,6957.935855,-7698.141797,1915.238745
1307.288653,6809.894666,-9696.697840,1225.752797
1307.288982,6587.832884,-10436.903782,1378.971896
1307.289311,6291.750507,-11251.130318,1378.971896
1307.289640,6069.688724,-10214.842000,995.924147
1307.289969,5107.421000,-8734.430116,459.657299
1307.290298,5033.400406,-6883.915261,0.000000
1307.290627,6291.750507,-4959.379811,0.000000
1307.290957,7254.018232,-3108.864956,76.609550
1307.291286,8216.285956,-2442.679609,842.705048
1307.291615,8290.306550,-1998.556043,306.438199
1307.291944,8586.388927,-2738.761985,1302.362347
1307.292273,8956.491898,-4293.194464,2145.067394
1307.292602,9326.594869,-5921.647536,2451.505594
1307.292931,8290.306550,-6587.832884,2221.676944
1307.293260,7402.059420,-8142.265362,1685.410096
1307.293589,7254.018232,-10066.800811,1685.410096
1307.293919,6587.832884,-10362.883188,1915.238745
1307.294248,5773.606348,-9696.697840,689.485948
1307.294577,4885.359217,-9104.533087,612.876398
1307.294906,4071.132681,-8142.265362,0.000000
1307.295235,3775.050304,-7254.018232,-459.657299
1307.295564,4663.297435,-5921.647536,-76.609550
1307.295893,6883.915261,-4811.338623,0.000000
1307.296222,7254.018232,-2442.679609,383.047749
1307.296551,8438.347739,-2886.803174,1302.362347
1307.296881,9548.656652,-3478.967927,2145.067394
1307.297210,9474.636058,-4219.173869,2681.334243
1307.297539,8364.327145,-6883.915261,1991.848295
1307.297868,7179.997637,-8438.347739,1608.800546
1307.298197,6513.812290,-9400.615463,1455.581446
1307.298526,5625.565159,-11251.130318,766.095498
1307.298855,5551.544565,-10732.986159,1455.581446
1307.299184,5329.482782,-9770.718434,1149.143247
1307.299513,5551.544565,-8364.327145,229.828649
1307.299843,5181.441594,-6439.791695,306.438199
1307.300172,5181.441594,-5477.523971,76.609550
1307.300501,5403.503377,-3701.029710,-459.657299
1307.300830,6217.729913,-2886.803174,0.000000
1307.301159,8290.306550,-2368.659014,1149.143247
1307.301488,10584.944971,-2812.782580,2604.724693
1307.301817,11843.295072,-2886.803174,3830.477490
1307.302146,10658.965565,-4219.173869,2987.772442
1307.302475,8882.471304,-5329.482782,1762.019645
1307.302805,6957.935855,-7624.121203,1455.581446
1307.303134,6513.812290,-9622.677246,995.924147
1307.303463,5921.647536,-10732.986159,1378.971896
1307.303792,5033.400406,-10807.006753,536.266849
1307.304121,4737.318029,-9992.780217,306.438199
1307.304450,4367.215058,-9030.512492,306.438199
1307.304779,4219.173869,-7105.977043,-306.438199
1307.305108,4737.318029,-5995.668130,-919.314598
1307.305437,5699.585753,-4441.235652,-459.657299
1307.305767,6883.915261,-3256.906145,0.000000
1307.306096,8512.368333,-2960.823768,1532.190996
1307.306425,9992.780217,-3478.967927,2528.115143
1307.306754,10658.965565,-4737.318029,2681.334243
1307.307083,9548.656652,-5995.668130,2528.115143
1307.307412,8142.265362,-6883.915261,2221.676944
1307.307741,7105.977043,-8586.388927,1838.629195
1307.308070,6365.771101,-10066.800811,1378.971896
1307.308399,5551.544565,-9918.759623,995.924147
1307.308729,4589.276840,-10436.903782,229.828649
1307.309058,3701.029710,-9104.533087,459.657299
1307.309387,3478.967927,-7772.162391,-306.438199
1307.309716,4071.132681,-6291.750507,0.000000
1307.310045,5551.544565,-4663.297435,-383.047749
1307.310374,7105.977043,-3256.906145,306.438199
1307.310703,9178.553681,-2294.638420,1378.971896
1307.311032,10881.027347,-2146.597232,2145.067394
1307.311361,11917.315666,-2146.597232,2374.896044
1307.311691,11547.212695,-4071.132681,2834.553343
1307.312020,9326.594869,-6069.688724,1915.238745
1307.312349,7402.059420,-8586.388927,1378.971896
1307.312678,6661.853478,-9696.697840,995.924147
1307.313007,5995.668130,-10436.903782,0.000000
1307.313336,5773.606348,-10658.965565,1149.143247
1307.313665,5255.462188,-9548.656652,919.314598
1307.313994,4367.215058,-8290.306550,536.266849
1307.314323,3701.029710,-7105.977043,-612.876398
1307.314653,3923.091493,-5847.626942,-1302.362347
1307.314982,4959.379811,-5107.421000,-766.095498
1307.315311,6809.894666,-4515.256246,536.266849
1307.315640,8586.388927,-3997.112087,2068.457845
1307.315969,10584.944971,-3552.988522,2681.334243
1307.316298,11103.089130,-3552.988522,3600.648841
1307.316627,9992.780217,-4885.359217,3064.381992
1307.316956,8216.285956,-6217.729913,2451.505594
1307.317285,6513.812290,-8586.388927,842.705048
1307.317615,5403.503377,-10288.862594,612.876398
1307.317944,4811.338623,-11029.068536,536.266849
1307.318273,4589.276840,-10510.924376,536.266849
1307.318602,5107.421000,-9474.636058,383.047749
1307.318931,4737.318029,-7994.224174,306.438199
